"trial_type","trial_index","time_elapsed","internal_node_id","task_version","subject_id","assigned_condition","age","gender","rest","success","timeout","failed_images","failed_audio","failed_video","browser_interaction","rt","stimulus","response","task_part","environment","score","rewardMap","correct","fullState","isCatch","audioStim","slider_start","answer","error","trial_num","condition","order","bonus"
"pavlovia","0","1117","0.0-0.0","pilot_wm_v1","null","6","null","null","false","","","","","","","","","","","","","","","","","","","","","","","",""
"preload","1","12654","0.0-1.0","pilot_wm_v1","null","6","null","null","false","true","false","[]","[]","[]","[{""event"":""fullscreenenter"",""trial"":2,""time"":21254}]","","","","","","","","","","","","","","","","","",""
"fullscreen","2","22233","0.0-2.0","pilot_wm_v1","null","6","null","null","false","true","","","","","","","","","","","","","","","","","","","","","","",""
"audio-button-response","3","24190","0.0-3.0-0.0-0.0","pilot_wm_v1","null","6","null","null","false","","","","","","","1877","./assets/audio/audiotest/turtle.mp3","2","audio_test","","","","","","","","","","","","","",""
"learning-instructions","4","33278","0.0-3.0-1.0-0.0","pilot_wm_v1","null","6","null","null","false","","","","","","","2083.5","<p> Welcome! Please remember to stay in fullscreen mode and don't click away from the experiment. </p>","","instructions","","","","","","","","","","","","","",""
"learning-instructions","5","42773","0.0-3.0-1.0-0.1","pilot_wm_v1","null","6","null","null","false","","","","","","","1050.1000000014901","<p> Today you will be playing a game to earn treasure. </p>
            <p> At the end of the experiment, you will earn a bonus based on how much treasure you find. </p>
            <img src='./assets/img/instructions/treasure.jpg' class='instructions-image'>","","instructions","","","","","","","","","","","","","",""
"learning-instructions","6","51958","0.0-3.0-1.0-0.2","pilot_wm_v1","null","6","null","null","false","","","","","","","911.1000000014901","<p> Animals have hidden treasure in treasure chests. </p>
            <p> You need to first find an animal and then choose which of their treasure chests to search. </p>
            <img src='./assets/img/space/animals/cat.jpg' class='instructions-image'>","","instructions","","","","","","","","","","","","","",""
"learning-instructions","7","65957","0.0-3.0-1.0-0.3","pilot_wm_v1","null","6","null","null","false","","","","","","","817.8999999985099","<p> In each round, you will search for treasure in a different place. In the real game, there will be two rounds. </p>
            <p> You will begin with a separate, practice round where you will search for treasure in outer space. </p>
            <img src='./assets/img/space/0.jpg' class='instructions-image'>","","instructions","","","","","","","","","","","","","",""
"learning-instructions","8","79353","0.0-3.0-1.0-0.4","pilot_wm_v1","null","6","null","null","false","","","","","","","1945.6999999955297","<p> On every turn, you will see a picture of the place that you are in, but the specific image may be different each time. </p>
            <p> For example, both of these images mean you are in outer space. </p>
            <img src='./assets/img/instructions/outerspace.jpg' class='instructions-image'>","","instructions","","","","","","","","","","","","","",""
"learning-instructions","9","88417","0.0-3.0-1.0-0.5","pilot_wm_v1","null","6","null","null","false","","","","","","","1195.2999999970198","<p> You need to decide which direction to travel in. </p>
            <p> You can choose between going <b>up or down</b> by using the arrow keys. </p>
            <img src='./assets/img/instructions/updown.jpg' class='instructions-image'>","","instructions","","","","","","","","","","","","","",""
"learning-instructions","10","98670","0.0-3.0-1.0-0.6","pilot_wm_v1","null","6","null","null","false","","","","","","","1409.8999999985099","<p> You will have <b>2 seconds</b> to make your choice. </p>
            <p> If you do not make a choice within 2 seconds, you will not find an animal or earn treasure. </p>
            <img src='./assets/img/instructions/2seconds.jpg' class='instructions-image'>","","instructions","","","","","","","","","","","","","",""
"learning-instructions","11","107772","0.0-3.0-1.0-0.7","pilot_wm_v1","null","6","null","null","false","","","","","","","2051.1999999955297","<p> Let’s try practicing that now! </p>
            <p> When you see a picture of the place you are in, press the <b>up</b> key to travel up. </p>
            <img src='./assets/img/instructions/pressUp.jpg' class='instructions-image'>","","instructions","","","","","","","","","","","","","",""
"revaluation","12","111805","0.0-3.0-2.0-0.0","pilot_wm_v1","null","6","null","null","false","","false","","","","","[350.6000000014901]","./assets/img/space/0.jpg","[""ArrowUp""]","first stage practice","space","0","null","null","ArrowUp","false","","","","","","","",""
"html-keyboard-response","13","112308","0.0-3.0-2.0-1.0","pilot_wm_v1","null","6","null","null","false","","","","","","","null","<div style=""font-size:60px;"">+</div>","null","fixation","","","","","","","","","","","","","",""
"revaluation","14","116317","0.0-3.0-2.0-0.1","pilot_wm_v1","null","6","null","null","false","","false","","","","","[1517.6999999955297]","./assets/img/space/1.jpg","[""ArrowUp""]","first stage practice","space","0","null","null","ArrowUp","false","","","","","","","",""
"html-keyboard-response","15","116819","0.0-3.0-2.0-1.1","pilot_wm_v1","null","6","null","null","false","","","","","","","null","<div style=""font-size:60px;"">+</div>","null","fixation","","","","","","","","","","","","","",""
"revaluation","16","120827","0.0-3.0-2.0-0.2","pilot_wm_v1","null","6","null","null","false","","false","","","","","[1488.5]","./assets/img/space/2.jpg","[""ArrowUp""]","first stage practice","space","0","null","null","ArrowUp","false","","","","","","","",""
"html-keyboard-response","17","121329","0.0-3.0-2.0-1.2","pilot_wm_v1","null","6","null","null","false","","","","","","","null","<div style=""font-size:60px;"">+</div>","null","fixation","","","","","","","","","","","","","",""
"learning-instructions","18","128343","0.0-3.0-3.0-0.0","pilot_wm_v1","null","6","null","null","false","","","","","","","2300.5","<p> Great job! Now try pressing the <b>down</b> key to travel down. </p>
            <img src='./assets/img/instructions/pressDown.jpg' class='instructions-image'>","","instructions","","","","","","","","","","","","","",""
"revaluation","19","132350","0.0-3.0-4.0-0.0","pilot_wm_v1","null","6","null","null","false","","false","","","","","[405.29999999701977]","./assets/img/space/3.jpg","[""ArrowDown""]","first stage practice","space","0","null","null","ArrowDown","false","","","","","","","",""
"html-keyboard-response","20","132851","0.0-3.0-4.0-1.0","pilot_wm_v1","null","6","null","null","false","","","","","","","null","<div style=""font-size:60px;"">+</div>","null","fixation","","","","","","","","","","","","","",""
"revaluation","21","136858","0.0-3.0-4.0-0.1","pilot_wm_v1","null","6","null","null","false","","false","","","","","[516.1999999955297]","./assets/img/space/4.jpg","[""ArrowDown""]","first stage practice","space","0","null","null","ArrowDown","false","","","","","","","",""
"html-keyboard-response","22","137360","0.0-3.0-4.0-1.1","pilot_wm_v1","null","6","null","null","false","","","","","","","null","<div style=""font-size:60px;"">+</div>","null","fixation","","","","","","","","","","","","","",""
"revaluation","23","141367","0.0-3.0-4.0-0.2","pilot_wm_v1","null","6","null","null","false","","false","","","","","[526.9000000059605]","./assets/img/space/5.jpg","[""ArrowDown""]","first stage practice","space","0","null","null","ArrowDown","false","","","","","","","",""
"html-keyboard-response","24","141869","0.0-3.0-4.0-1.2","pilot_wm_v1","null","6","null","null","false","","","","","","","null","<div style=""font-size:60px;"">+</div>","null","fixation","","","","","","","","","","","","","",""
"learning-instructions","25","153639","0.0-3.0-5.0-0.0","pilot_wm_v1","null","6","null","null","false","","","","","","","1888.5","<p> The animals don’t move, so the animal in the upper part of a place will stay in the upper part of a place, and the animal in the lower part of a place will stay in the lower part of a place. </p>","","instructions","","","","","","","","","","","","","",""
"learning-instructions","26","164739","0.0-3.0-5.0-0.1","pilot_wm_v1","null","6","null","null","false","","","","","","","1925.6999999955297","<p> Each animal has two treasure chests for you to choose from. </p>
            <p> The amount of treasure in each chest can range from <b> 0 to 40 pieces.</b></p>","","instructions","","","","","","","","","","","","","",""
"learning-instructions","27","177967","0.0-3.0-5.0-0.2","pilot_wm_v1","null","6","null","null","false","","","","","","","2009.8999999985099","<p> You should decide which chest to search for treasure by using the <b>left</b> and <b>right</b> arrow keys. </p>
            <p><b> Pay attention to which animal is on the screen, as the animals have different treasure chests. </b></p>
            <img src='./assets/img/instructions/leftright.jpg' class='instructions-image'>","","instructions","","","","","","","","","","","","","",""
"learning-instructions","28","185752","0.0-3.0-5.0-0.3","pilot_wm_v1","null","6","null","null","false","","","","","","","1388.8999999985099","<p> Let’s try practicing that now. </p>
            <p> When you see an animal, choose which chest to search for treasure. </p>
            <img src='./assets/img/instructions/chooseChest.jpg' class='instructions-image'>","","instructions","","","","","","","","","","","","","",""
"revaluation","29","189758","0.0-3.0-6.0-0.0","pilot_wm_v1","null","6","null","null","false","","false","","","","","[824.5]","./assets/img/space/animals/cat.jpg","[""ArrowRight""]","second stage practice","space","36","{""ArrowUp,ArrowLeft"":3,""ArrowUp,ArrowRight"":36,""ArrowDown,ArrowLeft"":15,""ArrowDown,ArrowRight"":23}","true","ArrowUp,ArrowRight","","","","","","","","",""
"html-keyboard-response","30","190261","0.0-3.0-6.0-1.0","pilot_wm_v1","null","6","null","null","false","","","","","","","null","<div style=""font-size:60px;"">+</div>","null","fixation","","","","","","","","","","","","","",""
"revaluation","31","194267","0.0-3.0-6.0-0.1","pilot_wm_v1","null","6","null","null","false","","false","","","","","[906.7999999970198]","./assets/img/space/animals/rabbit.jpg","[""ArrowRight""]","second stage practice","space","23","{""ArrowUp,ArrowLeft"":3,""ArrowUp,ArrowRight"":36,""ArrowDown,ArrowLeft"":15,""ArrowDown,ArrowRight"":23}","true","ArrowDown,ArrowRight","","","","","","","","",""
"html-keyboard-response","32","194769","0.0-3.0-6.0-1.1","pilot_wm_v1","null","6","null","null","false","","","","","","","null","<div style=""font-size:60px;"">+</div>","null","fixation","","","","","","","","","","","","","",""
"revaluation","33","198775","0.0-3.0-6.0-0.2","pilot_wm_v1","null","6","null","null","false","","false","","","","","[758]","./assets/img/space/animals/rabbit.jpg","[""ArrowLeft""]","second stage practice","space","15","{""ArrowUp,ArrowLeft"":3,""ArrowUp,ArrowRight"":36,""ArrowDown,ArrowLeft"":15,""ArrowDown,ArrowRight"":23}","false","ArrowDown,ArrowLeft","","","","","","","","",""
"html-keyboard-response","34","199278","0.0-3.0-6.0-1.2","pilot_wm_v1","null","6","null","null","false","","","","","","","null","<div style=""font-size:60px;"">+</div>","null","fixation","","","","","","","","","","","","","",""
"revaluation","35","203285","0.0-3.0-6.0-0.3","pilot_wm_v1","null","6","null","null","false","","false","","","","","[1168.7000000029802]","./assets/img/space/animals/cat.jpg","[""ArrowRight""]","second stage practice","space","36","{""ArrowUp,ArrowLeft"":3,""ArrowUp,ArrowRight"":36,""ArrowDown,ArrowLeft"":15,""ArrowDown,ArrowRight"":23}","true","ArrowUp,ArrowRight","","","","","","","","",""
"html-keyboard-response","36","203788","0.0-3.0-6.0-1.3","pilot_wm_v1","null","6","null","null","false","","","","","","","null","<div style=""font-size:60px;"">+</div>","null","fixation","","","","","","","","","","","","","",""
"learning-instructions","37","222381","0.0-3.0-7.0-0.0","pilot_wm_v1","null","6","null","null","false","","","","","","","1747.5","<p> Great job. Now let’s try putting it together. </p>
            <p> On each turn, you will first see a picture to remind you of the place you are in, and you need to choose whether to go up or down. </p>
            <p> Then you will see an animal and choose which of its chests to search for treasure. </p>","","instructions","","","","","","","","","","","","","",""
"learning-instructions","38","232284","0.0-3.0-7.0-0.1","pilot_wm_v1","null","6","null","null","false","","","","","","","1611.8999999985099","<p> When you choose whether to go up or down, try to go to the animal with the chest with the most treasure. </p>
            <p> Try practicing that now! </p>","","instructions","","","","","","","","","","","","","",""
"revaluation","39","238289","0.0-3.0-8.0-0.0","pilot_wm_v1","null","6","null","null","false","","false","","","","","[570.2999999970198,688]","./assets/img/space/6.jpg","[""ArrowUp"",""ArrowRight""]","full practice","space","36","{""ArrowUp,ArrowLeft"":3,""ArrowUp,ArrowRight"":36,""ArrowDown,ArrowLeft"":15,""ArrowDown,ArrowRight"":23}","true","ArrowUp,ArrowRight","false","","","","","","","",""
"html-keyboard-response","40","238790","0.0-3.0-8.0-1.0","pilot_wm_v1","null","6","null","null","false","","","","","","","null","<div style=""font-size:60px;"">+</div>","null","fixation","","","","","","","","","","","","","",""
"revaluation","41","244796","0.0-3.0-8.0-0.1","pilot_wm_v1","null","6","null","null","false","","false","","","","","[753.1999999955297,502.1000000014901]","./assets/img/space/7.jpg","[""ArrowUp"",""ArrowLeft""]","full practice","space","3","{""ArrowUp,ArrowLeft"":3,""ArrowUp,ArrowRight"":36,""ArrowDown,ArrowLeft"":15,""ArrowDown,ArrowRight"":23}","false","ArrowUp,ArrowLeft","false","","","","","","","",""
"html-keyboard-response","42","245297","0.0-3.0-8.0-1.1","pilot_wm_v1","null","6","null","null","false","","","","","","","null","<div style=""font-size:60px;"">+</div>","null","fixation","","","","","","","","","","","","","",""
"revaluation","43","251304","0.0-3.0-8.0-0.2","pilot_wm_v1","null","6","null","null","false","","false","","","","","[745.5,481.3999999985099]","./assets/img/space/8.jpg","[""ArrowUp"",""ArrowRight""]","full practice","space","36","{""ArrowUp,ArrowLeft"":3,""ArrowUp,ArrowRight"":36,""ArrowDown,ArrowLeft"":15,""ArrowDown,ArrowRight"":23}","true","ArrowUp,ArrowRight","false","","","","","","","",""
"html-keyboard-response","44","251806","0.0-3.0-8.0-1.2","pilot_wm_v1","null","6","null","null","false","","","","","","","null","<div style=""font-size:60px;"">+</div>","null","fixation","","","","","","","","","","","","","",""
"revaluation","45","257812","0.0-3.0-8.0-0.3","pilot_wm_v1","null","6","null","null","false","","false","","","","","[491.6000000014901,1012.6999999955297]","./assets/img/space/9.jpg","[""ArrowDown"",""ArrowRight""]","full practice","space","23","{""ArrowUp,ArrowLeft"":3,""ArrowUp,ArrowRight"":36,""ArrowDown,ArrowLeft"":15,""ArrowDown,ArrowRight"":23}","false","ArrowDown,ArrowRight","false","","","","","","","",""
"html-keyboard-response","46","258314","0.0-3.0-8.0-1.3","pilot_wm_v1","null","6","null","null","false","","","","","","","null","<div style=""font-size:60px;"">+</div>","null","fixation","","","","","","","","","","","","","",""
"revaluation","47","264322","0.0-3.0-8.0-0.4","pilot_wm_v1","null","6","null","null","false","","false","","","","","[479,754.2000000029802]","./assets/img/space/10.jpg","[""ArrowDown"",""ArrowRight""]","full practice","space","23","{""ArrowUp,ArrowLeft"":3,""ArrowUp,ArrowRight"":36,""ArrowDown,ArrowLeft"":15,""ArrowDown,ArrowRight"":23}","false","ArrowDown,ArrowRight","false","","","","","","","",""
"html-keyboard-response","48","264824","0.0-3.0-8.0-1.4","pilot_wm_v1","null","6","null","null","false","","","","","","","null","<div style=""font-size:60px;"">+</div>","null","fixation","","","","","","","","","","","","","",""
"learning-instructions","49","276711","0.0-3.0-9.0-0.0","pilot_wm_v1","null","6","null","null","false","","","","","","","1571.5999999940395","<p> One last thing: sometimes, you will see a robber. The robber can be anywhere in the picture. </p>
            <p> If you do not stop them, you will lose treasure. </p>
            <img src='./assets/img/instructions/robber.jpg' class='instructions-image'>","","instructions","","","","","","","","","","","","","",""
"learning-instructions","50","285582","0.0-3.0-9.0-0.1","pilot_wm_v1","null","6","null","null","false","","","","","","","1662.7999999970198","<p> If you see the robber, you should <b>press the space bar</b> rather than using the arrow keys. </p>
            <p> Try practicing that now! </p>","","instructions","","","","","","","","","","","","","",""
"revaluation","51","289588","0.0-3.0-10.0-0.0","pilot_wm_v1","null","6","null","null","false","","false","","","","","[811.6000000014901]","./assets/img/space/catch/0.jpg","[""spaceBar""]","catch practice","space","0","{""ArrowUp,ArrowLeft"":3,""ArrowUp,ArrowRight"":36,""ArrowDown,ArrowLeft"":15,""ArrowDown,ArrowRight"":23}","true","spaceBar","true","","","","","","","",""
"html-keyboard-response","52","290090","0.0-3.0-10.0-1.0","pilot_wm_v1","null","6","null","null","false","","","","","","","null","<div style=""font-size:60px;"">+</div>","null","fixation","","","","","","","","","","","","","",""
"revaluation","53","294097","0.0-3.0-10.0-0.1","pilot_wm_v1","null","6","null","null","false","","false","","","","","[489.90000000596046]","./assets/img/space/catch/1.jpg","[""spaceBar""]","catch practice","space","0","{""ArrowUp,ArrowLeft"":3,""ArrowUp,ArrowRight"":36,""ArrowDown,ArrowLeft"":15,""ArrowDown,ArrowRight"":23}","true","spaceBar","true","","","","","","","",""
"html-keyboard-response","54","294599","0.0-3.0-10.0-1.1","pilot_wm_v1","null","6","null","null","false","","","","","","","null","<div style=""font-size:60px;"">+</div>","null","fixation","","","","","","","","","","","","","",""
"revaluation","55","298605","0.0-3.0-10.0-0.2","pilot_wm_v1","null","6","null","null","false","","false","","","","","[597.2000000029802]","./assets/img/space/catch/2.jpg","[""spaceBar""]","catch practice","space","0","{""ArrowUp,ArrowLeft"":3,""ArrowUp,ArrowRight"":36,""ArrowDown,ArrowLeft"":15,""ArrowDown,ArrowRight"":23}","true","spaceBar","true","","","","","","","",""
"html-keyboard-response","56","299108","0.0-3.0-10.0-1.2","pilot_wm_v1","null","6","null","null","false","","","","","","","null","<div style=""font-size:60px;"">+</div>","null","fixation","","","","","","","","","","","","","",""
"learning-instructions","57","306212","0.0-3.0-11.0-0.0","pilot_wm_v1","null","6","null","null","false","","","","","","","1564.8000000044703","<p> Sometimes, you will come across a special kind of treasure chest that requires a password. </p>
            <img src='./assets/img/instructions/beep_chest.jpg' class='instructions-image'>","","instructions","","","","","","","","","","","","","",""
"learning-instructions","58","330572","0.0-3.0-11.0-0.1","pilot_wm_v1","null","6","null","null","false","","","","","","","2702","<p> Your friend will send you the password using a series of beeps so that you can open the chest and earn treasure. </p>
            <p> You will hear two kinds of beeps, a high beep and a low beep. </p>
            <p> You should report the number of high beeps that you heard before seeing the chest. </p>
            <img src='./assets/img/instructions/listen.jpg' class='instructions-image'>","","instructions","","","","","","","","","","","","","",""
"learning-instructions","59","353800","0.0-3.0-11.0-0.2","pilot_wm_v1","null","6","null","null","false","","","","","","","914.2999999970198","<p> For example, if you hear this series of beeps, you should report 4 as the password using the slider. </p>
            <p> After reporting a password for a chest, you should count the high beeps again starting from 0. </p>
            <p> Let's try practicing that now. </p>","","instructions","","","","","","","","","","","","","",""
"audio-button-response","60","361900","0.0-3.0-12.0-0.0-0.0","pilot_wm_v1","null","6","null","null","false","","","","","","","null","./assets/audio/beeps/practice_6.wav","null","","","","","","","","","","","","","","",""
"html-slider-response","61","367988","0.0-3.0-12.0-0.0-1.0","pilot_wm_v1","null","6","null","null","false","","","","","","","6078","<div style=""width:500px;"">
        <p>What is the password?</p>
        <img src='./assets/img/instructions/beep_chest.jpg' class='instructions-image'>","6","","","","","false","","","","50","0","6","","","",""
"comp-q","62","374350","0.0-3.0-12.0-0.0-2.0","pilot_wm_v1","null","6","null","null","false","","","","","","","1563.7000000029802","<p>Correct! There were 6 high pitched beeps before you saw the chest. </p>","0","beep_answer","","","","","","","","","","","","","",""
"audio-button-response","63","382927","0.0-3.0-12.0-0.1-0.1","pilot_wm_v1","null","6","null","null","false","","","","","","","null","./assets/audio/beeps/practice_4.wav","null","","","","","","","","","","","","","","",""
"html-slider-response","64","388071","0.0-3.0-12.0-0.1-1.1","pilot_wm_v1","null","6","null","null","false","","","","","","","5141","<div style=""width:500px;"">
        <p>What is the password?</p>
        <img src='./assets/img/instructions/beep_chest.jpg' class='instructions-image'>","4","","","","","false","","","","50","0","4","","","",""
"comp-q","65","394391","0.0-3.0-12.0-0.1-2.1","pilot_wm_v1","null","6","null","null","false","","","","","","","1446.7999999970198","<p>Correct! There were 4 high pitched beeps before you saw the chest. </p>","0","beep_answer","","","","","","","","","","","","","",""
"learning-instructions","66","406522","0.0-3.0-13.0-0.0","pilot_wm_v1","null","6","null","null","false","","","","","","","1203.5","<p> Good job! In the real game we will not tell you if you entered the right password. </p>
            <p> Do your best, the treasure you earn from these chests will also give you extra bonus money. </p>","","instructions","","","","","","","","","","","","","",""
"learning-instructions","67","413263","0.0-3.0-15.0-0.0-0.0","pilot_wm_v1","null","6","null","null","false","","","","","","","1425.7999999970198","<p> Now, you will practice a shortened version of the game to get a sense of how it all fits together. </p>","","instructions","","","","","","","","","","","","","",""
"learning-instructions","68","417885","0.0-3.0-15.0-0.0-0.1","pilot_wm_v1","null","6","null","null","false","","","","","","","1397.3999999985099","<p>This time you are searching for treasure in outer space.</p>","","instructions","","","","","","","","","","","","","",""
"learning-instructions","69","434581","0.0-3.0-15.0-1.0-0.0","pilot_wm_v1","null","6","null","null","false","","","","","","","1865.8000000044703","<p> Remember, when you see a picture of the place, use the up and down keys to <b>find an animal</b>.</p>
            <p> When you encounter an animal, you should use the left and right keys to <b>select a treasure chest</b>.</p>
            <p> Don't forget to look out for the robber! </p>","","instructions","","","","","","","","","","","","","",""
"revaluation","70","440588","0.0-3.0-15.0-2.0-0.0","pilot_wm_v1","null","6","null","null","false","","false","","","","","[845.0999999940395,664.6000000014901]","./assets/img/space/11.jpg","[""ArrowUp"",""ArrowRight""]","practice block","space","36","{""ArrowUp,ArrowLeft"":3,""ArrowUp,ArrowRight"":36,""ArrowDown,ArrowLeft"":15,""ArrowDown,ArrowRight"":23}","true","ArrowUp,ArrowRight","false","","","","","","","",""
"html-keyboard-response","71","441090","0.0-3.0-15.0-2.0-1.0","pilot_wm_v1","null","6","null","null","false","","","","","","","null","<div style=""font-size:60px;"">+</div>","null","fixation","","","","","","","","","","","","","",""
"revaluation","72","447095","0.0-3.0-15.0-2.0-0.1","pilot_wm_v1","null","6","null","null","false","","false","","","","","[534.2999999970198,477.3999999985099]","./assets/img/space/12.jpg","[""ArrowUp"",""ArrowRight""]","practice block","space","36","{""ArrowUp,ArrowLeft"":3,""ArrowUp,ArrowRight"":36,""ArrowDown,ArrowLeft"":15,""ArrowDown,ArrowRight"":23}","true","ArrowUp,ArrowRight","false","","","","","","","",""
"html-keyboard-response","73","447596","0.0-3.0-15.0-2.0-1.1","pilot_wm_v1","null","6","null","null","false","","","","","","","null","<div style=""font-size:60px;"">+</div>","null","fixation","","","","","","","","","","","","","",""
"revaluation","74","453603","0.0-3.0-15.0-2.0-0.2","pilot_wm_v1","null","6","null","null","false","","false","","","","","[458.6000000014901,543.3000000044703]","./assets/img/space/13.jpg","[""ArrowUp"",""ArrowRight""]","practice block","space","36","{""ArrowUp,ArrowLeft"":3,""ArrowUp,ArrowRight"":36,""ArrowDown,ArrowLeft"":15,""ArrowDown,ArrowRight"":23}","true","ArrowUp,ArrowRight","false","","","","","","","",""
"html-keyboard-response","75","454105","0.0-3.0-15.0-2.0-1.2","pilot_wm_v1","null","6","null","null","false","","","","","","","null","<div style=""font-size:60px;"">+</div>","null","fixation","","","","","","","","","","","","","",""
"revaluation","76","460111","0.0-3.0-15.0-2.0-0.3","pilot_wm_v1","null","6","null","null","false","","false","","","","","[1047.1999999955297,684.3999999985099]","./assets/img/space/14.jpg","[""ArrowUp"",""ArrowRight""]","practice block","space","36","{""ArrowUp,ArrowLeft"":3,""ArrowUp,ArrowRight"":36,""ArrowDown,ArrowLeft"":15,""ArrowDown,ArrowRight"":23}","true","ArrowUp,ArrowRight","false","","","","","","","",""
"html-keyboard-response","77","460613","0.0-3.0-15.0-2.0-1.3","pilot_wm_v1","null","6","null","null","false","","","","","","","null","<div style=""font-size:60px;"">+</div>","null","fixation","","","","","","","","","","","","","",""
"revaluation","78","466620","0.0-3.0-15.0-2.0-0.4","pilot_wm_v1","null","6","null","null","false","","false","","","","","[926.2000000029802,399.8999999985099]","./assets/img/space/11.jpg","[""ArrowUp"",""ArrowRight""]","practice block","space","36","{""ArrowUp,ArrowLeft"":3,""ArrowUp,ArrowRight"":36,""ArrowDown,ArrowLeft"":15,""ArrowDown,ArrowRight"":23}","true","ArrowUp,ArrowRight","false","","","","","","","",""
"html-keyboard-response","79","467122","0.0-3.0-15.0-2.0-1.4","pilot_wm_v1","null","6","null","null","false","","","","","","","null","<div style=""font-size:60px;"">+</div>","null","fixation","","","","","","","","","","","","","",""
"revaluation","80","473129","0.0-3.0-15.0-2.0-0.5","pilot_wm_v1","null","6","null","null","false","","false","","","","","[588.8999999985099,544.6000000014901]","./assets/img/space/12.jpg","[""ArrowDown"",""ArrowLeft""]","practice block","space","15","{""ArrowUp,ArrowLeft"":3,""ArrowUp,ArrowRight"":36,""ArrowDown,ArrowLeft"":15,""ArrowDown,ArrowRight"":23}","false","ArrowDown,ArrowLeft","false","","","","","","","",""
"html-keyboard-response","81","473630","0.0-3.0-15.0-2.0-1.5","pilot_wm_v1","null","6","null","null","false","","","","","","","null","<div style=""font-size:60px;"">+</div>","null","fixation","","","","","","","","","","","","","",""
"revaluation","82","479638","0.0-3.0-15.0-2.0-0.6","pilot_wm_v1","null","6","null","null","false","","false","","","","","[511.29999999701977,380.8999999985099]","./assets/img/space/13.jpg","[""ArrowDown"",""ArrowRight""]","practice block","space","23","{""ArrowUp,ArrowLeft"":3,""ArrowUp,ArrowRight"":36,""ArrowDown,ArrowLeft"":15,""ArrowDown,ArrowRight"":23}","false","ArrowDown,ArrowRight","false","","","","","","","",""
"html-keyboard-response","83","480139","0.0-3.0-15.0-2.0-1.6","pilot_wm_v1","null","6","null","null","false","","","","","","","null","<div style=""font-size:60px;"">+</div>","null","fixation","","","","","","","","","","","","","",""
"revaluation","84","486147","0.0-3.0-15.0-2.0-0.7","pilot_wm_v1","null","6","null","null","false","","false","","","","","[559.5,423.6000000014901]","./assets/img/space/14.jpg","[""ArrowUp"",""ArrowRight""]","practice block","space","36","{""ArrowUp,ArrowLeft"":3,""ArrowUp,ArrowRight"":36,""ArrowDown,ArrowLeft"":15,""ArrowDown,ArrowRight"":23}","true","ArrowUp,ArrowRight","false","","","","","","","",""
"html-keyboard-response","85","486648","0.0-3.0-15.0-2.0-1.7","pilot_wm_v1","null","6","null","null","false","","","","","","","null","<div style=""font-size:60px;"">+</div>","null","fixation","","","","","","","","","","","","","",""
"revaluation","86","490654","0.0-3.0-15.0-2.0-0.8","pilot_wm_v1","null","6","null","null","false","","false","","","","","[783.2000000029802]","./assets/img/space/catch/3.jpg","[""spaceBar""]","practice block","space","0","{""ArrowUp,ArrowLeft"":3,""ArrowUp,ArrowRight"":36,""ArrowDown,ArrowLeft"":15,""ArrowDown,ArrowRight"":23}","true","spaceBar","true","","","","","","","",""
"html-keyboard-response","87","491156","0.0-3.0-15.0-2.0-1.8","pilot_wm_v1","null","6","null","null","false","","","","","","","null","<div style=""font-size:60px;"">+</div>","null","fixation","","","","","","","","","","","","","",""
"learning-instructions","88","505633","0.0-3.0-15.0-3.0-0.0","pilot_wm_v1","null","6","null","null","false","","","","","","","1548.6000000014901","<p> Now, you will travel with a friend who will choose whether you go up or down first. </p>
            <p> On these turns, you will just see the animal that they found. You will still get to choose which chest to search for treasure.</p>","","instructions","","","","","","","","","","","","","",""
"learning-instructions","89","563127","0.0-3.0-15.0-3.0-0.1","pilot_wm_v1","null","6","null","null","false","","","","","","","45269","<p> In this part, you will also hear beeps from your friend and see special treasure chests that need a password. </p>
            <p> Do your best to count the high beeps <b>and</b> choose between each animals' chests at the same time.</p>
            <img src='./assets/img/instructions/beep_chest.jpg' class='instructions-image'>","","instructions","","","","","","","","","","","","","",""
"revaluation","90","567134","0.0-3.0-15.0-4.0-0.0","pilot_wm_v1","null","6","null","null","false","","true","","","","","[]","./assets/img/space/animals/rabbit.jpg","[]","practice block","space","-5","{""ArrowUp,ArrowLeft"":3,""ArrowUp,ArrowRight"":36,""ArrowDown,ArrowLeft"":15,""ArrowDown,ArrowRight"":23}","false","ArrowDown","","[""21_1""]","","","","0","","",""
"html-keyboard-response","91","567641","0.0-3.0-15.0-4.0-1.0","pilot_wm_v1","null","6","null","null","false","","","","","","","null","<div style=""font-size:60px;"">+</div>","null","fixation","","","","","","","","","","","","","",""
"revaluation","92","571647","0.0-3.0-15.0-4.0-0.1","pilot_wm_v1","null","6","null","null","false","","false","","","","","[826.2999999970198]","./assets/img/space/animals/cat.jpg","[""ArrowRight""]","practice block","space","36","{""ArrowUp,ArrowLeft"":3,""ArrowUp,ArrowRight"":36,""ArrowDown,ArrowLeft"":15,""ArrowDown,ArrowRight"":23}","true","ArrowUp,ArrowRight","","[""20_0""]","","","","1","","",""
"html-keyboard-response","93","572149","0.0-3.0-15.0-4.0-1.1","pilot_wm_v1","null","6","null","null","false","","","","","","","null","<div style=""font-size:60px;"">+</div>","null","fixation","","","","","","","","","","","","","",""
"revaluation","94","576159","0.0-3.0-15.0-4.0-0.2","pilot_wm_v1","null","6","null","null","false","","false","","","","","[616]","./assets/img/space/animals/cat.jpg","[""ArrowRight""]","practice block","space","36","{""ArrowUp,ArrowLeft"":3,""ArrowUp,ArrowRight"":36,""ArrowDown,ArrowLeft"":15,""ArrowDown,ArrowRight"":23}","true","ArrowUp,ArrowRight","","[""19_0""]","","","","2","","",""
"html-keyboard-response","95","576661","0.0-3.0-15.0-4.0-1.2","pilot_wm_v1","null","6","null","null","false","","","","","","","null","<div style=""font-size:60px;"">+</div>","null","fixation","","","","","","","","","","","","","",""
"revaluation","96","580668","0.0-3.0-15.0-4.0-0.3","pilot_wm_v1","null","6","null","null","false","","false","","","","","[591]","./assets/img/space/animals/rabbit.jpg","[""ArrowRight""]","practice block","space","23","{""ArrowUp,ArrowLeft"":3,""ArrowUp,ArrowRight"":36,""ArrowDown,ArrowLeft"":15,""ArrowDown,ArrowRight"":23}","true","ArrowDown,ArrowRight","","[""22_3""]","","","","3","","",""
"html-keyboard-response","97","581169","0.0-3.0-15.0-4.0-1.3","pilot_wm_v1","null","6","null","null","false","","","","","","","null","<div style=""font-size:60px;"">+</div>","null","fixation","","","","","","","","","","","","","",""
"html-slider-response","98","590956","0.0-3.0-15.0-4.0-2.3-0.3","pilot_wm_v1","null","6","null","null","false","","","","","","","9782","<div style=""width:500px;"">
        <p>What is the password?</p>
        <img src='./assets/img/instructions/beep_chest.jpg' class='instructions-image'>","12","","","","","false","","","","50","82","70","","","",""
"learning-instructions","99","599098","0.0-3.0-15.0-6.0-0.0","pilot_wm_v1","null","6","null","null","false","","","","","","","null","<p> You have almost finished this part of the game! </p>
            <p> We are going to ask you to make a few more choices. </p>","","instructions","","","","","","","","","","","","","",""
"learning-instructions","100","615164","0.0-3.0-15.0-6.0-0.1","pilot_wm_v1","null","6","null","null","false","","","","","","","null","<p> First, you need to decide whether to go up or down. When you see each picture, use the arrow keys to make your choice. </p>
            <p><b>You will not see which animal you found, but try to get to the one that will give you the most treasure.</b></p>","","instructions","","","","","","","","","","","","","",""
"html-keyboard-response","101","616166","0.0-3.0-15.0-7.0-0.0","pilot_wm_v1","null","6","null","null","false","","","","","","","null","<div style=""font-size:100px;color:red;"">Starting in...</div>","null","","","","","","","","","","","","","","",""
"html-keyboard-response","102","617167","0.0-3.0-15.0-7.0-1.0","pilot_wm_v1","null","6","null","null","false","","","","","","","null","<div style=""font-size:200px;color:red;"">3</div>","null","","","","","","","","","","","","","","",""
"html-keyboard-response","103","618169","0.0-3.0-15.0-7.0-2.0","pilot_wm_v1","null","6","null","null","false","","","","","","","null","<div style=""font-size:200px;color:red;"">2</div>","null","","","","","","","","","","","","","","",""
"html-keyboard-response","104","619170","0.0-3.0-15.0-7.0-3.0","pilot_wm_v1","null","6","null","null","false","","","","","","","null","<div style=""font-size:200px;color:red;"">1</div>","null","","","","","","","","","","","","","","",""
"revaluation","105","619662","0.0-3.0-15.0-8.0","pilot_wm_v1","null","6","null","null","false","","false","","","","","[488.3999999985099]","./assets/img/space/15.jpg","[""ArrowUp""]","practice block","space","0","{""ArrowUp,ArrowLeft"":3,""ArrowUp,ArrowRight"":36,""ArrowDown,ArrowLeft"":15,""ArrowDown,ArrowRight"":23}","true","ArrowUp","false","","","","","","","",""
"html-keyboard-response","106","620164","0.0-3.0-15.0-9.0","pilot_wm_v1","null","6","null","null","false","","","","","","","null","<div style=""font-size:60px;"">+</div>","null","fixation","","","","","","","","","","","","","",""
"learning-instructions","107","633555","0.0-3.0-15.0-10.0-0.0","pilot_wm_v1","null","6","null","null","false","","","","","","","null","<p> Now you will see the animals again and can search their chests for treasure. </p>
            <p> This time, you will not see how much treasure you earned, but you will earn more bonus money for making better choices. </p>","","instructions","","","","","","","","","","","","","",""
"html-keyboard-response","108","634557","0.0-3.0-15.0-11.0-0.0","pilot_wm_v1","null","6","null","null","false","","","","","","","null","<div style=""font-size:100px;color:red;"">Starting in...</div>","null","","","","","","","","","","","","","","",""
"html-keyboard-response","109","635558","0.0-3.0-15.0-11.0-1.0","pilot_wm_v1","null","6","null","null","false","","","","","","","null","<div style=""font-size:200px;color:red;"">3</div>","null","","","","","","","","","","","","","","",""
"html-keyboard-response","110","636560","0.0-3.0-15.0-11.0-2.0","pilot_wm_v1","null","6","null","null","false","","","","","","","null","<div style=""font-size:200px;color:red;"">2</div>","null","","","","","","","","","","","","","","",""
"html-keyboard-response","111","637561","0.0-3.0-15.0-11.0-3.0","pilot_wm_v1","null","6","null","null","false","","","","","","","null","<div style=""font-size:200px;color:red;"">1</div>","null","","","","","","","","","","","","","","",""
"revaluation","112","638043","0.0-3.0-15.0-12.0-0.0","pilot_wm_v1","null","6","null","null","false","","false","","","","","[476.80000000447035]","./assets/img/space/animals/cat.jpg","[""ArrowRight""]","practice block","space","0","{""ArrowUp,ArrowLeft"":3,""ArrowUp,ArrowRight"":36,""ArrowDown,ArrowLeft"":15,""ArrowDown,ArrowRight"":23}","true","ArrowUp,ArrowRight","","","","","","","","",""
"html-keyboard-response","113","638545","0.0-3.0-15.0-12.0-1.0","pilot_wm_v1","null","6","null","null","false","","","","","","","null","<div style=""font-size:60px;"">+</div>","null","fixation","","","","","","","","","","","","","",""
"revaluation","114","639186","0.0-3.0-15.0-12.0-0.1","pilot_wm_v1","null","6","null","null","false","","false","","","","","[635.5999999940395]","./assets/img/space/animals/rabbit.jpg","[""ArrowRight""]","practice block","space","0","{""ArrowUp,ArrowLeft"":3,""ArrowUp,ArrowRight"":36,""ArrowDown,ArrowLeft"":15,""ArrowDown,ArrowRight"":23}","true","ArrowDown,ArrowRight","","","","","","","","",""
"html-keyboard-response","115","639687","0.0-3.0-15.0-12.0-1.1","pilot_wm_v1","null","6","null","null","false","","","","","","","null","<div style=""font-size:60px;"">+</div>","null","fixation","","","","","","","","","","","","","",""
"learning-instructions","116","648671","0.0-3.0-16.0-0.0","pilot_wm_v1","null","6","null","null","false","","","","","","","4367.60000000149","<p> Before you start, we're going to ask you a few questions about how the game works. </p>","","instructions","","","","","","","","","","","","","",""
"comp-q","117","657294","0.0-3.0-17.0-0.0-0.0","pilot_wm_v1","null","6","null","null","false","","","","","","","3004.39999999851","<p> <b> True or False? </b> </p>
            <p> There can be 50 pieces of treasure in a given animal's chest. </p>","1","comp_question","","","","true","","","","","","","","","",""
"comp-q","118","670592","0.0-3.0-17.0-0.0-1.0","pilot_wm_v1","null","6","null","null","false","","","","","","","6605.5","<p> <b> That's right! </b> The amount of treasure in each chest can range from 0 to 40 pieces. </p>","0","comp_answer","","","","","","","","","","","","","",""
"comp-q","119","680994","0.0-3.0-17.0-0.1-0.1","pilot_wm_v1","null","6","null","null","false","","","","","","","3245.89999999851","<p> <b> True or False? </b> </p><p> In this game, all animals have the same amount of treasure in their left and right chests. </p>","1","comp_question","","","","true","","","","","","","","","",""
"comp-q","120","688418","0.0-3.0-17.0-0.1-1.1","pilot_wm_v1","null","6","null","null","false","","","","","","","2168","<p> <b> That's right! </b> Animals have different amounts of treasure in their treasure chests. </p>","0","comp_answer","","","","","","","","","","","","","",""
"comp-q","121","696699","0.0-3.0-17.0-0.2-0.2","pilot_wm_v1","null","6","null","null","false","","","","","","","2426.60000000149","<p> <b> True or False? </b> </p><p> The same animal will always be there if you go up in the same place. </p>","0","comp_question","","","","true","","","","","","","","","",""
"comp-q","122","705064","0.0-3.0-17.0-0.2-1.2","pilot_wm_v1","null","6","null","null","false","","","","","","","1872.8999999985099","<p> <b> That's right! </b> One animal lives in the upper part and one lives in the lower part of every place. </p>","0","comp_answer","","","","","","","","","","","","","",""
"comp-q","123","712996","0.0-3.0-17.0-0.3-0.3","pilot_wm_v1","null","6","null","null","false","","","","","","","2369.39999999851","<p> <b> True or False? </b> </p><p> If you see a different picture, it means you are in a new place. </p>","0","comp_question","","","","false","","","","","","","","","",""
"comp-q","124","725357","0.0-3.0-17.0-0.3-1.3","pilot_wm_v1","null","6","null","null","false","","","","","","","1214.6000000014901","<p> <b>Incorrect.</b> Lots of different images may show the same place. For example,  you may see three different images that all remind you that you are in outer space. </p>","0","comp_answer","","","","","","","","","","","","","",""
"comp-q","125","731686","0.0-3.0-17.0-0.4-0.4","pilot_wm_v1","null","6","null","null","false","","","","","","","823.1999999955297","<p> <b> True or False? </b> </p><p> If you see a different picture, it means you are in a new place. </p>","1","comp_question","","","","true","","","","","","","","","",""
"comp-q","126","744207","0.0-3.0-17.0-0.4-1.4","pilot_wm_v1","null","6","null","null","false","","","","","","","1277.7999999970198","<p> <b> That's right! </b> Lots of different images may show the same place. For example,  you may see three different images that all remind you that you are in outer space. </p>","0","comp_answer","","","","","","","","","","","","","",""
"learning-instructions","127","755328","0.0-3.0-18.0-0.0","pilot_wm_v1","null","6","null","null","false","","","","","","","1251.6000000014901","<p> Good job. Remember to do your best because the amount of treasure you earn will be converted into bonus money. </p>
            <p> It’s time to start the real game! </p>","","instructions","","","","","","","","","","","","","",""
"learning-instructions","128","759348","0.0-4.0-0.0-0.0","pilot_wm_v1","null","6","null","null","false","","","","","","","1281","<p> This time you are searching for treasure in the <b>ocean</b>.</p>","","instructions","","","","","","","","","","","","","",""
"learning-instructions","129","777571","0.0-4.0-0.0-0.1","pilot_wm_v1","null","6","null","null","false","","","","","","","877.6999999955297","<p><b>New</b> animals with <b>new</b> treasure chests live here. You need to explore to discover where the animal with the best treasure chest is.</p>
                    <p> Like before, once you figure out which animal has the chest with the most treasure, you should try to get to that animal and select that chest! </p>","","instructions","","","","","","","","","","","","","",""
"learning-instructions","130","794097","0.0-4.0-1.0-0.0","pilot_wm_v1","null","6","null","null","false","","","","","","","1796.7000000029802","<p> Remember, when you see a picture of the place, use the up and down keys to <b>find an animal</b>.</p>
            <p> When you encounter an animal, you should use the left and right keys to <b>select a treasure chest</b>.</p>
            <p> Don't forget to look out for the robber! </p>","","instructions","","","","","","","","","","","","","",""
"revaluation","131","798103","0.0-4.0-2.0-0.0","pilot_wm_v1","null","6","null","null","false","","false","","","","","[800.5]","./assets/img/ocean/catch/7.jpg","[""ArrowUp""]","value training","ocean","-10","{""ArrowUp,ArrowLeft"":23,""ArrowUp,ArrowRight"":10,""ArrowDown,ArrowLeft"":8,""ArrowDown,ArrowRight"":30}","false","ArrowUp","true","","","","","0","revaluation","1",""
"html-keyboard-response","132","798610","0.0-4.0-2.0-1.0","pilot_wm_v1","null","6","null","null","false","","","","","","","null","<div style=""font-size:60px;"">+</div>","null","fixation","","","","","","","","","","","1","","",""
"revaluation","133","804617","0.0-4.0-2.0-0.1","pilot_wm_v1","null","6","null","null","false","","false","","","","","[583.3000000044703,701.5]","./assets/img/ocean/memory/6.jpg","[""ArrowUp"",""ArrowRight""]","value training","ocean","10","{""ArrowUp,ArrowLeft"":23,""ArrowUp,ArrowRight"":10,""ArrowDown,ArrowLeft"":8,""ArrowDown,ArrowRight"":30}","false","ArrowUp,ArrowRight","false","","","","","2","revaluation","1",""
"html-keyboard-response","134","805119","0.0-4.0-2.0-1.1","pilot_wm_v1","null","6","null","null","false","","","","","","","null","<div style=""font-size:60px;"">+</div>","null","fixation","","","","","","","","","","","3","","",""
"revaluation","135","811126","0.0-4.0-2.0-0.2","pilot_wm_v1","null","6","null","null","false","","false","","","","","[553.3000000044703,360.8999999985099]","./assets/img/ocean/memory/28.jpg","[""ArrowUp"",""ArrowLeft""]","value training","ocean","23","{""ArrowUp,ArrowLeft"":23,""ArrowUp,ArrowRight"":10,""ArrowDown,ArrowLeft"":8,""ArrowDown,ArrowRight"":30}","false","ArrowUp,ArrowLeft","false","","","","","4","revaluation","1",""
"html-keyboard-response","136","811629","0.0-4.0-2.0-1.2","pilot_wm_v1","null","6","null","null","false","","","","","","","null","<div style=""font-size:60px;"">+</div>","null","fixation","","","","","","","","","","","5","","",""
"revaluation","137","817635","0.0-4.0-2.0-0.3","pilot_wm_v1","null","6","null","null","false","","false","","","","","[527.8999999985099,738.3999999985099]","./assets/img/ocean/memory/32.jpg","[""ArrowDown"",""ArrowLeft""]","value training","ocean","8","{""ArrowUp,ArrowLeft"":23,""ArrowUp,ArrowRight"":10,""ArrowDown,ArrowLeft"":8,""ArrowDown,ArrowRight"":30}","false","ArrowDown,ArrowLeft","false","","","","","6","revaluation","1",""
"html-keyboard-response","138","818137","0.0-4.0-2.0-1.3","pilot_wm_v1","null","6","null","null","false","","","","","","","null","<div style=""font-size:60px;"">+</div>","null","fixation","","","","","","","","","","","7","","",""
"revaluation","139","824144","0.0-4.0-2.0-0.4","pilot_wm_v1","null","6","null","null","false","","false","","","","","[620.8000000044703,606.3999999985099]","./assets/img/ocean/memory/1.jpg","[""ArrowDown"",""ArrowRight""]","value training","ocean","30","{""ArrowUp,ArrowLeft"":23,""ArrowUp,ArrowRight"":10,""ArrowDown,ArrowLeft"":8,""ArrowDown,ArrowRight"":30}","true","ArrowDown,ArrowRight","false","","","","","8","revaluation","1",""
"html-keyboard-response","140","824645","0.0-4.0-2.0-1.4","pilot_wm_v1","null","6","null","null","false","","","","","","","null","<div style=""font-size:60px;"">+</div>","null","fixation","","","","","","","","","","","9","","",""
"revaluation","141","830649","0.0-4.0-2.0-0.5","pilot_wm_v1","null","6","null","null","false","","false","","","","","[574.6999999955297,454.3999999985099]","./assets/img/ocean/memory/13.jpg","[""ArrowDown"",""ArrowRight""]","value training","ocean","30","{""ArrowUp,ArrowLeft"":23,""ArrowUp,ArrowRight"":10,""ArrowDown,ArrowLeft"":8,""ArrowDown,ArrowRight"":30}","true","ArrowDown,ArrowRight","false","","","","","10","revaluation","1",""
"html-keyboard-response","142","831151","0.0-4.0-2.0-1.5","pilot_wm_v1","null","6","null","null","false","","","","","","","null","<div style=""font-size:60px;"">+</div>","null","fixation","","","","","","","","","","","11","","",""
"revaluation","143","837158","0.0-4.0-2.0-0.6","pilot_wm_v1","null","6","null","null","false","","false","","","","","[818.2000000029802,503.5]","./assets/img/ocean/memory/10.jpg","[""ArrowDown"",""ArrowRight""]","value training","ocean","30","{""ArrowUp,ArrowLeft"":23,""ArrowUp,ArrowRight"":10,""ArrowDown,ArrowLeft"":8,""ArrowDown,ArrowRight"":30}","true","ArrowDown,ArrowRight","false","","","","","12","revaluation","1",""
"html-keyboard-response","144","837660","0.0-4.0-2.0-1.6","pilot_wm_v1","null","6","null","null","false","","","","","","","null","<div style=""font-size:60px;"">+</div>","null","fixation","","","","","","","","","","","13","","",""
"revaluation","145","841666","0.0-4.0-2.0-0.7","pilot_wm_v1","null","6","null","null","false","","false","","","","","[771.1000000014901]","./assets/img/ocean/catch/2.jpg","[""spaceBar""]","value training","ocean","0","{""ArrowUp,ArrowLeft"":23,""ArrowUp,ArrowRight"":10,""ArrowDown,ArrowLeft"":8,""ArrowDown,ArrowRight"":30}","true","spaceBar","true","","","","","14","revaluation","1",""
"html-keyboard-response","146","842168","0.0-4.0-2.0-1.7","pilot_wm_v1","null","6","null","null","false","","","","","","","null","<div style=""font-size:60px;"">+</div>","null","fixation","","","","","","","","","","","15","","",""
"revaluation","147","848174","0.0-4.0-2.0-0.8","pilot_wm_v1","null","6","null","null","false","","false","","","","","[742.5999999940395,421.79999999701977]","./assets/img/ocean/memory/35.jpg","[""ArrowDown"",""ArrowRight""]","value training","ocean","30","{""ArrowUp,ArrowLeft"":23,""ArrowUp,ArrowRight"":10,""ArrowDown,ArrowLeft"":8,""ArrowDown,ArrowRight"":30}","true","ArrowDown,ArrowRight","false","","","","","16","revaluation","1",""
"html-keyboard-response","148","848676","0.0-4.0-2.0-1.8","pilot_wm_v1","null","6","null","null","false","","","","","","","null","<div style=""font-size:60px;"">+</div>","null","fixation","","","","","","","","","","","17","","",""
"revaluation","149","854683","0.0-4.0-2.0-0.9","pilot_wm_v1","null","6","null","null","false","","false","","","","","[604.2000000029802,448]","./assets/img/ocean/memory/0.jpg","[""ArrowDown"",""ArrowRight""]","value training","ocean","30","{""ArrowUp,ArrowLeft"":23,""ArrowUp,ArrowRight"":10,""ArrowDown,ArrowLeft"":8,""ArrowDown,ArrowRight"":30}","true","ArrowDown,ArrowRight","false","","","","","18","revaluation","1",""
"html-keyboard-response","150","855185","0.0-4.0-2.0-1.9","pilot_wm_v1","null","6","null","null","false","","","","","","","null","<div style=""font-size:60px;"">+</div>","null","fixation","","","","","","","","","","","19","","",""
"revaluation","151","861191","0.0-4.0-2.0-0.10","pilot_wm_v1","null","6","null","null","false","","false","","","","","[473.80000000447035,479.6000000014901]","./assets/img/ocean/memory/8.jpg","[""ArrowDown"",""ArrowRight""]","value training","ocean","30","{""ArrowUp,ArrowLeft"":23,""ArrowUp,ArrowRight"":10,""ArrowDown,ArrowLeft"":8,""ArrowDown,ArrowRight"":30}","true","ArrowDown,ArrowRight","false","","","","","20","revaluation","1",""
"html-keyboard-response","152","861692","0.0-4.0-2.0-1.10","pilot_wm_v1","null","6","null","null","false","","","","","","","null","<div style=""font-size:60px;"">+</div>","null","fixation","","","","","","","","","","","21","","",""
"revaluation","153","867697","0.0-4.0-2.0-0.11","pilot_wm_v1","null","6","null","null","false","","false","","","","","[521.3999999985099,382.40000000596046]","./assets/img/ocean/memory/10.jpg","[""ArrowDown"",""ArrowRight""]","value training","ocean","30","{""ArrowUp,ArrowLeft"":23,""ArrowUp,ArrowRight"":10,""ArrowDown,ArrowLeft"":8,""ArrowDown,ArrowRight"":30}","true","ArrowDown,ArrowRight","false","","","","","22","revaluation","1",""
"html-keyboard-response","154","868198","0.0-4.0-2.0-1.11","pilot_wm_v1","null","6","null","null","false","","","","","","","null","<div style=""font-size:60px;"">+</div>","null","fixation","","","","","","","","","","","23","","",""
"revaluation","155","874205","0.0-4.0-2.0-0.12","pilot_wm_v1","null","6","null","null","false","","false","","","","","[377.6000000014901,457.69999999552965]","./assets/img/ocean/memory/3.jpg","[""ArrowDown"",""ArrowRight""]","value training","ocean","30","{""ArrowUp,ArrowLeft"":23,""ArrowUp,ArrowRight"":10,""ArrowDown,ArrowLeft"":8,""ArrowDown,ArrowRight"":30}","true","ArrowDown,ArrowRight","false","","","","","24","revaluation","1",""
"html-keyboard-response","156","874707","0.0-4.0-2.0-1.12","pilot_wm_v1","null","6","null","null","false","","","","","","","null","<div style=""font-size:60px;"">+</div>","null","fixation","","","","","","","","","","","25","","",""
"revaluation","157","880713","0.0-4.0-2.0-0.13","pilot_wm_v1","null","6","null","null","false","","false","","","","","[386.70000000298023,367.5]","./assets/img/ocean/memory/2.jpg","[""ArrowDown"",""ArrowRight""]","value training","ocean","30","{""ArrowUp,ArrowLeft"":23,""ArrowUp,ArrowRight"":10,""ArrowDown,ArrowLeft"":8,""ArrowDown,ArrowRight"":30}","true","ArrowDown,ArrowRight","false","","","","","26","revaluation","1",""
"html-keyboard-response","158","881215","0.0-4.0-2.0-1.13","pilot_wm_v1","null","6","null","null","false","","","","","","","null","<div style=""font-size:60px;"">+</div>","null","fixation","","","","","","","","","","","27","","",""
"revaluation","159","887222","0.0-4.0-2.0-0.14","pilot_wm_v1","null","6","null","null","false","","false","","","","","[444.30000000447035,470.09999999403954]","./assets/img/ocean/memory/17.jpg","[""ArrowDown"",""ArrowRight""]","value training","ocean","30","{""ArrowUp,ArrowLeft"":23,""ArrowUp,ArrowRight"":10,""ArrowDown,ArrowLeft"":8,""ArrowDown,ArrowRight"":30}","true","ArrowDown,ArrowRight","false","","","","","28","revaluation","1",""
"html-keyboard-response","160","887723","0.0-4.0-2.0-1.14","pilot_wm_v1","null","6","null","null","false","","","","","","","null","<div style=""font-size:60px;"">+</div>","null","fixation","","","","","","","","","","","29","","",""
"revaluation","161","893731","0.0-4.0-2.0-0.15","pilot_wm_v1","null","6","null","null","false","","false","","","","","[834.7000000029802,509.29999999701977]","./assets/img/ocean/memory/21.jpg","[""ArrowDown"",""ArrowRight""]","value training","ocean","30","{""ArrowUp,ArrowLeft"":23,""ArrowUp,ArrowRight"":10,""ArrowDown,ArrowLeft"":8,""ArrowDown,ArrowRight"":30}","true","ArrowDown,ArrowRight","false","","","","","30","revaluation","1",""
"html-keyboard-response","162","894233","0.0-4.0-2.0-1.15","pilot_wm_v1","null","6","null","null","false","","","","","","","null","<div style=""font-size:60px;"">+</div>","null","fixation","","","","","","","","","","","31","","",""
"revaluation","163","898239","0.0-4.0-2.0-0.16","pilot_wm_v1","null","6","null","null","false","","false","","","","","[711.6000000014901]","./assets/img/ocean/catch/5.jpg","[""spaceBar""]","value training","ocean","0","{""ArrowUp,ArrowLeft"":23,""ArrowUp,ArrowRight"":10,""ArrowDown,ArrowLeft"":8,""ArrowDown,ArrowRight"":30}","true","spaceBar","true","","","","","32","revaluation","1",""
"html-keyboard-response","164","898741","0.0-4.0-2.0-1.16","pilot_wm_v1","null","6","null","null","false","","","","","","","null","<div style=""font-size:60px;"">+</div>","null","fixation","","","","","","","","","","","33","","",""
"revaluation","165","904748","0.0-4.0-2.0-0.17","pilot_wm_v1","null","6","null","null","false","","false","","","","","[567.8999999985099,554.2000000029802]","./assets/img/ocean/memory/4.jpg","[""ArrowDown"",""ArrowRight""]","value training","ocean","30","{""ArrowUp,ArrowLeft"":23,""ArrowUp,ArrowRight"":10,""ArrowDown,ArrowLeft"":8,""ArrowDown,ArrowRight"":30}","true","ArrowDown,ArrowRight","false","","","","","34","revaluation","1",""
"html-keyboard-response","166","905250","0.0-4.0-2.0-1.17","pilot_wm_v1","null","6","null","null","false","","","","","","","null","<div style=""font-size:60px;"">+</div>","null","fixation","","","","","","","","","","","35","","",""
"revaluation","167","911256","0.0-4.0-2.0-0.18","pilot_wm_v1","null","6","null","null","false","","false","","","","","[786.6000000014901,460.1000000014901]","./assets/img/ocean/memory/12.jpg","[""ArrowDown"",""ArrowRight""]","value training","ocean","30","{""ArrowUp,ArrowLeft"":23,""ArrowUp,ArrowRight"":10,""ArrowDown,ArrowLeft"":8,""ArrowDown,ArrowRight"":30}","true","ArrowDown,ArrowRight","false","","","","","36","revaluation","1",""
"html-keyboard-response","168","911758","0.0-4.0-2.0-1.18","pilot_wm_v1","null","6","null","null","false","","","","","","","null","<div style=""font-size:60px;"">+</div>","null","fixation","","","","","","","","","","","37","","",""
"revaluation","169","917765","0.0-4.0-2.0-0.19","pilot_wm_v1","null","6","null","null","false","","false","","","","","[411.8999999985099,347.90000000596046]","./assets/img/ocean/memory/23.jpg","[""ArrowDown"",""ArrowRight""]","value training","ocean","30","{""ArrowUp,ArrowLeft"":23,""ArrowUp,ArrowRight"":10,""ArrowDown,ArrowLeft"":8,""ArrowDown,ArrowRight"":30}","true","ArrowDown,ArrowRight","false","","","","","38","revaluation","1",""
"html-keyboard-response","170","918267","0.0-4.0-2.0-1.19","pilot_wm_v1","null","6","null","null","false","","","","","","","null","<div style=""font-size:60px;"">+</div>","null","fixation","","","","","","","","","","","39","","",""
"revaluation","171","924275","0.0-4.0-2.0-0.20","pilot_wm_v1","null","6","null","null","false","","false","","","","","[501.30000000447035,305.79999999701977]","./assets/img/ocean/memory/27.jpg","[""ArrowDown"",""ArrowRight""]","value training","ocean","30","{""ArrowUp,ArrowLeft"":23,""ArrowUp,ArrowRight"":10,""ArrowDown,ArrowLeft"":8,""ArrowDown,ArrowRight"":30}","true","ArrowDown,ArrowRight","false","","","","","40","revaluation","1",""
"html-keyboard-response","172","924777","0.0-4.0-2.0-1.20","pilot_wm_v1","null","6","null","null","false","","","","","","","null","<div style=""font-size:60px;"">+</div>","null","fixation","","","","","","","","","","","41","","",""
"revaluation","173","930784","0.0-4.0-2.0-0.21","pilot_wm_v1","null","6","null","null","false","","false","","","","","[639.9000000059605,829.7999999970198]","./assets/img/ocean/memory/32.jpg","[""ArrowDown"",""ArrowRight""]","value training","ocean","30","{""ArrowUp,ArrowLeft"":23,""ArrowUp,ArrowRight"":10,""ArrowDown,ArrowLeft"":8,""ArrowDown,ArrowRight"":30}","true","ArrowDown,ArrowRight","false","","","","","42","revaluation","1",""
"html-keyboard-response","174","931286","0.0-4.0-2.0-1.21","pilot_wm_v1","null","6","null","null","false","","","","","","","null","<div style=""font-size:60px;"">+</div>","null","fixation","","","","","","","","","","","43","","",""
"revaluation","175","937292","0.0-4.0-2.0-0.22","pilot_wm_v1","null","6","null","null","false","","false","","","","","[447.20000000298023,451.8999999985099]","./assets/img/ocean/memory/23.jpg","[""ArrowDown"",""ArrowRight""]","value training","ocean","30","{""ArrowUp,ArrowLeft"":23,""ArrowUp,ArrowRight"":10,""ArrowDown,ArrowLeft"":8,""ArrowDown,ArrowRight"":30}","true","ArrowDown,ArrowRight","false","","","","","44","revaluation","1",""
"html-keyboard-response","176","937794","0.0-4.0-2.0-1.22","pilot_wm_v1","null","6","null","null","false","","","","","","","null","<div style=""font-size:60px;"">+</div>","null","fixation","","","","","","","","","","","45","","",""
"revaluation","177","941801","0.0-4.0-2.0-0.23","pilot_wm_v1","null","6","null","null","false","","false","","","","","[610.6000000014901]","./assets/img/ocean/catch/4.jpg","[""spaceBar""]","value training","ocean","0","{""ArrowUp,ArrowLeft"":23,""ArrowUp,ArrowRight"":10,""ArrowDown,ArrowLeft"":8,""ArrowDown,ArrowRight"":30}","true","spaceBar","true","","","","","46","revaluation","1",""
"html-keyboard-response","178","942302","0.0-4.0-2.0-1.23","pilot_wm_v1","null","6","null","null","false","","","","","","","null","<div style=""font-size:60px;"">+</div>","null","fixation","","","","","","","","","","","47","","",""
"revaluation","179","946307","0.0-4.0-2.0-0.24","pilot_wm_v1","null","6","null","null","false","","false","","","","","[657.2999999970198]","./assets/img/ocean/catch/6.jpg","[""spaceBar""]","value training","ocean","0","{""ArrowUp,ArrowLeft"":23,""ArrowUp,ArrowRight"":10,""ArrowDown,ArrowLeft"":8,""ArrowDown,ArrowRight"":30}","true","spaceBar","true","","","","","48","revaluation","1",""
"html-keyboard-response","180","946808","0.0-4.0-2.0-1.24","pilot_wm_v1","null","6","null","null","false","","","","","","","null","<div style=""font-size:60px;"">+</div>","null","fixation","","","","","","","","","","","49","","",""
"revaluation","181","952816","0.0-4.0-2.0-0.25","pilot_wm_v1","null","6","null","null","false","","false","","","","","[1009.3000000044703,476.80000000447035]","./assets/img/ocean/memory/24.jpg","[""ArrowDown"",""ArrowRight""]","value training","ocean","30","{""ArrowUp,ArrowLeft"":23,""ArrowUp,ArrowRight"":10,""ArrowDown,ArrowLeft"":8,""ArrowDown,ArrowRight"":30}","true","ArrowDown,ArrowRight","false","","","","","50","revaluation","1",""
"html-keyboard-response","182","953317","0.0-4.0-2.0-1.25","pilot_wm_v1","null","6","null","null","false","","","","","","","null","<div style=""font-size:60px;"">+</div>","null","fixation","","","","","","","","","","","51","","",""
"revaluation","183","959324","0.0-4.0-2.0-0.26","pilot_wm_v1","null","6","null","null","false","","false","","","","","[745.2999999970198,425.79999999701977]","./assets/img/ocean/memory/13.jpg","[""ArrowDown"",""ArrowRight""]","value training","ocean","30","{""ArrowUp,ArrowLeft"":23,""ArrowUp,ArrowRight"":10,""ArrowDown,ArrowLeft"":8,""ArrowDown,ArrowRight"":30}","true","ArrowDown,ArrowRight","false","","","","","52","revaluation","1",""
"html-keyboard-response","184","959826","0.0-4.0-2.0-1.26","pilot_wm_v1","null","6","null","null","false","","","","","","","null","<div style=""font-size:60px;"">+</div>","null","fixation","","","","","","","","","","","53","","",""
"revaluation","185","965833","0.0-4.0-2.0-0.27","pilot_wm_v1","null","6","null","null","false","","false","","","","","[443.8999999985099,343.69999999552965]","./assets/img/ocean/memory/11.jpg","[""ArrowDown"",""ArrowRight""]","value training","ocean","30","{""ArrowUp,ArrowLeft"":23,""ArrowUp,ArrowRight"":10,""ArrowDown,ArrowLeft"":8,""ArrowDown,ArrowRight"":30}","true","ArrowDown,ArrowRight","false","","","","","54","revaluation","1",""
"html-keyboard-response","186","966335","0.0-4.0-2.0-1.27","pilot_wm_v1","null","6","null","null","false","","","","","","","null","<div style=""font-size:60px;"">+</div>","null","fixation","","","","","","","","","","","55","","",""
"revaluation","187","970341","0.0-4.0-2.0-0.28","pilot_wm_v1","null","6","null","null","false","","false","","","","","[516.1999999955297]","./assets/img/ocean/catch/0.jpg","[""spaceBar""]","value training","ocean","0","{""ArrowUp,ArrowLeft"":23,""ArrowUp,ArrowRight"":10,""ArrowDown,ArrowLeft"":8,""ArrowDown,ArrowRight"":30}","true","spaceBar","true","","","","","56","revaluation","1",""
"html-keyboard-response","188","970843","0.0-4.0-2.0-1.28","pilot_wm_v1","null","6","null","null","false","","","","","","","null","<div style=""font-size:60px;"">+</div>","null","fixation","","","","","","","","","","","57","","",""
"revaluation","189","976850","0.0-4.0-2.0-0.29","pilot_wm_v1","null","6","null","null","false","","false","","","","","[861.3999999985099,314.5]","./assets/img/ocean/memory/24.jpg","[""ArrowDown"",""ArrowRight""]","value training","ocean","30","{""ArrowUp,ArrowLeft"":23,""ArrowUp,ArrowRight"":10,""ArrowDown,ArrowLeft"":8,""ArrowDown,ArrowRight"":30}","true","ArrowDown,ArrowRight","false","","","","","58","revaluation","1",""
"html-keyboard-response","190","977353","0.0-4.0-2.0-1.29","pilot_wm_v1","null","6","null","null","false","","","","","","","null","<div style=""font-size:60px;"">+</div>","null","fixation","","","","","","","","","","","59","","",""
"revaluation","191","983359","0.0-4.0-2.0-0.30","pilot_wm_v1","null","6","null","null","false","","false","","","","","[465.29999999701977,279.30000000447035]","./assets/img/ocean/memory/11.jpg","[""ArrowDown"",""ArrowRight""]","value training","ocean","30","{""ArrowUp,ArrowLeft"":23,""ArrowUp,ArrowRight"":10,""ArrowDown,ArrowLeft"":8,""ArrowDown,ArrowRight"":30}","true","ArrowDown,ArrowRight","false","","","","","60","revaluation","1",""
"html-keyboard-response","192","983861","0.0-4.0-2.0-1.30","pilot_wm_v1","null","6","null","null","false","","","","","","","null","<div style=""font-size:60px;"">+</div>","null","fixation","","","","","","","","","","","61","","",""
"revaluation","193","989868","0.0-4.0-2.0-0.31","pilot_wm_v1","null","6","null","null","false","","false","","","","","[465.70000000298023,338]","./assets/img/ocean/memory/7.jpg","[""ArrowDown"",""ArrowRight""]","value training","ocean","30","{""ArrowUp,ArrowLeft"":23,""ArrowUp,ArrowRight"":10,""ArrowDown,ArrowLeft"":8,""ArrowDown,ArrowRight"":30}","true","ArrowDown,ArrowRight","false","","","","","62","revaluation","1",""
"html-keyboard-response","194","990370","0.0-4.0-2.0-1.31","pilot_wm_v1","null","6","null","null","false","","","","","","","null","<div style=""font-size:60px;"">+</div>","null","fixation","","","","","","","","","","","63","","",""
"revaluation","195","996377","0.0-4.0-2.0-0.32","pilot_wm_v1","null","6","null","null","false","","false","","","","","[578.6000000014901,372.19999999552965]","./assets/img/ocean/memory/15.jpg","[""ArrowDown"",""ArrowRight""]","value training","ocean","30","{""ArrowUp,ArrowLeft"":23,""ArrowUp,ArrowRight"":10,""ArrowDown,ArrowLeft"":8,""ArrowDown,ArrowRight"":30}","true","ArrowDown,ArrowRight","false","","","","","64","revaluation","1",""
"html-keyboard-response","196","996879","0.0-4.0-2.0-1.32","pilot_wm_v1","null","6","null","null","false","","","","","","","null","<div style=""font-size:60px;"">+</div>","null","fixation","","","","","","","","","","","65","","",""
"revaluation","197","1002883","0.0-4.0-2.0-0.33","pilot_wm_v1","null","6","null","null","false","","false","","","","","[309.5,390.70000000298023]","./assets/img/ocean/memory/0.jpg","[""ArrowDown"",""ArrowRight""]","value training","ocean","30","{""ArrowUp,ArrowLeft"":23,""ArrowUp,ArrowRight"":10,""ArrowDown,ArrowLeft"":8,""ArrowDown,ArrowRight"":30}","true","ArrowDown,ArrowRight","false","","","","","66","revaluation","1",""
"html-keyboard-response","198","1003385","0.0-4.0-2.0-1.33","pilot_wm_v1","null","6","null","null","false","","","","","","","null","<div style=""font-size:60px;"">+</div>","null","fixation","","","","","","","","","","","67","","",""
"revaluation","199","1009391","0.0-4.0-2.0-0.34","pilot_wm_v1","null","6","null","null","false","","false","","","","","[451.6000000014901,318.20000000298023]","./assets/img/ocean/memory/28.jpg","[""ArrowDown"",""ArrowRight""]","value training","ocean","30","{""ArrowUp,ArrowLeft"":23,""ArrowUp,ArrowRight"":10,""ArrowDown,ArrowLeft"":8,""ArrowDown,ArrowRight"":30}","true","ArrowDown,ArrowRight","false","","","","","68","revaluation","1",""
"html-keyboard-response","200","1009893","0.0-4.0-2.0-1.34","pilot_wm_v1","null","6","null","null","false","","","","","","","null","<div style=""font-size:60px;"">+</div>","null","fixation","","","","","","","","","","","69","","",""
"revaluation","201","1015900","0.0-4.0-2.0-0.35","pilot_wm_v1","null","6","null","null","false","","false","","","","","[607,341.3999999985099]","./assets/img/ocean/memory/21.jpg","[""ArrowDown"",""ArrowRight""]","value training","ocean","30","{""ArrowUp,ArrowLeft"":23,""ArrowUp,ArrowRight"":10,""ArrowDown,ArrowLeft"":8,""ArrowDown,ArrowRight"":30}","true","ArrowDown,ArrowRight","false","","","","","70","revaluation","1",""
"html-keyboard-response","202","1016402","0.0-4.0-2.0-1.35","pilot_wm_v1","null","6","null","null","false","","","","","","","null","<div style=""font-size:60px;"">+</div>","null","fixation","","","","","","","","","","","71","","",""
"revaluation","203","1022408","0.0-4.0-2.0-0.36","pilot_wm_v1","null","6","null","null","false","","false","","","","","[348.30000000447035,363.5]","./assets/img/ocean/memory/12.jpg","[""ArrowDown"",""ArrowRight""]","value training","ocean","30","{""ArrowUp,ArrowLeft"":23,""ArrowUp,ArrowRight"":10,""ArrowDown,ArrowLeft"":8,""ArrowDown,ArrowRight"":30}","true","ArrowDown,ArrowRight","false","","","","","72","revaluation","1",""
"html-keyboard-response","204","1022910","0.0-4.0-2.0-1.36","pilot_wm_v1","null","6","null","null","false","","","","","","","null","<div style=""font-size:60px;"">+</div>","null","fixation","","","","","","","","","","","73","","",""
"revaluation","205","1028914","0.0-4.0-2.0-0.37","pilot_wm_v1","null","6","null","null","false","","false","","","","","[446.70000000298023,567.1000000014901]","./assets/img/ocean/memory/17.jpg","[""ArrowDown"",""ArrowRight""]","value training","ocean","30","{""ArrowUp,ArrowLeft"":23,""ArrowUp,ArrowRight"":10,""ArrowDown,ArrowLeft"":8,""ArrowDown,ArrowRight"":30}","true","ArrowDown,ArrowRight","false","","","","","74","revaluation","1",""
"html-keyboard-response","206","1029416","0.0-4.0-2.0-1.37","pilot_wm_v1","null","6","null","null","false","","","","","","","null","<div style=""font-size:60px;"">+</div>","null","fixation","","","","","","","","","","","75","","",""
"revaluation","207","1035423","0.0-4.0-2.0-0.38","pilot_wm_v1","null","6","null","null","false","","false","","","","","[343.29999999701977,347.80000000447035]","./assets/img/ocean/memory/1.jpg","[""ArrowDown"",""ArrowRight""]","value training","ocean","30","{""ArrowUp,ArrowLeft"":23,""ArrowUp,ArrowRight"":10,""ArrowDown,ArrowLeft"":8,""ArrowDown,ArrowRight"":30}","true","ArrowDown,ArrowRight","false","","","","","76","revaluation","1",""
"html-keyboard-response","208","1035925","0.0-4.0-2.0-1.38","pilot_wm_v1","null","6","null","null","false","","","","","","","null","<div style=""font-size:60px;"">+</div>","null","fixation","","","","","","","","","","","77","","",""
"revaluation","209","1041932","0.0-4.0-2.0-0.39","pilot_wm_v1","null","6","null","null","false","","false","","","","","[356.70000000298023,341.80000000447035]","./assets/img/ocean/memory/2.jpg","[""ArrowDown"",""ArrowRight""]","value training","ocean","30","{""ArrowUp,ArrowLeft"":23,""ArrowUp,ArrowRight"":10,""ArrowDown,ArrowLeft"":8,""ArrowDown,ArrowRight"":30}","true","ArrowDown,ArrowRight","false","","","","","78","revaluation","1",""
"html-keyboard-response","210","1042434","0.0-4.0-2.0-1.39","pilot_wm_v1","null","6","null","null","false","","","","","","","null","<div style=""font-size:60px;"">+</div>","null","fixation","","","","","","","","","","","79","","",""
"revaluation","211","1046439","0.0-4.0-2.0-0.40","pilot_wm_v1","null","6","null","null","false","","false","","","","","[747.6000000014901]","./assets/img/ocean/catch/3.jpg","[""spaceBar""]","value training","ocean","0","{""ArrowUp,ArrowLeft"":23,""ArrowUp,ArrowRight"":10,""ArrowDown,ArrowLeft"":8,""ArrowDown,ArrowRight"":30}","true","spaceBar","true","","","","","80","revaluation","1",""
"html-keyboard-response","212","1046941","0.0-4.0-2.0-1.40","pilot_wm_v1","null","6","null","null","false","","","","","","","null","<div style=""font-size:60px;"">+</div>","null","fixation","","","","","","","","","","","81","","",""
"revaluation","213","1052948","0.0-4.0-2.0-0.41","pilot_wm_v1","null","6","null","null","false","","false","","","","","[415.3999999985099,292.6000000014901]","./assets/img/ocean/memory/35.jpg","[""ArrowDown"",""ArrowRight""]","value training","ocean","30","{""ArrowUp,ArrowLeft"":23,""ArrowUp,ArrowRight"":10,""ArrowDown,ArrowLeft"":8,""ArrowDown,ArrowRight"":30}","true","ArrowDown,ArrowRight","false","","","","","82","revaluation","1",""
"html-keyboard-response","214","1053450","0.0-4.0-2.0-1.41","pilot_wm_v1","null","6","null","null","false","","","","","","","null","<div style=""font-size:60px;"">+</div>","null","fixation","","","","","","","","","","","83","","",""
"revaluation","215","1059456","0.0-4.0-2.0-0.42","pilot_wm_v1","null","6","null","null","false","","false","","","","","[523.7000000029802,429.5]","./assets/img/ocean/memory/27.jpg","[""ArrowDown"",""ArrowRight""]","value training","ocean","30","{""ArrowUp,ArrowLeft"":23,""ArrowUp,ArrowRight"":10,""ArrowDown,ArrowLeft"":8,""ArrowDown,ArrowRight"":30}","true","ArrowDown,ArrowRight","false","","","","","84","revaluation","1",""
"html-keyboard-response","216","1059958","0.0-4.0-2.0-1.42","pilot_wm_v1","null","6","null","null","false","","","","","","","null","<div style=""font-size:60px;"">+</div>","null","fixation","","","","","","","","","","","85","","",""
"revaluation","217","1063964","0.0-4.0-2.0-0.43","pilot_wm_v1","null","6","null","null","false","","false","","","","","[882.2000000029802]","./assets/img/ocean/catch/1.jpg","[""spaceBar""]","value training","ocean","0","{""ArrowUp,ArrowLeft"":23,""ArrowUp,ArrowRight"":10,""ArrowDown,ArrowLeft"":8,""ArrowDown,ArrowRight"":30}","true","spaceBar","true","","","","","86","revaluation","1",""
"html-keyboard-response","218","1064465","0.0-4.0-2.0-1.43","pilot_wm_v1","null","6","null","null","false","","","","","","","null","<div style=""font-size:60px;"">+</div>","null","fixation","","","","","","","","","","","87","","",""
"revaluation","219","1070472","0.0-4.0-2.0-0.44","pilot_wm_v1","null","6","null","null","false","","false","","","","","[525.2999999970198,445.70000000298023]","./assets/img/ocean/memory/15.jpg","[""ArrowDown"",""ArrowRight""]","value training","ocean","30","{""ArrowUp,ArrowLeft"":23,""ArrowUp,ArrowRight"":10,""ArrowDown,ArrowLeft"":8,""ArrowDown,ArrowRight"":30}","true","ArrowDown,ArrowRight","false","","","","","88","revaluation","1",""
"html-keyboard-response","220","1070974","0.0-4.0-2.0-1.44","pilot_wm_v1","null","6","null","null","false","","","","","","","null","<div style=""font-size:60px;"">+</div>","null","fixation","","","","","","","","","","","89","","",""
"revaluation","221","1076980","0.0-4.0-2.0-0.45","pilot_wm_v1","null","6","null","null","false","","false","","","","","[362.6000000014901,587.6000000014901]","./assets/img/ocean/memory/6.jpg","[""ArrowDown"",""ArrowRight""]","value training","ocean","30","{""ArrowUp,ArrowLeft"":23,""ArrowUp,ArrowRight"":10,""ArrowDown,ArrowLeft"":8,""ArrowDown,ArrowRight"":30}","true","ArrowDown,ArrowRight","false","","","","","90","revaluation","1",""
"html-keyboard-response","222","1077482","0.0-4.0-2.0-1.45","pilot_wm_v1","null","6","null","null","false","","","","","","","null","<div style=""font-size:60px;"">+</div>","null","fixation","","","","","","","","","","","91","","",""
"revaluation","223","1083489","0.0-4.0-2.0-0.46","pilot_wm_v1","null","6","null","null","false","","false","","","","","[362.30000000447035,282.19999999552965]","./assets/img/ocean/memory/4.jpg","[""ArrowDown"",""ArrowRight""]","value training","ocean","30","{""ArrowUp,ArrowLeft"":23,""ArrowUp,ArrowRight"":10,""ArrowDown,ArrowLeft"":8,""ArrowDown,ArrowRight"":30}","true","ArrowDown,ArrowRight","false","","","","","92","revaluation","1",""
"html-keyboard-response","224","1083993","0.0-4.0-2.0-1.46","pilot_wm_v1","null","6","null","null","false","","","","","","","null","<div style=""font-size:60px;"">+</div>","null","fixation","","","","","","","","","","","93","","",""
"revaluation","225","1089999","0.0-4.0-2.0-0.47","pilot_wm_v1","null","6","null","null","false","","false","","","","","[372,508.70000000298023]","./assets/img/ocean/memory/3.jpg","[""ArrowDown"",""ArrowRight""]","value training","ocean","30","{""ArrowUp,ArrowLeft"":23,""ArrowUp,ArrowRight"":10,""ArrowDown,ArrowLeft"":8,""ArrowDown,ArrowRight"":30}","true","ArrowDown,ArrowRight","false","","","","","94","revaluation","1",""
"html-keyboard-response","226","1090501","0.0-4.0-2.0-1.47","pilot_wm_v1","null","6","null","null","false","","","","","","","null","<div style=""font-size:60px;"">+</div>","null","fixation","","","","","","","","","","","95","","",""
"revaluation","227","1096508","0.0-4.0-2.0-0.48","pilot_wm_v1","null","6","null","null","false","","false","","","","","[394.90000000596046,513]","./assets/img/ocean/memory/7.jpg","[""ArrowDown"",""ArrowRight""]","value training","ocean","30","{""ArrowUp,ArrowLeft"":23,""ArrowUp,ArrowRight"":10,""ArrowDown,ArrowLeft"":8,""ArrowDown,ArrowRight"":30}","true","ArrowDown,ArrowRight","false","","","","","96","revaluation","1",""
"html-keyboard-response","228","1097010","0.0-4.0-2.0-1.48","pilot_wm_v1","null","6","null","null","false","","","","","","","null","<div style=""font-size:60px;"">+</div>","null","fixation","","","","","","","","","","","97","","",""
"revaluation","229","1103016","0.0-4.0-2.0-0.49","pilot_wm_v1","null","6","null","null","false","","false","","","","","[390.5,424]","./assets/img/ocean/memory/8.jpg","[""ArrowDown"",""ArrowRight""]","value training","ocean","30","{""ArrowUp,ArrowLeft"":23,""ArrowUp,ArrowRight"":10,""ArrowDown,ArrowLeft"":8,""ArrowDown,ArrowRight"":30}","true","ArrowDown,ArrowRight","false","","","","","98","revaluation","1",""
"html-keyboard-response","230","1103518","0.0-4.0-2.0-1.49","pilot_wm_v1","null","6","null","null","false","","","","","","","null","<div style=""font-size:60px;"">+</div>","null","fixation","","","","","","","","","","","99","","",""
"learning-instructions","231","1118247","0.0-4.0-3.0-0.0","pilot_wm_v1","null","6","null","null","false","","","","","","","1833.2999999970198","<p> Now, you will travel with a friend who will choose whether you go up or down first. </p>
            <p> On these turns, you will just see the animal that they found. You will still get to choose which chest to search for treasure.</p>","","instructions","","","","","","","","","","","","","",""
"learning-instructions","232","1133426","0.0-4.0-3.0-0.1","pilot_wm_v1","null","6","null","null","false","","","","","","","3570.60000000149","<p> In this part, you will also hear beeps from your friend and see special treasure chests that need a password. </p>
            <p> Do your best to count the high beeps <b>and</b> choose between each animals' chests at the same time.</p>
            <img src='./assets/img/instructions/beep_chest.jpg' class='instructions-image'>","","instructions","","","","","","","","","","","","","",""
"revaluation","233","1137435","0.0-4.0-4.0-0.0","pilot_wm_v1","null","6","null","null","false","","false","","","","","[1362.6000000014901]","./assets/img/ocean/animals/octopus.jpg","[""ArrowRight""]","revaluation","ocean","7","{""ArrowUp,ArrowLeft"":27,""ArrowUp,ArrowRight"":15,""ArrowDown,ArrowLeft"":21,""ArrowDown,ArrowRight"":7}","false","ArrowDown,ArrowRight","","13_2","","","","0","revaluation","1",""
"html-keyboard-response","234","1137942","0.0-4.0-4.0-1.0","pilot_wm_v1","null","6","null","null","false","","","","","","","null","<div style=""font-size:60px;"">+</div>","null","fixation","","","","","","","","","","","","","",""
"revaluation","235","1141949","0.0-4.0-4.0-0.1","pilot_wm_v1","null","6","null","null","false","","false","","","","","[1817]","./assets/img/ocean/animals/seahorse.jpg","[""ArrowRight""]","revaluation","ocean","15","{""ArrowUp,ArrowLeft"":27,""ArrowUp,ArrowRight"":15,""ArrowDown,ArrowLeft"":21,""ArrowDown,ArrowRight"":7}","false","ArrowUp,ArrowRight","","9_2","","","","1","revaluation","1",""
"html-keyboard-response","236","1142452","0.0-4.0-4.0-1.1","pilot_wm_v1","null","6","null","null","false","","","","","","","null","<div style=""font-size:60px;"">+</div>","null","fixation","","","","","","","","","","","","","",""
"revaluation","237","1146459","0.0-4.0-4.0-0.2","pilot_wm_v1","null","6","null","null","false","","false","","","","","[949.6999999955297]","./assets/img/ocean/animals/seahorse.jpg","[""ArrowRight""]","revaluation","ocean","15","{""ArrowUp,ArrowLeft"":27,""ArrowUp,ArrowRight"":15,""ArrowDown,ArrowLeft"":21,""ArrowDown,ArrowRight"":7}","false","ArrowUp,ArrowRight","","2_1","","","","2","revaluation","1",""
"html-keyboard-response","238","1146961","0.0-4.0-4.0-1.2","pilot_wm_v1","null","6","null","null","false","","","","","","","null","<div style=""font-size:60px;"">+</div>","null","fixation","","","","","","","","","","","","","",""
"revaluation","239","1150969","0.0-4.0-4.0-0.3","pilot_wm_v1","null","6","null","null","false","","false","","","","","[727.9000000059605]","./assets/img/ocean/animals/seahorse.jpg","[""ArrowLeft""]","revaluation","ocean","27","{""ArrowUp,ArrowLeft"":27,""ArrowUp,ArrowRight"":15,""ArrowDown,ArrowLeft"":21,""ArrowDown,ArrowRight"":7}","true","ArrowUp,ArrowLeft","","3_0","","","","3","revaluation","1",""
"html-keyboard-response","240","1151471","0.0-4.0-4.0-1.3","pilot_wm_v1","null","6","null","null","false","","","","","","","null","<div style=""font-size:60px;"">+</div>","null","fixation","","","","","","","","","","","","","",""
"html-slider-response","241","1159099","0.0-4.0-4.0-2.3-0.3","pilot_wm_v1","null","6","null","null","false","","","","","","","7624","<div style=""width:500px;"">
        <p>What is the password?</p>
        <img src='./assets/img/instructions/beep_chest.jpg' class='instructions-image'>","9","","","","","false","","","","50","5","4","","","",""
"revaluation","242","1163105","0.0-4.0-4.0-0.4","pilot_wm_v1","null","6","null","null","false","","false","","","","","[977.7999999970198]","./assets/img/ocean/animals/octopus.jpg","[""ArrowRight""]","revaluation","ocean","7","{""ArrowUp,ArrowLeft"":27,""ArrowUp,ArrowRight"":15,""ArrowDown,ArrowLeft"":21,""ArrowDown,ArrowRight"":7}","false","ArrowDown,ArrowRight","","12_2","","","","4","revaluation","1",""
"html-keyboard-response","243","1163608","0.0-4.0-4.0-1.4","pilot_wm_v1","null","6","null","null","false","","","","","","","null","<div style=""font-size:60px;"">+</div>","null","fixation","","","","","","","","","","","","","",""
"revaluation","244","1167614","0.0-4.0-4.0-0.5","pilot_wm_v1","null","6","null","null","false","","false","","","","","[772.7999999970198]","./assets/img/ocean/animals/octopus.jpg","[""ArrowRight""]","revaluation","ocean","7","{""ArrowUp,ArrowLeft"":27,""ArrowUp,ArrowRight"":15,""ArrowDown,ArrowLeft"":21,""ArrowDown,ArrowRight"":7}","false","ArrowDown,ArrowRight","","17_1","","","","5","revaluation","1",""
"html-keyboard-response","245","1168116","0.0-4.0-4.0-1.5","pilot_wm_v1","null","6","null","null","false","","","","","","","null","<div style=""font-size:60px;"">+</div>","null","fixation","","","","","","","","","","","","","",""
"revaluation","246","1172123","0.0-4.0-4.0-0.6","pilot_wm_v1","null","6","null","null","false","","false","","","","","[980.5999999940395]","./assets/img/ocean/animals/octopus.jpg","[""ArrowRight""]","revaluation","ocean","7","{""ArrowUp,ArrowLeft"":27,""ArrowUp,ArrowRight"":15,""ArrowDown,ArrowLeft"":21,""ArrowDown,ArrowRight"":7}","false","ArrowDown,ArrowRight","","18_0","","","","6","revaluation","1",""
"html-keyboard-response","247","1172625","0.0-4.0-4.0-1.6","pilot_wm_v1","null","6","null","null","false","","","","","","","null","<div style=""font-size:60px;"">+</div>","null","fixation","","","","","","","","","","","","","",""
"revaluation","248","1176631","0.0-4.0-4.0-0.7","pilot_wm_v1","null","6","null","null","false","","true","","","","","[]","./assets/img/ocean/animals/seahorse.jpg","[]","revaluation","ocean","-5","{""ArrowUp,ArrowLeft"":27,""ArrowUp,ArrowRight"":15,""ArrowDown,ArrowLeft"":21,""ArrowDown,ArrowRight"":7}","false","ArrowUp","","6_3","","","","7","revaluation","1",""
"html-keyboard-response","249","1177137","0.0-4.0-4.0-1.7","pilot_wm_v1","null","6","null","null","false","","","","","","","null","<div style=""font-size:60px;"">+</div>","null","fixation","","","","","","","","","","","","","",""
"html-slider-response","250","1180524","0.0-4.0-4.0-2.7-0.7","pilot_wm_v1","null","6","null","null","false","","","","","","","3383","<div style=""width:500px;"">
        <p>What is the password?</p>
        <img src='./assets/img/instructions/beep_chest.jpg' class='instructions-image'>","4","","","","","false","","","","50","6","2","","","",""
"revaluation","251","1184530","0.0-4.0-4.0-0.8","pilot_wm_v1","null","6","null","null","false","","false","","","","","[1442.5]","./assets/img/ocean/animals/octopus.jpg","[""ArrowRight""]","revaluation","ocean","7","{""ArrowUp,ArrowLeft"":27,""ArrowUp,ArrowRight"":15,""ArrowDown,ArrowLeft"":21,""ArrowDown,ArrowRight"":7}","false","ArrowDown,ArrowRight","","11_4","","","","8","revaluation","1",""
"html-keyboard-response","252","1185032","0.0-4.0-4.0-1.8","pilot_wm_v1","null","6","null","null","false","","","","","","","null","<div style=""font-size:60px;"">+</div>","null","fixation","","","","","","","","","","","","","",""
"revaluation","253","1189038","0.0-4.0-4.0-0.9","pilot_wm_v1","null","6","null","null","false","","true","","","","","[]","./assets/img/ocean/animals/octopus.jpg","[]","revaluation","ocean","-5","{""ArrowUp,ArrowLeft"":27,""ArrowUp,ArrowRight"":15,""ArrowDown,ArrowLeft"":21,""ArrowDown,ArrowRight"":7}","false","ArrowDown","","10_3","","","","9","revaluation","1",""
"html-keyboard-response","254","1189541","0.0-4.0-4.0-1.9","pilot_wm_v1","null","6","null","null","false","","","","","","","null","<div style=""font-size:60px;"">+</div>","null","fixation","","","","","","","","","","","","","",""
"revaluation","255","1193554","0.0-4.0-4.0-0.10","pilot_wm_v1","null","6","null","null","false","","false","","","","","[493.09999999403954]","./assets/img/ocean/animals/seahorse.jpg","[""ArrowRight""]","revaluation","ocean","15","{""ArrowUp,ArrowLeft"":27,""ArrowUp,ArrowRight"":15,""ArrowDown,ArrowLeft"":21,""ArrowDown,ArrowRight"":7}","false","ArrowUp,ArrowRight","","8_2","","","","10","revaluation","1",""
"html-keyboard-response","256","1194056","0.0-4.0-4.0-1.10","pilot_wm_v1","null","6","null","null","false","","","","","","","null","<div style=""font-size:60px;"">+</div>","null","fixation","","","","","","","","","","","","","",""
"revaluation","257","1198063","0.0-4.0-4.0-0.11","pilot_wm_v1","null","6","null","null","false","","false","","","","","[660.1999999955297]","./assets/img/ocean/animals/seahorse.jpg","[""ArrowLeft""]","revaluation","ocean","27","{""ArrowUp,ArrowLeft"":27,""ArrowUp,ArrowRight"":15,""ArrowDown,ArrowLeft"":21,""ArrowDown,ArrowRight"":7}","true","ArrowUp,ArrowLeft","","4_0","","","","11","revaluation","1",""
"html-keyboard-response","258","1198565","0.0-4.0-4.0-1.11","pilot_wm_v1","null","6","null","null","false","","","","","","","null","<div style=""font-size:60px;"">+</div>","null","fixation","","","","","","","","","","","","","",""
"html-slider-response","259","1211915","0.0-4.0-4.0-2.11-0.11","pilot_wm_v1","null","6","null","null","false","","","","","","","13346","<div style=""width:500px;"">
        <p>What is the password?</p>
        <img src='./assets/img/instructions/beep_chest.jpg' class='instructions-image'>","12","","","","","false","","","","50","9","3","","","",""
"revaluation","260","1215921","0.0-4.0-4.0-0.12","pilot_wm_v1","null","6","null","null","false","","false","","","","","[1054.7999999970198]","./assets/img/ocean/animals/octopus.jpg","[""ArrowRight""]","revaluation","ocean","7","{""ArrowUp,ArrowLeft"":27,""ArrowUp,ArrowRight"":15,""ArrowDown,ArrowLeft"":21,""ArrowDown,ArrowRight"":7}","false","ArrowDown,ArrowRight","","15_0","","","","12","revaluation","1",""
"html-keyboard-response","261","1216423","0.0-4.0-4.0-1.12","pilot_wm_v1","null","6","null","null","false","","","","","","","null","<div style=""font-size:60px;"">+</div>","null","fixation","","","","","","","","","","","","","",""
"revaluation","262","1220430","0.0-4.0-4.0-0.13","pilot_wm_v1","null","6","null","null","false","","true","","","","","[]","./assets/img/ocean/animals/octopus.jpg","[]","revaluation","ocean","-5","{""ArrowUp,ArrowLeft"":27,""ArrowUp,ArrowRight"":15,""ArrowDown,ArrowLeft"":21,""ArrowDown,ArrowRight"":7}","false","ArrowDown","","16_0","","","","13","revaluation","1",""
"html-keyboard-response","263","1220932","0.0-4.0-4.0-1.13","pilot_wm_v1","null","6","null","null","false","","","","","","","null","<div style=""font-size:60px;"">+</div>","null","fixation","","","","","","","","","","","","","",""
"revaluation","264","1224938","0.0-4.0-4.0-0.14","pilot_wm_v1","null","6","null","null","false","","false","","","","","[375.70000000298023]","./assets/img/ocean/animals/seahorse.jpg","[""ArrowLeft""]","revaluation","ocean","27","{""ArrowUp,ArrowLeft"":27,""ArrowUp,ArrowRight"":15,""ArrowDown,ArrowLeft"":21,""ArrowDown,ArrowRight"":7}","true","ArrowUp,ArrowLeft","","5_4","","","","14","revaluation","1",""
"html-keyboard-response","265","1225440","0.0-4.0-4.0-1.14","pilot_wm_v1","null","6","null","null","false","","","","","","","null","<div style=""font-size:60px;"">+</div>","null","fixation","","","","","","","","","","","","","",""
"revaluation","266","1229447","0.0-4.0-4.0-0.15","pilot_wm_v1","null","6","null","null","false","","false","","","","","[69.19999999552965]","./assets/img/ocean/animals/seahorse.jpg","[""ArrowRight""]","revaluation","ocean","15","{""ArrowUp,ArrowLeft"":27,""ArrowUp,ArrowRight"":15,""ArrowDown,ArrowLeft"":21,""ArrowDown,ArrowRight"":7}","false","ArrowUp,ArrowRight","","7_4","","","","15","revaluation","1",""
"html-keyboard-response","267","1229949","0.0-4.0-4.0-1.15","pilot_wm_v1","null","6","null","null","false","","","","","","","null","<div style=""font-size:60px;"">+</div>","null","fixation","","","","","","","","","","","","","",""
"html-slider-response","268","1266706","0.0-4.0-4.0-2.15-0.15","pilot_wm_v1","null","6","null","null","false","","","","","","","36753","<div style=""width:500px;"">
        <p>What is the password?</p>
        <img src='./assets/img/instructions/beep_chest.jpg' class='instructions-image'>","8","","","","","true","","","","50","8","0","","","",""
"revaluation","269","1270712","0.0-4.0-4.0-0.16","pilot_wm_v1","null","6","null","null","false","","true","","","","","[]","./assets/img/ocean/animals/seahorse.jpg","[]","revaluation","ocean","-5","{""ArrowUp,ArrowLeft"":27,""ArrowUp,ArrowRight"":15,""ArrowDown,ArrowLeft"":21,""ArrowDown,ArrowRight"":7}","false","ArrowUp","","1_4","","","","16","revaluation","1",""
"html-keyboard-response","270","1271214","0.0-4.0-4.0-1.16","pilot_wm_v1","null","6","null","null","false","","","","","","","null","<div style=""font-size:60px;"">+</div>","null","fixation","","","","","","","","","","","","","",""
"revaluation","271","1275219","0.0-4.0-4.0-0.17","pilot_wm_v1","null","6","null","null","false","","false","","","","","[456.1000000014901]","./assets/img/ocean/animals/octopus.jpg","[""ArrowLeft""]","revaluation","ocean","21","{""ArrowUp,ArrowLeft"":27,""ArrowUp,ArrowRight"":15,""ArrowDown,ArrowLeft"":21,""ArrowDown,ArrowRight"":7}","true","ArrowDown,ArrowLeft","","14_4","","","","17","revaluation","1",""
"html-keyboard-response","272","1275721","0.0-4.0-4.0-1.17","pilot_wm_v1","null","6","null","null","false","","","","","","","null","<div style=""font-size:60px;"">+</div>","null","fixation","","","","","","","","","","","","","",""
"learning-instructions","273","1283842","0.0-4.0-6.0-0.0","pilot_wm_v1","null","6","null","null","false","","","","","","","null","<p> You have almost finished this part of the game! </p>
            <p> We are going to ask you to make a few more choices. </p>","","instructions","","","","","","","","","","","","","",""
"learning-instructions","274","1299812","0.0-4.0-6.0-0.1","pilot_wm_v1","null","6","null","null","false","","","","","","","null","<p> First, you need to decide whether to go up or down. When you see each picture, use the arrow keys to make your choice. </p>
            <p><b>You will not see which animal you found, but try to get to the one that will give you the most treasure.</b></p>","","instructions","","","","","","","","","","","","","",""
"html-keyboard-response","275","1300814","0.0-4.0-7.0-0.0","pilot_wm_v1","null","6","null","null","false","","","","","","","null","<div style=""font-size:100px;color:red;"">Starting in...</div>","null","","","","","","","","","","","","","","",""
"html-keyboard-response","276","1301816","0.0-4.0-7.0-1.0","pilot_wm_v1","null","6","null","null","false","","","","","","","null","<div style=""font-size:200px;color:red;"">3</div>","null","","","","","","","","","","","","","","",""
"html-keyboard-response","277","1302817","0.0-4.0-7.0-2.0","pilot_wm_v1","null","6","null","null","false","","","","","","","null","<div style=""font-size:200px;color:red;"">2</div>","null","","","","","","","","","","","","","","",""
"html-keyboard-response","278","1303818","0.0-4.0-7.0-3.0","pilot_wm_v1","null","6","null","null","false","","","","","","","null","<div style=""font-size:200px;color:red;"">1</div>","null","","","","","","","","","","","","","","",""
"revaluation","279","1304307","0.0-4.0-8.0-0.0","pilot_wm_v1","null","6","null","null","false","","false","","","","","[483.20000000298023]","./assets/img/ocean/test/0.jpg","[""ArrowUp""]","first stage test","ocean","0","{""ArrowUp,ArrowLeft"":27,""ArrowUp,ArrowRight"":15,""ArrowDown,ArrowLeft"":21,""ArrowDown,ArrowRight"":7}","true","ArrowUp","false","","","","","","revaluation","1",""
"html-keyboard-response","280","1304809","0.0-4.0-8.0-1.0","pilot_wm_v1","null","6","null","null","false","","","","","","","null","<div style=""font-size:60px;"">+</div>","null","fixation","","","","","","","","","","","","","",""
"revaluation","281","1305781","0.0-4.0-8.0-0.1","pilot_wm_v1","null","6","null","null","false","","false","","","","","[966]","./assets/img/ocean/test/1.jpg","[""ArrowUp""]","first stage test","ocean","0","{""ArrowUp,ArrowLeft"":27,""ArrowUp,ArrowRight"":15,""ArrowDown,ArrowLeft"":21,""ArrowDown,ArrowRight"":7}","true","ArrowUp","false","","","","","","revaluation","1",""
"html-keyboard-response","282","1306282","0.0-4.0-8.0-1.1","pilot_wm_v1","null","6","null","null","false","","","","","","","null","<div style=""font-size:60px;"">+</div>","null","fixation","","","","","","","","","","","","","",""
"revaluation","283","1306713","0.0-4.0-8.0-0.2","pilot_wm_v1","null","6","null","null","false","","false","","","","","[425.6000000014901]","./assets/img/ocean/test/3.jpg","[""ArrowDown""]","first stage test","ocean","0","{""ArrowUp,ArrowLeft"":27,""ArrowUp,ArrowRight"":15,""ArrowDown,ArrowLeft"":21,""ArrowDown,ArrowRight"":7}","false","ArrowDown","false","","","","","","revaluation","1",""
"html-keyboard-response","284","1307214","0.0-4.0-8.0-1.2","pilot_wm_v1","null","6","null","null","false","","","","","","","null","<div style=""font-size:60px;"">+</div>","null","fixation","","","","","","","","","","","","","",""
"revaluation","285","1307626","0.0-4.0-8.0-0.3","pilot_wm_v1","null","6","null","null","false","","false","","","","","[405]","./assets/img/ocean/test/2.jpg","[""ArrowUp""]","first stage test","ocean","0","{""ArrowUp,ArrowLeft"":27,""ArrowUp,ArrowRight"":15,""ArrowDown,ArrowLeft"":21,""ArrowDown,ArrowRight"":7}","true","ArrowUp","false","","","","","","revaluation","1",""
"html-keyboard-response","286","1308127","0.0-4.0-8.0-1.3","pilot_wm_v1","null","6","null","null","false","","","","","","","null","<div style=""font-size:60px;"">+</div>","null","fixation","","","","","","","","","","","","","",""
"learning-instructions","287","1321478","0.0-4.0-9.0-0.0","pilot_wm_v1","null","6","null","null","false","","","","","","","null","<p> Now you will see the animals again and can search their chests for treasure. </p>
            <p> This time, you will not see how much treasure you earned, but you will earn more bonus money for making better choices. </p>","","instructions","","","","","","","","","","","","","",""
"html-keyboard-response","288","1322480","0.0-4.0-10.0-0.0","pilot_wm_v1","null","6","null","null","false","","","","","","","null","<div style=""font-size:100px;color:red;"">Starting in...</div>","null","","","","","","","","","","","","","","",""
"html-keyboard-response","289","1323481","0.0-4.0-10.0-1.0","pilot_wm_v1","null","6","null","null","false","","","","","","","null","<div style=""font-size:200px;color:red;"">3</div>","null","","","","","","","","","","","","","","",""
"html-keyboard-response","290","1324483","0.0-4.0-10.0-2.0","pilot_wm_v1","null","6","null","null","false","","","","","","","null","<div style=""font-size:200px;color:red;"">2</div>","null","","","","","","","","","","","","","","",""
"html-keyboard-response","291","1325484","0.0-4.0-10.0-3.0","pilot_wm_v1","null","6","null","null","false","","","","","","","null","<div style=""font-size:200px;color:red;"">1</div>","null","","","","","","","","","","","","","","",""
"revaluation","292","1326330","0.0-4.0-11.0-0.0","pilot_wm_v1","null","6","null","null","false","","false","","","","","[840.7999999970198]","./assets/img/ocean/animals/seahorse.jpg","[""ArrowRight""]","second stage test","ocean","0","{""ArrowUp,ArrowLeft"":27,""ArrowUp,ArrowRight"":15,""ArrowDown,ArrowLeft"":21,""ArrowDown,ArrowRight"":7}","false","ArrowUp,ArrowRight","","","","","","","revaluation","1",""
"html-keyboard-response","293","1326831","0.0-4.0-11.0-1.0","pilot_wm_v1","null","6","null","null","false","","","","","","","null","<div style=""font-size:60px;"">+</div>","null","fixation","","","","","","","","","","","","","",""
"revaluation","294","1327471","0.0-4.0-11.0-0.1","pilot_wm_v1","null","6","null","null","false","","false","","","","","[633.3999999985099]","./assets/img/ocean/animals/seahorse.jpg","[""ArrowLeft""]","second stage test","ocean","0","{""ArrowUp,ArrowLeft"":27,""ArrowUp,ArrowRight"":15,""ArrowDown,ArrowLeft"":21,""ArrowDown,ArrowRight"":7}","true","ArrowUp,ArrowLeft","","","","","","","revaluation","1",""
"html-keyboard-response","295","1327972","0.0-4.0-11.0-1.1","pilot_wm_v1","null","6","null","null","false","","","","","","","null","<div style=""font-size:60px;"">+</div>","null","fixation","","","","","","","","","","","","","",""
"revaluation","296","1328501","0.0-4.0-11.0-0.2","pilot_wm_v1","null","6","null","null","false","","false","","","","","[523.6000000014901]","./assets/img/ocean/animals/seahorse.jpg","[""ArrowLeft""]","second stage test","ocean","0","{""ArrowUp,ArrowLeft"":27,""ArrowUp,ArrowRight"":15,""ArrowDown,ArrowLeft"":21,""ArrowDown,ArrowRight"":7}","true","ArrowUp,ArrowLeft","","","","","","","revaluation","1",""
"html-keyboard-response","297","1329003","0.0-4.0-11.0-1.2","pilot_wm_v1","null","6","null","null","false","","","","","","","null","<div style=""font-size:60px;"">+</div>","null","fixation","","","","","","","","","","","","","",""
"revaluation","298","1329564","0.0-4.0-11.0-0.3","pilot_wm_v1","null","6","null","null","false","","false","","","","","[555.8000000044703]","./assets/img/ocean/animals/seahorse.jpg","[""ArrowLeft""]","second stage test","ocean","0","{""ArrowUp,ArrowLeft"":27,""ArrowUp,ArrowRight"":15,""ArrowDown,ArrowLeft"":21,""ArrowDown,ArrowRight"":7}","true","ArrowUp,ArrowLeft","","","","","","","revaluation","1",""
"html-keyboard-response","299","1330066","0.0-4.0-11.0-1.3","pilot_wm_v1","null","6","null","null","false","","","","","","","null","<div style=""font-size:60px;"">+</div>","null","fixation","","","","","","","","","","","","","",""
"revaluation","300","1330920","0.0-4.0-11.0-0.4","pilot_wm_v1","null","6","null","null","false","","false","","","","","[848.6000000014901]","./assets/img/ocean/animals/octopus.jpg","[""ArrowRight""]","second stage test","ocean","0","{""ArrowUp,ArrowLeft"":27,""ArrowUp,ArrowRight"":15,""ArrowDown,ArrowLeft"":21,""ArrowDown,ArrowRight"":7}","false","ArrowDown,ArrowRight","","","","","","","revaluation","1",""
"html-keyboard-response","301","1331421","0.0-4.0-11.0-1.4","pilot_wm_v1","null","6","null","null","false","","","","","","","null","<div style=""font-size:60px;"">+</div>","null","fixation","","","","","","","","","","","","","",""
"revaluation","302","1331916","0.0-4.0-11.0-0.5","pilot_wm_v1","null","6","null","null","false","","false","","","","","[488.5]","./assets/img/ocean/animals/octopus.jpg","[""ArrowRight""]","second stage test","ocean","0","{""ArrowUp,ArrowLeft"":27,""ArrowUp,ArrowRight"":15,""ArrowDown,ArrowLeft"":21,""ArrowDown,ArrowRight"":7}","false","ArrowDown,ArrowRight","","","","","","","revaluation","1",""
