"trial_type","trial_index","time_elapsed","internal_node_id","task_version","subject_id","assigned_condition","age","gender","rest","success","timeout","failed_images","failed_audio","failed_video","browser_interaction","rt","stimulus","response","task_part","environment","score","rewardMap","correct","fullState","isCatch","audioStim","slider_start","answer","error","numberMissed","duration","trial_num","condition","order","bonus"
"pavlovia","0","2068","0.0-0.0","pilot_wm_v1","6692463a3773ef328cdde1f0","2","null","null","true","","","","","","","","","","","","","","","","","","","","","","","","","",""
"preload","1","6605","0.0-1.0","pilot_wm_v1","6692463a3773ef328cdde1f0","2","null","null","true","true","false","[]","[]","[]","[{""event"":""blur"",""trial"":2,""time"":17814},{""event"":""focus"",""trial"":2,""time"":23529},{""event"":""fullscreenenter"",""trial"":2,""time"":23860}]","","","","","","","","","","","","","","","","","","","",""
"fullscreen","2","24662","0.0-2.0","pilot_wm_v1","6692463a3773ef328cdde1f0","2","null","null","true","true","","","","","","","","","","","","","","","","","","","","","","","","",""
"audio-button-response","3","28886","0.0-3.0-0.0-0.0","pilot_wm_v1","6692463a3773ef328cdde1f0","2","null","null","true","","","","","","","4160","./assets/audio/audiotest/turtle.mp3","2","audio_test","","","","","","","","","","","","","","","",""
"learning-instructions","4","38252","0.0-3.0-1.0-0.0","pilot_wm_v1","6692463a3773ef328cdde1f0","2","null","null","true","","","","","","","2218","<p> Welcome! Please remember to stay in fullscreen mode and don't click away from the experiment. </p>","","instructions","","","","","","","","","","","","","","","",""
"learning-instructions","5","48577","0.0-3.0-1.0-0.1","pilot_wm_v1","6692463a3773ef328cdde1f0","2","null","null","true","","","","","","","1833","<p> Today you will be playing a game to earn treasure. </p>
            <p> At the end of the experiment, you will earn a bonus based on how much treasure you find. </p>
            <img src='./assets/img/instructions/treasure.jpg' class='instructions-image'>","","instructions","","","","","","","","","","","","","","","",""
"learning-instructions","6","57863","0.0-3.0-1.0-0.2","pilot_wm_v1","6692463a3773ef328cdde1f0","2","null","null","true","","","","","","","948","<p> Animals have hidden treasure in treasure chests. </p>
            <p> You need to first find an animal and then choose which of their treasure chests to search. </p>
            <img src='./assets/img/space/animals/cat.jpg' class='instructions-image'>","","instructions","","","","","","","","","","","","","","","",""
"learning-instructions","7","72294","0.0-3.0-1.0-0.3","pilot_wm_v1","6692463a3773ef328cdde1f0","2","null","null","true","","","","","","","1160","<p> In each round, you will search for treasure in a different place. In the real game, there will be two rounds. </p>
            <p> You will begin with a separate, practice round where you will search for treasure in outer space. </p>
            <img src='./assets/img/space/0.jpg' class='instructions-image'>","","instructions","","","","","","","","","","","","","","","",""
"learning-instructions","8","84626","0.0-3.0-1.0-0.4","pilot_wm_v1","6692463a3773ef328cdde1f0","2","null","null","true","","","","","","","812","<p> On every turn, you will see a picture of the place that you are in, but the specific image may be different each time. </p>
            <p> For example, both of these images mean you are in outer space. </p>
            <img src='./assets/img/instructions/outerspace.jpg' class='instructions-image'>","","instructions","","","","","","","","","","","","","","","",""
"learning-instructions","9","94466","0.0-3.0-1.0-0.5","pilot_wm_v1","6692463a3773ef328cdde1f0","2","null","null","true","","","","","","","1942","<p> You need to decide which direction to travel in. </p>
            <p> You can choose between going <b>up or down</b> by using the arrow keys. </p>
            <img src='./assets/img/instructions/updown.jpg' class='instructions-image'>","","instructions","","","","","","","","","","","","","","","",""
"learning-instructions","10","104337","0.0-3.0-1.0-0.6","pilot_wm_v1","6692463a3773ef328cdde1f0","2","null","null","true","","","","","","","983","<p> You will have <b>2 seconds</b> to make your choice. </p>
            <p> If you do not make a choice within 2 seconds, you will not find an animal or earn treasure. </p>
            <img src='./assets/img/instructions/2seconds.jpg' class='instructions-image'>","","instructions","","","","","","","","","","","","","","","",""
"learning-instructions","11","121126","0.0-3.0-1.0-0.7","pilot_wm_v1","6692463a3773ef328cdde1f0","2","null","null","true","","","","","","","9694","<p> Let’s try practicing that now! </p>
            <p> When you see a picture of the place you are in, press the <b>up</b> key to travel up. </p>
            <img src='./assets/img/instructions/pressUp.jpg' class='instructions-image'>","","instructions","","","","","","","","","","","","","","","",""
"revaluation","12","125152","0.0-3.0-2.0-0.0","pilot_wm_v1","6692463a3773ef328cdde1f0","2","null","null","true","","false","","","","","[1324]","./assets/img/space/0.jpg","[""ArrowUp""]","first stage practice","space","0","null","null","ArrowUp","false","","","","","","","","","",""
"html-keyboard-response","13","125672","0.0-3.0-2.0-1.0","pilot_wm_v1","6692463a3773ef328cdde1f0","2","null","null","true","","","","","","","null","<div style=""font-size:60px;"">+</div>","null","fixation","","","","","","","","","","","","","","","",""
"revaluation","14","129682","0.0-3.0-2.0-0.1","pilot_wm_v1","6692463a3773ef328cdde1f0","2","null","null","true","","false","","","","","[1899]","./assets/img/space/1.jpg","[""ArrowUp""]","first stage practice","space","0","null","null","ArrowUp","false","","","","","","","","","",""
"html-keyboard-response","15","130202","0.0-3.0-2.0-1.1","pilot_wm_v1","6692463a3773ef328cdde1f0","2","null","null","true","","","","","","","null","<div style=""font-size:60px;"">+</div>","null","fixation","","","","","","","","","","","","","","","",""
"revaluation","16","134242","0.0-3.0-2.0-0.2","pilot_wm_v1","6692463a3773ef328cdde1f0","2","null","null","true","","false","","","","","[1828]","./assets/img/space/2.jpg","[""ArrowUp""]","first stage practice","space","0","null","null","ArrowUp","false","","","","","","","","","",""
"html-keyboard-response","17","134762","0.0-3.0-2.0-1.2","pilot_wm_v1","6692463a3773ef328cdde1f0","2","null","null","true","","","","","","","null","<div style=""font-size:60px;"">+</div>","null","fixation","","","","","","","","","","","","","","","",""
"learning-instructions","18","140311","0.0-3.0-3.0-0.0","pilot_wm_v1","6692463a3773ef328cdde1f0","2","null","null","true","","","","","","","808","<p> Great job! Now try pressing the <b>down</b> key to travel down. </p>
            <img src='./assets/img/instructions/pressDown.jpg' class='instructions-image'>","","instructions","","","","","","","","","","","","","","","",""
"revaluation","19","144342","0.0-3.0-4.0-0.0","pilot_wm_v1","6692463a3773ef328cdde1f0","2","null","null","true","","false","","","","","[576]","./assets/img/space/3.jpg","[""ArrowDown""]","first stage practice","space","0","null","null","ArrowDown","false","","","","","","","","","",""
"html-keyboard-response","20","144862","0.0-3.0-4.0-1.0","pilot_wm_v1","6692463a3773ef328cdde1f0","2","null","null","true","","","","","","","null","<div style=""font-size:60px;"">+</div>","null","fixation","","","","","","","","","","","","","","","",""
"revaluation","21","148892","0.0-3.0-4.0-0.1","pilot_wm_v1","6692463a3773ef328cdde1f0","2","null","null","true","","false","","","","","[869]","./assets/img/space/4.jpg","[""ArrowDown""]","first stage practice","space","0","null","null","ArrowDown","false","","","","","","","","","",""
"html-keyboard-response","22","149411","0.0-3.0-4.0-1.1","pilot_wm_v1","6692463a3773ef328cdde1f0","2","null","null","true","","","","","","","null","<div style=""font-size:60px;"">+</div>","null","fixation","","","","","","","","","","","","","","","",""
"revaluation","23","153422","0.0-3.0-4.0-0.2","pilot_wm_v1","6692463a3773ef328cdde1f0","2","null","null","true","","false","","","","","[670]","./assets/img/space/5.jpg","[""ArrowDown""]","first stage practice","space","0","null","null","ArrowDown","false","","","","","","","","","",""
"html-keyboard-response","24","153941","0.0-3.0-4.0-1.2","pilot_wm_v1","6692463a3773ef328cdde1f0","2","null","null","true","","","","","","","null","<div style=""font-size:60px;"">+</div>","null","fixation","","","","","","","","","","","","","","","",""
"learning-instructions","25","164608","0.0-3.0-5.0-0.0","pilot_wm_v1","6692463a3773ef328cdde1f0","2","null","null","true","","","","","","","737","<p> The animals don’t move, so the animal in the upper part of a place will stay in the upper part of a place, and the animal in the lower part of a place will stay in the lower part of a place. </p>","","instructions","","","","","","","","","","","","","","","",""
"learning-instructions","26","174581","0.0-3.0-5.0-0.1","pilot_wm_v1","6692463a3773ef328cdde1f0","2","null","null","true","","","","","","","758","<p> Each animal has two treasure chests for you to choose from. </p>
            <p> The amount of treasure in each chest can range from <b> 0 to 40 pieces.</b></p>","","instructions","","","","","","","","","","","","","","","",""
"learning-instructions","27","186734","0.0-3.0-5.0-0.2","pilot_wm_v1","6692463a3773ef328cdde1f0","2","null","null","true","","","","","","","871","<p> You should decide which chest to search for treasure by using the <b>left</b> and <b>right</b> arrow keys. </p>
            <p><b> Pay attention to which animal is on the screen, as the animals have different treasure chests. </b></p>
            <img src='./assets/img/instructions/leftright.jpg' class='instructions-image'>","","instructions","","","","","","","","","","","","","","","",""
"learning-instructions","28","193912","0.0-3.0-5.0-0.3","pilot_wm_v1","6692463a3773ef328cdde1f0","2","null","null","true","","","","","","","760","<p> Let’s try practicing that now. </p>
            <p> When you see an animal, choose which chest to search for treasure. </p>
            <img src='./assets/img/instructions/chooseChest.jpg' class='instructions-image'>","","instructions","","","","","","","","","","","","","","","",""
"revaluation","29","197922","0.0-3.0-6.0-0.0","pilot_wm_v1","6692463a3773ef328cdde1f0","2","null","null","true","","false","","","","","[1718]","./assets/img/space/animals/cat.jpg","[""ArrowRight""]","second stage practice","space","36","{""ArrowUp,ArrowLeft"":3,""ArrowUp,ArrowRight"":36,""ArrowDown,ArrowLeft"":15,""ArrowDown,ArrowRight"":23}","true","ArrowUp,ArrowRight","","","","","","","","","","",""
"html-keyboard-response","30","198441","0.0-3.0-6.0-1.0","pilot_wm_v1","6692463a3773ef328cdde1f0","2","null","null","true","","","","","","","null","<div style=""font-size:60px;"">+</div>","null","fixation","","","","","","","","","","","","","","","",""
"revaluation","31","202482","0.0-3.0-6.0-0.1","pilot_wm_v1","6692463a3773ef328cdde1f0","2","null","null","true","","false","","","","","[885]","./assets/img/space/animals/cat.jpg","[""ArrowRight""]","second stage practice","space","36","{""ArrowUp,ArrowLeft"":3,""ArrowUp,ArrowRight"":36,""ArrowDown,ArrowLeft"":15,""ArrowDown,ArrowRight"":23}","true","ArrowUp,ArrowRight","","","","","","","","","","",""
"html-keyboard-response","32","203001","0.0-3.0-6.0-1.1","pilot_wm_v1","6692463a3773ef328cdde1f0","2","null","null","true","","","","","","","null","<div style=""font-size:60px;"">+</div>","null","fixation","","","","","","","","","","","","","","","",""
"revaluation","33","207061","0.0-3.0-6.0-0.2","pilot_wm_v1","6692463a3773ef328cdde1f0","2","null","null","true","","false","","","","","[897]","./assets/img/space/animals/rabbit.jpg","[""ArrowLeft""]","second stage practice","space","15","{""ArrowUp,ArrowLeft"":3,""ArrowUp,ArrowRight"":36,""ArrowDown,ArrowLeft"":15,""ArrowDown,ArrowRight"":23}","false","ArrowDown,ArrowLeft","","","","","","","","","","",""
"html-keyboard-response","34","207581","0.0-3.0-6.0-1.2","pilot_wm_v1","6692463a3773ef328cdde1f0","2","null","null","true","","","","","","","null","<div style=""font-size:60px;"">+</div>","null","fixation","","","","","","","","","","","","","","","",""
"revaluation","35","211721","0.0-3.0-6.0-0.3","pilot_wm_v1","6692463a3773ef328cdde1f0","2","null","null","true","","false","","","","","[410]","./assets/img/space/animals/rabbit.jpg","[""ArrowRight""]","second stage practice","space","23","{""ArrowUp,ArrowLeft"":3,""ArrowUp,ArrowRight"":36,""ArrowDown,ArrowLeft"":15,""ArrowDown,ArrowRight"":23}","true","ArrowDown,ArrowRight","","","","","","","","","","",""
"html-keyboard-response","36","212240","0.0-3.0-6.0-1.3","pilot_wm_v1","6692463a3773ef328cdde1f0","2","null","null","true","","","","","","","null","<div style=""font-size:60px;"">+</div>","null","fixation","","","","","","","","","","","","","","","",""
"learning-instructions","37","230074","0.0-3.0-7.0-0.0","pilot_wm_v1","6692463a3773ef328cdde1f0","2","null","null","true","","","","","","","882","<p> Great job. Now let’s try putting it together. </p>
            <p> On each turn, you will first see a picture to remind you of the place you are in, and you need to choose whether to go up or down. </p>
            <p> Then you will see an animal and choose which of its chests to search for treasure. </p>","","instructions","","","","","","","","","","","","","","","",""
"learning-instructions","38","239252","0.0-3.0-7.0-0.1","pilot_wm_v1","6692463a3773ef328cdde1f0","2","null","null","true","","","","","","","840","<p> When you choose whether to go up or down, try to go to the animal with the chest with the most treasure. </p>
            <p> Try practicing that now! </p>","","instructions","","","","","","","","","","","","","","","",""
"revaluation","39","245300","0.0-3.0-8.0-0.0","pilot_wm_v1","6692463a3773ef328cdde1f0","2","null","null","true","","false","","","","","[735,1560]","./assets/img/space/6.jpg","[""ArrowUp"",""ArrowRight""]","full practice","space","36","{""ArrowUp,ArrowLeft"":3,""ArrowUp,ArrowRight"":36,""ArrowDown,ArrowLeft"":15,""ArrowDown,ArrowRight"":23}","true","ArrowUp,ArrowRight","false","","","","","","","","","",""
"html-keyboard-response","40","245821","0.0-3.0-8.0-1.0","pilot_wm_v1","6692463a3773ef328cdde1f0","2","null","null","true","","","","","","","null","<div style=""font-size:60px;"">+</div>","null","fixation","","","","","","","","","","","","","","","",""
"revaluation","41","251860","0.0-3.0-8.0-0.1","pilot_wm_v1","6692463a3773ef328cdde1f0","2","null","null","true","","false","","","","","[441,1789]","./assets/img/space/7.jpg","[""ArrowUp"",""ArrowRight""]","full practice","space","36","{""ArrowUp,ArrowLeft"":3,""ArrowUp,ArrowRight"":36,""ArrowDown,ArrowLeft"":15,""ArrowDown,ArrowRight"":23}","true","ArrowUp,ArrowRight","false","","","","","","","","","",""
"html-keyboard-response","42","252380","0.0-3.0-8.0-1.1","pilot_wm_v1","6692463a3773ef328cdde1f0","2","null","null","true","","","","","","","null","<div style=""font-size:60px;"">+</div>","null","fixation","","","","","","","","","","","","","","","",""
"revaluation","43","258421","0.0-3.0-8.0-0.2","pilot_wm_v1","6692463a3773ef328cdde1f0","2","null","null","true","","false","","","","","[521,1763]","./assets/img/space/8.jpg","[""ArrowDown"",""ArrowRight""]","full practice","space","23","{""ArrowUp,ArrowLeft"":3,""ArrowUp,ArrowRight"":36,""ArrowDown,ArrowLeft"":15,""ArrowDown,ArrowRight"":23}","false","ArrowDown,ArrowRight","false","","","","","","","","","",""
"html-keyboard-response","44","258940","0.0-3.0-8.0-1.2","pilot_wm_v1","6692463a3773ef328cdde1f0","2","null","null","true","","","","","","","null","<div style=""font-size:60px;"">+</div>","null","fixation","","","","","","","","","","","","","","","",""
"revaluation","45","265100","0.0-3.0-8.0-0.3","pilot_wm_v1","6692463a3773ef328cdde1f0","2","null","null","true","","false","","","","","[827,663]","./assets/img/space/9.jpg","[""ArrowDown"",""ArrowLeft""]","full practice","space","15","{""ArrowUp,ArrowLeft"":3,""ArrowUp,ArrowRight"":36,""ArrowDown,ArrowLeft"":15,""ArrowDown,ArrowRight"":23}","false","ArrowDown,ArrowLeft","false","","","","","","","","","",""
"html-keyboard-response","46","265620","0.0-3.0-8.0-1.3","pilot_wm_v1","6692463a3773ef328cdde1f0","2","null","null","true","","","","","","","null","<div style=""font-size:60px;"">+</div>","null","fixation","","","","","","","","","","","","","","","",""
"revaluation","47","271680","0.0-3.0-8.0-0.4","pilot_wm_v1","6692463a3773ef328cdde1f0","2","null","null","true","","false","","","","","[423,549]","./assets/img/space/10.jpg","[""ArrowUp"",""ArrowLeft""]","full practice","space","3","{""ArrowUp,ArrowLeft"":3,""ArrowUp,ArrowRight"":36,""ArrowDown,ArrowLeft"":15,""ArrowDown,ArrowRight"":23}","false","ArrowUp,ArrowLeft","false","","","","","","","","","",""
"html-keyboard-response","48","272200","0.0-3.0-8.0-1.4","pilot_wm_v1","6692463a3773ef328cdde1f0","2","null","null","true","","","","","","","null","<div style=""font-size:60px;"">+</div>","null","fixation","","","","","","","","","","","","","","","",""
"learning-instructions","49","285057","0.0-3.0-9.0-0.0","pilot_wm_v1","6692463a3773ef328cdde1f0","2","null","null","true","","","","","","","2456","<p> One last thing: sometimes, you will see a robber. The robber can be anywhere in the picture. </p>
            <p> If you do not stop them, you will lose treasure. </p>
            <img src='./assets/img/instructions/robber.jpg' class='instructions-image'>","","instructions","","","","","","","","","","","","","","","",""
"learning-instructions","50","293106","0.0-3.0-9.0-0.1","pilot_wm_v1","6692463a3773ef328cdde1f0","2","null","null","true","","","","","","","805","<p> If you see the robber, you should <b>press the space bar</b> rather than using the arrow keys. </p>
            <p> Try practicing that now! </p>","","instructions","","","","","","","","","","","","","","","",""
"revaluation","51","297130","0.0-3.0-10.0-0.0","pilot_wm_v1","6692463a3773ef328cdde1f0","2","null","null","true","","false","","","","","[779]","./assets/img/space/catch/0.jpg","[""spaceBar""]","catch practice","space","0","{""ArrowUp,ArrowLeft"":3,""ArrowUp,ArrowRight"":36,""ArrowDown,ArrowLeft"":15,""ArrowDown,ArrowRight"":23}","true","spaceBar","true","","","","","","","","","",""
"html-keyboard-response","52","297649","0.0-3.0-10.0-1.0","pilot_wm_v1","6692463a3773ef328cdde1f0","2","null","null","true","","","","","","","null","<div style=""font-size:60px;"">+</div>","null","fixation","","","","","","","","","","","","","","","",""
"revaluation","53","301659","0.0-3.0-10.0-0.1","pilot_wm_v1","6692463a3773ef328cdde1f0","2","null","null","true","","false","","","","","[496]","./assets/img/space/catch/1.jpg","[""spaceBar""]","catch practice","space","0","{""ArrowUp,ArrowLeft"":3,""ArrowUp,ArrowRight"":36,""ArrowDown,ArrowLeft"":15,""ArrowDown,ArrowRight"":23}","true","spaceBar","true","","","","","","","","","",""
"html-keyboard-response","54","302179","0.0-3.0-10.0-1.1","pilot_wm_v1","6692463a3773ef328cdde1f0","2","null","null","true","","","","","","","null","<div style=""font-size:60px;"">+</div>","null","fixation","","","","","","","","","","","","","","","",""
"revaluation","55","306659","0.0-3.0-10.0-0.2","pilot_wm_v1","6692463a3773ef328cdde1f0","2","null","null","true","","false","","","","","[532]","./assets/img/space/catch/2.jpg","[""spaceBar""]","catch practice","space","0","{""ArrowUp,ArrowLeft"":3,""ArrowUp,ArrowRight"":36,""ArrowDown,ArrowLeft"":15,""ArrowDown,ArrowRight"":23}","true","spaceBar","true","","","","","","","","","",""
"html-keyboard-response","56","307179","0.0-3.0-10.0-1.2","pilot_wm_v1","6692463a3773ef328cdde1f0","2","null","null","true","","","","","","","null","<div style=""font-size:60px;"">+</div>","null","fixation","","","","","","","","","","","","","","","",""
"learning-instructions","57","313922","0.0-3.0-11.0-0.0","pilot_wm_v1","6692463a3773ef328cdde1f0","2","null","null","true","","","","","","","1191","<p> Sometimes, you will come across a special kind of treasure chest that requires a password. </p>
            <img src='./assets/img/instructions/beep_chest.jpg' class='instructions-image'>","","instructions","","","","","","","","","","","","","","","",""
"learning-instructions","58","336791","0.0-3.0-11.0-0.1","pilot_wm_v1","6692463a3773ef328cdde1f0","2","null","null","true","","","","","","","1151","<p> Your friend will send you the password using a series of beeps so that you can open the chest and earn treasure. </p>
            <p> You will hear two kinds of beeps, a high beep and a low beep. </p>
            <p> You should report the number of high beeps that you heard before seeing the chest. </p>
            <img src='./assets/img/instructions/listen.jpg' class='instructions-image'>","","instructions","","","","","","","","","","","","","","","",""
"learning-instructions","59","359987","0.0-3.0-11.0-0.2","pilot_wm_v1","6692463a3773ef328cdde1f0","2","null","null","true","","","","","","","798","<p> For example, if you hear this series of beeps, you should report 4 as the password using the slider. </p>
            <p> After reporting a password for a chest, you should count the high beeps again starting from 0. </p>
            <p> Let's try practicing that now. </p>","","instructions","","","","","","","","","","","","","","","",""
"audio-button-response","60","368089","0.0-3.0-12.0-0.0-0.0","pilot_wm_v1","6692463a3773ef328cdde1f0","2","null","null","true","","","","","","","null","./assets/audio/beeps/practice_6.wav","null","","","","","","","","","","","","","","","","",""
"html-slider-response","61","381511","0.0-3.0-12.0-0.0-1.0","pilot_wm_v1","6692463a3773ef328cdde1f0","2","null","null","true","","","","","","","13419","<div style=""width:500px;"">
        <p>What is the password?</p>
        <img src='./assets/img/instructions/beep_chest.jpg' class='instructions-image'>","5","beep chest","","","","false","","","","50","0","5","","","","","",""
"comp-q","62","389132","0.0-3.0-12.0-0.0-2.0","pilot_wm_v1","6692463a3773ef328cdde1f0","2","null","null","true","","","","","","","2232","<p>Incorrect! Please try again. Remember to count the number of high pitched beeps only. </p>","0","beep answer","","","","","","","","","","","","","","","",""
"audio-button-response","63","397139","0.0-3.0-12.0-0.1-0.1","pilot_wm_v1","6692463a3773ef328cdde1f0","2","null","null","true","","","","","","","null","./assets/audio/beeps/practice_6.wav","null","","","","","","","","","","","","","","","","",""
"html-slider-response","64","401203","0.0-3.0-12.0-0.1-1.1","pilot_wm_v1","6692463a3773ef328cdde1f0","2","null","null","true","","","","","","","4063","<div style=""width:500px;"">
        <p>What is the password?</p>
        <img src='./assets/img/instructions/beep_chest.jpg' class='instructions-image'>","7","beep chest","","","","false","","","","50","0","7","","","","","",""
"comp-q","65","408009","0.0-3.0-12.0-0.1-2.1","pilot_wm_v1","6692463a3773ef328cdde1f0","2","null","null","true","","","","","","","1460","<p>Incorrect! Please try again. Remember to count the number of high pitched beeps only. </p>","0","beep answer","","","","","","","","","","","","","","","",""
"audio-button-response","66","416018","0.0-3.0-12.0-0.2-0.2","pilot_wm_v1","6692463a3773ef328cdde1f0","2","null","null","true","","","","","","","null","./assets/audio/beeps/practice_6.wav","null","","","","","","","","","","","","","","","","",""
"html-slider-response","67","420812","0.0-3.0-12.0-0.2-1.2","pilot_wm_v1","6692463a3773ef328cdde1f0","2","null","null","true","","","","","","","4794","<div style=""width:500px;"">
        <p>What is the password?</p>
        <img src='./assets/img/instructions/beep_chest.jpg' class='instructions-image'>","6","beep chest","","","","false","","","","50","0","6","","","","","",""
"comp-q","68","427067","0.0-3.0-12.0-0.2-2.2","pilot_wm_v1","6692463a3773ef328cdde1f0","2","null","null","true","","","","","","","2018","<p>Correct! There were 6 high pitched beeps before you saw the chest. </p>","0","beep answer","","","","","","","","","","","","","","","",""
"audio-button-response","69","435169","0.0-3.0-12.0-0.3-0.3","pilot_wm_v1","6692463a3773ef328cdde1f0","2","null","null","true","","","","","","","null","./assets/audio/beeps/practice_4.wav","null","","","","","","","","","","","","","","","","",""
"html-slider-response","70","443082","0.0-3.0-12.0-0.3-1.3","pilot_wm_v1","6692463a3773ef328cdde1f0","2","null","null","true","","","","","","","7912","<div style=""width:500px;"">
        <p>What is the password?</p>
        <img src='./assets/img/instructions/beep_chest.jpg' class='instructions-image'>","5","beep chest","","","","false","","","","50","0","5","","","","","",""
"comp-q","71","450986","0.0-3.0-12.0-0.3-2.3","pilot_wm_v1","6692463a3773ef328cdde1f0","2","null","null","true","","","","","","","2558","<p>Incorrect! Please try again. Remember to count the number of high pitched beeps only. </p>","0","beep answer","","","","","","","","","","","","","","","",""
"audio-button-response","72","458988","0.0-3.0-12.0-0.4-0.4","pilot_wm_v1","6692463a3773ef328cdde1f0","2","null","null","true","","","","","","","null","./assets/audio/beeps/practice_4.wav","null","","","","","","","","","","","","","","","","",""
"html-slider-response","73","463289","0.0-3.0-12.0-0.4-1.4","pilot_wm_v1","6692463a3773ef328cdde1f0","2","null","null","true","","","","","","","4300","<div style=""width:500px;"">
        <p>What is the password?</p>
        <img src='./assets/img/instructions/beep_chest.jpg' class='instructions-image'>","4","beep chest","","","","false","","","","50","0","4","","","","","",""
"comp-q","74","469572","0.0-3.0-12.0-0.4-2.4","pilot_wm_v1","6692463a3773ef328cdde1f0","2","null","null","true","","","","","","","2064","<p>Correct! There were 4 high pitched beeps before you saw the chest. </p>","0","beep answer","","","","","","","","","","","","","","","",""
"learning-instructions","75","480890","0.0-3.0-13.0-0.0","pilot_wm_v1","6692463a3773ef328cdde1f0","2","null","null","true","","","","","","","953","<p> Good job! In the real game we will not tell you if you entered the right password. </p>
            <p> Do your best, the treasure you earn from these chests will also give you extra bonus money. </p>","","instructions","","","","","","","","","","","","","","","",""
"learning-instructions","76","495914","0.0-3.0-14.0-0.0-0.0","pilot_wm_v1","6692463a3773ef328cdde1f0","2","null","null","true","","","","","","","1326","<p> After you explore a place to find treasure, it will be time to play a different game. </p>
            <p> During this game, red dots will appear on the screen and fall down slowly. </p>
            <p><b> You must click on them before they reach the bottom. </b></p>
            <img src='./assets/img/instructions/dotGame.jpg' class='instructions-image'>","","instructions","","","","","","","","","","","","","","","",""
"learning-instructions","77","503074","0.0-3.0-14.0-0.0-0.1","pilot_wm_v1","6692463a3773ef328cdde1f0","2","null","null","true","","","","","","","1426","<p> For every dot you click, you will earn additional treasure. </p>
            <p> Let’s try practicing that now. </p>","","instructions","","","","","","","","","","","","","","","",""
"revaluation","78","518076","0.0-3.0-14.0-1.0-0.0","pilot_wm_v1","6692463a3773ef328cdde1f0","2","null","null","true","","","","","","","[73]","","","rest practice","","10","","","","","","","","","0","15000","","","",""
"learning-instructions","79","525209","0.0-3.0-15.0-0.0-0.0","pilot_wm_v1","6692463a3773ef328cdde1f0","2","null","null","true","","","","","","","1832","<p> Now, you will practice a shortened version of the game to get a sense of how it all fits together. </p>","","instructions","","","","","","","","","","","","","","","",""
"learning-instructions","80","530091","0.0-3.0-15.0-0.0-0.1","pilot_wm_v1","6692463a3773ef328cdde1f0","2","null","null","true","","","","","","","1664","<p>This time you are searching for treasure in outer space.</p>","","instructions","","","","","","","","","","","","","","","",""
"learning-instructions","81","546660","0.0-3.0-15.0-1.0-0.0","pilot_wm_v1","6692463a3773ef328cdde1f0","2","null","null","true","","","","","","","1673","<p> Remember, when you see a picture of the place, use the up and down keys to <b>find an animal</b>.</p>
            <p> When you encounter an animal, you should use the left and right keys to <b>select a treasure chest</b>.</p>
            <p> Don't forget to look out for the robber! </p>","","instructions","","","","","","","","","","","","","","","",""
"revaluation","82","552694","0.0-3.0-15.0-2.0-0.0","pilot_wm_v1","6692463a3773ef328cdde1f0","2","null","null","true","","false","","","","","[1008,827]","./assets/img/space/11.jpg","[""ArrowUp"",""ArrowRight""]","practice block","space","36","{""ArrowUp,ArrowLeft"":3,""ArrowUp,ArrowRight"":36,""ArrowDown,ArrowLeft"":15,""ArrowDown,ArrowRight"":23}","true","ArrowUp,ArrowRight","false","","","","","","","","","",""
"html-keyboard-response","83","553215","0.0-3.0-15.0-2.0-1.0","pilot_wm_v1","6692463a3773ef328cdde1f0","2","null","null","true","","","","","","","null","<div style=""font-size:60px;"">+</div>","null","fixation","","","","","","","","","","","","","","","",""
"revaluation","84","559256","0.0-3.0-15.0-2.0-0.1","pilot_wm_v1","6692463a3773ef328cdde1f0","2","null","null","true","","false","","","","","[525,496]","./assets/img/space/12.jpg","[""ArrowUp"",""ArrowRight""]","practice block","space","36","{""ArrowUp,ArrowLeft"":3,""ArrowUp,ArrowRight"":36,""ArrowDown,ArrowLeft"":15,""ArrowDown,ArrowRight"":23}","true","ArrowUp,ArrowRight","false","","","","","","","","","",""
"html-keyboard-response","85","559776","0.0-3.0-15.0-2.0-1.1","pilot_wm_v1","6692463a3773ef328cdde1f0","2","null","null","true","","","","","","","null","<div style=""font-size:60px;"">+</div>","null","fixation","","","","","","","","","","","","","","","",""
"revaluation","86","565796","0.0-3.0-15.0-2.0-0.2","pilot_wm_v1","6692463a3773ef328cdde1f0","2","null","null","true","","false","","","","","[741,640]","./assets/img/space/13.jpg","[""ArrowUp"",""ArrowRight""]","practice block","space","36","{""ArrowUp,ArrowLeft"":3,""ArrowUp,ArrowRight"":36,""ArrowDown,ArrowLeft"":15,""ArrowDown,ArrowRight"":23}","true","ArrowUp,ArrowRight","false","","","","","","","","","",""
"html-keyboard-response","87","566315","0.0-3.0-15.0-2.0-1.2","pilot_wm_v1","6692463a3773ef328cdde1f0","2","null","null","true","","","","","","","null","<div style=""font-size:60px;"">+</div>","null","fixation","","","","","","","","","","","","","","","",""
"revaluation","88","572356","0.0-3.0-15.0-2.0-0.3","pilot_wm_v1","6692463a3773ef328cdde1f0","2","null","null","true","","false","","","","","[1507,626]","./assets/img/space/14.jpg","[""ArrowUp"",""ArrowRight""]","practice block","space","36","{""ArrowUp,ArrowLeft"":3,""ArrowUp,ArrowRight"":36,""ArrowDown,ArrowLeft"":15,""ArrowDown,ArrowRight"":23}","true","ArrowUp,ArrowRight","false","","","","","","","","","",""
"html-keyboard-response","89","572875","0.0-3.0-15.0-2.0-1.3","pilot_wm_v1","6692463a3773ef328cdde1f0","2","null","null","true","","","","","","","null","<div style=""font-size:60px;"">+</div>","null","fixation","","","","","","","","","","","","","","","",""
"revaluation","90","578905","0.0-3.0-15.0-2.0-0.4","pilot_wm_v1","6692463a3773ef328cdde1f0","2","null","null","true","","false","","","","","[1034,568]","./assets/img/space/11.jpg","[""ArrowUp"",""ArrowRight""]","practice block","space","36","{""ArrowUp,ArrowLeft"":3,""ArrowUp,ArrowRight"":36,""ArrowDown,ArrowLeft"":15,""ArrowDown,ArrowRight"":23}","true","ArrowUp,ArrowRight","false","","","","","","","","","",""
"html-keyboard-response","91","579416","0.0-3.0-15.0-2.0-1.4","pilot_wm_v1","6692463a3773ef328cdde1f0","2","null","null","true","","","","","","","null","<div style=""font-size:60px;"">+</div>","null","fixation","","","","","","","","","","","","","","","",""
"revaluation","92","585486","0.0-3.0-15.0-2.0-0.5","pilot_wm_v1","6692463a3773ef328cdde1f0","2","null","null","true","","false","","","","","[1250,567]","./assets/img/space/12.jpg","[""ArrowUp"",""ArrowRight""]","practice block","space","36","{""ArrowUp,ArrowLeft"":3,""ArrowUp,ArrowRight"":36,""ArrowDown,ArrowLeft"":15,""ArrowDown,ArrowRight"":23}","true","ArrowUp,ArrowRight","false","","","","","","","","","",""
"html-keyboard-response","93","586006","0.0-3.0-15.0-2.0-1.5","pilot_wm_v1","6692463a3773ef328cdde1f0","2","null","null","true","","","","","","","null","<div style=""font-size:60px;"">+</div>","null","fixation","","","","","","","","","","","","","","","",""
"revaluation","94","592066","0.0-3.0-15.0-2.0-0.6","pilot_wm_v1","6692463a3773ef328cdde1f0","2","null","null","true","","false","","","","","[786,627]","./assets/img/space/13.jpg","[""ArrowUp"",""ArrowRight""]","practice block","space","36","{""ArrowUp,ArrowLeft"":3,""ArrowUp,ArrowRight"":36,""ArrowDown,ArrowLeft"":15,""ArrowDown,ArrowRight"":23}","true","ArrowUp,ArrowRight","false","","","","","","","","","",""
"html-keyboard-response","95","592585","0.0-3.0-15.0-2.0-1.6","pilot_wm_v1","6692463a3773ef328cdde1f0","2","null","null","true","","","","","","","null","<div style=""font-size:60px;"">+</div>","null","fixation","","","","","","","","","","","","","","","",""
"revaluation","96","598626","0.0-3.0-15.0-2.0-0.7","pilot_wm_v1","6692463a3773ef328cdde1f0","2","null","null","true","","false","","","","","[1118,508]","./assets/img/space/14.jpg","[""ArrowUp"",""ArrowRight""]","practice block","space","36","{""ArrowUp,ArrowLeft"":3,""ArrowUp,ArrowRight"":36,""ArrowDown,ArrowLeft"":15,""ArrowDown,ArrowRight"":23}","true","ArrowUp,ArrowRight","false","","","","","","","","","",""
"html-keyboard-response","97","599146","0.0-3.0-15.0-2.0-1.7","pilot_wm_v1","6692463a3773ef328cdde1f0","2","null","null","true","","","","","","","null","<div style=""font-size:60px;"">+</div>","null","fixation","","","","","","","","","","","","","","","",""
"revaluation","98","603185","0.0-3.0-15.0-2.0-0.8","pilot_wm_v1","6692463a3773ef328cdde1f0","2","null","null","true","","false","","","","","[715]","./assets/img/space/catch/3.jpg","[""spaceBar""]","practice block","space","0","{""ArrowUp,ArrowLeft"":3,""ArrowUp,ArrowRight"":36,""ArrowDown,ArrowLeft"":15,""ArrowDown,ArrowRight"":23}","true","spaceBar","true","","","","","","","","","",""
"html-keyboard-response","99","603705","0.0-3.0-15.0-2.0-1.8","pilot_wm_v1","6692463a3773ef328cdde1f0","2","null","null","true","","","","","","","null","<div style=""font-size:60px;"">+</div>","null","fixation","","","","","","","","","","","","","","","",""
"learning-instructions","100","618973","0.0-3.0-15.0-3.0-0.0","pilot_wm_v1","6692463a3773ef328cdde1f0","2","null","null","true","","","","","","","2247","<p> Now, you will travel with a friend who will choose whether you go up or down first. </p>
            <p> On these turns, you will just see the animal that they found. You will still get to choose which chest to search for treasure.</p>","","instructions","","","","","","","","","","","","","","","",""
"learning-instructions","101","634352","0.0-3.0-15.0-3.0-0.1","pilot_wm_v1","6692463a3773ef328cdde1f0","2","null","null","true","","","","","","","3695","<p> In this part, you will also hear beeps from your friend and see special treasure chests that need a password. </p>
            <p> Do your best to count the high beeps <b>and</b> choose between each animals' chests at the same time.</p>
            <img src='./assets/img/instructions/beep_chest.jpg' class='instructions-image'>","","instructions","","","","","","","","","","","","","","","",""
"revaluation","102","638411","0.0-3.0-15.0-4.0-0.0","pilot_wm_v1","6692463a3773ef328cdde1f0","2","null","null","true","","true","","","","","[]","./assets/img/space/animals/cat.jpg","[]","practice block","space","-5","{""ArrowUp,ArrowLeft"":3,""ArrowUp,ArrowRight"":36,""ArrowDown,ArrowLeft"":15,""ArrowDown,ArrowRight"":23}","false","ArrowUp","","[""19_0""]","","","","","","0","","",""
"html-keyboard-response","103","638934","0.0-3.0-15.0-4.0-1.0","pilot_wm_v1","6692463a3773ef328cdde1f0","2","null","null","true","","","","","","","null","<div style=""font-size:60px;"">+</div>","null","fixation","","","","","","","","","","","","","","","",""
"revaluation","104","642955","0.0-3.0-15.0-4.0-0.1","pilot_wm_v1","6692463a3773ef328cdde1f0","2","null","null","true","","false","","","","","[1387]","./assets/img/space/animals/rabbit.jpg","[""ArrowRight""]","practice block","space","23","{""ArrowUp,ArrowLeft"":3,""ArrowUp,ArrowRight"":36,""ArrowDown,ArrowLeft"":15,""ArrowDown,ArrowRight"":23}","true","ArrowDown,ArrowRight","","[""21_1""]","","","","","","1","","",""
"html-keyboard-response","105","643475","0.0-3.0-15.0-4.0-1.1","pilot_wm_v1","6692463a3773ef328cdde1f0","2","null","null","true","","","","","","","null","<div style=""font-size:60px;"">+</div>","null","fixation","","","","","","","","","","","","","","","",""
"revaluation","106","647495","0.0-3.0-15.0-4.0-0.2","pilot_wm_v1","6692463a3773ef328cdde1f0","2","null","null","true","","false","","","","","[1242]","./assets/img/space/animals/cat.jpg","[""ArrowRight""]","practice block","space","36","{""ArrowUp,ArrowLeft"":3,""ArrowUp,ArrowRight"":36,""ArrowDown,ArrowLeft"":15,""ArrowDown,ArrowRight"":23}","true","ArrowUp,ArrowRight","","[""20_0""]","","","","","","2","","",""
"html-keyboard-response","107","648005","0.0-3.0-15.0-4.0-1.2","pilot_wm_v1","6692463a3773ef328cdde1f0","2","null","null","true","","","","","","","null","<div style=""font-size:60px;"">+</div>","null","fixation","","","","","","","","","","","","","","","",""
"revaluation","108","652035","0.0-3.0-15.0-4.0-0.3","pilot_wm_v1","6692463a3773ef328cdde1f0","2","null","null","true","","false","","","","","[960]","./assets/img/space/animals/rabbit.jpg","[""ArrowRight""]","practice block","space","23","{""ArrowUp,ArrowLeft"":3,""ArrowUp,ArrowRight"":36,""ArrowDown,ArrowLeft"":15,""ArrowDown,ArrowRight"":23}","true","ArrowDown,ArrowRight","","[""22_3""]","","","","","","3","","",""
"html-keyboard-response","109","652555","0.0-3.0-15.0-4.0-1.3","pilot_wm_v1","6692463a3773ef328cdde1f0","2","null","null","true","","","","","","","null","<div style=""font-size:60px;"">+</div>","null","fixation","","","","","","","","","","","","","","","",""
"html-slider-response","110","669521","0.0-3.0-15.0-4.0-2.3-0.3","pilot_wm_v1","6692463a3773ef328cdde1f0","2","null","null","true","","","","","","","16966","<div style=""width:500px;"">
        <p>What is the password?</p>
        <img src='./assets/img/instructions/beep_chest.jpg' class='instructions-image'>","5","beep chest","","","","false","","","","50","82","77","","","","","",""
"learning-instructions","111","679021","0.0-3.0-15.0-5.0-0.0-0.0","pilot_wm_v1","6692463a3773ef328cdde1f0","2","null","null","true","","","","","","","2055","<p> Time to play the dot game! </p>
            <p> For 15 seconds, click the red dots on the following screen as they appear. </p>","","instructions","","","","","","","","","","","","","","","",""
"revaluation","112","694023","0.0-3.0-15.0-5.0-1.0-0.0","pilot_wm_v1","6692463a3773ef328cdde1f0","2","null","null","true","","","","","","","[87]","","","rest practice","","10","","","","","","","","","0","15000","","","",""
"learning-instructions","113","702234","0.0-3.0-15.0-6.0-0.0","pilot_wm_v1","6692463a3773ef328cdde1f0","2","null","null","true","","","","","","","null","<p> You have almost finished this part of the game! </p>
            <p> We are going to ask you to make a few more choices. </p>","","instructions","","","","","","","","","","","","","","","",""
"learning-instructions","114","718373","0.0-3.0-15.0-6.0-0.1","pilot_wm_v1","6692463a3773ef328cdde1f0","2","null","null","true","","","","","","","null","<p> First, you need to decide whether to go up or down. When you see each picture, use the arrow keys to make your choice. </p>
            <p><b>You will not see which animal you found, but try to get to the one that will give you the most treasure.</b></p>","","instructions","","","","","","","","","","","","","","","",""
"html-keyboard-response","115","719384","0.0-3.0-15.0-7.0-0.0","pilot_wm_v1","6692463a3773ef328cdde1f0","2","null","null","true","","","","","","","null","<div style=""font-size:100px;color:red;"">Starting in...</div>","null","","","","","","","","","","","","","","","","",""
"html-keyboard-response","116","720403","0.0-3.0-15.0-7.0-1.0","pilot_wm_v1","6692463a3773ef328cdde1f0","2","null","null","true","","","","","","","null","<div style=""font-size:200px;color:red;"">3</div>","null","","","","","","","","","","","","","","","","",""
"html-keyboard-response","117","721404","0.0-3.0-15.0-7.0-2.0","pilot_wm_v1","6692463a3773ef328cdde1f0","2","null","null","true","","","","","","","null","<div style=""font-size:200px;color:red;"">2</div>","null","","","","","","","","","","","","","","","","",""
"html-keyboard-response","118","722423","0.0-3.0-15.0-7.0-3.0","pilot_wm_v1","6692463a3773ef328cdde1f0","2","null","null","true","","","","","","","null","<div style=""font-size:200px;color:red;"">1</div>","null","","","","","","","","","","","","","","","","",""
"revaluation","119","722858","0.0-3.0-15.0-8.0","pilot_wm_v1","6692463a3773ef328cdde1f0","2","null","null","true","","false","","","","","[431]","./assets/img/space/15.jpg","[""ArrowUp""]","practice block","space","0","{""ArrowUp,ArrowLeft"":3,""ArrowUp,ArrowRight"":36,""ArrowDown,ArrowLeft"":15,""ArrowDown,ArrowRight"":23}","true","ArrowUp","false","","","","","","","","","",""
"html-keyboard-response","120","723364","0.0-3.0-15.0-9.0","pilot_wm_v1","6692463a3773ef328cdde1f0","2","null","null","true","","","","","","","null","<div style=""font-size:60px;"">+</div>","null","fixation","","","","","","","","","","","","","","","",""
"learning-instructions","121","736833","0.0-3.0-15.0-10.0-0.0","pilot_wm_v1","6692463a3773ef328cdde1f0","2","null","null","true","","","","","","","null","<p> Now you will see the animals again and can search their chests for treasure. </p>
            <p> This time, you will not see how much treasure you earned, but you will earn more bonus money for making better choices. </p>","","instructions","","","","","","","","","","","","","","","",""
"html-keyboard-response","122","737854","0.0-3.0-15.0-11.0-0.0","pilot_wm_v1","6692463a3773ef328cdde1f0","2","null","null","true","","","","","","","null","<div style=""font-size:100px;color:red;"">Starting in...</div>","null","","","","","","","","","","","","","","","","",""
"html-keyboard-response","123","738874","0.0-3.0-15.0-11.0-1.0","pilot_wm_v1","6692463a3773ef328cdde1f0","2","null","null","true","","","","","","","null","<div style=""font-size:200px;color:red;"">3</div>","null","","","","","","","","","","","","","","","","",""
"html-keyboard-response","124","739893","0.0-3.0-15.0-11.0-2.0","pilot_wm_v1","6692463a3773ef328cdde1f0","2","null","null","true","","","","","","","null","<div style=""font-size:200px;color:red;"">2</div>","null","","","","","","","","","","","","","","","","",""
"html-keyboard-response","125","740913","0.0-3.0-15.0-11.0-3.0","pilot_wm_v1","6692463a3773ef328cdde1f0","2","null","null","true","","","","","","","null","<div style=""font-size:200px;color:red;"">1</div>","null","","","","","","","","","","","","","","","","",""
"revaluation","126","741838","0.0-3.0-15.0-12.0-0.0","pilot_wm_v1","6692463a3773ef328cdde1f0","2","null","null","true","","false","","","","","[923]","./assets/img/space/animals/cat.jpg","[""ArrowRight""]","practice block","space","0","{""ArrowUp,ArrowLeft"":3,""ArrowUp,ArrowRight"":36,""ArrowDown,ArrowLeft"":15,""ArrowDown,ArrowRight"":23}","true","ArrowUp,ArrowRight","","","","","","","","","","",""
"html-keyboard-response","127","742353","0.0-3.0-15.0-12.0-1.0","pilot_wm_v1","6692463a3773ef328cdde1f0","2","null","null","true","","","","","","","null","<div style=""font-size:60px;"">+</div>","null","fixation","","","","","","","","","","","","","","","",""
"revaluation","128","743442","0.0-3.0-15.0-12.0-0.1","pilot_wm_v1","6692463a3773ef328cdde1f0","2","null","null","true","","false","","","","","[1087]","./assets/img/space/animals/rabbit.jpg","[""ArrowRight""]","practice block","space","0","{""ArrowUp,ArrowLeft"":3,""ArrowUp,ArrowRight"":36,""ArrowDown,ArrowLeft"":15,""ArrowDown,ArrowRight"":23}","true","ArrowDown,ArrowRight","","","","","","","","","","",""
"html-keyboard-response","129","743953","0.0-3.0-15.0-12.0-1.1","pilot_wm_v1","6692463a3773ef328cdde1f0","2","null","null","true","","","","","","","null","<div style=""font-size:60px;"">+</div>","null","fixation","","","","","","","","","","","","","","","",""
"learning-instructions","130","749538","0.0-3.0-16.0-0.0","pilot_wm_v1","6692463a3773ef328cdde1f0","2","null","null","true","","","","","","","963","<p> Before you start, we're going to ask you a few questions about how the game works. </p>","","instructions","","","","","","","","","","","","","","","",""
"comp-q","131","757188","0.0-3.0-17.0-0.0-0.0","pilot_wm_v1","6692463a3773ef328cdde1f0","2","null","null","true","","","","","","","2014","<p> <b> True or False? </b> </p>
            <p> There can be 50 pieces of treasure in a given animal's chest. </p>","0","comp_question","","","","false","","","","","","","","","","","",""
"comp-q","132","764904","0.0-3.0-17.0-0.0-1.0","pilot_wm_v1","6692463a3773ef328cdde1f0","2","null","null","true","","","","","","","1129","<p> <b>Incorrect.</b> The amount of treasure in each chest can range from 0 to 40 pieces. </p>","0","comp_answer","","","","","","","","","","","","","","","",""
"comp-q","133","771561","0.0-3.0-17.0-0.1-0.1","pilot_wm_v1","6692463a3773ef328cdde1f0","2","null","null","true","","","","","","","1087","<p> <b> True or False? </b> </p>
            <p> There can be 50 pieces of treasure in a given animal's chest. </p>","1","comp_question","","","","true","","","","","","","","","","","",""
"comp-q","134","781093","0.0-3.0-17.0-0.1-1.1","pilot_wm_v1","6692463a3773ef328cdde1f0","2","null","null","true","","","","","","","2809","<p> <b> That's right! </b> The amount of treasure in each chest can range from 0 to 40 pieces. </p>","0","comp_answer","","","","","","","","","","","","","","","",""
"comp-q","135","789833","0.0-3.0-17.0-0.2-0.2","pilot_wm_v1","6692463a3773ef328cdde1f0","2","null","null","true","","","","","","","1549","<p> <b> True or False? </b> </p><p> In this game, all animals have the same amount of treasure in their left and right chests. </p>","1","comp_question","","","","true","","","","","","","","","","","",""
"comp-q","136","796252","0.0-3.0-17.0-0.2-1.2","pilot_wm_v1","6692463a3773ef328cdde1f0","2","null","null","true","","","","","","","1128","<p> <b> That's right! </b> Animals have different amounts of treasure in their treasure chests. </p>","0","comp_answer","","","","","","","","","","","","","","","",""
"comp-q","137","803661","0.0-3.0-17.0-0.3-0.3","pilot_wm_v1","6692463a3773ef328cdde1f0","2","null","null","true","","","","","","","1517","<p> <b> True or False? </b> </p><p> The same animal will always be there if you go up in the same place. </p>","0","comp_question","","","","true","","","","","","","","","","","",""
"comp-q","138","812931","0.0-3.0-17.0-0.3-1.3","pilot_wm_v1","6692463a3773ef328cdde1f0","2","null","null","true","","","","","","","2757","<p> <b> That's right! </b> One animal lives in the upper part and one lives in the lower part of every place. </p>","0","comp_answer","","","","","","","","","","","","","","","",""
"comp-q","139","819497","0.0-3.0-17.0-0.4-0.4","pilot_wm_v1","6692463a3773ef328cdde1f0","2","null","null","true","","","","","","","994","<p> <b> True or False? </b> </p><p> If you see a different picture, it means you are in a new place. </p>","0","comp_question","","","","false","","","","","","","","","","","",""
"comp-q","140","831776","0.0-3.0-17.0-0.4-1.4","pilot_wm_v1","6692463a3773ef328cdde1f0","2","null","null","true","","","","","","","1083","<p> <b>Incorrect.</b> Lots of different images may show the same place. For example,  you may see three different images that all remind you that you are in outer space. </p>","0","comp_answer","","","","","","","","","","","","","","","",""
"comp-q","141","838392","0.0-3.0-17.0-0.5-0.5","pilot_wm_v1","6692463a3773ef328cdde1f0","2","null","null","true","","","","","","","1098","<p> <b> True or False? </b> </p><p> If you see a different picture, it means you are in a new place. </p>","1","comp_question","","","","true","","","","","","","","","","","",""
"comp-q","142","851167","0.0-3.0-17.0-0.5-1.5","pilot_wm_v1","6692463a3773ef328cdde1f0","2","null","null","true","","","","","","","1444","<p> <b> That's right! </b> Lots of different images may show the same place. For example,  you may see three different images that all remind you that you are in outer space. </p>","0","comp_answer","","","","","","","","","","","","","","","",""
"learning-instructions","143","863382","0.0-3.0-18.0-0.0","pilot_wm_v1","6692463a3773ef328cdde1f0","2","null","null","true","","","","","","","2280","<p> Good job. Remember to do your best because the amount of treasure you earn will be converted into bonus money. </p>
            <p> It’s time to start the real game! </p>","","instructions","","","","","","","","","","","","","","","",""
"learning-instructions","144","868083","0.0-4.0-0.0-0.0","pilot_wm_v1","6692463a3773ef328cdde1f0","2","null","null","true","","","","","","","1900","<p> This time you are searching for treasure in the <b>canyon</b>.</p>","","instructions","","","","","","","","","","","","","","","",""
"learning-instructions","145","887546","0.0-4.0-0.0-0.1","pilot_wm_v1","6692463a3773ef328cdde1f0","2","null","null","true","","","","","","","2023","<p><b>New</b> animals with <b>new</b> treasure chests live here. You need to explore to discover where the animal with the best treasure chest is.</p>
                    <p> Like before, once you figure out which animal has the chest with the most treasure, you should try to get to that animal and select that chest! </p>","","instructions","","","","","","","","","","","","","","","",""
"learning-instructions","146","903117","0.0-4.0-1.0-0.0","pilot_wm_v1","6692463a3773ef328cdde1f0","2","null","null","true","","","","","","","834","<p> Remember, when you see a picture of the place, use the up and down keys to <b>find an animal</b>.</p>
            <p> When you encounter an animal, you should use the left and right keys to <b>select a treasure chest</b>.</p>
            <p> Don't forget to look out for the robber! </p>","","instructions","","","","","","","","","","","","","","","",""
"revaluation","147","909152","0.0-4.0-2.0-0.0","pilot_wm_v1","6692463a3773ef328cdde1f0","2","null","null","true","","false","","","","","[1049,944]","./assets/img/canyon/memory/2.jpg","[""ArrowUp"",""ArrowLeft""]","value training","canyon","23","{""ArrowUp,ArrowLeft"":23,""ArrowUp,ArrowRight"":10,""ArrowDown,ArrowLeft"":8,""ArrowDown,ArrowRight"":30}","false","ArrowUp,ArrowLeft","false","","","","","","","0","revaluation","1",""
"html-keyboard-response","148","909671","0.0-4.0-2.0-1.0","pilot_wm_v1","6692463a3773ef328cdde1f0","2","null","null","true","","","","","","","null","<div style=""font-size:60px;"">+</div>","null","fixation","","","","","","","","","","","","","1","","",""
"revaluation","149","915696","0.0-4.0-2.0-0.1","pilot_wm_v1","6692463a3773ef328cdde1f0","2","null","null","true","","false","","","","","[833,427]","./assets/img/canyon/memory/24.jpg","[""ArrowUp"",""ArrowRight""]","value training","canyon","10","{""ArrowUp,ArrowLeft"":23,""ArrowUp,ArrowRight"":10,""ArrowDown,ArrowLeft"":8,""ArrowDown,ArrowRight"":30}","false","ArrowUp,ArrowRight","false","","","","","","","2","revaluation","1",""
"html-keyboard-response","150","916211","0.0-4.0-2.0-1.1","pilot_wm_v1","6692463a3773ef328cdde1f0","2","null","null","true","","","","","","","null","<div style=""font-size:60px;"">+</div>","null","fixation","","","","","","","","","","","","","3","","",""
"revaluation","151","922242","0.0-4.0-2.0-0.2","pilot_wm_v1","6692463a3773ef328cdde1f0","2","null","null","true","","false","","","","","[636,871]","./assets/img/canyon/memory/5.jpg","[""ArrowDown"",""ArrowLeft""]","value training","canyon","8","{""ArrowUp,ArrowLeft"":23,""ArrowUp,ArrowRight"":10,""ArrowDown,ArrowLeft"":8,""ArrowDown,ArrowRight"":30}","false","ArrowDown,ArrowLeft","false","","","","","","","4","revaluation","1",""
"html-keyboard-response","152","922761","0.0-4.0-2.0-1.2","pilot_wm_v1","6692463a3773ef328cdde1f0","2","null","null","true","","","","","","","null","<div style=""font-size:60px;"">+</div>","null","fixation","","","","","","","","","","","","","5","","",""
"revaluation","153","928801","0.0-4.0-2.0-0.3","pilot_wm_v1","6692463a3773ef328cdde1f0","2","null","null","true","","false","","","","","[380,363]","./assets/img/canyon/memory/10.jpg","[""ArrowDown"",""ArrowRight""]","value training","canyon","30","{""ArrowUp,ArrowLeft"":23,""ArrowUp,ArrowRight"":10,""ArrowDown,ArrowLeft"":8,""ArrowDown,ArrowRight"":30}","true","ArrowDown,ArrowRight","false","","","","","","","6","revaluation","1",""
"html-keyboard-response","154","929320","0.0-4.0-2.0-1.3","pilot_wm_v1","6692463a3773ef328cdde1f0","2","null","null","true","","","","","","","null","<div style=""font-size:60px;"">+</div>","null","fixation","","","","","","","","","","","","","7","","",""
"revaluation","155","935361","0.0-4.0-2.0-0.4","pilot_wm_v1","6692463a3773ef328cdde1f0","2","null","null","true","","false","","","","","[580,445]","./assets/img/canyon/memory/0.jpg","[""ArrowDown"",""ArrowRight""]","value training","canyon","30","{""ArrowUp,ArrowLeft"":23,""ArrowUp,ArrowRight"":10,""ArrowDown,ArrowLeft"":8,""ArrowDown,ArrowRight"":30}","true","ArrowDown,ArrowRight","false","","","","","","","8","revaluation","1",""
"html-keyboard-response","156","935880","0.0-4.0-2.0-1.4","pilot_wm_v1","6692463a3773ef328cdde1f0","2","null","null","true","","","","","","","null","<div style=""font-size:60px;"">+</div>","null","fixation","","","","","","","","","","","","","9","","",""
"revaluation","157","941921","0.0-4.0-2.0-0.5","pilot_wm_v1","6692463a3773ef328cdde1f0","2","null","null","true","","false","","","","","[591,242]","./assets/img/canyon/memory/22.jpg","[""ArrowDown"",""ArrowRight""]","value training","canyon","30","{""ArrowUp,ArrowLeft"":23,""ArrowUp,ArrowRight"":10,""ArrowDown,ArrowLeft"":8,""ArrowDown,ArrowRight"":30}","true","ArrowDown,ArrowRight","false","","","","","","","10","revaluation","1",""
"html-keyboard-response","158","942440","0.0-4.0-2.0-1.5","pilot_wm_v1","6692463a3773ef328cdde1f0","2","null","null","true","","","","","","","null","<div style=""font-size:60px;"">+</div>","null","fixation","","","","","","","","","","","","","11","","",""
"revaluation","159","948481","0.0-4.0-2.0-0.6","pilot_wm_v1","6692463a3773ef328cdde1f0","2","null","null","true","","false","","","","","[432,397]","./assets/img/canyon/memory/24.jpg","[""ArrowDown"",""ArrowRight""]","value training","canyon","30","{""ArrowUp,ArrowLeft"":23,""ArrowUp,ArrowRight"":10,""ArrowDown,ArrowLeft"":8,""ArrowDown,ArrowRight"":30}","true","ArrowDown,ArrowRight","false","","","","","","","12","revaluation","1",""
"html-keyboard-response","160","949000","0.0-4.0-2.0-1.6","pilot_wm_v1","6692463a3773ef328cdde1f0","2","null","null","true","","","","","","","null","<div style=""font-size:60px;"">+</div>","null","fixation","","","","","","","","","","","","","13","","",""
"revaluation","161","953021","0.0-4.0-2.0-0.7","pilot_wm_v1","6692463a3773ef328cdde1f0","2","null","null","true","","false","","","","","[344]","./assets/img/canyon/catch/6.jpg","[""ArrowDown""]","value training","canyon","-10","{""ArrowUp,ArrowLeft"":23,""ArrowUp,ArrowRight"":10,""ArrowDown,ArrowLeft"":8,""ArrowDown,ArrowRight"":30}","false","ArrowDown","true","","","","","","","14","revaluation","1",""
"html-keyboard-response","162","953541","0.0-4.0-2.0-1.7","pilot_wm_v1","6692463a3773ef328cdde1f0","2","null","null","true","","","","","","","null","<div style=""font-size:60px;"">+</div>","null","fixation","","","","","","","","","","","","","15","","",""
"revaluation","163","959600","0.0-4.0-2.0-0.8","pilot_wm_v1","6692463a3773ef328cdde1f0","2","null","null","true","","false","","","","","[628,568]","./assets/img/canyon/memory/28.jpg","[""ArrowDown"",""ArrowRight""]","value training","canyon","30","{""ArrowUp,ArrowLeft"":23,""ArrowUp,ArrowRight"":10,""ArrowDown,ArrowLeft"":8,""ArrowDown,ArrowRight"":30}","true","ArrowDown,ArrowRight","false","","","","","","","16","revaluation","1",""
"html-keyboard-response","164","960120","0.0-4.0-2.0-1.8","pilot_wm_v1","6692463a3773ef328cdde1f0","2","null","null","true","","","","","","","null","<div style=""font-size:60px;"">+</div>","null","fixation","","","","","","","","","","","","","17","","",""
"revaluation","165","966161","0.0-4.0-2.0-0.9","pilot_wm_v1","6692463a3773ef328cdde1f0","2","null","null","true","","false","","","","","[559,490]","./assets/img/canyon/memory/17.jpg","[""ArrowDown"",""ArrowRight""]","value training","canyon","30","{""ArrowUp,ArrowLeft"":23,""ArrowUp,ArrowRight"":10,""ArrowDown,ArrowLeft"":8,""ArrowDown,ArrowRight"":30}","true","ArrowDown,ArrowRight","false","","","","","","","18","revaluation","1",""
"html-keyboard-response","166","966680","0.0-4.0-2.0-1.9","pilot_wm_v1","6692463a3773ef328cdde1f0","2","null","null","true","","","","","","","null","<div style=""font-size:60px;"">+</div>","null","fixation","","","","","","","","","","","","","19","","",""
"revaluation","167","972711","0.0-4.0-2.0-0.10","pilot_wm_v1","6692463a3773ef328cdde1f0","2","null","null","true","","false","","","","","[1120,545]","./assets/img/canyon/memory/20.jpg","[""ArrowDown"",""ArrowRight""]","value training","canyon","30","{""ArrowUp,ArrowLeft"":23,""ArrowUp,ArrowRight"":10,""ArrowDown,ArrowLeft"":8,""ArrowDown,ArrowRight"":30}","true","ArrowDown,ArrowRight","false","","","","","","","20","revaluation","1",""
"html-keyboard-response","168","973231","0.0-4.0-2.0-1.10","pilot_wm_v1","6692463a3773ef328cdde1f0","2","null","null","true","","","","","","","null","<div style=""font-size:60px;"">+</div>","null","fixation","","","","","","","","","","","","","21","","",""
"revaluation","169","979270","0.0-4.0-2.0-0.11","pilot_wm_v1","6692463a3773ef328cdde1f0","2","null","null","true","","false","","","","","[679,494]","./assets/img/canyon/memory/6.jpg","[""ArrowDown"",""ArrowRight""]","value training","canyon","30","{""ArrowUp,ArrowLeft"":23,""ArrowUp,ArrowRight"":10,""ArrowDown,ArrowLeft"":8,""ArrowDown,ArrowRight"":30}","true","ArrowDown,ArrowRight","false","","","","","","","22","revaluation","1",""
"html-keyboard-response","170","979790","0.0-4.0-2.0-1.11","pilot_wm_v1","6692463a3773ef328cdde1f0","2","null","null","true","","","","","","","null","<div style=""font-size:60px;"">+</div>","null","fixation","","","","","","","","","","","","","23","","",""
"revaluation","171","985820","0.0-4.0-2.0-0.12","pilot_wm_v1","6692463a3773ef328cdde1f0","2","null","null","true","","false","","","","","[906,537]","./assets/img/canyon/memory/18.jpg","[""ArrowDown"",""ArrowRight""]","value training","canyon","30","{""ArrowUp,ArrowLeft"":23,""ArrowUp,ArrowRight"":10,""ArrowDown,ArrowLeft"":8,""ArrowDown,ArrowRight"":30}","true","ArrowDown,ArrowRight","false","","","","","","","24","revaluation","1",""
"html-keyboard-response","172","986339","0.0-4.0-2.0-1.12","pilot_wm_v1","6692463a3773ef328cdde1f0","2","null","null","true","","","","","","","null","<div style=""font-size:60px;"">+</div>","null","fixation","","","","","","","","","","","","","25","","",""
"revaluation","173","992380","0.0-4.0-2.0-0.13","pilot_wm_v1","6692463a3773ef328cdde1f0","2","null","null","true","","false","","","","","[583,443]","./assets/img/canyon/memory/9.jpg","[""ArrowDown"",""ArrowRight""]","value training","canyon","30","{""ArrowUp,ArrowLeft"":23,""ArrowUp,ArrowRight"":10,""ArrowDown,ArrowLeft"":8,""ArrowDown,ArrowRight"":30}","true","ArrowDown,ArrowRight","false","","","","","","","26","revaluation","1",""
"html-keyboard-response","174","992900","0.0-4.0-2.0-1.13","pilot_wm_v1","6692463a3773ef328cdde1f0","2","null","null","true","","","","","","","null","<div style=""font-size:60px;"">+</div>","null","fixation","","","","","","","","","","","","","27","","",""
"revaluation","175","998940","0.0-4.0-2.0-0.14","pilot_wm_v1","6692463a3773ef328cdde1f0","2","null","null","true","","false","","","","","[662,520]","./assets/img/canyon/memory/2.jpg","[""ArrowDown"",""ArrowRight""]","value training","canyon","30","{""ArrowUp,ArrowLeft"":23,""ArrowUp,ArrowRight"":10,""ArrowDown,ArrowLeft"":8,""ArrowDown,ArrowRight"":30}","true","ArrowDown,ArrowRight","false","","","","","","","28","revaluation","1",""
"html-keyboard-response","176","999459","0.0-4.0-2.0-1.14","pilot_wm_v1","6692463a3773ef328cdde1f0","2","null","null","true","","","","","","","null","<div style=""font-size:60px;"">+</div>","null","fixation","","","","","","","","","","","","","29","","",""
"revaluation","177","1005500","0.0-4.0-2.0-0.15","pilot_wm_v1","6692463a3773ef328cdde1f0","2","null","null","true","","false","","","","","[794,493]","./assets/img/canyon/memory/7.jpg","[""ArrowDown"",""ArrowRight""]","value training","canyon","30","{""ArrowUp,ArrowLeft"":23,""ArrowUp,ArrowRight"":10,""ArrowDown,ArrowLeft"":8,""ArrowDown,ArrowRight"":30}","true","ArrowDown,ArrowRight","false","","","","","","","30","revaluation","1",""
"html-keyboard-response","178","1006019","0.0-4.0-2.0-1.15","pilot_wm_v1","6692463a3773ef328cdde1f0","2","null","null","true","","","","","","","null","<div style=""font-size:60px;"">+</div>","null","fixation","","","","","","","","","","","","","31","","",""
"revaluation","179","1012060","0.0-4.0-2.0-0.16","pilot_wm_v1","6692463a3773ef328cdde1f0","2","null","null","true","","false","","","","","[927,497]","./assets/img/canyon/memory/1.jpg","[""ArrowDown"",""ArrowRight""]","value training","canyon","30","{""ArrowUp,ArrowLeft"":23,""ArrowUp,ArrowRight"":10,""ArrowDown,ArrowLeft"":8,""ArrowDown,ArrowRight"":30}","true","ArrowDown,ArrowRight","false","","","","","","","32","revaluation","1",""
"html-keyboard-response","180","1012579","0.0-4.0-2.0-1.16","pilot_wm_v1","6692463a3773ef328cdde1f0","2","null","null","true","","","","","","","null","<div style=""font-size:60px;"">+</div>","null","fixation","","","","","","","","","","","","","33","","",""
"revaluation","181","1018620","0.0-4.0-2.0-0.17","pilot_wm_v1","6692463a3773ef328cdde1f0","2","null","null","true","","false","","","","","[820,478]","./assets/img/canyon/memory/3.jpg","[""ArrowDown"",""ArrowRight""]","value training","canyon","30","{""ArrowUp,ArrowLeft"":23,""ArrowUp,ArrowRight"":10,""ArrowDown,ArrowLeft"":8,""ArrowDown,ArrowRight"":30}","true","ArrowDown,ArrowRight","false","","","","","","","34","revaluation","1",""
"html-keyboard-response","182","1019139","0.0-4.0-2.0-1.17","pilot_wm_v1","6692463a3773ef328cdde1f0","2","null","null","true","","","","","","","null","<div style=""font-size:60px;"">+</div>","null","fixation","","","","","","","","","","","","","35","","",""
"revaluation","183","1025180","0.0-4.0-2.0-0.18","pilot_wm_v1","6692463a3773ef328cdde1f0","2","null","null","true","","false","","","","","[681,439]","./assets/img/canyon/memory/5.jpg","[""ArrowDown"",""ArrowRight""]","value training","canyon","30","{""ArrowUp,ArrowLeft"":23,""ArrowUp,ArrowRight"":10,""ArrowDown,ArrowLeft"":8,""ArrowDown,ArrowRight"":30}","true","ArrowDown,ArrowRight","false","","","","","","","36","revaluation","1",""
"html-keyboard-response","184","1025699","0.0-4.0-2.0-1.18","pilot_wm_v1","6692463a3773ef328cdde1f0","2","null","null","true","","","","","","","null","<div style=""font-size:60px;"">+</div>","null","fixation","","","","","","","","","","","","","37","","",""
"revaluation","185","1031759","0.0-4.0-2.0-0.19","pilot_wm_v1","6692463a3773ef328cdde1f0","2","null","null","true","","false","","","","","[674,724]","./assets/img/canyon/memory/28.jpg","[""ArrowDown"",""ArrowRight""]","value training","canyon","30","{""ArrowUp,ArrowLeft"":23,""ArrowUp,ArrowRight"":10,""ArrowDown,ArrowLeft"":8,""ArrowDown,ArrowRight"":30}","true","ArrowDown,ArrowRight","false","","","","","","","38","revaluation","1",""
"html-keyboard-response","186","1032279","0.0-4.0-2.0-1.19","pilot_wm_v1","6692463a3773ef328cdde1f0","2","null","null","true","","","","","","","null","<div style=""font-size:60px;"">+</div>","null","fixation","","","","","","","","","","","","","39","","",""
"revaluation","187","1038319","0.0-4.0-2.0-0.20","pilot_wm_v1","6692463a3773ef328cdde1f0","2","null","null","true","","false","","","","","[867,347]","./assets/img/canyon/memory/21.jpg","[""ArrowDown"",""ArrowRight""]","value training","canyon","30","{""ArrowUp,ArrowLeft"":23,""ArrowUp,ArrowRight"":10,""ArrowDown,ArrowLeft"":8,""ArrowDown,ArrowRight"":30}","true","ArrowDown,ArrowRight","false","","","","","","","40","revaluation","1",""
"html-keyboard-response","188","1038839","0.0-4.0-2.0-1.20","pilot_wm_v1","6692463a3773ef328cdde1f0","2","null","null","true","","","","","","","null","<div style=""font-size:60px;"">+</div>","null","fixation","","","","","","","","","","","","","41","","",""
"revaluation","189","1044880","0.0-4.0-2.0-0.21","pilot_wm_v1","6692463a3773ef328cdde1f0","2","null","null","true","","false","","","","","[677,455]","./assets/img/canyon/memory/18.jpg","[""ArrowDown"",""ArrowRight""]","value training","canyon","30","{""ArrowUp,ArrowLeft"":23,""ArrowUp,ArrowRight"":10,""ArrowDown,ArrowLeft"":8,""ArrowDown,ArrowRight"":30}","true","ArrowDown,ArrowRight","false","","","","","","","42","revaluation","1",""
"html-keyboard-response","190","1045399","0.0-4.0-2.0-1.21","pilot_wm_v1","6692463a3773ef328cdde1f0","2","null","null","true","","","","","","","null","<div style=""font-size:60px;"">+</div>","null","fixation","","","","","","","","","","","","","43","","",""
"revaluation","191","1051439","0.0-4.0-2.0-0.22","pilot_wm_v1","6692463a3773ef328cdde1f0","2","null","null","true","","false","","","","","[939,394]","./assets/img/canyon/memory/10.jpg","[""ArrowDown"",""ArrowRight""]","value training","canyon","30","{""ArrowUp,ArrowLeft"":23,""ArrowUp,ArrowRight"":10,""ArrowDown,ArrowLeft"":8,""ArrowDown,ArrowRight"":30}","true","ArrowDown,ArrowRight","false","","","","","","","44","revaluation","1",""
"html-keyboard-response","192","1051959","0.0-4.0-2.0-1.22","pilot_wm_v1","6692463a3773ef328cdde1f0","2","null","null","true","","","","","","","null","<div style=""font-size:60px;"">+</div>","null","fixation","","","","","","","","","","","","","45","","",""
"revaluation","193","1056019","0.0-4.0-2.0-0.23","pilot_wm_v1","6692463a3773ef328cdde1f0","2","null","null","true","","false","","","","","[698]","./assets/img/canyon/catch/0.jpg","[""spaceBar""]","value training","canyon","0","{""ArrowUp,ArrowLeft"":23,""ArrowUp,ArrowRight"":10,""ArrowDown,ArrowLeft"":8,""ArrowDown,ArrowRight"":30}","true","spaceBar","true","","","","","","","46","revaluation","1",""
"html-keyboard-response","194","1056539","0.0-4.0-2.0-1.23","pilot_wm_v1","6692463a3773ef328cdde1f0","2","null","null","true","","","","","","","null","<div style=""font-size:60px;"">+</div>","null","fixation","","","","","","","","","","","","","47","","",""
"revaluation","195","1062599","0.0-4.0-2.0-0.24","pilot_wm_v1","6692463a3773ef328cdde1f0","2","null","null","true","","false","","","","","[727,353]","./assets/img/canyon/memory/17.jpg","[""ArrowDown"",""ArrowRight""]","value training","canyon","30","{""ArrowUp,ArrowLeft"":23,""ArrowUp,ArrowRight"":10,""ArrowDown,ArrowLeft"":8,""ArrowDown,ArrowRight"":30}","true","ArrowDown,ArrowRight","false","","","","","","","48","revaluation","1",""
"html-keyboard-response","196","1063119","0.0-4.0-2.0-1.24","pilot_wm_v1","6692463a3773ef328cdde1f0","2","null","null","true","","","","","","","null","<div style=""font-size:60px;"">+</div>","null","fixation","","","","","","","","","","","","","49","","",""
"revaluation","197","1069139","0.0-4.0-2.0-0.25","pilot_wm_v1","6692463a3773ef328cdde1f0","2","null","null","true","","false","","","","","[984,354]","./assets/img/canyon/memory/23.jpg","[""ArrowDown"",""ArrowRight""]","value training","canyon","30","{""ArrowUp,ArrowLeft"":23,""ArrowUp,ArrowRight"":10,""ArrowDown,ArrowLeft"":8,""ArrowDown,ArrowRight"":30}","true","ArrowDown,ArrowRight","false","","","","","","","50","revaluation","1",""
"html-keyboard-response","198","1069659","0.0-4.0-2.0-1.25","pilot_wm_v1","6692463a3773ef328cdde1f0","2","null","null","true","","","","","","","null","<div style=""font-size:60px;"">+</div>","null","fixation","","","","","","","","","","","","","51","","",""
"revaluation","199","1075689","0.0-4.0-2.0-0.26","pilot_wm_v1","6692463a3773ef328cdde1f0","2","null","null","true","","false","","","","","[514,439]","./assets/img/canyon/memory/1.jpg","[""ArrowUp"",""ArrowRight""]","value training","canyon","10","{""ArrowUp,ArrowLeft"":23,""ArrowUp,ArrowRight"":10,""ArrowDown,ArrowLeft"":8,""ArrowDown,ArrowRight"":30}","false","ArrowUp,ArrowRight","false","","","","","","","52","revaluation","1",""
"html-keyboard-response","200","1076208","0.0-4.0-2.0-1.26","pilot_wm_v1","6692463a3773ef328cdde1f0","2","null","null","true","","","","","","","null","<div style=""font-size:60px;"">+</div>","null","fixation","","","","","","","","","","","","","53","","",""
"revaluation","201","1082240","0.0-4.0-2.0-0.27","pilot_wm_v1","6692463a3773ef328cdde1f0","2","null","null","true","","false","","","","","[326,336]","./assets/img/canyon/memory/19.jpg","[""ArrowDown"",""ArrowRight""]","value training","canyon","30","{""ArrowUp,ArrowLeft"":23,""ArrowUp,ArrowRight"":10,""ArrowDown,ArrowLeft"":8,""ArrowDown,ArrowRight"":30}","true","ArrowDown,ArrowRight","false","","","","","","","54","revaluation","1",""
"html-keyboard-response","202","1082758","0.0-4.0-2.0-1.27","pilot_wm_v1","6692463a3773ef328cdde1f0","2","null","null","true","","","","","","","null","<div style=""font-size:60px;"">+</div>","null","fixation","","","","","","","","","","","","","55","","",""
"revaluation","203","1088809","0.0-4.0-2.0-0.28","pilot_wm_v1","6692463a3773ef328cdde1f0","2","null","null","true","","false","","","","","[1192,445]","./assets/img/canyon/memory/0.jpg","[""ArrowDown"",""ArrowRight""]","value training","canyon","30","{""ArrowUp,ArrowLeft"":23,""ArrowUp,ArrowRight"":10,""ArrowDown,ArrowLeft"":8,""ArrowDown,ArrowRight"":30}","true","ArrowDown,ArrowRight","false","","","","","","","56","revaluation","1",""
"html-keyboard-response","204","1089328","0.0-4.0-2.0-1.28","pilot_wm_v1","6692463a3773ef328cdde1f0","2","null","null","true","","","","","","","null","<div style=""font-size:60px;"">+</div>","null","fixation","","","","","","","","","","","","","57","","",""
"revaluation","205","1095359","0.0-4.0-2.0-0.29","pilot_wm_v1","6692463a3773ef328cdde1f0","2","null","null","true","","false","","","","","[824,440]","./assets/img/canyon/memory/9.jpg","[""ArrowDown"",""ArrowRight""]","value training","canyon","30","{""ArrowUp,ArrowLeft"":23,""ArrowUp,ArrowRight"":10,""ArrowDown,ArrowLeft"":8,""ArrowDown,ArrowRight"":30}","true","ArrowDown,ArrowRight","false","","","","","","","58","revaluation","1",""
"html-keyboard-response","206","1095876","0.0-4.0-2.0-1.29","pilot_wm_v1","6692463a3773ef328cdde1f0","2","null","null","true","","","","","","","null","<div style=""font-size:60px;"">+</div>","null","fixation","","","","","","","","","","","","","59","","",""
"revaluation","207","1101918","0.0-4.0-2.0-0.30","pilot_wm_v1","6692463a3773ef328cdde1f0","2","null","null","true","","false","","","","","[735,479]","./assets/img/canyon/memory/16.jpg","[""ArrowDown"",""ArrowRight""]","value training","canyon","30","{""ArrowUp,ArrowLeft"":23,""ArrowUp,ArrowRight"":10,""ArrowDown,ArrowLeft"":8,""ArrowDown,ArrowRight"":30}","true","ArrowDown,ArrowRight","false","","","","","","","60","revaluation","1",""
"html-keyboard-response","208","1102439","0.0-4.0-2.0-1.30","pilot_wm_v1","6692463a3773ef328cdde1f0","2","null","null","true","","","","","","","null","<div style=""font-size:60px;"">+</div>","null","fixation","","","","","","","","","","","","","61","","",""
"revaluation","209","1108469","0.0-4.0-2.0-0.31","pilot_wm_v1","6692463a3773ef328cdde1f0","2","null","null","true","","false","","","","","[861,396]","./assets/img/canyon/memory/23.jpg","[""ArrowDown"",""ArrowRight""]","value training","canyon","30","{""ArrowUp,ArrowLeft"":23,""ArrowUp,ArrowRight"":10,""ArrowDown,ArrowLeft"":8,""ArrowDown,ArrowRight"":30}","true","ArrowDown,ArrowRight","false","","","","","","","62","revaluation","1",""
"html-keyboard-response","210","1108985","0.0-4.0-2.0-1.31","pilot_wm_v1","6692463a3773ef328cdde1f0","2","null","null","true","","","","","","","null","<div style=""font-size:60px;"">+</div>","null","fixation","","","","","","","","","","","","","63","","",""
"revaluation","211","1115019","0.0-4.0-2.0-0.32","pilot_wm_v1","6692463a3773ef328cdde1f0","2","null","null","true","","false","","","","","[627,311]","./assets/img/canyon/memory/6.jpg","[""ArrowDown"",""ArrowRight""]","value training","canyon","30","{""ArrowUp,ArrowLeft"":23,""ArrowUp,ArrowRight"":10,""ArrowDown,ArrowLeft"":8,""ArrowDown,ArrowRight"":30}","true","ArrowDown,ArrowRight","false","","","","","","","64","revaluation","1",""
"html-keyboard-response","212","1115538","0.0-4.0-2.0-1.32","pilot_wm_v1","6692463a3773ef328cdde1f0","2","null","null","true","","","","","","","null","<div style=""font-size:60px;"">+</div>","null","fixation","","","","","","","","","","","","","65","","",""
"revaluation","213","1121578","0.0-4.0-2.0-0.33","pilot_wm_v1","6692463a3773ef328cdde1f0","2","null","null","true","","false","","","","","[703,537]","./assets/img/canyon/memory/21.jpg","[""ArrowDown"",""ArrowRight""]","value training","canyon","30","{""ArrowUp,ArrowLeft"":23,""ArrowUp,ArrowRight"":10,""ArrowDown,ArrowLeft"":8,""ArrowDown,ArrowRight"":30}","true","ArrowDown,ArrowRight","false","","","","","","","66","revaluation","1",""
"html-keyboard-response","214","1122098","0.0-4.0-2.0-1.33","pilot_wm_v1","6692463a3773ef328cdde1f0","2","null","null","true","","","","","","","null","<div style=""font-size:60px;"">+</div>","null","fixation","","","","","","","","","","","","","67","","",""
"revaluation","215","1126118","0.0-4.0-2.0-0.34","pilot_wm_v1","6692463a3773ef328cdde1f0","2","null","null","true","","false","","","","","[897]","./assets/img/canyon/catch/4.jpg","[""spaceBar""]","value training","canyon","0","{""ArrowUp,ArrowLeft"":23,""ArrowUp,ArrowRight"":10,""ArrowDown,ArrowLeft"":8,""ArrowDown,ArrowRight"":30}","true","spaceBar","true","","","","","","","68","revaluation","1",""
"html-keyboard-response","216","1126638","0.0-4.0-2.0-1.34","pilot_wm_v1","6692463a3773ef328cdde1f0","2","null","null","true","","","","","","","null","<div style=""font-size:60px;"">+</div>","null","fixation","","","","","","","","","","","","","69","","",""
"revaluation","217","1132668","0.0-4.0-2.0-0.35","pilot_wm_v1","6692463a3773ef328cdde1f0","2","null","null","true","","false","","","","","[580,391]","./assets/img/canyon/memory/4.jpg","[""ArrowDown"",""ArrowRight""]","value training","canyon","30","{""ArrowUp,ArrowLeft"":23,""ArrowUp,ArrowRight"":10,""ArrowDown,ArrowLeft"":8,""ArrowDown,ArrowRight"":30}","true","ArrowDown,ArrowRight","false","","","","","","","70","revaluation","1",""
"html-keyboard-response","218","1133188","0.0-4.0-2.0-1.35","pilot_wm_v1","6692463a3773ef328cdde1f0","2","null","null","true","","","","","","","null","<div style=""font-size:60px;"">+</div>","null","fixation","","","","","","","","","","","","","71","","",""
"revaluation","219","1137208","0.0-4.0-2.0-0.36","pilot_wm_v1","6692463a3773ef328cdde1f0","2","null","null","true","","false","","","","","[820]","./assets/img/canyon/catch/2.jpg","[""spaceBar""]","value training","canyon","0","{""ArrowUp,ArrowLeft"":23,""ArrowUp,ArrowRight"":10,""ArrowDown,ArrowLeft"":8,""ArrowDown,ArrowRight"":30}","true","spaceBar","true","","","","","","","72","revaluation","1",""
"html-keyboard-response","220","1137728","0.0-4.0-2.0-1.36","pilot_wm_v1","6692463a3773ef328cdde1f0","2","null","null","true","","","","","","","null","<div style=""font-size:60px;"">+</div>","null","fixation","","","","","","","","","","","","","73","","",""
"revaluation","221","1143778","0.0-4.0-2.0-0.37","pilot_wm_v1","6692463a3773ef328cdde1f0","2","null","null","true","","false","","","","","[919,418]","./assets/img/canyon/memory/22.jpg","[""ArrowDown"",""ArrowRight""]","value training","canyon","30","{""ArrowUp,ArrowLeft"":23,""ArrowUp,ArrowRight"":10,""ArrowDown,ArrowLeft"":8,""ArrowDown,ArrowRight"":30}","true","ArrowDown,ArrowRight","false","","","","","","","74","revaluation","1",""
"html-keyboard-response","222","1144298","0.0-4.0-2.0-1.37","pilot_wm_v1","6692463a3773ef328cdde1f0","2","null","null","true","","","","","","","null","<div style=""font-size:60px;"">+</div>","null","fixation","","","","","","","","","","","","","75","","",""
"revaluation","223","1150318","0.0-4.0-2.0-0.38","pilot_wm_v1","6692463a3773ef328cdde1f0","2","null","null","true","","false","","","","","[914,380]","./assets/img/canyon/memory/4.jpg","[""ArrowDown"",""ArrowRight""]","value training","canyon","30","{""ArrowUp,ArrowLeft"":23,""ArrowUp,ArrowRight"":10,""ArrowDown,ArrowLeft"":8,""ArrowDown,ArrowRight"":30}","true","ArrowDown,ArrowRight","false","","","","","","","76","revaluation","1",""
"html-keyboard-response","224","1150838","0.0-4.0-2.0-1.38","pilot_wm_v1","6692463a3773ef328cdde1f0","2","null","null","true","","","","","","","null","<div style=""font-size:60px;"">+</div>","null","fixation","","","","","","","","","","","","","77","","",""
"revaluation","225","1156878","0.0-4.0-2.0-0.39","pilot_wm_v1","6692463a3773ef328cdde1f0","2","null","null","true","","false","","","","","[709,486]","./assets/img/canyon/memory/26.jpg","[""ArrowDown"",""ArrowRight""]","value training","canyon","30","{""ArrowUp,ArrowLeft"":23,""ArrowUp,ArrowRight"":10,""ArrowDown,ArrowLeft"":8,""ArrowDown,ArrowRight"":30}","true","ArrowDown,ArrowRight","false","","","","","","","78","revaluation","1",""
"html-keyboard-response","226","1157398","0.0-4.0-2.0-1.39","pilot_wm_v1","6692463a3773ef328cdde1f0","2","null","null","true","","","","","","","null","<div style=""font-size:60px;"">+</div>","null","fixation","","","","","","","","","","","","","79","","",""
"revaluation","227","1161678","0.0-4.0-2.0-0.40","pilot_wm_v1","6692463a3773ef328cdde1f0","2","null","null","true","","false","","","","","[671]","./assets/img/canyon/catch/1.jpg","[""spaceBar""]","value training","canyon","0","{""ArrowUp,ArrowLeft"":23,""ArrowUp,ArrowRight"":10,""ArrowDown,ArrowLeft"":8,""ArrowDown,ArrowRight"":30}","true","spaceBar","true","","","","","","","80","revaluation","1",""
"html-keyboard-response","228","1162198","0.0-4.0-2.0-1.40","pilot_wm_v1","6692463a3773ef328cdde1f0","2","null","null","true","","","","","","","null","<div style=""font-size:60px;"">+</div>","null","fixation","","","","","","","","","","","","","81","","",""
"revaluation","229","1166227","0.0-4.0-2.0-0.41","pilot_wm_v1","6692463a3773ef328cdde1f0","2","null","null","true","","false","","","","","[667]","./assets/img/canyon/catch/3.jpg","[""spaceBar""]","value training","canyon","0","{""ArrowUp,ArrowLeft"":23,""ArrowUp,ArrowRight"":10,""ArrowDown,ArrowLeft"":8,""ArrowDown,ArrowRight"":30}","true","spaceBar","true","","","","","","","82","revaluation","1",""
"html-keyboard-response","230","1166747","0.0-4.0-2.0-1.41","pilot_wm_v1","6692463a3773ef328cdde1f0","2","null","null","true","","","","","","","null","<div style=""font-size:60px;"">+</div>","null","fixation","","","","","","","","","","","","","83","","",""
"revaluation","231","1172768","0.0-4.0-2.0-0.42","pilot_wm_v1","6692463a3773ef328cdde1f0","2","null","null","true","","false","","","","","[713,543]","./assets/img/canyon/memory/7.jpg","[""ArrowDown"",""ArrowRight""]","value training","canyon","30","{""ArrowUp,ArrowLeft"":23,""ArrowUp,ArrowRight"":10,""ArrowDown,ArrowLeft"":8,""ArrowDown,ArrowRight"":30}","true","ArrowDown,ArrowRight","false","","","","","","","84","revaluation","1",""
"html-keyboard-response","232","1173277","0.0-4.0-2.0-1.42","pilot_wm_v1","6692463a3773ef328cdde1f0","2","null","null","true","","","","","","","null","<div style=""font-size:60px;"">+</div>","null","fixation","","","","","","","","","","","","","85","","",""
"revaluation","233","1179298","0.0-4.0-2.0-0.43","pilot_wm_v1","6692463a3773ef328cdde1f0","2","null","null","true","","false","","","","","[746,476]","./assets/img/canyon/memory/3.jpg","[""ArrowDown"",""ArrowRight""]","value training","canyon","30","{""ArrowUp,ArrowLeft"":23,""ArrowUp,ArrowRight"":10,""ArrowDown,ArrowLeft"":8,""ArrowDown,ArrowRight"":30}","true","ArrowDown,ArrowRight","false","","","","","","","86","revaluation","1",""
"html-keyboard-response","234","1179817","0.0-4.0-2.0-1.43","pilot_wm_v1","6692463a3773ef328cdde1f0","2","null","null","true","","","","","","","null","<div style=""font-size:60px;"">+</div>","null","fixation","","","","","","","","","","","","","87","","",""
"revaluation","235","1185858","0.0-4.0-2.0-0.44","pilot_wm_v1","6692463a3773ef328cdde1f0","2","null","null","true","","false","","","","","[925,460]","./assets/img/canyon/memory/19.jpg","[""ArrowDown"",""ArrowRight""]","value training","canyon","30","{""ArrowUp,ArrowLeft"":23,""ArrowUp,ArrowRight"":10,""ArrowDown,ArrowLeft"":8,""ArrowDown,ArrowRight"":30}","true","ArrowDown,ArrowRight","false","","","","","","","88","revaluation","1",""
"html-keyboard-response","236","1186377","0.0-4.0-2.0-1.44","pilot_wm_v1","6692463a3773ef328cdde1f0","2","null","null","true","","","","","","","null","<div style=""font-size:60px;"">+</div>","null","fixation","","","","","","","","","","","","","89","","",""
"revaluation","237","1192437","0.0-4.0-2.0-0.45","pilot_wm_v1","6692463a3773ef328cdde1f0","2","null","null","true","","false","","","","","[751,423]","./assets/img/canyon/memory/20.jpg","[""ArrowDown"",""ArrowRight""]","value training","canyon","30","{""ArrowUp,ArrowLeft"":23,""ArrowUp,ArrowRight"":10,""ArrowDown,ArrowLeft"":8,""ArrowDown,ArrowRight"":30}","true","ArrowDown,ArrowRight","false","","","","","","","90","revaluation","1",""
"html-keyboard-response","238","1192957","0.0-4.0-2.0-1.45","pilot_wm_v1","6692463a3773ef328cdde1f0","2","null","null","true","","","","","","","null","<div style=""font-size:60px;"">+</div>","null","fixation","","","","","","","","","","","","","91","","",""
"revaluation","239","1198998","0.0-4.0-2.0-0.46","pilot_wm_v1","6692463a3773ef328cdde1f0","2","null","null","true","","false","","","","","[687,315]","./assets/img/canyon/memory/26.jpg","[""ArrowDown"",""ArrowRight""]","value training","canyon","30","{""ArrowUp,ArrowLeft"":23,""ArrowUp,ArrowRight"":10,""ArrowDown,ArrowLeft"":8,""ArrowDown,ArrowRight"":30}","true","ArrowDown,ArrowRight","false","","","","","","","92","revaluation","1",""
"html-keyboard-response","240","1199517","0.0-4.0-2.0-1.46","pilot_wm_v1","6692463a3773ef328cdde1f0","2","null","null","true","","","","","","","null","<div style=""font-size:60px;"">+</div>","null","fixation","","","","","","","","","","","","","93","","",""
"revaluation","241","1205557","0.0-4.0-2.0-0.47","pilot_wm_v1","6692463a3773ef328cdde1f0","2","null","null","true","","false","","","","","[634,389]","./assets/img/canyon/memory/16.jpg","[""ArrowDown"",""ArrowRight""]","value training","canyon","30","{""ArrowUp,ArrowLeft"":23,""ArrowUp,ArrowRight"":10,""ArrowDown,ArrowLeft"":8,""ArrowDown,ArrowRight"":30}","true","ArrowDown,ArrowRight","false","","","","","","","94","revaluation","1",""
"html-keyboard-response","242","1206077","0.0-4.0-2.0-1.47","pilot_wm_v1","6692463a3773ef328cdde1f0","2","null","null","true","","","","","","","null","<div style=""font-size:60px;"">+</div>","null","fixation","","","","","","","","","","","","","95","","",""
"revaluation","243","1210117","0.0-4.0-2.0-0.48","pilot_wm_v1","6692463a3773ef328cdde1f0","2","null","null","true","","false","","","","","[681]","./assets/img/canyon/catch/5.jpg","[""spaceBar""]","value training","canyon","0","{""ArrowUp,ArrowLeft"":23,""ArrowUp,ArrowRight"":10,""ArrowDown,ArrowLeft"":8,""ArrowDown,ArrowRight"":30}","true","spaceBar","true","","","","","","","96","revaluation","1",""
"html-keyboard-response","244","1210637","0.0-4.0-2.0-1.48","pilot_wm_v1","6692463a3773ef328cdde1f0","2","null","null","true","","","","","","","null","<div style=""font-size:60px;"">+</div>","null","fixation","","","","","","","","","","","","","97","","",""
"revaluation","245","1214657","0.0-4.0-2.0-0.49","pilot_wm_v1","6692463a3773ef328cdde1f0","2","null","null","true","","false","","","","","[583]","./assets/img/canyon/catch/7.jpg","[""spaceBar""]","value training","canyon","0","{""ArrowUp,ArrowLeft"":23,""ArrowUp,ArrowRight"":10,""ArrowDown,ArrowLeft"":8,""ArrowDown,ArrowRight"":30}","true","spaceBar","true","","","","","","","98","revaluation","1",""
"html-keyboard-response","246","1215176","0.0-4.0-2.0-1.49","pilot_wm_v1","6692463a3773ef328cdde1f0","2","null","null","true","","","","","","","null","<div style=""font-size:60px;"">+</div>","null","fixation","","","","","","","","","","","","","99","","",""
"learning-instructions","247","1229858","0.0-4.0-3.0-0.0","pilot_wm_v1","6692463a3773ef328cdde1f0","2","null","null","true","","","","","","","1790","<p> Now, you will travel with a friend who will choose whether you go up or down first. </p>
            <p> On these turns, you will just see the animal that they found. You will still get to choose which chest to search for treasure.</p>","","instructions","","","","","","","","","","","","","","","",""
"learning-instructions","248","1242057","0.0-4.0-3.0-0.1","pilot_wm_v1","6692463a3773ef328cdde1f0","2","null","null","true","","","","","","","580","<p> In this part, you will also hear beeps from your friend and see special treasure chests that need a password. </p>
            <p> Do your best to count the high beeps <b>and</b> choose between each animals' chests at the same time.</p>
            <img src='./assets/img/instructions/beep_chest.jpg' class='instructions-image'>","","instructions","","","","","","","","","","","","","","","",""
"revaluation","249","1246097","0.0-4.0-4.0-0.0","pilot_wm_v1","6692463a3773ef328cdde1f0","2","null","null","true","","false","","","","","[1837]","./assets/img/canyon/animals/giraffe.jpg","[""ArrowRight""]","revaluation","canyon","15","{""ArrowUp,ArrowLeft"":27,""ArrowUp,ArrowRight"":15,""ArrowDown,ArrowLeft"":21,""ArrowDown,ArrowRight"":7}","false","ArrowUp,ArrowRight","","6_3","","","","","","0","revaluation","1",""
"html-keyboard-response","250","1246616","0.0-4.0-4.0-1.0","pilot_wm_v1","6692463a3773ef328cdde1f0","2","null","null","true","","","","","","","null","<div style=""font-size:60px;"">+</div>","null","fixation","","","","","","","","","","","","","","","",""
"revaluation","251","1250646","0.0-4.0-4.0-0.1","pilot_wm_v1","6692463a3773ef328cdde1f0","2","null","null","true","","true","","","","","[]","./assets/img/canyon/animals/giraffe.jpg","[]","revaluation","canyon","-5","{""ArrowUp,ArrowLeft"":27,""ArrowUp,ArrowRight"":15,""ArrowDown,ArrowLeft"":21,""ArrowDown,ArrowRight"":7}","false","ArrowUp","","7_4","","","","","","1","revaluation","1",""
"html-keyboard-response","252","1251167","0.0-4.0-4.0-1.1","pilot_wm_v1","6692463a3773ef328cdde1f0","2","null","null","true","","","","","","","null","<div style=""font-size:60px;"">+</div>","null","fixation","","","","","","","","","","","","","","","",""
"revaluation","253","1255196","0.0-4.0-4.0-0.2","pilot_wm_v1","6692463a3773ef328cdde1f0","2","null","null","true","","false","","","","","[747]","./assets/img/canyon/animals/lion.jpg","[""ArrowRight""]","revaluation","canyon","7","{""ArrowUp,ArrowLeft"":27,""ArrowUp,ArrowRight"":15,""ArrowDown,ArrowLeft"":21,""ArrowDown,ArrowRight"":7}","false","ArrowDown,ArrowRight","","17_1","","","","","","2","revaluation","1",""
"html-keyboard-response","254","1255717","0.0-4.0-4.0-1.2","pilot_wm_v1","6692463a3773ef328cdde1f0","2","null","null","true","","","","","","","null","<div style=""font-size:60px;"">+</div>","null","fixation","","","","","","","","","","","","","","","",""
"revaluation","255","1259757","0.0-4.0-4.0-0.3","pilot_wm_v1","6692463a3773ef328cdde1f0","2","null","null","true","","false","","","","","[689]","./assets/img/canyon/animals/lion.jpg","[""ArrowRight""]","revaluation","canyon","7","{""ArrowUp,ArrowLeft"":27,""ArrowUp,ArrowRight"":15,""ArrowDown,ArrowLeft"":21,""ArrowDown,ArrowRight"":7}","false","ArrowDown,ArrowRight","","16_0","","","","","","3","revaluation","1",""
"html-keyboard-response","256","1260271","0.0-4.0-4.0-1.3","pilot_wm_v1","6692463a3773ef328cdde1f0","2","null","null","true","","","","","","","null","<div style=""font-size:60px;"">+</div>","null","fixation","","","","","","","","","","","","","","","",""
"html-slider-response","257","1266328","0.0-4.0-4.0-2.3-0.3","pilot_wm_v1","6692463a3773ef328cdde1f0","2","null","null","true","","","","","","","6054","<div style=""width:500px;"">
        <p>What is the password?</p>
        <img src='./assets/img/instructions/beep_chest.jpg' class='instructions-image'>","5","beep chest","","","","false","","","","50","8","3","","","","","",""
"revaluation","258","1270367","0.0-4.0-4.0-0.4","pilot_wm_v1","6692463a3773ef328cdde1f0","2","null","null","true","","false","","","","","[1198]","./assets/img/canyon/animals/giraffe.jpg","[""ArrowLeft""]","revaluation","canyon","27","{""ArrowUp,ArrowLeft"":27,""ArrowUp,ArrowRight"":15,""ArrowDown,ArrowLeft"":21,""ArrowDown,ArrowRight"":7}","true","ArrowUp,ArrowLeft","","1_4","","","","","","4","revaluation","1",""
"html-keyboard-response","259","1270886","0.0-4.0-4.0-1.4","pilot_wm_v1","6692463a3773ef328cdde1f0","2","null","null","true","","","","","","","null","<div style=""font-size:60px;"">+</div>","null","fixation","","","","","","","","","","","","","","","",""
"revaluation","260","1274896","0.0-4.0-4.0-0.5","pilot_wm_v1","6692463a3773ef328cdde1f0","2","null","null","true","","false","","","","","[1314]","./assets/img/canyon/animals/giraffe.jpg","[""ArrowLeft""]","revaluation","canyon","27","{""ArrowUp,ArrowLeft"":27,""ArrowUp,ArrowRight"":15,""ArrowDown,ArrowLeft"":21,""ArrowDown,ArrowRight"":7}","true","ArrowUp,ArrowLeft","","3_0","","","","","","5","revaluation","1",""
"html-keyboard-response","261","1275416","0.0-4.0-4.0-1.5","pilot_wm_v1","6692463a3773ef328cdde1f0","2","null","null","true","","","","","","","null","<div style=""font-size:60px;"">+</div>","null","fixation","","","","","","","","","","","","","","","",""
"revaluation","262","1279456","0.0-4.0-4.0-0.6","pilot_wm_v1","6692463a3773ef328cdde1f0","2","null","null","true","","false","","","","","[1404]","./assets/img/canyon/animals/lion.jpg","[""ArrowLeft""]","revaluation","canyon","21","{""ArrowUp,ArrowLeft"":27,""ArrowUp,ArrowRight"":15,""ArrowDown,ArrowLeft"":21,""ArrowDown,ArrowRight"":7}","true","ArrowDown,ArrowLeft","","15_0","","","","","","6","revaluation","1",""
"html-keyboard-response","263","1279976","0.0-4.0-4.0-1.6","pilot_wm_v1","6692463a3773ef328cdde1f0","2","null","null","true","","","","","","","null","<div style=""font-size:60px;"">+</div>","null","fixation","","","","","","","","","","","","","","","",""
"revaluation","264","1284017","0.0-4.0-4.0-0.7","pilot_wm_v1","6692463a3773ef328cdde1f0","2","null","null","true","","false","","","","","[1202]","./assets/img/canyon/animals/lion.jpg","[""ArrowLeft""]","revaluation","canyon","21","{""ArrowUp,ArrowLeft"":27,""ArrowUp,ArrowRight"":15,""ArrowDown,ArrowLeft"":21,""ArrowDown,ArrowRight"":7}","true","ArrowDown,ArrowLeft","","12_2","","","","","","7","revaluation","1",""
"html-keyboard-response","265","1284536","0.0-4.0-4.0-1.7","pilot_wm_v1","6692463a3773ef328cdde1f0","2","null","null","true","","","","","","","null","<div style=""font-size:60px;"">+</div>","null","fixation","","","","","","","","","","","","","","","",""
"html-slider-response","266","1288624","0.0-4.0-4.0-2.7-0.7","pilot_wm_v1","6692463a3773ef328cdde1f0","2","null","null","true","","","","","","","4087","<div style=""width:500px;"">
        <p>What is the password?</p>
        <img src='./assets/img/instructions/beep_chest.jpg' class='instructions-image'>","9","beep chest","","","","false","","","","50","6","3","","","","","",""
"revaluation","267","1292656","0.0-4.0-4.0-0.8","pilot_wm_v1","6692463a3773ef328cdde1f0","2","null","null","true","","false","","","","","[907]","./assets/img/canyon/animals/giraffe.jpg","[""ArrowLeft""]","revaluation","canyon","27","{""ArrowUp,ArrowLeft"":27,""ArrowUp,ArrowRight"":15,""ArrowDown,ArrowLeft"":21,""ArrowDown,ArrowRight"":7}","true","ArrowUp,ArrowLeft","","8_2","","","","","","8","revaluation","1",""
"html-keyboard-response","268","1293176","0.0-4.0-4.0-1.8","pilot_wm_v1","6692463a3773ef328cdde1f0","2","null","null","true","","","","","","","null","<div style=""font-size:60px;"">+</div>","null","fixation","","","","","","","","","","","","","","","",""
"revaluation","269","1297196","0.0-4.0-4.0-0.9","pilot_wm_v1","6692463a3773ef328cdde1f0","2","null","null","true","","false","","","","","[1840]","./assets/img/canyon/animals/giraffe.jpg","[""ArrowLeft""]","revaluation","canyon","27","{""ArrowUp,ArrowLeft"":27,""ArrowUp,ArrowRight"":15,""ArrowDown,ArrowLeft"":21,""ArrowDown,ArrowRight"":7}","true","ArrowUp,ArrowLeft","","5_4","","","","","","9","revaluation","1",""
"html-keyboard-response","270","1297715","0.0-4.0-4.0-1.9","pilot_wm_v1","6692463a3773ef328cdde1f0","2","null","null","true","","","","","","","null","<div style=""font-size:60px;"">+</div>","null","fixation","","","","","","","","","","","","","","","",""
"revaluation","271","1301746","0.0-4.0-4.0-0.10","pilot_wm_v1","6692463a3773ef328cdde1f0","2","null","null","true","","false","","","","","[1214]","./assets/img/canyon/animals/lion.jpg","[""ArrowLeft""]","revaluation","canyon","21","{""ArrowUp,ArrowLeft"":27,""ArrowUp,ArrowRight"":15,""ArrowDown,ArrowLeft"":21,""ArrowDown,ArrowRight"":7}","true","ArrowDown,ArrowLeft","","18_0","","","","","","10","revaluation","1",""
"html-keyboard-response","272","1302266","0.0-4.0-4.0-1.10","pilot_wm_v1","6692463a3773ef328cdde1f0","2","null","null","true","","","","","","","null","<div style=""font-size:60px;"">+</div>","null","fixation","","","","","","","","","","","","","","","",""
"revaluation","273","1306306","0.0-4.0-4.0-0.11","pilot_wm_v1","6692463a3773ef328cdde1f0","2","null","null","true","","false","","","","","[1225]","./assets/img/canyon/animals/lion.jpg","[""ArrowLeft""]","revaluation","canyon","21","{""ArrowUp,ArrowLeft"":27,""ArrowUp,ArrowRight"":15,""ArrowDown,ArrowLeft"":21,""ArrowDown,ArrowRight"":7}","true","ArrowDown,ArrowLeft","","14_4","","","","","","11","revaluation","1",""
"html-keyboard-response","274","1306825","0.0-4.0-4.0-1.11","pilot_wm_v1","6692463a3773ef328cdde1f0","2","null","null","true","","","","","","","null","<div style=""font-size:60px;"">+</div>","null","fixation","","","","","","","","","","","","","","","",""
"html-slider-response","275","1310872","0.0-4.0-4.0-2.11-0.11","pilot_wm_v1","6692463a3773ef328cdde1f0","2","null","null","true","","","","","","","4046","<div style=""width:500px;"">
        <p>What is the password?</p>
        <img src='./assets/img/instructions/beep_chest.jpg' class='instructions-image'>","8","beep chest","","","","false","","","","50","10","2","","","","","",""
"revaluation","276","1314876","0.0-4.0-4.0-0.12","pilot_wm_v1","6692463a3773ef328cdde1f0","2","null","null","true","","false","","","","","[883]","./assets/img/canyon/animals/lion.jpg","[""ArrowLeft""]","revaluation","canyon","21","{""ArrowUp,ArrowLeft"":27,""ArrowUp,ArrowRight"":15,""ArrowDown,ArrowLeft"":21,""ArrowDown,ArrowRight"":7}","true","ArrowDown,ArrowLeft","","11_4","","","","","","12","revaluation","1",""
"html-keyboard-response","277","1315395","0.0-4.0-4.0-1.12","pilot_wm_v1","6692463a3773ef328cdde1f0","2","null","null","true","","","","","","","null","<div style=""font-size:60px;"">+</div>","null","fixation","","","","","","","","","","","","","","","",""
"revaluation","278","1319450","0.0-4.0-4.0-0.13","pilot_wm_v1","6692463a3773ef328cdde1f0","2","null","null","true","","false","","","","","[1231]","./assets/img/canyon/animals/lion.jpg","[""ArrowLeft""]","revaluation","canyon","21","{""ArrowUp,ArrowLeft"":27,""ArrowUp,ArrowRight"":15,""ArrowDown,ArrowLeft"":21,""ArrowDown,ArrowRight"":7}","true","ArrowDown,ArrowLeft","","10_3","","","","","","13","revaluation","1",""
"html-keyboard-response","279","1319976","0.0-4.0-4.0-1.13","pilot_wm_v1","6692463a3773ef328cdde1f0","2","null","null","true","","","","","","","null","<div style=""font-size:60px;"">+</div>","null","fixation","","","","","","","","","","","","","","","",""
"revaluation","280","1324016","0.0-4.0-4.0-0.14","pilot_wm_v1","6692463a3773ef328cdde1f0","2","null","null","true","","false","","","","","[823]","./assets/img/canyon/animals/giraffe.jpg","[""ArrowLeft""]","revaluation","canyon","27","{""ArrowUp,ArrowLeft"":27,""ArrowUp,ArrowRight"":15,""ArrowDown,ArrowLeft"":21,""ArrowDown,ArrowRight"":7}","true","ArrowUp,ArrowLeft","","9_2","","","","","","14","revaluation","1",""
"html-keyboard-response","281","1324526","0.0-4.0-4.0-1.14","pilot_wm_v1","6692463a3773ef328cdde1f0","2","null","null","true","","","","","","","null","<div style=""font-size:60px;"">+</div>","null","fixation","","","","","","","","","","","","","","","",""
"revaluation","282","1328575","0.0-4.0-4.0-0.15","pilot_wm_v1","6692463a3773ef328cdde1f0","2","null","null","true","","false","","","","","[873]","./assets/img/canyon/animals/giraffe.jpg","[""ArrowLeft""]","revaluation","canyon","27","{""ArrowUp,ArrowLeft"":27,""ArrowUp,ArrowRight"":15,""ArrowDown,ArrowLeft"":21,""ArrowDown,ArrowRight"":7}","true","ArrowUp,ArrowLeft","","4_0","","","","","","15","revaluation","1",""
"html-keyboard-response","283","1329095","0.0-4.0-4.0-1.15","pilot_wm_v1","6692463a3773ef328cdde1f0","2","null","null","true","","","","","","","null","<div style=""font-size:60px;"">+</div>","null","fixation","","","","","","","","","","","","","","","",""
"html-slider-response","284","1334645","0.0-4.0-4.0-2.15-0.15","pilot_wm_v1","6692463a3773ef328cdde1f0","2","null","null","true","","","","","","","5549","<div style=""width:500px;"">
        <p>What is the password?</p>
        <img src='./assets/img/instructions/beep_chest.jpg' class='instructions-image'>","8","beep chest","","","","false","","","","50","9","1","","","","","",""
"revaluation","285","1338696","0.0-4.0-4.0-0.16","pilot_wm_v1","6692463a3773ef328cdde1f0","2","null","null","true","","false","","","","","[1326]","./assets/img/canyon/animals/lion.jpg","[""ArrowLeft""]","revaluation","canyon","21","{""ArrowUp,ArrowLeft"":27,""ArrowUp,ArrowRight"":15,""ArrowDown,ArrowLeft"":21,""ArrowDown,ArrowRight"":7}","true","ArrowDown,ArrowLeft","","13_2","","","","","","16","revaluation","1",""
