"trial_type","trial_index","time_elapsed","internal_node_id","task_version","subject_id","assigned_condition","age","gender","rest","success","timeout","failed_images","failed_audio","failed_video","browser_interaction","rt","stimulus","response","task_part","environment","score","rewardMap","correct","fullState","isCatch","audioStim","slider_start","answer","error","trial_num","condition","order","bonus"
"pavlovia","0","1444","0.0-0.0","pilot_wm_v1","null","8","null","null","false","","","","","","","","","","","","","","","","","","","","","","","",""
"preload","1","18756","0.0-1.0","pilot_wm_v1","null","8","null","null","false","true","false","[]","[]","[]","[{""event"":""fullscreenenter"",""trial"":2,""time"":23593}]","","","","","","","","","","","","","","","","","",""
"fullscreen","2","24571","0.0-2.0","pilot_wm_v1","null","8","null","null","false","true","","","","","","","","","","","","","","","","","","","","","","",""
"audio-button-response","3","26972","0.0-3.0-0.0-0.0","pilot_wm_v1","null","8","null","null","false","","","","","","","2272","./assets/audio/audiotest/turtle.mp3","2","audio_test","","","","","","","","","","","","","",""
"learning-instructions","4","36982","0.0-3.0-1.0-0.0","pilot_wm_v1","null","8","null","null","false","","","","","","","3035.199999999255","<p> Welcome! Please remember to stay in fullscreen mode and don't click away from the experiment. </p>","","instructions","","","","","","","","","","","","","",""
"learning-instructions","5","46672","0.0-3.0-1.0-0.1","pilot_wm_v1","null","8","null","null","false","","","","","","","1269.199999999255","<p> Today you will be playing a game to earn treasure. </p>
            <p> At the end of the experiment, you will earn a bonus based on how much treasure you find. </p>
            <img src='./assets/img/instructions/treasure.jpg' class='instructions-image'>","","instructions","","","","","","","","","","","","","",""
"learning-instructions","6","57878","0.0-3.0-1.0-0.2","pilot_wm_v1","null","8","null","null","false","","","","","","","2938.7000000029802","<p> Animals have hidden treasure in treasure chests. </p>
            <p> You need to first find an animal and then choose which of their treasure chests to search. </p>
            <img src='./assets/img/space/animals/cat.jpg' class='instructions-image'>","","instructions","","","","","","","","","","","","","",""
"learning-instructions","7","72188","0.0-3.0-1.0-0.3","pilot_wm_v1","null","8","null","null","false","","","","","","","1142.5","<p> In each round, you will search for treasure in a different place. In the real game, there will be two rounds. </p>
            <p> You will begin with a separate, practice round where you will search for treasure in outer space. </p>
            <img src='./assets/img/space/0.jpg' class='instructions-image'>","","instructions","","","","","","","","","","","","","",""
"learning-instructions","8","85891","0.0-3.0-1.0-0.4","pilot_wm_v1","null","8","null","null","false","","","","","","","2279.300000000745","<p> On every turn, you will see a picture of the place that you are in, but the specific image may be different each time. </p>
            <p> For example, both of these images mean you are in outer space. </p>
            <img src='./assets/img/instructions/outerspace.jpg' class='instructions-image'>","","instructions","","","","","","","","","","","","","",""
"learning-instructions","9","94702","0.0-3.0-1.0-0.5","pilot_wm_v1","null","8","null","null","false","","","","","","","978.5","<p> You need to decide which direction to travel in. </p>
            <p> You can choose between going <b>up or down</b> by using the arrow keys. </p>
            <img src='./assets/img/instructions/updown.jpg' class='instructions-image'>","","instructions","","","","","","","","","","","","","",""
"learning-instructions","10","104941","0.0-3.0-1.0-0.6","pilot_wm_v1","null","8","null","null","false","","","","","","","1414.5","<p> You will have <b>2 seconds</b> to make your choice. </p>
            <p> If you do not make a choice within 2 seconds, you will not find an animal or earn treasure. </p>
            <img src='./assets/img/instructions/2seconds.jpg' class='instructions-image'>","","instructions","","","","","","","","","","","","","",""
"learning-instructions","11","112543","0.0-3.0-1.0-0.7","pilot_wm_v1","null","8","null","null","false","","","","","","","547.8000000007451","<p> Let’s try practicing that now! </p>
            <p> When you see a picture of the place you are in, press the <b>up</b> key to travel up. </p>
            <img src='./assets/img/instructions/pressUp.jpg' class='instructions-image'>","","instructions","","","","","","","","","","","","","",""
"revaluation","12","116560","0.0-3.0-2.0-0.0","pilot_wm_v1","null","8","null","null","false","","false","","","","","[1041.5]","./assets/img/space/0.jpg","[""ArrowUp""]","first stage practice","space","0","null","null","ArrowUp","false","","","","","","","",""
"html-keyboard-response","13","117062","0.0-3.0-2.0-1.0","pilot_wm_v1","null","8","null","null","false","","","","","","","null","<div style=""font-size:60px;"">+</div>","null","fixation","","","","","","","","","","","","","",""
"revaluation","14","121066","0.0-3.0-2.0-0.1","pilot_wm_v1","null","8","null","null","false","","false","","","","","[1490.1000000014901]","./assets/img/space/1.jpg","[""ArrowUp""]","first stage practice","space","0","null","null","ArrowUp","false","","","","","","","",""
"html-keyboard-response","15","121568","0.0-3.0-2.0-1.1","pilot_wm_v1","null","8","null","null","false","","","","","","","null","<div style=""font-size:60px;"">+</div>","null","fixation","","","","","","","","","","","","","",""
"revaluation","16","125572","0.0-3.0-2.0-0.2","pilot_wm_v1","null","8","null","null","false","","false","","","","","[1345.5]","./assets/img/space/2.jpg","[""ArrowUp""]","first stage practice","space","0","null","null","ArrowUp","false","","","","","","","",""
"html-keyboard-response","17","126075","0.0-3.0-2.0-1.2","pilot_wm_v1","null","8","null","null","false","","","","","","","null","<div style=""font-size:60px;"">+</div>","null","fixation","","","","","","","","","","","","","",""
"learning-instructions","18","132904","0.0-3.0-3.0-0.0","pilot_wm_v1","null","8","null","null","false","","","","","","","2113.300000000745","<p> Great job! Now try pressing the <b>down</b> key to travel down. </p>
            <img src='./assets/img/instructions/pressDown.jpg' class='instructions-image'>","","instructions","","","","","","","","","","","","","",""
"revaluation","19","136911","0.0-3.0-4.0-0.0","pilot_wm_v1","null","8","null","null","false","","false","","","","","[466.6000000014901]","./assets/img/space/3.jpg","[""ArrowDown""]","first stage practice","space","0","null","null","ArrowDown","false","","","","","","","",""
"html-keyboard-response","20","137413","0.0-3.0-4.0-1.0","pilot_wm_v1","null","8","null","null","false","","","","","","","null","<div style=""font-size:60px;"">+</div>","null","fixation","","","","","","","","","","","","","",""
"revaluation","21","141417","0.0-3.0-4.0-0.1","pilot_wm_v1","null","8","null","null","false","","false","","","","","[1394.800000000745]","./assets/img/space/4.jpg","[""ArrowDown""]","first stage practice","space","0","null","null","ArrowDown","false","","","","","","","",""
"html-keyboard-response","22","141918","0.0-3.0-4.0-1.1","pilot_wm_v1","null","8","null","null","false","","","","","","","null","<div style=""font-size:60px;"">+</div>","null","fixation","","","","","","","","","","","","","",""
"revaluation","23","145923","0.0-3.0-4.0-0.2","pilot_wm_v1","null","8","null","null","false","","false","","","","","[1150.1000000014901]","./assets/img/space/5.jpg","[""ArrowDown""]","first stage practice","space","0","null","null","ArrowDown","false","","","","","","","",""
"html-keyboard-response","24","146424","0.0-3.0-4.0-1.2","pilot_wm_v1","null","8","null","null","false","","","","","","","null","<div style=""font-size:60px;"">+</div>","null","fixation","","","","","","","","","","","","","",""
"learning-instructions","25","157098","0.0-3.0-5.0-0.0","pilot_wm_v1","null","8","null","null","false","","","","","","","814.6000000014901","<p> The animals don’t move, so the animal in the upper part of a place will stay in the upper part of a place, and the animal in the lower part of a place will stay in the lower part of a place. </p>","","instructions","","","","","","","","","","","","","",""
"learning-instructions","26","167645","0.0-3.0-5.0-0.1","pilot_wm_v1","null","8","null","null","false","","","","","","","1399.5","<p> Each animal has two treasure chests for you to choose from. </p>
            <p> The amount of treasure in each chest can range from <b> 0 to 40 pieces.</b></p>","","instructions","","","","","","","","","","","","","",""
"learning-instructions","27","180019","0.0-3.0-5.0-0.2","pilot_wm_v1","null","8","null","null","false","","","","","","","1175.300000000745","<p> You should decide which chest to search for treasure by using the <b>left</b> and <b>right</b> arrow keys. </p>
            <p><b> Pay attention to which animal is on the screen, as the animals have different treasure chests. </b></p>
            <img src='./assets/img/instructions/leftright.jpg' class='instructions-image'>","","instructions","","","","","","","","","","","","","",""
"learning-instructions","28","186875","0.0-3.0-5.0-0.3","pilot_wm_v1","null","8","null","null","false","","","","","","","479.8999999985099","<p> Let’s try practicing that now. </p>
            <p> When you see an animal, choose which chest to search for treasure. </p>
            <img src='./assets/img/instructions/chooseChest.jpg' class='instructions-image'>","","instructions","","","","","","","","","","","","","",""
"revaluation","29","190879","0.0-3.0-6.0-0.0","pilot_wm_v1","null","8","null","null","false","","false","","","","","[1360.5]","./assets/img/space/animals/cat.jpg","[""ArrowRight""]","second stage practice","space","36","{""ArrowUp,ArrowLeft"":3,""ArrowUp,ArrowRight"":36,""ArrowDown,ArrowLeft"":15,""ArrowDown,ArrowRight"":23}","true","ArrowUp,ArrowRight","","","","","","","","",""
"html-keyboard-response","30","191380","0.0-3.0-6.0-1.0","pilot_wm_v1","null","8","null","null","false","","","","","","","null","<div style=""font-size:60px;"">+</div>","null","fixation","","","","","","","","","","","","","",""
"revaluation","31","195384","0.0-3.0-6.0-0.1","pilot_wm_v1","null","8","null","null","false","","false","","","","","[1263.4000000022352]","./assets/img/space/animals/cat.jpg","[""ArrowRight""]","second stage practice","space","36","{""ArrowUp,ArrowLeft"":3,""ArrowUp,ArrowRight"":36,""ArrowDown,ArrowLeft"":15,""ArrowDown,ArrowRight"":23}","true","ArrowUp,ArrowRight","","","","","","","","",""
"html-keyboard-response","32","195885","0.0-3.0-6.0-1.1","pilot_wm_v1","null","8","null","null","false","","","","","","","null","<div style=""font-size:60px;"">+</div>","null","fixation","","","","","","","","","","","","","",""
"revaluation","33","199890","0.0-3.0-6.0-0.2","pilot_wm_v1","null","8","null","null","false","","false","","","","","[1221.5999999977648]","./assets/img/space/animals/rabbit.jpg","[""ArrowLeft""]","second stage practice","space","15","{""ArrowUp,ArrowLeft"":3,""ArrowUp,ArrowRight"":36,""ArrowDown,ArrowLeft"":15,""ArrowDown,ArrowRight"":23}","false","ArrowDown,ArrowLeft","","","","","","","","",""
"html-keyboard-response","34","200391","0.0-3.0-6.0-1.2","pilot_wm_v1","null","8","null","null","false","","","","","","","null","<div style=""font-size:60px;"">+</div>","null","fixation","","","","","","","","","","","","","",""
"revaluation","35","204395","0.0-3.0-6.0-0.3","pilot_wm_v1","null","8","null","null","false","","false","","","","","[430.0999999977648]","./assets/img/space/animals/rabbit.jpg","[""ArrowRight""]","second stage practice","space","23","{""ArrowUp,ArrowLeft"":3,""ArrowUp,ArrowRight"":36,""ArrowDown,ArrowLeft"":15,""ArrowDown,ArrowRight"":23}","true","ArrowDown,ArrowRight","","","","","","","","",""
"html-keyboard-response","36","204897","0.0-3.0-6.0-1.3","pilot_wm_v1","null","8","null","null","false","","","","","","","null","<div style=""font-size:60px;"">+</div>","null","fixation","","","","","","","","","","","","","",""
"learning-instructions","37","223247","0.0-3.0-7.0-0.0","pilot_wm_v1","null","8","null","null","false","","","","","","","1523.3999999985099","<p> Great job. Now let’s try putting it together. </p>
            <p> On each turn, you will first see a picture to remind you of the place you are in, and you need to choose whether to go up or down. </p>
            <p> Then you will see an animal and choose which of its chests to search for treasure. </p>","","instructions","","","","","","","","","","","","","",""
"learning-instructions","38","232016","0.0-3.0-7.0-0.1","pilot_wm_v1","null","8","null","null","false","","","","","","","512.1999999992549","<p> When you choose whether to go up or down, try to go to the animal with the chest with the most treasure. </p>
            <p> Try practicing that now! </p>","","instructions","","","","","","","","","","","","","",""
"revaluation","39","238021","0.0-3.0-8.0-0.0","pilot_wm_v1","null","8","null","null","false","","false","","","","","[1219.0999999977648,753.5]","./assets/img/space/6.jpg","[""ArrowUp"",""ArrowRight""]","full practice","space","36","{""ArrowUp,ArrowLeft"":3,""ArrowUp,ArrowRight"":36,""ArrowDown,ArrowLeft"":15,""ArrowDown,ArrowRight"":23}","true","ArrowUp,ArrowRight","false","","","","","","","",""
"html-keyboard-response","40","238522","0.0-3.0-8.0-1.0","pilot_wm_v1","null","8","null","null","false","","","","","","","null","<div style=""font-size:60px;"">+</div>","null","fixation","","","","","","","","","","","","","",""
"revaluation","41","244527","0.0-3.0-8.0-0.1","pilot_wm_v1","null","8","null","null","false","","false","","","","","[1081.300000000745,487.6000000014901]","./assets/img/space/7.jpg","[""ArrowDown"",""ArrowRight""]","full practice","space","23","{""ArrowUp,ArrowLeft"":3,""ArrowUp,ArrowRight"":36,""ArrowDown,ArrowLeft"":15,""ArrowDown,ArrowRight"":23}","false","ArrowDown,ArrowRight","false","","","","","","","",""
"html-keyboard-response","42","245029","0.0-3.0-8.0-1.1","pilot_wm_v1","null","8","null","null","false","","","","","","","null","<div style=""font-size:60px;"">+</div>","null","fixation","","","","","","","","","","","","","",""
"revaluation","43","251036","0.0-3.0-8.0-0.2","pilot_wm_v1","null","8","null","null","false","","false","","","","","[975.7999999970198,817.1999999992549]","./assets/img/space/8.jpg","[""ArrowUp"",""ArrowLeft""]","full practice","space","3","{""ArrowUp,ArrowLeft"":3,""ArrowUp,ArrowRight"":36,""ArrowDown,ArrowLeft"":15,""ArrowDown,ArrowRight"":23}","false","ArrowUp,ArrowLeft","false","","","","","","","",""
"html-keyboard-response","44","251537","0.0-3.0-8.0-1.2","pilot_wm_v1","null","8","null","null","false","","","","","","","null","<div style=""font-size:60px;"">+</div>","null","fixation","","","","","","","","","","","","","",""
"revaluation","45","257542","0.0-3.0-8.0-0.3","pilot_wm_v1","null","8","null","null","false","","false","","","","","[883.0999999977648,585.1999999992549]","./assets/img/space/9.jpg","[""ArrowUp"",""ArrowRight""]","full practice","space","36","{""ArrowUp,ArrowLeft"":3,""ArrowUp,ArrowRight"":36,""ArrowDown,ArrowLeft"":15,""ArrowDown,ArrowRight"":23}","true","ArrowUp,ArrowRight","false","","","","","","","",""
"html-keyboard-response","46","258044","0.0-3.0-8.0-1.3","pilot_wm_v1","null","8","null","null","false","","","","","","","null","<div style=""font-size:60px;"">+</div>","null","fixation","","","","","","","","","","","","","",""
"revaluation","47","264049","0.0-3.0-8.0-0.4","pilot_wm_v1","null","8","null","null","false","","false","","","","","[1297.8999999985099,333.30000000074506]","./assets/img/space/10.jpg","[""ArrowUp"",""ArrowRight""]","full practice","space","36","{""ArrowUp,ArrowLeft"":3,""ArrowUp,ArrowRight"":36,""ArrowDown,ArrowLeft"":15,""ArrowDown,ArrowRight"":23}","true","ArrowUp,ArrowRight","false","","","","","","","",""
"html-keyboard-response","48","264551","0.0-3.0-8.0-1.4","pilot_wm_v1","null","8","null","null","false","","","","","","","null","<div style=""font-size:60px;"">+</div>","null","fixation","","","","","","","","","","","","","",""
"learning-instructions","49","276450","0.0-3.0-9.0-0.0","pilot_wm_v1","null","8","null","null","false","","","","","","","1549.199999999255","<p> One last thing: sometimes, you will see a robber. The robber can be anywhere in the picture. </p>
            <p> If you do not stop them, you will lose treasure. </p>
            <img src='./assets/img/instructions/robber.jpg' class='instructions-image'>","","instructions","","","","","","","","","","","","","",""
"learning-instructions","50","284031","0.0-3.0-9.0-0.1","pilot_wm_v1","null","8","null","null","false","","","","","","","405.3999999985099","<p> If you see the robber, you should <b>press the space bar</b> rather than using the arrow keys. </p>
            <p> Try practicing that now! </p>","","instructions","","","","","","","","","","","","","",""
"revaluation","51","288035","0.0-3.0-10.0-0.0","pilot_wm_v1","null","8","null","null","false","","false","","","","","[1308.3999999985099]","./assets/img/space/catch/0.jpg","[""spaceBar""]","catch practice","space","0","{""ArrowUp,ArrowLeft"":3,""ArrowUp,ArrowRight"":36,""ArrowDown,ArrowLeft"":15,""ArrowDown,ArrowRight"":23}","true","spaceBar","true","","","","","","","",""
"html-keyboard-response","52","288536","0.0-3.0-10.0-1.0","pilot_wm_v1","null","8","null","null","false","","","","","","","null","<div style=""font-size:60px;"">+</div>","null","fixation","","","","","","","","","","","","","",""
"revaluation","53","292540","0.0-3.0-10.0-0.1","pilot_wm_v1","null","8","null","null","false","","false","","","","","[522.1999999992549]","./assets/img/space/catch/1.jpg","[""spaceBar""]","catch practice","space","0","{""ArrowUp,ArrowLeft"":3,""ArrowUp,ArrowRight"":36,""ArrowDown,ArrowLeft"":15,""ArrowDown,ArrowRight"":23}","true","spaceBar","true","","","","","","","",""
"html-keyboard-response","54","293042","0.0-3.0-10.0-1.1","pilot_wm_v1","null","8","null","null","false","","","","","","","null","<div style=""font-size:60px;"">+</div>","null","fixation","","","","","","","","","","","","","",""
"revaluation","55","297047","0.0-3.0-10.0-0.2","pilot_wm_v1","null","8","null","null","false","","false","","","","","[448]","./assets/img/space/catch/2.jpg","[""spaceBar""]","catch practice","space","0","{""ArrowUp,ArrowLeft"":3,""ArrowUp,ArrowRight"":36,""ArrowDown,ArrowLeft"":15,""ArrowDown,ArrowRight"":23}","true","spaceBar","true","","","","","","","",""
"html-keyboard-response","56","297548","0.0-3.0-10.0-1.2","pilot_wm_v1","null","8","null","null","false","","","","","","","null","<div style=""font-size:60px;"">+</div>","null","fixation","","","","","","","","","","","","","",""
"learning-instructions","57","304965","0.0-3.0-11.0-0.0","pilot_wm_v1","null","8","null","null","false","","","","","","","1893.8999999985099","<p> Sometimes, you will come across a special kind of treasure chest that requires a password. </p>
            <img src='./assets/img/instructions/beep_chest.jpg' class='instructions-image'>","","instructions","","","","","","","","","","","","","",""
"learning-instructions","58","327655","0.0-3.0-11.0-0.1","pilot_wm_v1","null","8","null","null","false","","","","","","","1052.800000000745","<p> Your friend will send you the password using a series of beeps so that you can open the chest and earn treasure. </p>
            <p> You will hear two kinds of beeps, a high beep and a low beep. </p>
            <p> You should report the number of high beeps that you heard before seeing the chest. </p>
            <img src='./assets/img/instructions/listen.jpg' class='instructions-image'>","","instructions","","","","","","","","","","","","","",""
"learning-instructions","59","350385","0.0-3.0-11.0-0.2","pilot_wm_v1","null","8","null","null","false","","","","","","","413.69999999925494","<p> For example, if you hear this series of beeps, you should report 4 as the password using the slider. </p>
            <p> After reporting a password for a chest, you should count the high beeps again starting from 0. </p>
            <p> Let's try practicing that now. </p>","","instructions","","","","","","","","","","","","","",""
"audio-button-response","60","358441","0.0-3.0-12.0-0.0-0.0","pilot_wm_v1","null","8","null","null","false","","","","","","","null","./assets/audio/beeps/practice_6.wav","null","","","","","","","","","","","","","","",""
"html-slider-response","61","362819","0.0-3.0-12.0-0.0-1.0","pilot_wm_v1","null","8","null","null","false","","","","","","","4367","<div style=""width:500px;"">
        <p>What is the password?</p>
        <img src='./assets/img/instructions/beep_chest.jpg' class='instructions-image'>","6","","","","","false","","","","50","0","6","","","",""
"comp-q","62","369257","0.0-3.0-12.0-0.0-2.0","pilot_wm_v1","null","8","null","null","false","","","","","","","2204.800000000745","<p>Correct! There were 6 high pitched beeps before you saw the chest. </p>","0","beep_answer","","","","","","","","","","","","","",""
"audio-button-response","63","377310","0.0-3.0-12.0-0.1-0.1","pilot_wm_v1","null","8","null","null","false","","","","","","","null","./assets/audio/beeps/practice_4.wav","null","","","","","","","","","","","","","","",""
"html-slider-response","64","381003","0.0-3.0-12.0-0.1-1.1","pilot_wm_v1","null","8","null","null","false","","","","","","","3691","<div style=""width:500px;"">
        <p>What is the password?</p>
        <img src='./assets/img/instructions/beep_chest.jpg' class='instructions-image'>","4","","","","","false","","","","50","0","4","","","",""
"comp-q","65","386661","0.0-3.0-12.0-0.1-2.1","pilot_wm_v1","null","8","null","null","false","","","","","","","1457.300000000745","<p>Correct! There were 4 high pitched beeps before you saw the chest. </p>","0","beep_answer","","","","","","","","","","","","","",""
"learning-instructions","66","398258","0.0-3.0-13.0-0.0","pilot_wm_v1","null","8","null","null","false","","","","","","","1267.699999999255","<p> Good job! In the real game we will not tell you if you entered the right password. </p>
            <p> Do your best, the treasure you earn from these chests will also give you extra bonus money. </p>","","instructions","","","","","","","","","","","","","",""
"learning-instructions","67","405653","0.0-3.0-15.0-0.0-0.0","pilot_wm_v1","null","8","null","null","false","","","","","","","2123.800000000745","<p> Now, you will practice a shortened version of the game to get a sense of how it all fits together. </p>","","instructions","","","","","","","","","","","","","",""
"learning-instructions","68","409953","0.0-3.0-15.0-0.0-0.1","pilot_wm_v1","null","8","null","null","false","","","","","","","1101.300000000745","<p>This time you are searching for treasure in outer space.</p>","","instructions","","","","","","","","","","","","","",""
"learning-instructions","69","425798","0.0-3.0-15.0-1.0-0.0","pilot_wm_v1","null","8","null","null","false","","","","","","","1074.199999999255","<p> Remember, when you see a picture of the place, use the up and down keys to <b>find an animal</b>.</p>
            <p> When you encounter an animal, you should use the left and right keys to <b>select a treasure chest</b>.</p>
            <p> Don't forget to look out for the robber! </p>","","instructions","","","","","","","","","","","","","",""
"revaluation","70","431802","0.0-3.0-15.0-2.0-0.0","pilot_wm_v1","null","8","null","null","false","","false","","","","","[837.5999999977648,615]","./assets/img/space/11.jpg","[""ArrowUp"",""ArrowRight""]","practice block","space","36","{""ArrowUp,ArrowLeft"":3,""ArrowUp,ArrowRight"":36,""ArrowDown,ArrowLeft"":15,""ArrowDown,ArrowRight"":23}","true","ArrowUp,ArrowRight","false","","","","","","","",""
"html-keyboard-response","71","432303","0.0-3.0-15.0-2.0-1.0","pilot_wm_v1","null","8","null","null","false","","","","","","","null","<div style=""font-size:60px;"">+</div>","null","fixation","","","","","","","","","","","","","",""
"revaluation","72","438307","0.0-3.0-15.0-2.0-0.1","pilot_wm_v1","null","8","null","null","false","","false","","","","","[1034.0999999977648,327.9000000022352]","./assets/img/space/12.jpg","[""ArrowUp"",""ArrowRight""]","practice block","space","36","{""ArrowUp,ArrowLeft"":3,""ArrowUp,ArrowRight"":36,""ArrowDown,ArrowLeft"":15,""ArrowDown,ArrowRight"":23}","true","ArrowUp,ArrowRight","false","","","","","","","",""
"html-keyboard-response","73","438809","0.0-3.0-15.0-2.0-1.1","pilot_wm_v1","null","8","null","null","false","","","","","","","null","<div style=""font-size:60px;"">+</div>","null","fixation","","","","","","","","","","","","","",""
"revaluation","74","444813","0.0-3.0-15.0-2.0-0.2","pilot_wm_v1","null","8","null","null","false","","false","","","","","[971.6000000014901,393]","./assets/img/space/13.jpg","[""ArrowUp"",""ArrowRight""]","practice block","space","36","{""ArrowUp,ArrowLeft"":3,""ArrowUp,ArrowRight"":36,""ArrowDown,ArrowLeft"":15,""ArrowDown,ArrowRight"":23}","true","ArrowUp,ArrowRight","false","","","","","","","",""
"html-keyboard-response","75","445315","0.0-3.0-15.0-2.0-1.2","pilot_wm_v1","null","8","null","null","false","","","","","","","null","<div style=""font-size:60px;"">+</div>","null","fixation","","","","","","","","","","","","","",""
"revaluation","76","451319","0.0-3.0-15.0-2.0-0.3","pilot_wm_v1","null","8","null","null","false","","false","","","","","[1066.7999999970198,395]","./assets/img/space/14.jpg","[""ArrowUp"",""ArrowRight""]","practice block","space","36","{""ArrowUp,ArrowLeft"":3,""ArrowUp,ArrowRight"":36,""ArrowDown,ArrowLeft"":15,""ArrowDown,ArrowRight"":23}","true","ArrowUp,ArrowRight","false","","","","","","","",""
"html-keyboard-response","77","451820","0.0-3.0-15.0-2.0-1.3","pilot_wm_v1","null","8","null","null","false","","","","","","","null","<div style=""font-size:60px;"">+</div>","null","fixation","","","","","","","","","","","","","",""
"revaluation","78","457825","0.0-3.0-15.0-2.0-0.4","pilot_wm_v1","null","8","null","null","false","","false","","","","","[916.1999999992549,524.7000000029802]","./assets/img/space/11.jpg","[""ArrowUp"",""ArrowRight""]","practice block","space","36","{""ArrowUp,ArrowLeft"":3,""ArrowUp,ArrowRight"":36,""ArrowDown,ArrowLeft"":15,""ArrowDown,ArrowRight"":23}","true","ArrowUp,ArrowRight","false","","","","","","","",""
"html-keyboard-response","79","458327","0.0-3.0-15.0-2.0-1.4","pilot_wm_v1","null","8","null","null","false","","","","","","","null","<div style=""font-size:60px;"">+</div>","null","fixation","","","","","","","","","","","","","",""
"revaluation","80","464332","0.0-3.0-15.0-2.0-0.5","pilot_wm_v1","null","8","null","null","false","","false","","","","","[823.3999999985099,257.5]","./assets/img/space/12.jpg","[""ArrowUp"",""ArrowRight""]","practice block","space","36","{""ArrowUp,ArrowLeft"":3,""ArrowUp,ArrowRight"":36,""ArrowDown,ArrowLeft"":15,""ArrowDown,ArrowRight"":23}","true","ArrowUp,ArrowRight","false","","","","","","","",""
"html-keyboard-response","81","464834","0.0-3.0-15.0-2.0-1.5","pilot_wm_v1","null","8","null","null","false","","","","","","","null","<div style=""font-size:60px;"">+</div>","null","fixation","","","","","","","","","","","","","",""
"revaluation","82","470842","0.0-3.0-15.0-2.0-0.6","pilot_wm_v1","null","8","null","null","false","","false","","","","","[909.7999999970198,278.80000000074506]","./assets/img/space/13.jpg","[""ArrowUp"",""ArrowRight""]","practice block","space","36","{""ArrowUp,ArrowLeft"":3,""ArrowUp,ArrowRight"":36,""ArrowDown,ArrowLeft"":15,""ArrowDown,ArrowRight"":23}","true","ArrowUp,ArrowRight","false","","","","","","","",""
"html-keyboard-response","83","471344","0.0-3.0-15.0-2.0-1.6","pilot_wm_v1","null","8","null","null","false","","","","","","","null","<div style=""font-size:60px;"">+</div>","null","fixation","","","","","","","","","","","","","",""
"revaluation","84","477357","0.0-3.0-15.0-2.0-0.7","pilot_wm_v1","null","8","null","null","false","","false","","","","","[700,246.5]","./assets/img/space/14.jpg","[""ArrowUp"",""ArrowRight""]","practice block","space","36","{""ArrowUp,ArrowLeft"":3,""ArrowUp,ArrowRight"":36,""ArrowDown,ArrowLeft"":15,""ArrowDown,ArrowRight"":23}","true","ArrowUp,ArrowRight","false","","","","","","","",""
"html-keyboard-response","85","477858","0.0-3.0-15.0-2.0-1.7","pilot_wm_v1","null","8","null","null","false","","","","","","","null","<div style=""font-size:60px;"">+</div>","null","fixation","","","","","","","","","","","","","",""
"revaluation","86","481861","0.0-3.0-15.0-2.0-0.8","pilot_wm_v1","null","8","null","null","false","","false","","","","","[759.3000000007451]","./assets/img/space/catch/3.jpg","[""spaceBar""]","practice block","space","0","{""ArrowUp,ArrowLeft"":3,""ArrowUp,ArrowRight"":36,""ArrowDown,ArrowLeft"":15,""ArrowDown,ArrowRight"":23}","true","spaceBar","true","","","","","","","",""
"html-keyboard-response","87","482362","0.0-3.0-15.0-2.0-1.8","pilot_wm_v1","null","8","null","null","false","","","","","","","null","<div style=""font-size:60px;"">+</div>","null","fixation","","","","","","","","","","","","","",""
"learning-instructions","88","497282","0.0-3.0-15.0-3.0-0.0","pilot_wm_v1","null","8","null","null","false","","","","","","","1861.1000000014901","<p> Now, you will travel with a friend who will choose whether you go up or down first. </p>
            <p> On these turns, you will just see the animal that they found. You will still get to choose which chest to search for treasure.</p>","","instructions","","","","","","","","","","","","","",""
"learning-instructions","89","510390","0.0-3.0-15.0-3.0-0.1","pilot_wm_v1","null","8","null","null","false","","","","","","","718.5999999977648","<p> In this part, you will also hear beeps from your friend and see special treasure chests that need a password. </p>
            <p> Do your best to count the high beeps <b>and</b> choose between each animals' chests at the same time.</p>
            <img src='./assets/img/instructions/beep_chest.jpg' class='instructions-image'>","","instructions","","","","","","","","","","","","","",""
"revaluation","90","514394","0.0-3.0-15.0-4.0-0.0","pilot_wm_v1","null","8","null","null","false","","false","","","","","[1538.5]","./assets/img/space/animals/cat.jpg","[""ArrowRight""]","practice block","space","36","{""ArrowUp,ArrowLeft"":3,""ArrowUp,ArrowRight"":36,""ArrowDown,ArrowLeft"":15,""ArrowDown,ArrowRight"":23}","true","ArrowUp,ArrowRight","","[""20_0""]","","","","0","","",""
"html-keyboard-response","91","514898","0.0-3.0-15.0-4.0-1.0","pilot_wm_v1","null","8","null","null","false","","","","","","","null","<div style=""font-size:60px;"">+</div>","null","fixation","","","","","","","","","","","","","",""
"revaluation","92","518902","0.0-3.0-15.0-4.0-0.1","pilot_wm_v1","null","8","null","null","false","","false","","","","","[1316.699999999255]","./assets/img/space/animals/rabbit.jpg","[""ArrowRight""]","practice block","space","23","{""ArrowUp,ArrowLeft"":3,""ArrowUp,ArrowRight"":36,""ArrowDown,ArrowLeft"":15,""ArrowDown,ArrowRight"":23}","true","ArrowDown,ArrowRight","","[""21_1""]","","","","1","","",""
"html-keyboard-response","93","519403","0.0-3.0-15.0-4.0-1.1","pilot_wm_v1","null","8","null","null","false","","","","","","","null","<div style=""font-size:60px;"">+</div>","null","fixation","","","","","","","","","","","","","",""
"revaluation","94","523407","0.0-3.0-15.0-4.0-0.2","pilot_wm_v1","null","8","null","null","false","","false","","","","","[1220]","./assets/img/space/animals/rabbit.jpg","[""ArrowLeft""]","practice block","space","15","{""ArrowUp,ArrowLeft"":3,""ArrowUp,ArrowRight"":36,""ArrowDown,ArrowLeft"":15,""ArrowDown,ArrowRight"":23}","false","ArrowDown,ArrowLeft","","[""22_3""]","","","","2","","",""
"html-keyboard-response","95","523908","0.0-3.0-15.0-4.0-1.2","pilot_wm_v1","null","8","null","null","false","","","","","","","null","<div style=""font-size:60px;"">+</div>","null","fixation","","","","","","","","","","","","","",""
"revaluation","96","527912","0.0-3.0-15.0-4.0-0.3","pilot_wm_v1","null","8","null","null","false","","false","","","","","[887]","./assets/img/space/animals/cat.jpg","[""ArrowRight""]","practice block","space","36","{""ArrowUp,ArrowLeft"":3,""ArrowUp,ArrowRight"":36,""ArrowDown,ArrowLeft"":15,""ArrowDown,ArrowRight"":23}","true","ArrowUp,ArrowRight","","[""19_0""]","","","","3","","",""
"html-keyboard-response","97","528413","0.0-3.0-15.0-4.0-1.3","pilot_wm_v1","null","8","null","null","false","","","","","","","null","<div style=""font-size:60px;"">+</div>","null","fixation","","","","","","","","","","","","","",""
"html-slider-response","98","534176","0.0-3.0-15.0-4.0-2.3-0.3","pilot_wm_v1","null","8","null","null","false","","","","","","","5761","<div style=""width:500px;"">
        <p>What is the password?</p>
        <img src='./assets/img/instructions/beep_chest.jpg' class='instructions-image'>","5","","","","","false","","","","50","82","77","","","",""
"learning-instructions","99","542306","0.0-3.0-15.0-6.0-0.0","pilot_wm_v1","null","8","null","null","false","","","","","","","null","<p> You have almost finished this part of the game! </p>
            <p> We are going to ask you to make a few more choices. </p>","","instructions","","","","","","","","","","","","","",""
"learning-instructions","100","558327","0.0-3.0-15.0-6.0-0.1","pilot_wm_v1","null","8","null","null","false","","","","","","","null","<p> First, you need to decide whether to go up or down. When you see each picture, use the arrow keys to make your choice. </p>
            <p><b>You will not see which animal you found, but try to get to the one that will give you the most treasure.</b></p>","","instructions","","","","","","","","","","","","","",""
"html-keyboard-response","101","559329","0.0-3.0-15.0-7.0-0.0","pilot_wm_v1","null","8","null","null","false","","","","","","","null","<div style=""font-size:100px;color:red;"">Starting in...</div>","null","","","","","","","","","","","","","","",""
"html-keyboard-response","102","560330","0.0-3.0-15.0-7.0-1.0","pilot_wm_v1","null","8","null","null","false","","","","","","","null","<div style=""font-size:200px;color:red;"">3</div>","null","","","","","","","","","","","","","","",""
"html-keyboard-response","103","561332","0.0-3.0-15.0-7.0-2.0","pilot_wm_v1","null","8","null","null","false","","","","","","","null","<div style=""font-size:200px;color:red;"">2</div>","null","","","","","","","","","","","","","","",""
"html-keyboard-response","104","562333","0.0-3.0-15.0-7.0-3.0","pilot_wm_v1","null","8","null","null","false","","","","","","","null","<div style=""font-size:200px;color:red;"">1</div>","null","","","","","","","","","","","","","","",""
"revaluation","105","562982","0.0-3.0-15.0-8.0","pilot_wm_v1","null","8","null","null","false","","false","","","","","[646.5]","./assets/img/space/15.jpg","[""ArrowUp""]","practice block","space","0","{""ArrowUp,ArrowLeft"":3,""ArrowUp,ArrowRight"":36,""ArrowDown,ArrowLeft"":15,""ArrowDown,ArrowRight"":23}","true","ArrowUp","false","","","","","","","",""
"html-keyboard-response","106","563484","0.0-3.0-15.0-9.0","pilot_wm_v1","null","8","null","null","false","","","","","","","null","<div style=""font-size:60px;"">+</div>","null","fixation","","","","","","","","","","","","","",""
"learning-instructions","107","576877","0.0-3.0-15.0-10.0-0.0","pilot_wm_v1","null","8","null","null","false","","","","","","","null","<p> Now you will see the animals again and can search their chests for treasure. </p>
            <p> This time, you will not see how much treasure you earned, but you will earn more bonus money for making better choices. </p>","","instructions","","","","","","","","","","","","","",""
"html-keyboard-response","108","577878","0.0-3.0-15.0-11.0-0.0","pilot_wm_v1","null","8","null","null","false","","","","","","","null","<div style=""font-size:100px;color:red;"">Starting in...</div>","null","","","","","","","","","","","","","","",""
"html-keyboard-response","109","578879","0.0-3.0-15.0-11.0-1.0","pilot_wm_v1","null","8","null","null","false","","","","","","","null","<div style=""font-size:200px;color:red;"">3</div>","null","","","","","","","","","","","","","","",""
"html-keyboard-response","110","579880","0.0-3.0-15.0-11.0-2.0","pilot_wm_v1","null","8","null","null","false","","","","","","","null","<div style=""font-size:200px;color:red;"">2</div>","null","","","","","","","","","","","","","","",""
"html-keyboard-response","111","580881","0.0-3.0-15.0-11.0-3.0","pilot_wm_v1","null","8","null","null","false","","","","","","","null","<div style=""font-size:200px;color:red;"">1</div>","null","","","","","","","","","","","","","","",""
"revaluation","112","581808","0.0-3.0-15.0-12.0-0.0","pilot_wm_v1","null","8","null","null","false","","false","","","","","[922.9000000022352]","./assets/img/space/animals/cat.jpg","[""ArrowRight""]","practice block","space","0","{""ArrowUp,ArrowLeft"":3,""ArrowUp,ArrowRight"":36,""ArrowDown,ArrowLeft"":15,""ArrowDown,ArrowRight"":23}","true","ArrowUp,ArrowRight","","","","","","","","",""
"html-keyboard-response","113","582311","0.0-3.0-15.0-12.0-1.0","pilot_wm_v1","null","8","null","null","false","","","","","","","null","<div style=""font-size:60px;"">+</div>","null","fixation","","","","","","","","","","","","","",""
"revaluation","114","584031","0.0-3.0-15.0-12.0-0.1","pilot_wm_v1","null","8","null","null","false","","false","","","","","[1713.5999999977648]","./assets/img/space/animals/rabbit.jpg","[""ArrowRight""]","practice block","space","0","{""ArrowUp,ArrowLeft"":3,""ArrowUp,ArrowRight"":36,""ArrowDown,ArrowLeft"":15,""ArrowDown,ArrowRight"":23}","true","ArrowDown,ArrowRight","","","","","","","","",""
"html-keyboard-response","115","584532","0.0-3.0-15.0-12.0-1.1","pilot_wm_v1","null","8","null","null","false","","","","","","","null","<div style=""font-size:60px;"">+</div>","null","fixation","","","","","","","","","","","","","",""
"learning-instructions","116","590559","0.0-3.0-16.0-0.0","pilot_wm_v1","null","8","null","null","false","","","","","","","1442.0999999977648","<p> Before you start, we're going to ask you a few questions about how the game works. </p>","","instructions","","","","","","","","","","","","","",""
"comp-q","117","597674","0.0-3.0-17.0-0.0-0.0","pilot_wm_v1","null","8","null","null","false","","","","","","","1517.0999999977648","<p> <b> True or False? </b> </p>
            <p> There can be 50 pieces of treasure in a given animal's chest. </p>","1","comp_question","","","","true","","","","","","","","","",""
"comp-q","118","606924","0.0-3.0-17.0-0.0-1.0","pilot_wm_v1","null","8","null","null","false","","","","","","","2585.699999999255","<p> <b> That's right! </b> The amount of treasure in each chest can range from 0 to 40 pieces. </p>","0","comp_answer","","","","","","","","","","","","","",""
"comp-q","119","615317","0.0-3.0-17.0-0.1-0.1","pilot_wm_v1","null","8","null","null","false","","","","","","","1261.699999999255","<p> <b> True or False? </b> </p><p> In this game, all animals have the same amount of treasure in their left and right chests. </p>","1","comp_question","","","","true","","","","","","","","","",""
"comp-q","120","621763","0.0-3.0-17.0-0.1-1.1","pilot_wm_v1","null","8","null","null","false","","","","","","","1200.8999999985099","<p> <b> That's right! </b> Animals have different amounts of treasure in their treasure chests. </p>","0","comp_answer","","","","","","","","","","","","","",""
"comp-q","121","628430","0.0-3.0-17.0-0.2-0.2","pilot_wm_v1","null","8","null","null","false","","","","","","","817.6999999992549","<p> <b> True or False? </b> </p><p> The same animal will always be there if you go up in the same place. </p>","1","comp_question","","","","false","","","","","","","","","",""
"comp-q","122","636273","0.0-3.0-17.0-0.2-1.2","pilot_wm_v1","null","8","null","null","false","","","","","","","1534.3999999985099","<p> <b>Incorrect.</b> One animal lives in the upper part and one lives in the lower part of every place. </p>","0","comp_answer","","","","","","","","","","","","","",""
"comp-q","123","643141","0.0-3.0-17.0-0.3-0.3","pilot_wm_v1","null","8","null","null","false","","","","","","","1042.800000000745","<p> <b> True or False? </b> </p><p> The same animal will always be there if you go up in the same place. </p>","0","comp_question","","","","true","","","","","","","","","",""
"comp-q","124","650875","0.0-3.0-17.0-0.3-1.3","pilot_wm_v1","null","8","null","null","false","","","","","","","1288.6000000014901","<p> <b> That's right! </b> One animal lives in the upper part and one lives in the lower part of every place. </p>","0","comp_answer","","","","","","","","","","","","","",""
"comp-q","125","657153","0.0-3.0-17.0-0.4-0.4","pilot_wm_v1","null","8","null","null","false","","","","","","","751.1000000014901","<p> <b> True or False? </b> </p><p> If you see a different picture, it means you are in a new place. </p>","1","comp_question","","","","true","","","","","","","","","",""
"comp-q","126","671934","0.0-3.0-17.0-0.4-1.4","pilot_wm_v1","null","8","null","null","false","","","","","","","3542.60000000149","<p> <b> That's right! </b> Lots of different images may show the same place. For example,  you may see three different images that all remind you that you are in outer space. </p>","0","comp_answer","","","","","","","","","","","","","",""
"learning-instructions","127","683122","0.0-3.0-18.0-0.0","pilot_wm_v1","null","8","null","null","false","","","","","","","1333.0999999977648","<p> Good job. Remember to do your best because the amount of treasure you earn will be converted into bonus money. </p>
            <p> It’s time to start the real game! </p>","","instructions","","","","","","","","","","","","","",""
"learning-instructions","128","687164","0.0-4.0-0.0-0.0","pilot_wm_v1","null","8","null","null","false","","","","","","","1268.9000000022352","<p> This time you are searching for treasure in the <b>canyon</b>.</p>","","instructions","","","","","","","","","","","","","",""
"learning-instructions","129","705273","0.0-4.0-0.0-0.1","pilot_wm_v1","null","8","null","null","false","","","","","","","806.3000000007451","<p><b>New</b> animals with <b>new</b> treasure chests live here. You need to explore to discover where the animal with the best treasure chest is.</p>
                    <p> Like before, once you figure out which animal has the chest with the most treasure, you should try to get to that animal and select that chest! </p>","","instructions","","","","","","","","","","","","","",""
"learning-instructions","130","720453","0.0-4.0-1.0-0.0","pilot_wm_v1","null","8","null","null","false","","","","","","","455.8999999985099","<p> Remember, when you see a picture of the place, use the up and down keys to <b>find an animal</b>.</p>
            <p> When you encounter an animal, you should use the left and right keys to <b>select a treasure chest</b>.</p>
            <p> Don't forget to look out for the robber! </p>","","instructions","","","","","","","","","","","","","",""
"revaluation","131","726457","0.0-4.0-2.0-0.0","pilot_wm_v1","null","8","null","null","false","","false","","","","","[1301.5,619.5]","./assets/img/canyon/memory/20.jpg","[""ArrowUp"",""ArrowRight""]","value training","canyon","10","{""ArrowUp,ArrowLeft"":26,""ArrowUp,ArrowRight"":10,""ArrowDown,ArrowLeft"":5,""ArrowDown,ArrowRight"":17}","false","ArrowUp,ArrowRight","false","","","","","0","revaluation","1",""
"html-keyboard-response","132","726962","0.0-4.0-2.0-1.0","pilot_wm_v1","null","8","null","null","false","","","","","","","null","<div style=""font-size:60px;"">+</div>","null","fixation","","","","","","","","","","","1","","",""
"revaluation","133","730969","0.0-4.0-2.0-0.1","pilot_wm_v1","null","8","null","null","false","","false","","","","","[848.2000000029802]","./assets/img/canyon/catch/6.jpg","[""spaceBar""]","value training","canyon","0","{""ArrowUp,ArrowLeft"":26,""ArrowUp,ArrowRight"":10,""ArrowDown,ArrowLeft"":5,""ArrowDown,ArrowRight"":17}","true","spaceBar","true","","","","","2","revaluation","1",""
"html-keyboard-response","134","731471","0.0-4.0-2.0-1.1","pilot_wm_v1","null","8","null","null","false","","","","","","","null","<div style=""font-size:60px;"">+</div>","null","fixation","","","","","","","","","","","3","","",""
"revaluation","135","737476","0.0-4.0-2.0-0.2","pilot_wm_v1","null","8","null","null","false","","false","","","","","[815.1999999992549,813.7000000029802]","./assets/img/canyon/memory/37.jpg","[""ArrowDown"",""ArrowLeft""]","value training","canyon","5","{""ArrowUp,ArrowLeft"":26,""ArrowUp,ArrowRight"":10,""ArrowDown,ArrowLeft"":5,""ArrowDown,ArrowRight"":17}","false","ArrowDown,ArrowLeft","false","","","","","4","revaluation","1",""
"html-keyboard-response","136","737978","0.0-4.0-2.0-1.2","pilot_wm_v1","null","8","null","null","false","","","","","","","null","<div style=""font-size:60px;"">+</div>","null","fixation","","","","","","","","","","","5","","",""
"revaluation","137","743982","0.0-4.0-2.0-0.3","pilot_wm_v1","null","8","null","null","false","","false","","","","","[1406.199999999255,762.6999999992549]","./assets/img/canyon/memory/36.jpg","[""ArrowUp"",""ArrowRight""]","value training","canyon","10","{""ArrowUp,ArrowLeft"":26,""ArrowUp,ArrowRight"":10,""ArrowDown,ArrowLeft"":5,""ArrowDown,ArrowRight"":17}","false","ArrowUp,ArrowRight","false","","","","","6","revaluation","1",""
"html-keyboard-response","138","744484","0.0-4.0-2.0-1.3","pilot_wm_v1","null","8","null","null","false","","","","","","","null","<div style=""font-size:60px;"">+</div>","null","fixation","","","","","","","","","","","7","","",""
"revaluation","139","750489","0.0-4.0-2.0-0.4","pilot_wm_v1","null","8","null","null","false","","false","","","","","[898.9000000022352,677]","./assets/img/canyon/memory/3.jpg","[""ArrowUp"",""ArrowLeft""]","value training","canyon","26","{""ArrowUp,ArrowLeft"":26,""ArrowUp,ArrowRight"":10,""ArrowDown,ArrowLeft"":5,""ArrowDown,ArrowRight"":17}","true","ArrowUp,ArrowLeft","false","","","","","8","revaluation","1",""
"html-keyboard-response","140","750991","0.0-4.0-2.0-1.4","pilot_wm_v1","null","8","null","null","false","","","","","","","null","<div style=""font-size:60px;"">+</div>","null","fixation","","","","","","","","","","","9","","",""
"revaluation","141","754999","0.0-4.0-2.0-0.5","pilot_wm_v1","null","8","null","null","false","","false","","","","","[1002.3000000007451]","./assets/img/canyon/catch/2.jpg","[""spaceBar""]","value training","canyon","0","{""ArrowUp,ArrowLeft"":26,""ArrowUp,ArrowRight"":10,""ArrowDown,ArrowLeft"":5,""ArrowDown,ArrowRight"":17}","true","spaceBar","true","","","","","10","revaluation","1",""
"html-keyboard-response","142","755501","0.0-4.0-2.0-1.5","pilot_wm_v1","null","8","null","null","false","","","","","","","null","<div style=""font-size:60px;"">+</div>","null","fixation","","","","","","","","","","","11","","",""
"revaluation","143","761505","0.0-4.0-2.0-0.6","pilot_wm_v1","null","8","null","null","false","","false","","","","","[959.8000000007451,850.2000000029802]","./assets/img/canyon/memory/36.jpg","[""ArrowUp"",""ArrowLeft""]","value training","canyon","26","{""ArrowUp,ArrowLeft"":26,""ArrowUp,ArrowRight"":10,""ArrowDown,ArrowLeft"":5,""ArrowDown,ArrowRight"":17}","true","ArrowUp,ArrowLeft","false","","","","","12","revaluation","1",""
"html-keyboard-response","144","762007","0.0-4.0-2.0-1.6","pilot_wm_v1","null","8","null","null","false","","","","","","","null","<div style=""font-size:60px;"">+</div>","null","fixation","","","","","","","","","","","13","","",""
"revaluation","145","768015","0.0-4.0-2.0-0.7","pilot_wm_v1","null","8","null","null","false","","false","","","","","[1137.1000000014901,896.1999999992549]","./assets/img/canyon/memory/15.jpg","[""ArrowDown"",""ArrowRight""]","value training","canyon","17","{""ArrowUp,ArrowLeft"":26,""ArrowUp,ArrowRight"":10,""ArrowDown,ArrowLeft"":5,""ArrowDown,ArrowRight"":17}","false","ArrowDown,ArrowRight","false","","","","","14","revaluation","1",""
"html-keyboard-response","146","768517","0.0-4.0-2.0-1.7","pilot_wm_v1","null","8","null","null","false","","","","","","","null","<div style=""font-size:60px;"">+</div>","null","fixation","","","","","","","","","","","15","","",""
"revaluation","147","774525","0.0-4.0-2.0-0.8","pilot_wm_v1","null","8","null","null","false","","false","","","","","[964.9000000022352,1196.800000000745]","./assets/img/canyon/memory/41.jpg","[""ArrowUp"",""ArrowLeft""]","value training","canyon","26","{""ArrowUp,ArrowLeft"":26,""ArrowUp,ArrowRight"":10,""ArrowDown,ArrowLeft"":5,""ArrowDown,ArrowRight"":17}","true","ArrowUp,ArrowLeft","false","","","","","16","revaluation","1",""
"html-keyboard-response","148","775028","0.0-4.0-2.0-1.8","pilot_wm_v1","null","8","null","null","false","","","","","","","null","<div style=""font-size:60px;"">+</div>","null","fixation","","","","","","","","","","","17","","",""
"revaluation","149","781037","0.0-4.0-2.0-0.9","pilot_wm_v1","null","8","null","null","false","","false","","","","","[1121.6000000014901,618.3000000007451]","./assets/img/canyon/memory/40.jpg","[""ArrowUp"",""ArrowLeft""]","value training","canyon","26","{""ArrowUp,ArrowLeft"":26,""ArrowUp,ArrowRight"":10,""ArrowDown,ArrowLeft"":5,""ArrowDown,ArrowRight"":17}","true","ArrowUp,ArrowLeft","false","","","","","18","revaluation","1",""
"html-keyboard-response","150","781539","0.0-4.0-2.0-1.9","pilot_wm_v1","null","8","null","null","false","","","","","","","null","<div style=""font-size:60px;"">+</div>","null","fixation","","","","","","","","","","","19","","",""
"revaluation","151","785546","0.0-4.0-2.0-0.10","pilot_wm_v1","null","8","null","null","false","","false","","","","","[632.3000000007451]","./assets/img/canyon/catch/4.jpg","[""spaceBar""]","value training","canyon","0","{""ArrowUp,ArrowLeft"":26,""ArrowUp,ArrowRight"":10,""ArrowDown,ArrowLeft"":5,""ArrowDown,ArrowRight"":17}","true","spaceBar","true","","","","","20","revaluation","1",""
"html-keyboard-response","152","786048","0.0-4.0-2.0-1.10","pilot_wm_v1","null","8","null","null","false","","","","","","","null","<div style=""font-size:60px;"">+</div>","null","fixation","","","","","","","","","","","21","","",""
"revaluation","153","792053","0.0-4.0-2.0-0.11","pilot_wm_v1","null","8","null","null","false","","false","","","","","[768.0999999977648,416.30000000074506]","./assets/img/canyon/memory/25.jpg","[""ArrowUp"",""ArrowLeft""]","value training","canyon","26","{""ArrowUp,ArrowLeft"":26,""ArrowUp,ArrowRight"":10,""ArrowDown,ArrowLeft"":5,""ArrowDown,ArrowRight"":17}","true","ArrowUp,ArrowLeft","false","","","","","22","revaluation","1",""
"html-keyboard-response","154","792555","0.0-4.0-2.0-1.11","pilot_wm_v1","null","8","null","null","false","","","","","","","null","<div style=""font-size:60px;"">+</div>","null","fixation","","","","","","","","","","","23","","",""
"revaluation","155","796561","0.0-4.0-2.0-0.12","pilot_wm_v1","null","8","null","null","false","","false","","","","","[753]","./assets/img/canyon/catch/1.jpg","[""spaceBar""]","value training","canyon","0","{""ArrowUp,ArrowLeft"":26,""ArrowUp,ArrowRight"":10,""ArrowDown,ArrowLeft"":5,""ArrowDown,ArrowRight"":17}","true","spaceBar","true","","","","","24","revaluation","1",""
"html-keyboard-response","156","797062","0.0-4.0-2.0-1.12","pilot_wm_v1","null","8","null","null","false","","","","","","","null","<div style=""font-size:60px;"">+</div>","null","fixation","","","","","","","","","","","25","","",""
"revaluation","157","803068","0.0-4.0-2.0-0.13","pilot_wm_v1","null","8","null","null","false","","false","","","","","[1025.3999999985099,367.6000000014901]","./assets/img/canyon/memory/11.jpg","[""ArrowUp"",""ArrowLeft""]","value training","canyon","26","{""ArrowUp,ArrowLeft"":26,""ArrowUp,ArrowRight"":10,""ArrowDown,ArrowLeft"":5,""ArrowDown,ArrowRight"":17}","true","ArrowUp,ArrowLeft","false","","","","","26","revaluation","1",""
"html-keyboard-response","158","803570","0.0-4.0-2.0-1.13","pilot_wm_v1","null","8","null","null","false","","","","","","","null","<div style=""font-size:60px;"">+</div>","null","fixation","","","","","","","","","","","27","","",""
"revaluation","159","807580","0.0-4.0-2.0-0.14","pilot_wm_v1","null","8","null","null","false","","false","","","","","[652.8000000007451]","./assets/img/canyon/catch/5.jpg","[""spaceBar""]","value training","canyon","0","{""ArrowUp,ArrowLeft"":26,""ArrowUp,ArrowRight"":10,""ArrowDown,ArrowLeft"":5,""ArrowDown,ArrowRight"":17}","true","spaceBar","true","","","","","28","revaluation","1",""
"html-keyboard-response","160","808083","0.0-4.0-2.0-1.14","pilot_wm_v1","null","8","null","null","false","","","","","","","null","<div style=""font-size:60px;"">+</div>","null","fixation","","","","","","","","","","","29","","",""
"revaluation","161","814093","0.0-4.0-2.0-0.15","pilot_wm_v1","null","8","null","null","false","","false","","","","","[795.3000000007451,586]","./assets/img/canyon/memory/3.jpg","[""ArrowUp"",""ArrowLeft""]","value training","canyon","26","{""ArrowUp,ArrowLeft"":26,""ArrowUp,ArrowRight"":10,""ArrowDown,ArrowLeft"":5,""ArrowDown,ArrowRight"":17}","true","ArrowUp,ArrowLeft","false","","","","","30","revaluation","1",""
"html-keyboard-response","162","814595","0.0-4.0-2.0-1.15","pilot_wm_v1","null","8","null","null","false","","","","","","","null","<div style=""font-size:60px;"">+</div>","null","fixation","","","","","","","","","","","31","","",""
"revaluation","163","820604","0.0-4.0-2.0-0.16","pilot_wm_v1","null","8","null","null","false","","false","","","","","[612.2000000029802,782]","./assets/img/canyon/memory/28.jpg","[""ArrowUp"",""ArrowLeft""]","value training","canyon","26","{""ArrowUp,ArrowLeft"":26,""ArrowUp,ArrowRight"":10,""ArrowDown,ArrowLeft"":5,""ArrowDown,ArrowRight"":17}","true","ArrowUp,ArrowLeft","false","","","","","32","revaluation","1",""
"html-keyboard-response","164","821106","0.0-4.0-2.0-1.16","pilot_wm_v1","null","8","null","null","false","","","","","","","null","<div style=""font-size:60px;"">+</div>","null","fixation","","","","","","","","","","","33","","",""
"revaluation","165","827114","0.0-4.0-2.0-0.17","pilot_wm_v1","null","8","null","null","false","","false","","","","","[903.6000000014901,398.6000000014901]","./assets/img/canyon/memory/13.jpg","[""ArrowUp"",""ArrowLeft""]","value training","canyon","26","{""ArrowUp,ArrowLeft"":26,""ArrowUp,ArrowRight"":10,""ArrowDown,ArrowLeft"":5,""ArrowDown,ArrowRight"":17}","true","ArrowUp,ArrowLeft","false","","","","","34","revaluation","1",""
"html-keyboard-response","166","827616","0.0-4.0-2.0-1.17","pilot_wm_v1","null","8","null","null","false","","","","","","","null","<div style=""font-size:60px;"">+</div>","null","fixation","","","","","","","","","","","35","","",""
"revaluation","167","833624","0.0-4.0-2.0-0.18","pilot_wm_v1","null","8","null","null","false","","false","","","","","[796.4000000022352,337.69999999925494]","./assets/img/canyon/memory/24.jpg","[""ArrowUp"",""ArrowLeft""]","value training","canyon","26","{""ArrowUp,ArrowLeft"":26,""ArrowUp,ArrowRight"":10,""ArrowDown,ArrowLeft"":5,""ArrowDown,ArrowRight"":17}","true","ArrowUp,ArrowLeft","false","","","","","36","revaluation","1",""
"html-keyboard-response","168","834127","0.0-4.0-2.0-1.18","pilot_wm_v1","null","8","null","null","false","","","","","","","null","<div style=""font-size:60px;"">+</div>","null","fixation","","","","","","","","","","","37","","",""
"revaluation","169","840133","0.0-4.0-2.0-0.19","pilot_wm_v1","null","8","null","null","false","","false","","","","","[698.7999999970198,451.5999999977648]","./assets/img/canyon/memory/24.jpg","[""ArrowUp"",""ArrowLeft""]","value training","canyon","26","{""ArrowUp,ArrowLeft"":26,""ArrowUp,ArrowRight"":10,""ArrowDown,ArrowLeft"":5,""ArrowDown,ArrowRight"":17}","true","ArrowUp,ArrowLeft","false","","","","","38","revaluation","1",""
"html-keyboard-response","170","840635","0.0-4.0-2.0-1.19","pilot_wm_v1","null","8","null","null","false","","","","","","","null","<div style=""font-size:60px;"">+</div>","null","fixation","","","","","","","","","","","39","","",""
"revaluation","171","846644","0.0-4.0-2.0-0.20","pilot_wm_v1","null","8","null","null","false","","false","","","","","[593.1999999992549,446.0999999977648]","./assets/img/canyon/memory/35.jpg","[""ArrowUp"",""ArrowLeft""]","value training","canyon","26","{""ArrowUp,ArrowLeft"":26,""ArrowUp,ArrowRight"":10,""ArrowDown,ArrowLeft"":5,""ArrowDown,ArrowRight"":17}","true","ArrowUp,ArrowLeft","false","","","","","40","revaluation","1",""
"html-keyboard-response","172","847145","0.0-4.0-2.0-1.20","pilot_wm_v1","null","8","null","null","false","","","","","","","null","<div style=""font-size:60px;"">+</div>","null","fixation","","","","","","","","","","","41","","",""
"revaluation","173","853154","0.0-4.0-2.0-0.21","pilot_wm_v1","null","8","null","null","false","","false","","","","","[678.3999999985099,255.5]","./assets/img/canyon/memory/13.jpg","[""ArrowUp"",""ArrowLeft""]","value training","canyon","26","{""ArrowUp,ArrowLeft"":26,""ArrowUp,ArrowRight"":10,""ArrowDown,ArrowLeft"":5,""ArrowDown,ArrowRight"":17}","true","ArrowUp,ArrowLeft","false","","","","","42","revaluation","1",""
"html-keyboard-response","174","853656","0.0-4.0-2.0-1.21","pilot_wm_v1","null","8","null","null","false","","","","","","","null","<div style=""font-size:60px;"">+</div>","null","fixation","","","","","","","","","","","43","","",""
"revaluation","175","859664","0.0-4.0-2.0-0.22","pilot_wm_v1","null","8","null","null","false","","false","","","","","[896.1000000014901,331.30000000074506]","./assets/img/canyon/memory/18.jpg","[""ArrowUp"",""ArrowLeft""]","value training","canyon","26","{""ArrowUp,ArrowLeft"":26,""ArrowUp,ArrowRight"":10,""ArrowDown,ArrowLeft"":5,""ArrowDown,ArrowRight"":17}","true","ArrowUp,ArrowLeft","false","","","","","44","revaluation","1",""
"html-keyboard-response","176","860166","0.0-4.0-2.0-1.22","pilot_wm_v1","null","8","null","null","false","","","","","","","null","<div style=""font-size:60px;"">+</div>","null","fixation","","","","","","","","","","","45","","",""
"revaluation","177","866175","0.0-4.0-2.0-0.23","pilot_wm_v1","null","8","null","null","false","","false","","","","","[880,332.19999999925494]","./assets/img/canyon/memory/1.jpg","[""ArrowUp"",""ArrowLeft""]","value training","canyon","26","{""ArrowUp,ArrowLeft"":26,""ArrowUp,ArrowRight"":10,""ArrowDown,ArrowLeft"":5,""ArrowDown,ArrowRight"":17}","true","ArrowUp,ArrowLeft","false","","","","","46","revaluation","1",""
"html-keyboard-response","178","866676","0.0-4.0-2.0-1.23","pilot_wm_v1","null","8","null","null","false","","","","","","","null","<div style=""font-size:60px;"">+</div>","null","fixation","","","","","","","","","","","47","","",""
"revaluation","179","872681","0.0-4.0-2.0-0.24","pilot_wm_v1","null","8","null","null","false","","false","","","","","[745.9000000022352,429.80000000074506]","./assets/img/canyon/memory/37.jpg","[""ArrowUp"",""ArrowLeft""]","value training","canyon","26","{""ArrowUp,ArrowLeft"":26,""ArrowUp,ArrowRight"":10,""ArrowDown,ArrowLeft"":5,""ArrowDown,ArrowRight"":17}","true","ArrowUp,ArrowLeft","false","","","","","48","revaluation","1",""
"html-keyboard-response","180","873183","0.0-4.0-2.0-1.24","pilot_wm_v1","null","8","null","null","false","","","","","","","null","<div style=""font-size:60px;"">+</div>","null","fixation","","","","","","","","","","","49","","",""
"revaluation","181","879194","0.0-4.0-2.0-0.25","pilot_wm_v1","null","8","null","null","false","","false","","","","","[988.8999999985099,460.29999999701977]","./assets/img/canyon/memory/20.jpg","[""ArrowUp"",""ArrowLeft""]","value training","canyon","26","{""ArrowUp,ArrowLeft"":26,""ArrowUp,ArrowRight"":10,""ArrowDown,ArrowLeft"":5,""ArrowDown,ArrowRight"":17}","true","ArrowUp,ArrowLeft","false","","","","","50","revaluation","1",""
"html-keyboard-response","182","879697","0.0-4.0-2.0-1.25","pilot_wm_v1","null","8","null","null","false","","","","","","","null","<div style=""font-size:60px;"">+</div>","null","fixation","","","","","","","","","","","51","","",""
"revaluation","183","885706","0.0-4.0-2.0-0.26","pilot_wm_v1","null","8","null","null","false","","false","","","","","[849.3999999985099,297.0999999977648]","./assets/img/canyon/memory/14.jpg","[""ArrowUp"",""ArrowLeft""]","value training","canyon","26","{""ArrowUp,ArrowLeft"":26,""ArrowUp,ArrowRight"":10,""ArrowDown,ArrowLeft"":5,""ArrowDown,ArrowRight"":17}","true","ArrowUp,ArrowLeft","false","","","","","52","revaluation","1",""
"html-keyboard-response","184","886208","0.0-4.0-2.0-1.26","pilot_wm_v1","null","8","null","null","false","","","","","","","null","<div style=""font-size:60px;"">+</div>","null","fixation","","","","","","","","","","","53","","",""
"revaluation","185","892217","0.0-4.0-2.0-0.27","pilot_wm_v1","null","8","null","null","false","","false","","","","","[790.8000000007451,365.79999999701977]","./assets/img/canyon/memory/35.jpg","[""ArrowUp"",""ArrowLeft""]","value training","canyon","26","{""ArrowUp,ArrowLeft"":26,""ArrowUp,ArrowRight"":10,""ArrowDown,ArrowLeft"":5,""ArrowDown,ArrowRight"":17}","true","ArrowUp,ArrowLeft","false","","","","","54","revaluation","1",""
"html-keyboard-response","186","892719","0.0-4.0-2.0-1.27","pilot_wm_v1","null","8","null","null","false","","","","","","","null","<div style=""font-size:60px;"">+</div>","null","fixation","","","","","","","","","","","55","","",""
"revaluation","187","898724","0.0-4.0-2.0-0.28","pilot_wm_v1","null","8","null","null","false","","false","","","","","[952.6999999992549,492.3999999985099]","./assets/img/canyon/memory/1.jpg","[""ArrowUp"",""ArrowLeft""]","value training","canyon","26","{""ArrowUp,ArrowLeft"":26,""ArrowUp,ArrowRight"":10,""ArrowDown,ArrowLeft"":5,""ArrowDown,ArrowRight"":17}","true","ArrowUp,ArrowLeft","false","","","","","56","revaluation","1",""
"html-keyboard-response","188","899227","0.0-4.0-2.0-1.28","pilot_wm_v1","null","8","null","null","false","","","","","","","null","<div style=""font-size:60px;"">+</div>","null","fixation","","","","","","","","","","","57","","",""
"revaluation","189","905236","0.0-4.0-2.0-0.29","pilot_wm_v1","null","8","null","null","false","","false","","","","","[666.6999999992549,556.6000000014901]","./assets/img/canyon/memory/14.jpg","[""ArrowUp"",""ArrowLeft""]","value training","canyon","26","{""ArrowUp,ArrowLeft"":26,""ArrowUp,ArrowRight"":10,""ArrowDown,ArrowLeft"":5,""ArrowDown,ArrowRight"":17}","true","ArrowUp,ArrowLeft","false","","","","","58","revaluation","1",""
"html-keyboard-response","190","905739","0.0-4.0-2.0-1.29","pilot_wm_v1","null","8","null","null","false","","","","","","","null","<div style=""font-size:60px;"">+</div>","null","fixation","","","","","","","","","","","59","","",""
"revaluation","191","911748","0.0-4.0-2.0-0.30","pilot_wm_v1","null","8","null","null","false","","false","","","","","[912.4000000022352,448.19999999925494]","./assets/img/canyon/memory/40.jpg","[""ArrowUp"",""ArrowLeft""]","value training","canyon","26","{""ArrowUp,ArrowLeft"":26,""ArrowUp,ArrowRight"":10,""ArrowDown,ArrowLeft"":5,""ArrowDown,ArrowRight"":17}","true","ArrowUp,ArrowLeft","false","","","","","60","revaluation","1",""
"html-keyboard-response","192","912250","0.0-4.0-2.0-1.30","pilot_wm_v1","null","8","null","null","false","","","","","","","null","<div style=""font-size:60px;"">+</div>","null","fixation","","","","","","","","","","","61","","",""
"revaluation","193","918263","0.0-4.0-2.0-0.31","pilot_wm_v1","null","8","null","null","false","","false","","","","","[810.7000000029802,270.9000000022352]","./assets/img/canyon/memory/2.jpg","[""ArrowUp"",""ArrowLeft""]","value training","canyon","26","{""ArrowUp,ArrowLeft"":26,""ArrowUp,ArrowRight"":10,""ArrowDown,ArrowLeft"":5,""ArrowDown,ArrowRight"":17}","true","ArrowUp,ArrowLeft","false","","","","","62","revaluation","1",""
"html-keyboard-response","194","918765","0.0-4.0-2.0-1.31","pilot_wm_v1","null","8","null","null","false","","","","","","","null","<div style=""font-size:60px;"">+</div>","null","fixation","","","","","","","","","","","63","","",""
"revaluation","195","924775","0.0-4.0-2.0-0.32","pilot_wm_v1","null","8","null","null","false","","false","","","","","[831.5,420.1000000014901]","./assets/img/canyon/memory/11.jpg","[""ArrowUp"",""ArrowLeft""]","value training","canyon","26","{""ArrowUp,ArrowLeft"":26,""ArrowUp,ArrowRight"":10,""ArrowDown,ArrowLeft"":5,""ArrowDown,ArrowRight"":17}","true","ArrowUp,ArrowLeft","false","","","","","64","revaluation","1",""
"html-keyboard-response","196","925278","0.0-4.0-2.0-1.32","pilot_wm_v1","null","8","null","null","false","","","","","","","null","<div style=""font-size:60px;"">+</div>","null","fixation","","","","","","","","","","","65","","",""
"revaluation","197","931287","0.0-4.0-2.0-0.33","pilot_wm_v1","null","8","null","null","false","","false","","","","","[704.2000000029802,484]","./assets/img/canyon/memory/16.jpg","[""ArrowUp"",""ArrowLeft""]","value training","canyon","26","{""ArrowUp,ArrowLeft"":26,""ArrowUp,ArrowRight"":10,""ArrowDown,ArrowLeft"":5,""ArrowDown,ArrowRight"":17}","true","ArrowUp,ArrowLeft","false","","","","","66","revaluation","1",""
"html-keyboard-response","198","931789","0.0-4.0-2.0-1.33","pilot_wm_v1","null","8","null","null","false","","","","","","","null","<div style=""font-size:60px;"">+</div>","null","fixation","","","","","","","","","","","67","","",""
"revaluation","199","937797","0.0-4.0-2.0-0.34","pilot_wm_v1","null","8","null","null","false","","false","","","","","[756.5999999977648,312.6000000014901]","./assets/img/canyon/memory/16.jpg","[""ArrowUp"",""ArrowLeft""]","value training","canyon","26","{""ArrowUp,ArrowLeft"":26,""ArrowUp,ArrowRight"":10,""ArrowDown,ArrowLeft"":5,""ArrowDown,ArrowRight"":17}","true","ArrowUp,ArrowLeft","false","","","","","68","revaluation","1",""
"html-keyboard-response","200","938298","0.0-4.0-2.0-1.34","pilot_wm_v1","null","8","null","null","false","","","","","","","null","<div style=""font-size:60px;"">+</div>","null","fixation","","","","","","","","","","","69","","",""
"revaluation","201","944307","0.0-4.0-2.0-0.35","pilot_wm_v1","null","8","null","null","false","","false","","","","","[726.5999999977648,476.5999999977648]","./assets/img/canyon/memory/15.jpg","[""ArrowUp"",""ArrowLeft""]","value training","canyon","26","{""ArrowUp,ArrowLeft"":26,""ArrowUp,ArrowRight"":10,""ArrowDown,ArrowLeft"":5,""ArrowDown,ArrowRight"":17}","true","ArrowUp,ArrowLeft","false","","","","","70","revaluation","1",""
"html-keyboard-response","202","944810","0.0-4.0-2.0-1.35","pilot_wm_v1","null","8","null","null","false","","","","","","","null","<div style=""font-size:60px;"">+</div>","null","fixation","","","","","","","","","","","71","","",""
"revaluation","203","950817","0.0-4.0-2.0-0.36","pilot_wm_v1","null","8","null","null","false","","false","","","","","[572.9000000022352,477.80000000074506]","./assets/img/canyon/memory/10.jpg","[""ArrowDown"",""ArrowRight""]","value training","canyon","17","{""ArrowUp,ArrowLeft"":26,""ArrowUp,ArrowRight"":10,""ArrowDown,ArrowLeft"":5,""ArrowDown,ArrowRight"":17}","false","ArrowDown,ArrowRight","false","","","","","72","revaluation","1",""
"html-keyboard-response","204","951319","0.0-4.0-2.0-1.36","pilot_wm_v1","null","8","null","null","false","","","","","","","null","<div style=""font-size:60px;"">+</div>","null","fixation","","","","","","","","","","","73","","",""
"revaluation","205","957329","0.0-4.0-2.0-0.37","pilot_wm_v1","null","8","null","null","false","","false","","","","","[854.3999999985099,319.4000000022352]","./assets/img/canyon/memory/18.jpg","[""ArrowUp"",""ArrowLeft""]","value training","canyon","26","{""ArrowUp,ArrowLeft"":26,""ArrowUp,ArrowRight"":10,""ArrowDown,ArrowLeft"":5,""ArrowDown,ArrowRight"":17}","true","ArrowUp,ArrowLeft","false","","","","","74","revaluation","1",""
"html-keyboard-response","206","957831","0.0-4.0-2.0-1.37","pilot_wm_v1","null","8","null","null","false","","","","","","","null","<div style=""font-size:60px;"">+</div>","null","fixation","","","","","","","","","","","75","","",""
"revaluation","207","963839","0.0-4.0-2.0-0.38","pilot_wm_v1","null","8","null","null","false","","false","","","","","[900.1000000014901,514.0999999977648]","./assets/img/canyon/memory/26.jpg","[""ArrowUp"",""ArrowLeft""]","value training","canyon","26","{""ArrowUp,ArrowLeft"":26,""ArrowUp,ArrowRight"":10,""ArrowDown,ArrowLeft"":5,""ArrowDown,ArrowRight"":17}","true","ArrowUp,ArrowLeft","false","","","","","76","revaluation","1",""
"html-keyboard-response","208","964341","0.0-4.0-2.0-1.38","pilot_wm_v1","null","8","null","null","false","","","","","","","null","<div style=""font-size:60px;"">+</div>","null","fixation","","","","","","","","","","","77","","",""
"revaluation","209","970350","0.0-4.0-2.0-0.39","pilot_wm_v1","null","8","null","null","false","","false","","","","","[701.9000000022352,510.80000000074506]","./assets/img/canyon/memory/2.jpg","[""ArrowUp"",""ArrowLeft""]","value training","canyon","26","{""ArrowUp,ArrowLeft"":26,""ArrowUp,ArrowRight"":10,""ArrowDown,ArrowLeft"":5,""ArrowDown,ArrowRight"":17}","true","ArrowUp,ArrowLeft","false","","","","","78","revaluation","1",""
"html-keyboard-response","210","970852","0.0-4.0-2.0-1.39","pilot_wm_v1","null","8","null","null","false","","","","","","","null","<div style=""font-size:60px;"">+</div>","null","fixation","","","","","","","","","","","79","","",""
"revaluation","211","974857","0.0-4.0-2.0-0.40","pilot_wm_v1","null","8","null","null","false","","false","","","","","[688]","./assets/img/canyon/catch/3.jpg","[""spaceBar""]","value training","canyon","0","{""ArrowUp,ArrowLeft"":26,""ArrowUp,ArrowRight"":10,""ArrowDown,ArrowLeft"":5,""ArrowDown,ArrowRight"":17}","true","spaceBar","true","","","","","80","revaluation","1",""
"html-keyboard-response","212","975360","0.0-4.0-2.0-1.40","pilot_wm_v1","null","8","null","null","false","","","","","","","null","<div style=""font-size:60px;"">+</div>","null","fixation","","","","","","","","","","","81","","",""
"revaluation","213","981368","0.0-4.0-2.0-0.41","pilot_wm_v1","null","8","null","null","false","","false","","","","","[889.5,294.8999999985099]","./assets/img/canyon/memory/9.jpg","[""ArrowUp"",""ArrowLeft""]","value training","canyon","26","{""ArrowUp,ArrowLeft"":26,""ArrowUp,ArrowRight"":10,""ArrowDown,ArrowLeft"":5,""ArrowDown,ArrowRight"":17}","true","ArrowUp,ArrowLeft","false","","","","","82","revaluation","1",""
"html-keyboard-response","214","981871","0.0-4.0-2.0-1.41","pilot_wm_v1","null","8","null","null","false","","","","","","","null","<div style=""font-size:60px;"">+</div>","null","fixation","","","","","","","","","","","83","","",""
"revaluation","215","985878","0.0-4.0-2.0-0.42","pilot_wm_v1","null","8","null","null","false","","false","","","","","[609.3999999985099]","./assets/img/canyon/catch/7.jpg","[""spaceBar""]","value training","canyon","0","{""ArrowUp,ArrowLeft"":26,""ArrowUp,ArrowRight"":10,""ArrowDown,ArrowLeft"":5,""ArrowDown,ArrowRight"":17}","true","spaceBar","true","","","","","84","revaluation","1",""
"html-keyboard-response","216","986381","0.0-4.0-2.0-1.42","pilot_wm_v1","null","8","null","null","false","","","","","","","null","<div style=""font-size:60px;"">+</div>","null","fixation","","","","","","","","","","","85","","",""
"revaluation","217","992389","0.0-4.0-2.0-0.43","pilot_wm_v1","null","8","null","null","false","","false","","","","","[792,329.3999999985099]","./assets/img/canyon/memory/10.jpg","[""ArrowUp"",""ArrowLeft""]","value training","canyon","26","{""ArrowUp,ArrowLeft"":26,""ArrowUp,ArrowRight"":10,""ArrowDown,ArrowLeft"":5,""ArrowDown,ArrowRight"":17}","true","ArrowUp,ArrowLeft","false","","","","","86","revaluation","1",""
"html-keyboard-response","218","992891","0.0-4.0-2.0-1.43","pilot_wm_v1","null","8","null","null","false","","","","","","","null","<div style=""font-size:60px;"">+</div>","null","fixation","","","","","","","","","","","87","","",""
"revaluation","219","998900","0.0-4.0-2.0-0.44","pilot_wm_v1","null","8","null","null","false","","false","","","","","[584.5,314.69999999925494]","./assets/img/canyon/memory/9.jpg","[""ArrowUp"",""ArrowLeft""]","value training","canyon","26","{""ArrowUp,ArrowLeft"":26,""ArrowUp,ArrowRight"":10,""ArrowDown,ArrowLeft"":5,""ArrowDown,ArrowRight"":17}","true","ArrowUp,ArrowLeft","false","","","","","88","revaluation","1",""
"html-keyboard-response","220","999402","0.0-4.0-2.0-1.44","pilot_wm_v1","null","8","null","null","false","","","","","","","null","<div style=""font-size:60px;"">+</div>","null","fixation","","","","","","","","","","","89","","",""
"revaluation","221","1005410","0.0-4.0-2.0-0.45","pilot_wm_v1","null","8","null","null","false","","false","","","","","[557.5,360.30000000074506]","./assets/img/canyon/memory/41.jpg","[""ArrowUp"",""ArrowLeft""]","value training","canyon","26","{""ArrowUp,ArrowLeft"":26,""ArrowUp,ArrowRight"":10,""ArrowDown,ArrowLeft"":5,""ArrowDown,ArrowRight"":17}","true","ArrowUp,ArrowLeft","false","","","","","90","revaluation","1",""
"html-keyboard-response","222","1005912","0.0-4.0-2.0-1.45","pilot_wm_v1","null","8","null","null","false","","","","","","","null","<div style=""font-size:60px;"">+</div>","null","fixation","","","","","","","","","","","91","","",""
"revaluation","223","1011921","0.0-4.0-2.0-0.46","pilot_wm_v1","null","8","null","null","false","","false","","","","","[595.9000000022352,483.69999999925494]","./assets/img/canyon/memory/25.jpg","[""ArrowUp"",""ArrowLeft""]","value training","canyon","26","{""ArrowUp,ArrowLeft"":26,""ArrowUp,ArrowRight"":10,""ArrowDown,ArrowLeft"":5,""ArrowDown,ArrowRight"":17}","true","ArrowUp,ArrowLeft","false","","","","","92","revaluation","1",""
"html-keyboard-response","224","1012423","0.0-4.0-2.0-1.46","pilot_wm_v1","null","8","null","null","false","","","","","","","null","<div style=""font-size:60px;"">+</div>","null","fixation","","","","","","","","","","","93","","",""
"revaluation","225","1018433","0.0-4.0-2.0-0.47","pilot_wm_v1","null","8","null","null","false","","false","","","","","[623.4000000022352,451]","./assets/img/canyon/memory/28.jpg","[""ArrowUp"",""ArrowLeft""]","value training","canyon","26","{""ArrowUp,ArrowLeft"":26,""ArrowUp,ArrowRight"":10,""ArrowDown,ArrowLeft"":5,""ArrowDown,ArrowRight"":17}","true","ArrowUp,ArrowLeft","false","","","","","94","revaluation","1",""
"html-keyboard-response","226","1018935","0.0-4.0-2.0-1.47","pilot_wm_v1","null","8","null","null","false","","","","","","","null","<div style=""font-size:60px;"">+</div>","null","fixation","","","","","","","","","","","95","","",""
"revaluation","227","1024943","0.0-4.0-2.0-0.48","pilot_wm_v1","null","8","null","null","false","","false","","","","","[650.1000000014901,420.80000000074506]","./assets/img/canyon/memory/26.jpg","[""ArrowUp"",""ArrowLeft""]","value training","canyon","26","{""ArrowUp,ArrowLeft"":26,""ArrowUp,ArrowRight"":10,""ArrowDown,ArrowLeft"":5,""ArrowDown,ArrowRight"":17}","true","ArrowUp,ArrowLeft","false","","","","","96","revaluation","1",""
"html-keyboard-response","228","1025445","0.0-4.0-2.0-1.48","pilot_wm_v1","null","8","null","null","false","","","","","","","null","<div style=""font-size:60px;"">+</div>","null","fixation","","","","","","","","","","","97","","",""
"revaluation","229","1029454","0.0-4.0-2.0-0.49","pilot_wm_v1","null","8","null","null","false","","false","","","","","[666.6999999992549]","./assets/img/canyon/catch/0.jpg","[""spaceBar""]","value training","canyon","0","{""ArrowUp,ArrowLeft"":26,""ArrowUp,ArrowRight"":10,""ArrowDown,ArrowLeft"":5,""ArrowDown,ArrowRight"":17}","true","spaceBar","true","","","","","98","revaluation","1",""
"html-keyboard-response","230","1029956","0.0-4.0-2.0-1.49","pilot_wm_v1","null","8","null","null","false","","","","","","","null","<div style=""font-size:60px;"">+</div>","null","fixation","","","","","","","","","","","99","","",""
"learning-instructions","231","1044566","0.0-4.0-3.0-0.0","pilot_wm_v1","null","8","null","null","false","","","","","","","1637.5","<p> Now, you will travel with a friend who will choose whether you go up or down first. </p>
            <p> On these turns, you will just see the animal that they found. You will still get to choose which chest to search for treasure.</p>","","instructions","","","","","","","","","","","","","",""
"learning-instructions","232","1057953","0.0-4.0-3.0-0.1","pilot_wm_v1","null","8","null","null","false","","","","","","","1787.1000000014901","<p> In this part, you will also hear beeps from your friend and see special treasure chests that need a password. </p>
            <p> Do your best to count the high beeps <b>and</b> choose between each animals' chests at the same time.</p>
            <img src='./assets/img/instructions/beep_chest.jpg' class='instructions-image'>","","instructions","","","","","","","","","","","","","",""
"revaluation","233","1061958","0.0-4.0-4.0-0.0","pilot_wm_v1","null","8","null","null","false","","false","","","","","[1919.699999999255]","./assets/img/canyon/animals/lion.jpg","[""ArrowLeft""]","revaluation","canyon","8","{""ArrowUp,ArrowLeft"":2,""ArrowUp,ArrowRight"":11,""ArrowDown,ArrowLeft"":8,""ArrowDown,ArrowRight"":27}","false","ArrowDown,ArrowLeft","","10_3","","","","0","revaluation","1",""
"html-keyboard-response","234","1062461","0.0-4.0-4.0-1.0","pilot_wm_v1","null","8","null","null","false","","","","","","","null","<div style=""font-size:60px;"">+</div>","null","fixation","","","","","","","","","","","","","",""
"revaluation","235","1066466","0.0-4.0-4.0-0.1","pilot_wm_v1","null","8","null","null","false","","false","","","","","[1062.0999999977648]","./assets/img/canyon/animals/lion.jpg","[""ArrowRight""]","revaluation","canyon","27","{""ArrowUp,ArrowLeft"":2,""ArrowUp,ArrowRight"":11,""ArrowDown,ArrowLeft"":8,""ArrowDown,ArrowRight"":27}","true","ArrowDown,ArrowRight","","12_2","","","","1","revaluation","1",""
"html-keyboard-response","236","1066968","0.0-4.0-4.0-1.1","pilot_wm_v1","null","8","null","null","false","","","","","","","null","<div style=""font-size:60px;"">+</div>","null","fixation","","","","","","","","","","","","","",""
"revaluation","237","1070972","0.0-4.0-4.0-0.2","pilot_wm_v1","null","8","null","null","false","","false","","","","","[673.5999999977648]","./assets/img/canyon/animals/lion.jpg","[""ArrowRight""]","revaluation","canyon","27","{""ArrowUp,ArrowLeft"":2,""ArrowUp,ArrowRight"":11,""ArrowDown,ArrowLeft"":8,""ArrowDown,ArrowRight"":27}","true","ArrowDown,ArrowRight","","17_1","","","","2","revaluation","1",""
"html-keyboard-response","238","1071473","0.0-4.0-4.0-1.2","pilot_wm_v1","null","8","null","null","false","","","","","","","null","<div style=""font-size:60px;"">+</div>","null","fixation","","","","","","","","","","","","","",""
"revaluation","239","1075477","0.0-4.0-4.0-0.3","pilot_wm_v1","null","8","null","null","false","","false","","","","","[644.0999999977648]","./assets/img/canyon/animals/lion.jpg","[""ArrowRight""]","revaluation","canyon","27","{""ArrowUp,ArrowLeft"":2,""ArrowUp,ArrowRight"":11,""ArrowDown,ArrowLeft"":8,""ArrowDown,ArrowRight"":27}","true","ArrowDown,ArrowRight","","13_2","","","","3","revaluation","1",""
"html-keyboard-response","240","1075978","0.0-4.0-4.0-1.3","pilot_wm_v1","null","8","null","null","false","","","","","","","null","<div style=""font-size:60px;"">+</div>","null","fixation","","","","","","","","","","","","","",""
"html-slider-response","241","1079268","0.0-4.0-4.0-2.3-0.3","pilot_wm_v1","null","8","null","null","false","","","","","","","3288","<div style=""width:500px;"">
        <p>What is the password?</p>
        <img src='./assets/img/instructions/beep_chest.jpg' class='instructions-image'>","6","","","","","false","","","","50","8","2","","","",""
"revaluation","242","1083272","0.0-4.0-4.0-0.4","pilot_wm_v1","null","8","null","null","false","","false","","","","","[1361.5]","./assets/img/canyon/animals/giraffe.jpg","[""ArrowRight""]","revaluation","canyon","11","{""ArrowUp,ArrowLeft"":2,""ArrowUp,ArrowRight"":11,""ArrowDown,ArrowLeft"":8,""ArrowDown,ArrowRight"":27}","true","ArrowUp,ArrowRight","","5_4","","","","4","revaluation","1",""
"html-keyboard-response","243","1083774","0.0-4.0-4.0-1.4","pilot_wm_v1","null","8","null","null","false","","","","","","","null","<div style=""font-size:60px;"">+</div>","null","fixation","","","","","","","","","","","","","",""
"revaluation","244","1087777","0.0-4.0-4.0-0.5","pilot_wm_v1","null","8","null","null","false","","false","","","","","[578.5999999977648]","./assets/img/canyon/animals/giraffe.jpg","[""ArrowLeft""]","revaluation","canyon","2","{""ArrowUp,ArrowLeft"":2,""ArrowUp,ArrowRight"":11,""ArrowDown,ArrowLeft"":8,""ArrowDown,ArrowRight"":27}","false","ArrowUp,ArrowLeft","","1_4","","","","5","revaluation","1",""
"html-keyboard-response","245","1088279","0.0-4.0-4.0-1.5","pilot_wm_v1","null","8","null","null","false","","","","","","","null","<div style=""font-size:60px;"">+</div>","null","fixation","","","","","","","","","","","","","",""
"revaluation","246","1092287","0.0-4.0-4.0-0.6","pilot_wm_v1","null","8","null","null","false","","false","","","","","[447.9000000022352]","./assets/img/canyon/animals/giraffe.jpg","[""ArrowRight""]","revaluation","canyon","11","{""ArrowUp,ArrowLeft"":2,""ArrowUp,ArrowRight"":11,""ArrowDown,ArrowLeft"":8,""ArrowDown,ArrowRight"":27}","true","ArrowUp,ArrowRight","","6_3","","","","6","revaluation","1",""
"html-keyboard-response","247","1092789","0.0-4.0-4.0-1.6","pilot_wm_v1","null","8","null","null","false","","","","","","","null","<div style=""font-size:60px;"">+</div>","null","fixation","","","","","","","","","","","","","",""
"revaluation","248","1096798","0.0-4.0-4.0-0.7","pilot_wm_v1","null","8","null","null","false","","false","","","","","[607.1000000014901]","./assets/img/canyon/animals/giraffe.jpg","[""ArrowLeft""]","revaluation","canyon","2","{""ArrowUp,ArrowLeft"":2,""ArrowUp,ArrowRight"":11,""ArrowDown,ArrowLeft"":8,""ArrowDown,ArrowRight"":27}","false","ArrowUp,ArrowLeft","","9_2","","","","7","revaluation","1",""
"html-keyboard-response","249","1097300","0.0-4.0-4.0-1.7","pilot_wm_v1","null","8","null","null","false","","","","","","","null","<div style=""font-size:60px;"">+</div>","null","fixation","","","","","","","","","","","","","",""
"html-slider-response","250","1101211","0.0-4.0-4.0-2.7-0.7","pilot_wm_v1","null","8","null","null","false","","","","","","","3908","<div style=""width:500px;"">
        <p>What is the password?</p>
        <img src='./assets/img/instructions/beep_chest.jpg' class='instructions-image'>","12","","","","","false","","","","50","13","1","","","",""
"revaluation","251","1105217","0.0-4.0-4.0-0.8","pilot_wm_v1","null","8","null","null","false","","false","","","","","[1085.8999999985099]","./assets/img/canyon/animals/lion.jpg","[""ArrowRight""]","revaluation","canyon","27","{""ArrowUp,ArrowLeft"":2,""ArrowUp,ArrowRight"":11,""ArrowDown,ArrowLeft"":8,""ArrowDown,ArrowRight"":27}","true","ArrowDown,ArrowRight","","11_4","","","","8","revaluation","1",""
"html-keyboard-response","252","1105719","0.0-4.0-4.0-1.8","pilot_wm_v1","null","8","null","null","false","","","","","","","null","<div style=""font-size:60px;"">+</div>","null","fixation","","","","","","","","","","","","","",""
"revaluation","253","1109724","0.0-4.0-4.0-0.9","pilot_wm_v1","null","8","null","null","false","","false","","","","","[573.9000000022352]","./assets/img/canyon/animals/lion.jpg","[""ArrowLeft""]","revaluation","canyon","8","{""ArrowUp,ArrowLeft"":2,""ArrowUp,ArrowRight"":11,""ArrowDown,ArrowLeft"":8,""ArrowDown,ArrowRight"":27}","false","ArrowDown,ArrowLeft","","16_0","","","","9","revaluation","1",""
"html-keyboard-response","254","1110225","0.0-4.0-4.0-1.9","pilot_wm_v1","null","8","null","null","false","","","","","","","null","<div style=""font-size:60px;"">+</div>","null","fixation","","","","","","","","","","","","","",""
"revaluation","255","1114233","0.0-4.0-4.0-0.10","pilot_wm_v1","null","8","null","null","false","","false","","","","","[806.7999999970198]","./assets/img/canyon/animals/giraffe.jpg","[""ArrowRight""]","revaluation","canyon","11","{""ArrowUp,ArrowLeft"":2,""ArrowUp,ArrowRight"":11,""ArrowDown,ArrowLeft"":8,""ArrowDown,ArrowRight"":27}","true","ArrowUp,ArrowRight","","3_0","","","","10","revaluation","1",""
"html-keyboard-response","256","1114735","0.0-4.0-4.0-1.10","pilot_wm_v1","null","8","null","null","false","","","","","","","null","<div style=""font-size:60px;"">+</div>","null","fixation","","","","","","","","","","","","","",""
"revaluation","257","1118740","0.0-4.0-4.0-0.11","pilot_wm_v1","null","8","null","null","false","","false","","","","","[531.2000000029802]","./assets/img/canyon/animals/giraffe.jpg","[""ArrowLeft""]","revaluation","canyon","2","{""ArrowUp,ArrowLeft"":2,""ArrowUp,ArrowRight"":11,""ArrowDown,ArrowLeft"":8,""ArrowDown,ArrowRight"":27}","false","ArrowUp,ArrowLeft","","7_4","","","","11","revaluation","1",""
"html-keyboard-response","258","1119243","0.0-4.0-4.0-1.11","pilot_wm_v1","null","8","null","null","false","","","","","","","null","<div style=""font-size:60px;"">+</div>","null","fixation","","","","","","","","","","","","","",""
"html-slider-response","259","1121977","0.0-4.0-4.0-2.11-0.11","pilot_wm_v1","null","8","null","null","false","","","","","","","2730","<div style=""width:500px;"">
        <p>What is the password?</p>
        <img src='./assets/img/instructions/beep_chest.jpg' class='instructions-image'>","7","","","","","false","","","","50","8","1","","","",""
"revaluation","260","1125982","0.0-4.0-4.0-0.12","pilot_wm_v1","null","8","null","null","false","","false","","","","","[1134.199999999255]","./assets/img/canyon/animals/giraffe.jpg","[""ArrowRight""]","revaluation","canyon","11","{""ArrowUp,ArrowLeft"":2,""ArrowUp,ArrowRight"":11,""ArrowDown,ArrowLeft"":8,""ArrowDown,ArrowRight"":27}","true","ArrowUp,ArrowRight","","2_1","","","","12","revaluation","1",""
"html-keyboard-response","261","1126483","0.0-4.0-4.0-1.12","pilot_wm_v1","null","8","null","null","false","","","","","","","null","<div style=""font-size:60px;"">+</div>","null","fixation","","","","","","","","","","","","","",""
"revaluation","262","1130487","0.0-4.0-4.0-0.13","pilot_wm_v1","null","8","null","null","false","","false","","","","","[855.8000000007451]","./assets/img/canyon/animals/giraffe.jpg","[""ArrowLeft""]","revaluation","canyon","2","{""ArrowUp,ArrowLeft"":2,""ArrowUp,ArrowRight"":11,""ArrowDown,ArrowLeft"":8,""ArrowDown,ArrowRight"":27}","false","ArrowUp,ArrowLeft","","8_2","","","","13","revaluation","1",""
"html-keyboard-response","263","1130988","0.0-4.0-4.0-1.13","pilot_wm_v1","null","8","null","null","false","","","","","","","null","<div style=""font-size:60px;"">+</div>","null","fixation","","","","","","","","","","","","","",""
"revaluation","264","1134993","0.0-4.0-4.0-0.14","pilot_wm_v1","null","8","null","null","false","","false","","","","","[721.5]","./assets/img/canyon/animals/giraffe.jpg","[""ArrowRight""]","revaluation","canyon","11","{""ArrowUp,ArrowLeft"":2,""ArrowUp,ArrowRight"":11,""ArrowDown,ArrowLeft"":8,""ArrowDown,ArrowRight"":27}","true","ArrowUp,ArrowRight","","4_0","","","","14","revaluation","1",""
"html-keyboard-response","265","1135494","0.0-4.0-4.0-1.14","pilot_wm_v1","null","8","null","null","false","","","","","","","null","<div style=""font-size:60px;"">+</div>","null","fixation","","","","","","","","","","","","","",""
"revaluation","266","1139504","0.0-4.0-4.0-0.15","pilot_wm_v1","null","8","null","null","false","","false","","","","","[501.0999999977648]","./assets/img/canyon/animals/lion.jpg","[""ArrowRight""]","revaluation","canyon","27","{""ArrowUp,ArrowLeft"":2,""ArrowUp,ArrowRight"":11,""ArrowDown,ArrowLeft"":8,""ArrowDown,ArrowRight"":27}","true","ArrowDown,ArrowRight","","15_0","","","","15","revaluation","1",""
"html-keyboard-response","267","1140006","0.0-4.0-4.0-1.15","pilot_wm_v1","null","8","null","null","false","","","","","","","null","<div style=""font-size:60px;"">+</div>","null","fixation","","","","","","","","","","","","","",""
"html-slider-response","268","1143314","0.0-4.0-4.0-2.15-0.15","pilot_wm_v1","null","8","null","null","false","","","","","","","3304","<div style=""width:500px;"">
        <p>What is the password?</p>
        <img src='./assets/img/instructions/beep_chest.jpg' class='instructions-image'>","3","","","","","true","","","","50","3","0","","","",""
"revaluation","269","1147319","0.0-4.0-4.0-0.16","pilot_wm_v1","null","8","null","null","false","","false","","","","","[1201.2000000029802]","./assets/img/canyon/animals/lion.jpg","[""ArrowLeft""]","revaluation","canyon","8","{""ArrowUp,ArrowLeft"":2,""ArrowUp,ArrowRight"":11,""ArrowDown,ArrowLeft"":8,""ArrowDown,ArrowRight"":27}","false","ArrowDown,ArrowLeft","","14_4","","","","16","revaluation","1",""
"html-keyboard-response","270","1147821","0.0-4.0-4.0-1.16","pilot_wm_v1","null","8","null","null","false","","","","","","","null","<div style=""font-size:60px;"">+</div>","null","fixation","","","","","","","","","","","","","",""
"revaluation","271","1151826","0.0-4.0-4.0-0.17","pilot_wm_v1","null","8","null","null","false","","false","","","","","[520.6000000014901]","./assets/img/canyon/animals/lion.jpg","[""ArrowRight""]","revaluation","canyon","27","{""ArrowUp,ArrowLeft"":2,""ArrowUp,ArrowRight"":11,""ArrowDown,ArrowLeft"":8,""ArrowDown,ArrowRight"":27}","true","ArrowDown,ArrowRight","","18_0","","","","17","revaluation","1",""
"html-keyboard-response","272","1152330","0.0-4.0-4.0-1.17","pilot_wm_v1","null","8","null","null","false","","","","","","","null","<div style=""font-size:60px;"">+</div>","null","fixation","","","","","","","","","","","","","",""
"learning-instructions","273","1160507","0.0-4.0-6.0-0.0","pilot_wm_v1","null","8","null","null","false","","","","","","","null","<p> You have almost finished this part of the game! </p>
            <p> We are going to ask you to make a few more choices. </p>","","instructions","","","","","","","","","","","","","",""
"learning-instructions","274","1176476","0.0-4.0-6.0-0.1","pilot_wm_v1","null","8","null","null","false","","","","","","","null","<p> First, you need to decide whether to go up or down. When you see each picture, use the arrow keys to make your choice. </p>
            <p><b>You will not see which animal you found, but try to get to the one that will give you the most treasure.</b></p>","","instructions","","","","","","","","","","","","","",""
"html-keyboard-response","275","1177477","0.0-4.0-7.0-0.0","pilot_wm_v1","null","8","null","null","false","","","","","","","null","<div style=""font-size:100px;color:red;"">Starting in...</div>","null","","","","","","","","","","","","","","",""
"html-keyboard-response","276","1178478","0.0-4.0-7.0-1.0","pilot_wm_v1","null","8","null","null","false","","","","","","","null","<div style=""font-size:200px;color:red;"">3</div>","null","","","","","","","","","","","","","","",""
"html-keyboard-response","277","1179479","0.0-4.0-7.0-2.0","pilot_wm_v1","null","8","null","null","false","","","","","","","null","<div style=""font-size:200px;color:red;"">2</div>","null","","","","","","","","","","","","","","",""
"html-keyboard-response","278","1180480","0.0-4.0-7.0-3.0","pilot_wm_v1","null","8","null","null","false","","","","","","","null","<div style=""font-size:200px;color:red;"">1</div>","null","","","","","","","","","","","","","","",""
"revaluation","279","1181580","0.0-4.0-8.0-0.0","pilot_wm_v1","null","8","null","null","false","","false","","","","","[1096.5999999977648]","./assets/img/canyon/test/1.jpg","[""ArrowUp""]","first stage test","canyon","0","{""ArrowUp,ArrowLeft"":2,""ArrowUp,ArrowRight"":11,""ArrowDown,ArrowLeft"":8,""ArrowDown,ArrowRight"":27}","false","ArrowUp","false","","","","","","revaluation","1",""
"html-keyboard-response","280","1182081","0.0-4.0-8.0-1.0","pilot_wm_v1","null","8","null","null","false","","","","","","","null","<div style=""font-size:60px;"">+</div>","null","fixation","","","","","","","","","","","","","",""
"revaluation","281","1183349","0.0-4.0-8.0-0.1","pilot_wm_v1","null","8","null","null","false","","false","","","","","[1264.8999999985099]","./assets/img/canyon/test/2.jpg","[""ArrowDown""]","first stage test","canyon","0","{""ArrowUp,ArrowLeft"":2,""ArrowUp,ArrowRight"":11,""ArrowDown,ArrowLeft"":8,""ArrowDown,ArrowRight"":27}","true","ArrowDown","false","","","","","","revaluation","1",""
"html-keyboard-response","282","1183850","0.0-4.0-8.0-1.1","pilot_wm_v1","null","8","null","null","false","","","","","","","null","<div style=""font-size:60px;"">+</div>","null","fixation","","","","","","","","","","","","","",""
"revaluation","283","1184652","0.0-4.0-8.0-0.2","pilot_wm_v1","null","8","null","null","false","","false","","","","","[797]","./assets/img/canyon/test/0.jpg","[""ArrowUp""]","first stage test","canyon","0","{""ArrowUp,ArrowLeft"":2,""ArrowUp,ArrowRight"":11,""ArrowDown,ArrowLeft"":8,""ArrowDown,ArrowRight"":27}","false","ArrowUp","false","","","","","","revaluation","1",""
"html-keyboard-response","284","1185154","0.0-4.0-8.0-1.2","pilot_wm_v1","null","8","null","null","false","","","","","","","null","<div style=""font-size:60px;"">+</div>","null","fixation","","","","","","","","","","","","","",""
"revaluation","285","1185887","0.0-4.0-8.0-0.3","pilot_wm_v1","null","8","null","null","false","","false","","","","","[726.2999999970198]","./assets/img/canyon/test/3.jpg","[""ArrowUp""]","first stage test","canyon","0","{""ArrowUp,ArrowLeft"":2,""ArrowUp,ArrowRight"":11,""ArrowDown,ArrowLeft"":8,""ArrowDown,ArrowRight"":27}","false","ArrowUp","false","","","","","","revaluation","1",""
"html-keyboard-response","286","1186389","0.0-4.0-8.0-1.3","pilot_wm_v1","null","8","null","null","false","","","","","","","null","<div style=""font-size:60px;"">+</div>","null","fixation","","","","","","","","","","","","","",""
"learning-instructions","287","1199740","0.0-4.0-9.0-0.0","pilot_wm_v1","null","8","null","null","false","","","","","","","null","<p> Now you will see the animals again and can search their chests for treasure. </p>
            <p> This time, you will not see how much treasure you earned, but you will earn more bonus money for making better choices. </p>","","instructions","","","","","","","","","","","","","",""
"html-keyboard-response","288","1200741","0.0-4.0-10.0-0.0","pilot_wm_v1","null","8","null","null","false","","","","","","","null","<div style=""font-size:100px;color:red;"">Starting in...</div>","null","","","","","","","","","","","","","","",""
"html-keyboard-response","289","1201742","0.0-4.0-10.0-1.0","pilot_wm_v1","null","8","null","null","false","","","","","","","null","<div style=""font-size:200px;color:red;"">3</div>","null","","","","","","","","","","","","","","",""
"html-keyboard-response","290","1202743","0.0-4.0-10.0-2.0","pilot_wm_v1","null","8","null","null","false","","","","","","","null","<div style=""font-size:200px;color:red;"">2</div>","null","","","","","","","","","","","","","","",""
"html-keyboard-response","291","1203744","0.0-4.0-10.0-3.0","pilot_wm_v1","null","8","null","null","false","","","","","","","null","<div style=""font-size:200px;color:red;"">1</div>","null","","","","","","","","","","","","","","",""
"revaluation","292","1204510","0.0-4.0-11.0-0.0","pilot_wm_v1","null","8","null","null","false","","false","","","","","[763.5]","./assets/img/canyon/animals/giraffe.jpg","[""ArrowRight""]","second stage test","canyon","0","{""ArrowUp,ArrowLeft"":2,""ArrowUp,ArrowRight"":11,""ArrowDown,ArrowLeft"":8,""ArrowDown,ArrowRight"":27}","true","ArrowUp,ArrowRight","","","","","","","revaluation","1",""
"html-keyboard-response","293","1205012","0.0-4.0-11.0-1.0","pilot_wm_v1","null","8","null","null","false","","","","","","","null","<div style=""font-size:60px;"">+</div>","null","fixation","","","","","","","","","","","","","",""
"revaluation","294","1205920","0.0-4.0-11.0-0.1","pilot_wm_v1","null","8","null","null","false","","false","","","","","[905]","./assets/img/canyon/animals/giraffe.jpg","[""ArrowRight""]","second stage test","canyon","0","{""ArrowUp,ArrowLeft"":2,""ArrowUp,ArrowRight"":11,""ArrowDown,ArrowLeft"":8,""ArrowDown,ArrowRight"":27}","true","ArrowUp,ArrowRight","","","","","","","revaluation","1",""
"html-keyboard-response","295","1206422","0.0-4.0-11.0-1.1","pilot_wm_v1","null","8","null","null","false","","","","","","","null","<div style=""font-size:60px;"">+</div>","null","fixation","","","","","","","","","","","","","",""
"revaluation","296","1206739","0.0-4.0-11.0-0.2","pilot_wm_v1","null","8","null","null","false","","false","","","","","[314.80000000074506]","./assets/img/canyon/animals/giraffe.jpg","[""ArrowLeft""]","second stage test","canyon","0","{""ArrowUp,ArrowLeft"":2,""ArrowUp,ArrowRight"":11,""ArrowDown,ArrowLeft"":8,""ArrowDown,ArrowRight"":27}","false","ArrowUp,ArrowLeft","","","","","","","revaluation","1",""
"html-keyboard-response","297","1207240","0.0-4.0-11.0-1.2","pilot_wm_v1","null","8","null","null","false","","","","","","","null","<div style=""font-size:60px;"">+</div>","null","fixation","","","","","","","","","","","","","",""
"revaluation","298","1207672","0.0-4.0-11.0-0.3","pilot_wm_v1","null","8","null","null","false","","false","","","","","[429.19999999925494]","./assets/img/canyon/animals/giraffe.jpg","[""ArrowLeft""]","second stage test","canyon","0","{""ArrowUp,ArrowLeft"":2,""ArrowUp,ArrowRight"":11,""ArrowDown,ArrowLeft"":8,""ArrowDown,ArrowRight"":27}","false","ArrowUp,ArrowLeft","","","","","","","revaluation","1",""
"html-keyboard-response","299","1208174","0.0-4.0-11.0-1.3","pilot_wm_v1","null","8","null","null","false","","","","","","","null","<div style=""font-size:60px;"">+</div>","null","fixation","","","","","","","","","","","","","",""
"revaluation","300","1209076","0.0-4.0-11.0-0.4","pilot_wm_v1","null","8","null","null","false","","false","","","","","[899.5]","./assets/img/canyon/animals/lion.jpg","[""ArrowRight""]","second stage test","canyon","0","{""ArrowUp,ArrowLeft"":2,""ArrowUp,ArrowRight"":11,""ArrowDown,ArrowLeft"":8,""ArrowDown,ArrowRight"":27}","true","ArrowDown,ArrowRight","","","","","","","revaluation","1",""
"html-keyboard-response","301","1209578","0.0-4.0-11.0-1.4","pilot_wm_v1","null","8","null","null","false","","","","","","","null","<div style=""font-size:60px;"">+</div>","null","fixation","","","","","","","","","","","","","",""
"revaluation","302","1210065","0.0-4.0-11.0-0.5","pilot_wm_v1","null","8","null","null","false","","false","","","","","[483.20000000298023]","./assets/img/canyon/animals/lion.jpg","[""ArrowRight""]","second stage test","canyon","0","{""ArrowUp,ArrowLeft"":2,""ArrowUp,ArrowRight"":11,""ArrowDown,ArrowLeft"":8,""ArrowDown,ArrowRight"":27}","true","ArrowDown,ArrowRight","","","","","","","revaluation","1",""
