"trial_type","trial_index","time_elapsed","internal_node_id","task_version","subject_id","assigned_condition","age","gender","rest","success","timeout","failed_images","failed_audio","failed_video","browser_interaction","rt","stimulus","response","task_part","environment","score","rewardMap","correct","fullState","isCatch","audioStim","slider_start","answer","error","trial_num","condition","order","bonus"
"pavlovia","0","1096","0.0-0.0","pilot_wm_v1","66377b92cc73b915298b1bf5","8","null","null","false","","","","","","","","","","","","","","","","","","","","","","","",""
"preload","1","23245","0.0-1.0","pilot_wm_v1","66377b92cc73b915298b1bf5","8","null","null","false","true","false","[]","[]","[]","[{""event"":""blur"",""trial"":2,""time"":29470},{""event"":""focus"",""trial"":2,""time"":31210},{""event"":""fullscreenenter"",""trial"":2,""time"":32826}]","","","","","","","","","","","","","","","","","",""
"fullscreen","2","33806","0.0-2.0","pilot_wm_v1","66377b92cc73b915298b1bf5","8","null","null","false","true","","","","","","","","","","","","","","","","","","","","","","",""
"audio-button-response","3","36017","0.0-3.0-0.0-0.0","pilot_wm_v1","66377b92cc73b915298b1bf5","8","null","null","false","","","","","","","2149","./assets/audio/audiotest/turtle.mp3","2","audio_test","","","","","","","","","","","","","",""
"learning-instructions","4","45899","0.0-3.0-1.0-0.0","pilot_wm_v1","66377b92cc73b915298b1bf5","8","null","null","false","","","","","","","2914","<p> Welcome! Please remember to stay in fullscreen mode and don't click away from the experiment. </p>","","instructions","","","","","","","","","","","","","",""
"learning-instructions","5","55349","0.0-3.0-1.0-0.1","pilot_wm_v1","66377b92cc73b915298b1bf5","8","null","null","false","","","","","","","1052.7999999523163","<p> Today you will be playing a game to earn treasure. </p>
            <p> At the end of the experiment, you will earn a bonus based on how much treasure you find. </p>
            <img src='./assets/img/instructions/treasure.jpg' class='instructions-image'>","","instructions","","","","","","","","","","","","","",""
"learning-instructions","6","65066","0.0-3.0-1.0-0.2","pilot_wm_v1","66377b92cc73b915298b1bf5","8","null","null","false","","","","","","","1473.5","<p> Animals have hidden treasure in treasure chests. </p>
            <p> You need to first find an animal and then choose which of their treasure chests to search. </p>
            <img src='./assets/img/space/animals/cat.jpg' class='instructions-image'>","","instructions","","","","","","","","","","","","","",""
"learning-instructions","7","79099","0.0-3.0-1.0-0.3","pilot_wm_v1","66377b92cc73b915298b1bf5","8","null","null","false","","","","","","","904.9000000953674","<p> In each round, you will search for treasure in a different place. In the real game, there will be two rounds. </p>
            <p> You will begin with a separate, practice round where you will search for treasure in outer space. </p>
            <img src='./assets/img/space/0.jpg' class='instructions-image'>","","instructions","","","","","","","","","","","","","",""
"learning-instructions","8","91284","0.0-3.0-1.0-0.4","pilot_wm_v1","66377b92cc73b915298b1bf5","8","null","null","false","","","","","","","787.7999999523163","<p> On every turn, you will see a picture of the place that you are in, but the specific image may be different each time. </p>
            <p> For example, both of these images mean you are in outer space. </p>
            <img src='./assets/img/instructions/outerspace.jpg' class='instructions-image'>","","instructions","","","","","","","","","","","","","",""
"learning-instructions","9","100349","0.0-3.0-1.0-0.5","pilot_wm_v1","66377b92cc73b915298b1bf5","8","null","null","false","","","","","","","1253.2000000476837","<p> You need to decide which direction to travel in. </p>
            <p> You can choose between going <b>up or down</b> by using the arrow keys. </p>
            <img src='./assets/img/instructions/updown.jpg' class='instructions-image'>","","instructions","","","","","","","","","","","","","",""
"learning-instructions","10","109716","0.0-3.0-1.0-0.6","pilot_wm_v1","66377b92cc73b915298b1bf5","8","null","null","false","","","","","","","569.1999999284744","<p> You will have <b>2 seconds</b> to make your choice. </p>
            <p> If you do not make a choice within 2 seconds, you will not find an animal or earn treasure. </p>
            <img src='./assets/img/instructions/2seconds.jpg' class='instructions-image'>","","instructions","","","","","","","","","","","","","",""
"learning-instructions","11","117836","0.0-3.0-1.0-0.7","pilot_wm_v1","66377b92cc73b915298b1bf5","8","null","null","false","","","","","","","1097.2999999523163","<p> Let’s try practicing that now! </p>
            <p> When you see a picture of the place you are in, press the <b>up</b> key to travel up. </p>
            <img src='./assets/img/instructions/pressUp.jpg' class='instructions-image'>","","instructions","","","","","","","","","","","","","",""
"revaluation","12","121850","0.0-3.0-2.0-0.0","pilot_wm_v1","66377b92cc73b915298b1bf5","8","null","null","false","","false","","","","","[472.3000000715256]","./assets/img/space/0.jpg","[""ArrowUp""]","first stage practice","space","0","null","null","ArrowUp","false","","","","","","","",""
"html-keyboard-response","13","122353","0.0-3.0-2.0-1.0","pilot_wm_v1","66377b92cc73b915298b1bf5","8","null","null","false","","","","","","","null","<div style=""font-size:60px;"">+</div>","null","fixation","","","","","","","","","","","","","",""
"revaluation","14","126362","0.0-3.0-2.0-0.1","pilot_wm_v1","66377b92cc73b915298b1bf5","8","null","null","false","","false","","","","","[1087.2999999523163]","./assets/img/space/1.jpg","[""ArrowUp""]","first stage practice","space","0","null","null","ArrowUp","false","","","","","","","",""
"html-keyboard-response","15","126865","0.0-3.0-2.0-1.1","pilot_wm_v1","66377b92cc73b915298b1bf5","8","null","null","false","","","","","","","null","<div style=""font-size:60px;"">+</div>","null","fixation","","","","","","","","","","","","","",""
"revaluation","16","130873","0.0-3.0-2.0-0.2","pilot_wm_v1","66377b92cc73b915298b1bf5","8","null","null","false","","false","","","","","[1088.3999999761581]","./assets/img/space/2.jpg","[""ArrowUp""]","first stage practice","space","0","null","null","ArrowUp","false","","","","","","","",""
"html-keyboard-response","17","131376","0.0-3.0-2.0-1.2","pilot_wm_v1","66377b92cc73b915298b1bf5","8","null","null","false","","","","","","","null","<div style=""font-size:60px;"">+</div>","null","fixation","","","","","","","","","","","","","",""
"learning-instructions","18","136816","0.0-3.0-3.0-0.0","pilot_wm_v1","66377b92cc73b915298b1bf5","8","null","null","false","","","","","","","728.2000000476837","<p> Great job! Now try pressing the <b>down</b> key to travel down. </p>
            <img src='./assets/img/instructions/pressDown.jpg' class='instructions-image'>","","instructions","","","","","","","","","","","","","",""
"revaluation","19","140821","0.0-3.0-4.0-0.0","pilot_wm_v1","66377b92cc73b915298b1bf5","8","null","null","false","","false","","","","","[421.2000000476837]","./assets/img/space/3.jpg","[""ArrowDown""]","first stage practice","space","0","null","null","ArrowDown","false","","","","","","","",""
"html-keyboard-response","20","141323","0.0-3.0-4.0-1.0","pilot_wm_v1","66377b92cc73b915298b1bf5","8","null","null","false","","","","","","","null","<div style=""font-size:60px;"">+</div>","null","fixation","","","","","","","","","","","","","",""
"revaluation","21","145332","0.0-3.0-4.0-0.1","pilot_wm_v1","66377b92cc73b915298b1bf5","8","null","null","false","","false","","","","","[616.6000000238419]","./assets/img/space/4.jpg","[""ArrowDown""]","first stage practice","space","0","null","null","ArrowDown","false","","","","","","","",""
"html-keyboard-response","22","145835","0.0-3.0-4.0-1.1","pilot_wm_v1","66377b92cc73b915298b1bf5","8","null","null","false","","","","","","","null","<div style=""font-size:60px;"">+</div>","null","fixation","","","","","","","","","","","","","",""
"revaluation","23","149844","0.0-3.0-4.0-0.2","pilot_wm_v1","66377b92cc73b915298b1bf5","8","null","null","false","","false","","","","","[590.1000000238419]","./assets/img/space/5.jpg","[""ArrowDown""]","first stage practice","space","0","null","null","ArrowDown","false","","","","","","","",""
"html-keyboard-response","24","150347","0.0-3.0-4.0-1.2","pilot_wm_v1","66377b92cc73b915298b1bf5","8","null","null","false","","","","","","","null","<div style=""font-size:60px;"">+</div>","null","fixation","","","","","","","","","","","","","",""
"learning-instructions","25","160717","0.0-3.0-5.0-0.0","pilot_wm_v1","66377b92cc73b915298b1bf5","8","null","null","false","","","","","","","532.0999999046326","<p> The animals don’t move, so the animal in the upper part of a place will stay in the upper part of a place, and the animal in the lower part of a place will stay in the lower part of a place. </p>","","instructions","","","","","","","","","","","","","",""
"learning-instructions","26","170983","0.0-3.0-5.0-0.1","pilot_wm_v1","66377b92cc73b915298b1bf5","8","null","null","false","","","","","","","1149.3999999761581","<p> Each animal has two treasure chests for you to choose from. </p>
            <p> The amount of treasure in each chest can range from <b> 0 to 40 pieces.</b></p>","","instructions","","","","","","","","","","","","","",""
"learning-instructions","27","183317","0.0-3.0-5.0-0.2","pilot_wm_v1","66377b92cc73b915298b1bf5","8","null","null","false","","","","","","","1170.5","<p> You should decide which chest to search for treasure by using the <b>left</b> and <b>right</b> arrow keys. </p>
            <p><b> Pay attention to which animal is on the screen, as the animals have different treasure chests. </b></p>
            <img src='./assets/img/instructions/leftright.jpg' class='instructions-image'>","","instructions","","","","","","","","","","","","","",""
"learning-instructions","28","191049","0.0-3.0-5.0-0.3","pilot_wm_v1","66377b92cc73b915298b1bf5","8","null","null","false","","","","","","","1382.3999999761581","<p> Let’s try practicing that now. </p>
            <p> When you see an animal, choose which chest to search for treasure. </p>
            <img src='./assets/img/instructions/chooseChest.jpg' class='instructions-image'>","","instructions","","","","","","","","","","","","","",""
"revaluation","29","195054","0.0-3.0-6.0-0.0","pilot_wm_v1","66377b92cc73b915298b1bf5","8","null","null","false","","false","","","","","[929.1999999284744]","./assets/img/space/animals/rabbit.jpg","[""ArrowLeft""]","second stage practice","space","15","{""ArrowUp,ArrowLeft"":3,""ArrowUp,ArrowRight"":36,""ArrowDown,ArrowLeft"":15,""ArrowDown,ArrowRight"":23}","false","ArrowDown,ArrowLeft","","","","","","","","",""
"html-keyboard-response","30","195558","0.0-3.0-6.0-1.0","pilot_wm_v1","66377b92cc73b915298b1bf5","8","null","null","false","","","","","","","null","<div style=""font-size:60px;"">+</div>","null","fixation","","","","","","","","","","","","","",""
"revaluation","31","199569","0.0-3.0-6.0-0.1","pilot_wm_v1","66377b92cc73b915298b1bf5","8","null","null","false","","false","","","","","[561.8000000715256]","./assets/img/space/animals/cat.jpg","[""ArrowRight""]","second stage practice","space","36","{""ArrowUp,ArrowLeft"":3,""ArrowUp,ArrowRight"":36,""ArrowDown,ArrowLeft"":15,""ArrowDown,ArrowRight"":23}","true","ArrowUp,ArrowRight","","","","","","","","",""
"html-keyboard-response","32","200072","0.0-3.0-6.0-1.1","pilot_wm_v1","66377b92cc73b915298b1bf5","8","null","null","false","","","","","","","null","<div style=""font-size:60px;"">+</div>","null","fixation","","","","","","","","","","","","","",""
"revaluation","33","204078","0.0-3.0-6.0-0.2","pilot_wm_v1","66377b92cc73b915298b1bf5","8","null","null","false","","false","","","","","[990.8000000715256]","./assets/img/space/animals/rabbit.jpg","[""ArrowLeft""]","second stage practice","space","15","{""ArrowUp,ArrowLeft"":3,""ArrowUp,ArrowRight"":36,""ArrowDown,ArrowLeft"":15,""ArrowDown,ArrowRight"":23}","false","ArrowDown,ArrowLeft","","","","","","","","",""
"html-keyboard-response","34","204581","0.0-3.0-6.0-1.2","pilot_wm_v1","66377b92cc73b915298b1bf5","8","null","null","false","","","","","","","null","<div style=""font-size:60px;"">+</div>","null","fixation","","","","","","","","","","","","","",""
"revaluation","35","208589","0.0-3.0-6.0-0.3","pilot_wm_v1","66377b92cc73b915298b1bf5","8","null","null","false","","false","","","","","[398.6999999284744]","./assets/img/space/animals/cat.jpg","[""ArrowRight""]","second stage practice","space","36","{""ArrowUp,ArrowLeft"":3,""ArrowUp,ArrowRight"":36,""ArrowDown,ArrowLeft"":15,""ArrowDown,ArrowRight"":23}","true","ArrowUp,ArrowRight","","","","","","","","",""
"html-keyboard-response","36","209092","0.0-3.0-6.0-1.3","pilot_wm_v1","66377b92cc73b915298b1bf5","8","null","null","false","","","","","","","null","<div style=""font-size:60px;"">+</div>","null","fixation","","","","","","","","","","","","","",""
"learning-instructions","37","227201","0.0-3.0-7.0-0.0","pilot_wm_v1","66377b92cc73b915298b1bf5","8","null","null","false","","","","","","","1315","<p> Great job. Now let’s try putting it together. </p>
            <p> On each turn, you will first see a picture to remind you of the place you are in, and you need to choose whether to go up or down. </p>
            <p> Then you will see an animal and choose which of its chests to search for treasure. </p>","","instructions","","","","","","","","","","","","","",""
"learning-instructions","38","236183","0.0-3.0-7.0-0.1","pilot_wm_v1","66377b92cc73b915298b1bf5","8","null","null","false","","","","","","","735.6000000238419","<p> When you choose whether to go up or down, try to go to the animal with the chest with the most treasure. </p>
            <p> Try practicing that now! </p>","","instructions","","","","","","","","","","","","","",""
"revaluation","39","242190","0.0-3.0-8.0-0.0","pilot_wm_v1","66377b92cc73b915298b1bf5","8","null","null","false","","false","","","","","[748.7000000476837,479.89999997615814]","./assets/img/space/6.jpg","[""ArrowUp"",""ArrowRight""]","full practice","space","36","{""ArrowUp,ArrowLeft"":3,""ArrowUp,ArrowRight"":36,""ArrowDown,ArrowLeft"":15,""ArrowDown,ArrowRight"":23}","true","ArrowUp,ArrowRight","false","","","","","","","",""
"html-keyboard-response","40","242693","0.0-3.0-8.0-1.0","pilot_wm_v1","66377b92cc73b915298b1bf5","8","null","null","false","","","","","","","null","<div style=""font-size:60px;"">+</div>","null","fixation","","","","","","","","","","","","","",""
"revaluation","41","248704","0.0-3.0-8.0-0.1","pilot_wm_v1","66377b92cc73b915298b1bf5","8","null","null","false","","false","","","","","[581,436.2000000476837]","./assets/img/space/7.jpg","[""ArrowUp"",""ArrowRight""]","full practice","space","36","{""ArrowUp,ArrowLeft"":3,""ArrowUp,ArrowRight"":36,""ArrowDown,ArrowLeft"":15,""ArrowDown,ArrowRight"":23}","true","ArrowUp,ArrowRight","false","","","","","","","",""
"html-keyboard-response","42","249207","0.0-3.0-8.0-1.1","pilot_wm_v1","66377b92cc73b915298b1bf5","8","null","null","false","","","","","","","null","<div style=""font-size:60px;"">+</div>","null","fixation","","","","","","","","","","","","","",""
"revaluation","43","255215","0.0-3.0-8.0-0.2","pilot_wm_v1","66377b92cc73b915298b1bf5","8","null","null","false","","false","","","","","[678.2000000476837,402.89999997615814]","./assets/img/space/8.jpg","[""ArrowUp"",""ArrowRight""]","full practice","space","36","{""ArrowUp,ArrowLeft"":3,""ArrowUp,ArrowRight"":36,""ArrowDown,ArrowLeft"":15,""ArrowDown,ArrowRight"":23}","true","ArrowUp,ArrowRight","false","","","","","","","",""
"html-keyboard-response","44","255718","0.0-3.0-8.0-1.2","pilot_wm_v1","66377b92cc73b915298b1bf5","8","null","null","false","","","","","","","null","<div style=""font-size:60px;"">+</div>","null","fixation","","","","","","","","","","","","","",""
"revaluation","45","261727","0.0-3.0-8.0-0.3","pilot_wm_v1","66377b92cc73b915298b1bf5","8","null","null","false","","false","","","","","[619.8999999761581,745.8999999761581]","./assets/img/space/9.jpg","[""ArrowUp"",""ArrowLeft""]","full practice","space","3","{""ArrowUp,ArrowLeft"":3,""ArrowUp,ArrowRight"":36,""ArrowDown,ArrowLeft"":15,""ArrowDown,ArrowRight"":23}","false","ArrowUp,ArrowLeft","false","","","","","","","",""
"html-keyboard-response","46","262230","0.0-3.0-8.0-1.3","pilot_wm_v1","66377b92cc73b915298b1bf5","8","null","null","false","","","","","","","null","<div style=""font-size:60px;"">+</div>","null","fixation","","","","","","","","","","","","","",""
"revaluation","47","268240","0.0-3.0-8.0-0.4","pilot_wm_v1","66377b92cc73b915298b1bf5","8","null","null","false","","false","","","","","[537.2000000476837,597.1000000238419]","./assets/img/space/10.jpg","[""ArrowDown"",""ArrowRight""]","full practice","space","23","{""ArrowUp,ArrowLeft"":3,""ArrowUp,ArrowRight"":36,""ArrowDown,ArrowLeft"":15,""ArrowDown,ArrowRight"":23}","false","ArrowDown,ArrowRight","false","","","","","","","",""
"html-keyboard-response","48","268743","0.0-3.0-8.0-1.4","pilot_wm_v1","66377b92cc73b915298b1bf5","8","null","null","false","","","","","","","null","<div style=""font-size:60px;"">+</div>","null","fixation","","","","","","","","","","","","","",""
"learning-instructions","49","281150","0.0-3.0-9.0-0.0","pilot_wm_v1","66377b92cc73b915298b1bf5","8","null","null","false","","","","","","","2072","<p> One last thing: sometimes, you will see a robber. The robber can be anywhere in the picture. </p>
            <p> If you do not stop them, you will lose treasure. </p>
            <img src='./assets/img/instructions/robber.jpg' class='instructions-image'>","","instructions","","","","","","","","","","","","","",""
"learning-instructions","50","289750","0.0-3.0-9.0-0.1","pilot_wm_v1","66377b92cc73b915298b1bf5","8","null","null","false","","","","","","","1442.8999999761581","<p> If you see the robber, you should <b>press the space bar</b> rather than using the arrow keys. </p>
            <p> Try practicing that now! </p>","","instructions","","","","","","","","","","","","","",""
"revaluation","51","293755","0.0-3.0-10.0-0.0","pilot_wm_v1","66377b92cc73b915298b1bf5","8","null","null","false","","false","","","","","[949.5]","./assets/img/space/catch/0.jpg","[""spaceBar""]","catch practice","space","0","{""ArrowUp,ArrowLeft"":3,""ArrowUp,ArrowRight"":36,""ArrowDown,ArrowLeft"":15,""ArrowDown,ArrowRight"":23}","true","spaceBar","true","","","","","","","",""
"html-keyboard-response","52","294258","0.0-3.0-10.0-1.0","pilot_wm_v1","66377b92cc73b915298b1bf5","8","null","null","false","","","","","","","null","<div style=""font-size:60px;"">+</div>","null","fixation","","","","","","","","","","","","","",""
"revaluation","53","298267","0.0-3.0-10.0-0.1","pilot_wm_v1","66377b92cc73b915298b1bf5","8","null","null","false","","false","","","","","[607.6000000238419]","./assets/img/space/catch/1.jpg","[""spaceBar""]","catch practice","space","0","{""ArrowUp,ArrowLeft"":3,""ArrowUp,ArrowRight"":36,""ArrowDown,ArrowLeft"":15,""ArrowDown,ArrowRight"":23}","true","spaceBar","true","","","","","","","",""
"html-keyboard-response","54","298770","0.0-3.0-10.0-1.1","pilot_wm_v1","66377b92cc73b915298b1bf5","8","null","null","false","","","","","","","null","<div style=""font-size:60px;"">+</div>","null","fixation","","","","","","","","","","","","","",""
"revaluation","55","302778","0.0-3.0-10.0-0.2","pilot_wm_v1","66377b92cc73b915298b1bf5","8","null","null","false","","false","","","","","[492.6999999284744]","./assets/img/space/catch/2.jpg","[""spaceBar""]","catch practice","space","0","{""ArrowUp,ArrowLeft"":3,""ArrowUp,ArrowRight"":36,""ArrowDown,ArrowLeft"":15,""ArrowDown,ArrowRight"":23}","true","spaceBar","true","","","","","","","",""
"html-keyboard-response","56","303282","0.0-3.0-10.0-1.2","pilot_wm_v1","66377b92cc73b915298b1bf5","8","null","null","false","","","","","","","null","<div style=""font-size:60px;"">+</div>","null","fixation","","","","","","","","","","","","","",""
"learning-instructions","57","309852","0.0-3.0-11.0-0.0","pilot_wm_v1","66377b92cc73b915298b1bf5","8","null","null","false","","","","","","","1055.8999999761581","<p> Sometimes, you will come across a special kind of treasure chest that requires a password. </p>
            <img src='./assets/img/instructions/beep_chest.jpg' class='instructions-image'>","","instructions","","","","","","","","","","","","","",""
"learning-instructions","58","332551","0.0-3.0-11.0-0.1","pilot_wm_v1","66377b92cc73b915298b1bf5","8","null","null","false","","","","","","","1091.3999999761581","<p> Your friend will send you the password using a series of beeps so that you can open the chest and earn treasure. </p>
            <p> You will hear two kinds of beeps, a high beep and a low beep. </p>
            <p> You should report the number of high beeps that you heard before seeing the chest. </p>
            <img src='./assets/img/instructions/listen.jpg' class='instructions-image'>","","instructions","","","","","","","","","","","","","",""
"learning-instructions","59","356033","0.0-3.0-11.0-0.2","pilot_wm_v1","66377b92cc73b915298b1bf5","8","null","null","false","","","","","","","1195.2000000476837","<p> For example, if you hear this series of beeps, you should report 4 as the password using the slider. </p>
            <p> After reporting a password for a chest, you should count the high beeps again starting from 0. </p>
            <p> Let's try practicing that now. </p>","","instructions","","","","","","","","","","","","","",""
"audio-button-response","60","364074","0.0-3.0-12.0-0.0-0.0","pilot_wm_v1","66377b92cc73b915298b1bf5","8","null","null","false","","","","","","","null","./assets/audio/beeps/practice_6.wav","null","","","","","","","","","","","","","","",""
"html-slider-response","61","367585","0.0-3.0-12.0-0.0-1.0","pilot_wm_v1","66377b92cc73b915298b1bf5","8","null","null","false","","","","","","","3507","<div style=""width:500px;"">
        <p>What is the password?</p>
        <img src='./assets/img/instructions/beep_chest.jpg' class='instructions-image'>","6","beep chest","","","","false","","","","50","0","6","","","",""
"comp-q","62","373400","0.0-3.0-12.0-0.0-2.0","pilot_wm_v1","66377b92cc73b915298b1bf5","8","null","null","false","","","","","","","1606.6999999284744","<p>Correct! There were 6 high pitched beeps before you saw the chest. </p>","0","beep answer","","","","","","","","","","","","","",""
"audio-button-response","63","381441","0.0-3.0-12.0-0.1-0.1","pilot_wm_v1","66377b92cc73b915298b1bf5","8","null","null","false","","","","","","","null","./assets/audio/beeps/practice_4.wav","null","","","","","","","","","","","","","","",""
"html-slider-response","64","384617","0.0-3.0-12.0-0.1-1.1","pilot_wm_v1","66377b92cc73b915298b1bf5","8","null","null","false","","","","","","","3173","<div style=""width:500px;"">
        <p>What is the password?</p>
        <img src='./assets/img/instructions/beep_chest.jpg' class='instructions-image'>","4","beep chest","","","","false","","","","50","0","4","","","",""
"comp-q","65","389652","0.0-3.0-12.0-0.1-2.1","pilot_wm_v1","66377b92cc73b915298b1bf5","8","null","null","false","","","","","","","835.1000000238419","<p>Correct! There were 4 high pitched beeps before you saw the chest. </p>","0","beep answer","","","","","","","","","","","","","",""
"learning-instructions","66","401886","0.0-3.0-13.0-0.0","pilot_wm_v1","66377b92cc73b915298b1bf5","8","null","null","false","","","","","","","1895.8999999761581","<p> Good job! In the real game we will not tell you if you entered the right password. </p>
            <p> Do your best, the treasure you earn from these chests will also give you extra bonus money. </p>","","instructions","","","","","","","","","","","","","",""
"learning-instructions","67","408350","0.0-3.0-15.0-0.0-0.0","pilot_wm_v1","66377b92cc73b915298b1bf5","8","null","null","false","","","","","","","1207.6999999284744","<p> Now, you will practice a shortened version of the game to get a sense of how it all fits together. </p>","","instructions","","","","","","","","","","","","","",""
"learning-instructions","68","412917","0.0-3.0-15.0-0.0-0.1","pilot_wm_v1","66377b92cc73b915298b1bf5","8","null","null","false","","","","","","","1379.6999999284744","<p>This time you are searching for treasure in outer space.</p>","","instructions","","","","","","","","","","","","","",""
"learning-instructions","69","428984","0.0-3.0-15.0-1.0-0.0","pilot_wm_v1","66377b92cc73b915298b1bf5","8","null","null","false","","","","","","","1321.7000000476837","<p> Remember, when you see a picture of the place, use the up and down keys to <b>find an animal</b>.</p>
            <p> When you encounter an animal, you should use the left and right keys to <b>select a treasure chest</b>.</p>
            <p> Don't forget to look out for the robber! </p>","","instructions","","","","","","","","","","","","","",""
"revaluation","70","434992","0.0-3.0-15.0-2.0-0.0","pilot_wm_v1","66377b92cc73b915298b1bf5","8","null","null","false","","false","","","","","[1232.6999999284744,435.10000002384186]","./assets/img/space/11.jpg","[""ArrowUp"",""ArrowRight""]","practice block","space","36","{""ArrowUp,ArrowLeft"":3,""ArrowUp,ArrowRight"":36,""ArrowDown,ArrowLeft"":15,""ArrowDown,ArrowRight"":23}","true","ArrowUp,ArrowRight","false","","","","","","","",""
"html-keyboard-response","71","435496","0.0-3.0-15.0-2.0-1.0","pilot_wm_v1","66377b92cc73b915298b1bf5","8","null","null","false","","","","","","","null","<div style=""font-size:60px;"">+</div>","null","fixation","","","","","","","","","","","","","",""
"revaluation","72","441505","0.0-3.0-15.0-2.0-0.1","pilot_wm_v1","66377b92cc73b915298b1bf5","8","null","null","false","","false","","","","","[772.6000000238419,350]","./assets/img/space/12.jpg","[""ArrowUp"",""ArrowRight""]","practice block","space","36","{""ArrowUp,ArrowLeft"":3,""ArrowUp,ArrowRight"":36,""ArrowDown,ArrowLeft"":15,""ArrowDown,ArrowRight"":23}","true","ArrowUp,ArrowRight","false","","","","","","","",""
"html-keyboard-response","73","442007","0.0-3.0-15.0-2.0-1.1","pilot_wm_v1","66377b92cc73b915298b1bf5","8","null","null","false","","","","","","","null","<div style=""font-size:60px;"">+</div>","null","fixation","","","","","","","","","","","","","",""
"revaluation","74","448017","0.0-3.0-15.0-2.0-0.2","pilot_wm_v1","66377b92cc73b915298b1bf5","8","null","null","false","","false","","","","","[761.3000000715256,319.8000000715256]","./assets/img/space/13.jpg","[""ArrowUp"",""ArrowRight""]","practice block","space","36","{""ArrowUp,ArrowLeft"":3,""ArrowUp,ArrowRight"":36,""ArrowDown,ArrowLeft"":15,""ArrowDown,ArrowRight"":23}","true","ArrowUp,ArrowRight","false","","","","","","","",""
"html-keyboard-response","75","448521","0.0-3.0-15.0-2.0-1.2","pilot_wm_v1","66377b92cc73b915298b1bf5","8","null","null","false","","","","","","","null","<div style=""font-size:60px;"">+</div>","null","fixation","","","","","","","","","","","","","",""
"revaluation","76","454530","0.0-3.0-15.0-2.0-0.3","pilot_wm_v1","66377b92cc73b915298b1bf5","8","null","null","false","","false","","","","","[1150.8999999761581,314.1999999284744]","./assets/img/space/14.jpg","[""ArrowUp"",""ArrowRight""]","practice block","space","36","{""ArrowUp,ArrowLeft"":3,""ArrowUp,ArrowRight"":36,""ArrowDown,ArrowLeft"":15,""ArrowDown,ArrowRight"":23}","true","ArrowUp,ArrowRight","false","","","","","","","",""
"html-keyboard-response","77","455033","0.0-3.0-15.0-2.0-1.3","pilot_wm_v1","66377b92cc73b915298b1bf5","8","null","null","false","","","","","","","null","<div style=""font-size:60px;"">+</div>","null","fixation","","","","","","","","","","","","","",""
"revaluation","78","461042","0.0-3.0-15.0-2.0-0.4","pilot_wm_v1","66377b92cc73b915298b1bf5","8","null","null","false","","false","","","","","[1228.1999999284744,398.5]","./assets/img/space/11.jpg","[""ArrowUp"",""ArrowRight""]","practice block","space","36","{""ArrowUp,ArrowLeft"":3,""ArrowUp,ArrowRight"":36,""ArrowDown,ArrowLeft"":15,""ArrowDown,ArrowRight"":23}","true","ArrowUp,ArrowRight","false","","","","","","","",""
"html-keyboard-response","79","461544","0.0-3.0-15.0-2.0-1.4","pilot_wm_v1","66377b92cc73b915298b1bf5","8","null","null","false","","","","","","","null","<div style=""font-size:60px;"">+</div>","null","fixation","","","","","","","","","","","","","",""
"revaluation","80","467554","0.0-3.0-15.0-2.0-0.5","pilot_wm_v1","66377b92cc73b915298b1bf5","8","null","null","false","","false","","","","","[909.5,420.7999999523163]","./assets/img/space/12.jpg","[""ArrowUp"",""ArrowRight""]","practice block","space","36","{""ArrowUp,ArrowLeft"":3,""ArrowUp,ArrowRight"":36,""ArrowDown,ArrowLeft"":15,""ArrowDown,ArrowRight"":23}","true","ArrowUp,ArrowRight","false","","","","","","","",""
"html-keyboard-response","81","468057","0.0-3.0-15.0-2.0-1.5","pilot_wm_v1","66377b92cc73b915298b1bf5","8","null","null","false","","","","","","","null","<div style=""font-size:60px;"">+</div>","null","fixation","","","","","","","","","","","","","",""
"revaluation","82","474068","0.0-3.0-15.0-2.0-0.6","pilot_wm_v1","66377b92cc73b915298b1bf5","8","null","null","false","","false","","","","","[1216.3999999761581,421]","./assets/img/space/13.jpg","[""ArrowUp"",""ArrowRight""]","practice block","space","36","{""ArrowUp,ArrowLeft"":3,""ArrowUp,ArrowRight"":36,""ArrowDown,ArrowLeft"":15,""ArrowDown,ArrowRight"":23}","true","ArrowUp,ArrowRight","false","","","","","","","",""
"html-keyboard-response","83","474570","0.0-3.0-15.0-2.0-1.6","pilot_wm_v1","66377b92cc73b915298b1bf5","8","null","null","false","","","","","","","null","<div style=""font-size:60px;"">+</div>","null","fixation","","","","","","","","","","","","","",""
"revaluation","84","480580","0.0-3.0-15.0-2.0-0.7","pilot_wm_v1","66377b92cc73b915298b1bf5","8","null","null","false","","false","","","","","[1310,510.7000000476837]","./assets/img/space/14.jpg","[""ArrowUp"",""ArrowRight""]","practice block","space","36","{""ArrowUp,ArrowLeft"":3,""ArrowUp,ArrowRight"":36,""ArrowDown,ArrowLeft"":15,""ArrowDown,ArrowRight"":23}","true","ArrowUp,ArrowRight","false","","","","","","","",""
"html-keyboard-response","85","481083","0.0-3.0-15.0-2.0-1.7","pilot_wm_v1","66377b92cc73b915298b1bf5","8","null","null","false","","","","","","","null","<div style=""font-size:60px;"">+</div>","null","fixation","","","","","","","","","","","","","",""
"revaluation","86","485091","0.0-3.0-15.0-2.0-0.8","pilot_wm_v1","66377b92cc73b915298b1bf5","8","null","null","false","","false","","","","","[611.8000000715256]","./assets/img/space/catch/3.jpg","[""spaceBar""]","practice block","space","0","{""ArrowUp,ArrowLeft"":3,""ArrowUp,ArrowRight"":36,""ArrowDown,ArrowLeft"":15,""ArrowDown,ArrowRight"":23}","true","spaceBar","true","","","","","","","",""
"html-keyboard-response","87","485594","0.0-3.0-15.0-2.0-1.8","pilot_wm_v1","66377b92cc73b915298b1bf5","8","null","null","false","","","","","","","null","<div style=""font-size:60px;"">+</div>","null","fixation","","","","","","","","","","","","","",""
"learning-instructions","88","513504","0.0-3.0-15.0-3.0-0.0","pilot_wm_v1","66377b92cc73b915298b1bf5","8","null","null","false","","","","","","","14966.899999976158","<p> Now, you will travel with a friend who will choose whether you go up or down first. </p>
            <p> On these turns, you will just see the animal that they found. You will still get to choose which chest to search for treasure.</p>","","instructions","","","","","","","","","","","","","",""
"learning-instructions","89","527784","0.0-3.0-15.0-3.0-0.1","pilot_wm_v1","66377b92cc73b915298b1bf5","8","null","null","false","","","","","","","2653.399999976158","<p> In this part, you will also hear beeps from your friend and see special treasure chests that need a password. </p>
            <p> Do your best to count the high beeps <b>and</b> choose between each animals' chests at the same time.</p>
            <img src='./assets/img/instructions/beep_chest.jpg' class='instructions-image'>","","instructions","","","","","","","","","","","","","",""
"revaluation","90","531790","0.0-3.0-15.0-4.0-0.0","pilot_wm_v1","66377b92cc73b915298b1bf5","8","null","null","false","","false","","","","","[947.3000000715256]","./assets/img/space/animals/rabbit.jpg","[""ArrowRight""]","practice block","space","23","{""ArrowUp,ArrowLeft"":3,""ArrowUp,ArrowRight"":36,""ArrowDown,ArrowLeft"":15,""ArrowDown,ArrowRight"":23}","true","ArrowDown,ArrowRight","","[""22_3""]","","","","0","","",""
"html-keyboard-response","91","532293","0.0-3.0-15.0-4.0-1.0","pilot_wm_v1","66377b92cc73b915298b1bf5","8","null","null","false","","","","","","","null","<div style=""font-size:60px;"">+</div>","null","fixation","","","","","","","","","","","","","",""
"revaluation","92","536302","0.0-3.0-15.0-4.0-0.1","pilot_wm_v1","66377b92cc73b915298b1bf5","8","null","null","false","","false","","","","","[1035.8000000715256]","./assets/img/space/animals/cat.jpg","[""ArrowRight""]","practice block","space","36","{""ArrowUp,ArrowLeft"":3,""ArrowUp,ArrowRight"":36,""ArrowDown,ArrowLeft"":15,""ArrowDown,ArrowRight"":23}","true","ArrowUp,ArrowRight","","[""19_0""]","","","","1","","",""
"html-keyboard-response","93","536806","0.0-3.0-15.0-4.0-1.1","pilot_wm_v1","66377b92cc73b915298b1bf5","8","null","null","false","","","","","","","null","<div style=""font-size:60px;"">+</div>","null","fixation","","","","","","","","","","","","","",""
"revaluation","94","540813","0.0-3.0-15.0-4.0-0.2","pilot_wm_v1","66377b92cc73b915298b1bf5","8","null","null","false","","false","","","","","[1685.3000000715256]","./assets/img/space/animals/cat.jpg","[""ArrowRight""]","practice block","space","36","{""ArrowUp,ArrowLeft"":3,""ArrowUp,ArrowRight"":36,""ArrowDown,ArrowLeft"":15,""ArrowDown,ArrowRight"":23}","true","ArrowUp,ArrowRight","","[""20_0""]","","","","2","","",""
"html-keyboard-response","95","541315","0.0-3.0-15.0-4.0-1.2","pilot_wm_v1","66377b92cc73b915298b1bf5","8","null","null","false","","","","","","","null","<div style=""font-size:60px;"">+</div>","null","fixation","","","","","","","","","","","","","",""
"revaluation","96","545322","0.0-3.0-15.0-4.0-0.3","pilot_wm_v1","66377b92cc73b915298b1bf5","8","null","null","false","","false","","","","","[1284.8000000715256]","./assets/img/space/animals/rabbit.jpg","[""ArrowRight""]","practice block","space","23","{""ArrowUp,ArrowLeft"":3,""ArrowUp,ArrowRight"":36,""ArrowDown,ArrowLeft"":15,""ArrowDown,ArrowRight"":23}","true","ArrowDown,ArrowRight","","[""21_1""]","","","","3","","",""
"html-keyboard-response","97","545825","0.0-3.0-15.0-4.0-1.3","pilot_wm_v1","66377b92cc73b915298b1bf5","8","null","null","false","","","","","","","null","<div style=""font-size:60px;"">+</div>","null","fixation","","","","","","","","","","","","","",""
"html-slider-response","98","548618","0.0-3.0-15.0-4.0-2.3-0.3","pilot_wm_v1","66377b92cc73b915298b1bf5","8","null","null","false","","","","","","","2788","<div style=""width:500px;"">
        <p>What is the password?</p>
        <img src='./assets/img/instructions/beep_chest.jpg' class='instructions-image'>","4","beep chest","","","","false","","","","50","82","78","","","",""
"learning-instructions","99","556733","0.0-3.0-15.0-6.0-0.0","pilot_wm_v1","66377b92cc73b915298b1bf5","8","null","null","false","","","","","","","null","<p> You have almost finished this part of the game! </p>
            <p> We are going to ask you to make a few more choices. </p>","","instructions","","","","","","","","","","","","","",""
"learning-instructions","100","572728","0.0-3.0-15.0-6.0-0.1","pilot_wm_v1","66377b92cc73b915298b1bf5","8","null","null","false","","","","","","","null","<p> First, you need to decide whether to go up or down. When you see each picture, use the arrow keys to make your choice. </p>
            <p><b>You will not see which animal you found, but try to get to the one that will give you the most treasure.</b></p>","","instructions","","","","","","","","","","","","","",""
"html-keyboard-response","101","573731","0.0-3.0-15.0-7.0-0.0","pilot_wm_v1","66377b92cc73b915298b1bf5","8","null","null","false","","","","","","","null","<div style=""font-size:100px;color:red;"">Starting in...</div>","null","","","","","","","","","","","","","","",""
"html-keyboard-response","102","574734","0.0-3.0-15.0-7.0-1.0","pilot_wm_v1","66377b92cc73b915298b1bf5","8","null","null","false","","","","","","","null","<div style=""font-size:200px;color:red;"">3</div>","null","","","","","","","","","","","","","","",""
"html-keyboard-response","103","575737","0.0-3.0-15.0-7.0-2.0","pilot_wm_v1","66377b92cc73b915298b1bf5","8","null","null","false","","","","","","","null","<div style=""font-size:200px;color:red;"">2</div>","null","","","","","","","","","","","","","","",""
"html-keyboard-response","104","576739","0.0-3.0-15.0-7.0-3.0","pilot_wm_v1","66377b92cc73b915298b1bf5","8","null","null","false","","","","","","","null","<div style=""font-size:200px;color:red;"">1</div>","null","","","","","","","","","","","","","","",""
"revaluation","105","577164","0.0-3.0-15.0-8.0","pilot_wm_v1","66377b92cc73b915298b1bf5","8","null","null","false","","false","","","","","[421.10000002384186]","./assets/img/space/15.jpg","[""ArrowUp""]","practice block","space","0","{""ArrowUp,ArrowLeft"":3,""ArrowUp,ArrowRight"":36,""ArrowDown,ArrowLeft"":15,""ArrowDown,ArrowRight"":23}","true","ArrowUp","false","","","","","","","",""
"html-keyboard-response","106","577668","0.0-3.0-15.0-9.0","pilot_wm_v1","66377b92cc73b915298b1bf5","8","null","null","false","","","","","","","null","<div style=""font-size:60px;"">+</div>","null","fixation","","","","","","","","","","","","","",""
"learning-instructions","107","591034","0.0-3.0-15.0-10.0-0.0","pilot_wm_v1","66377b92cc73b915298b1bf5","8","null","null","false","","","","","","","null","<p> Now you will see the animals again and can search their chests for treasure. </p>
            <p> This time, you will not see how much treasure you earned, but you will earn more bonus money for making better choices. </p>","","instructions","","","","","","","","","","","","","",""
"html-keyboard-response","108","592038","0.0-3.0-15.0-11.0-0.0","pilot_wm_v1","66377b92cc73b915298b1bf5","8","null","null","false","","","","","","","null","<div style=""font-size:100px;color:red;"">Starting in...</div>","null","","","","","","","","","","","","","","",""
"html-keyboard-response","109","593041","0.0-3.0-15.0-11.0-1.0","pilot_wm_v1","66377b92cc73b915298b1bf5","8","null","null","false","","","","","","","null","<div style=""font-size:200px;color:red;"">3</div>","null","","","","","","","","","","","","","","",""
"html-keyboard-response","110","594044","0.0-3.0-15.0-11.0-2.0","pilot_wm_v1","66377b92cc73b915298b1bf5","8","null","null","false","","","","","","","null","<div style=""font-size:200px;color:red;"">2</div>","null","","","","","","","","","","","","","","",""
"html-keyboard-response","111","595045","0.0-3.0-15.0-11.0-3.0","pilot_wm_v1","66377b92cc73b915298b1bf5","8","null","null","false","","","","","","","null","<div style=""font-size:200px;color:red;"">1</div>","null","","","","","","","","","","","","","","",""
"revaluation","112","595590","0.0-3.0-15.0-12.0-0.0","pilot_wm_v1","66377b92cc73b915298b1bf5","8","null","null","false","","false","","","","","[537.5]","./assets/img/space/animals/cat.jpg","[""ArrowRight""]","practice block","space","0","{""ArrowUp,ArrowLeft"":3,""ArrowUp,ArrowRight"":36,""ArrowDown,ArrowLeft"":15,""ArrowDown,ArrowRight"":23}","true","ArrowUp,ArrowRight","","","","","","","","",""
"html-keyboard-response","113","596092","0.0-3.0-15.0-12.0-1.0","pilot_wm_v1","66377b92cc73b915298b1bf5","8","null","null","false","","","","","","","null","<div style=""font-size:60px;"">+</div>","null","fixation","","","","","","","","","","","","","",""
"revaluation","114","596720","0.0-3.0-15.0-12.0-0.1","pilot_wm_v1","66377b92cc73b915298b1bf5","8","null","null","false","","false","","","","","[626.1999999284744]","./assets/img/space/animals/rabbit.jpg","[""ArrowLeft""]","practice block","space","0","{""ArrowUp,ArrowLeft"":3,""ArrowUp,ArrowRight"":36,""ArrowDown,ArrowLeft"":15,""ArrowDown,ArrowRight"":23}","false","ArrowDown,ArrowLeft","","","","","","","","",""
"html-keyboard-response","115","597222","0.0-3.0-15.0-12.0-1.1","pilot_wm_v1","66377b92cc73b915298b1bf5","8","null","null","false","","","","","","","null","<div style=""font-size:60px;"">+</div>","null","fixation","","","","","","","","","","","","","",""
"learning-instructions","116","603318","0.0-3.0-16.0-0.0","pilot_wm_v1","66377b92cc73b915298b1bf5","8","null","null","false","","","","","","","1522.6000000238419","<p> Before you start, we're going to ask you a few questions about how the game works. </p>","","instructions","","","","","","","","","","","","","",""
"comp-q","117","609651","0.0-3.0-17.0-0.0-0.0","pilot_wm_v1","66377b92cc73b915298b1bf5","8","null","null","false","","","","","","","763.6000000238419","<p> <b> True or False? </b> </p>
            <p> There can be 50 pieces of treasure in a given animal's chest. </p>","1","comp_question","","","","true","","","","","","","","","",""
"comp-q","118","617901","0.0-3.0-17.0-0.0-1.0","pilot_wm_v1","66377b92cc73b915298b1bf5","8","null","null","false","","","","","","","1606.5","<p> <b> That's right! </b> The amount of treasure in each chest can range from 0 to 40 pieces. </p>","0","comp_answer","","","","","","","","","","","","","",""
"comp-q","119","625683","0.0-3.0-17.0-0.1-0.1","pilot_wm_v1","66377b92cc73b915298b1bf5","8","null","null","false","","","","","","","668.6000000238419","<p> <b> True or False? </b> </p><p> In this game, all animals have the same amount of treasure in their left and right chests. </p>","1","comp_question","","","","true","","","","","","","","","",""
"comp-q","120","632535","0.0-3.0-17.0-0.1-1.1","pilot_wm_v1","66377b92cc73b915298b1bf5","8","null","null","false","","","","","","","1632.5","<p> <b> That's right! </b> Animals have different amounts of treasure in their treasure chests. </p>","0","comp_answer","","","","","","","","","","","","","",""
"comp-q","121","638784","0.0-3.0-17.0-0.2-0.2","pilot_wm_v1","66377b92cc73b915298b1bf5","8","null","null","false","","","","","","","403.89999997615814","<p> <b> True or False? </b> </p><p> The same animal will always be there if you go up in the same place. </p>","0","comp_question","","","","true","","","","","","","","","",""
"comp-q","122","646452","0.0-3.0-17.0-0.2-1.2","pilot_wm_v1","66377b92cc73b915298b1bf5","8","null","null","false","","","","","","","1231.6000000238419","<p> <b> That's right! </b> One animal lives in the upper part and one lives in the lower part of every place. </p>","0","comp_answer","","","","","","","","","","","","","",""
"comp-q","123","652617","0.0-3.0-17.0-0.3-0.3","pilot_wm_v1","66377b92cc73b915298b1bf5","8","null","null","false","","","","","","","647.8999999761581","<p> <b> True or False? </b> </p><p> If you see a different picture, it means you are in a new place. </p>","1","comp_question","","","","true","","","","","","","","","",""
"comp-q","124","665534","0.0-3.0-17.0-0.3-1.3","pilot_wm_v1","66377b92cc73b915298b1bf5","8","null","null","false","","","","","","","1698.1999999284744","<p> <b> That's right! </b> Lots of different images may show the same place. For example,  you may see three different images that all remind you that you are in outer space. </p>","0","comp_answer","","","","","","","","","","","","","",""
"learning-instructions","125","676567","0.0-3.0-18.0-0.0","pilot_wm_v1","66377b92cc73b915298b1bf5","8","null","null","false","","","","","","","1189.7000000476837","<p> Good job. Remember to do your best because the amount of treasure you earn will be converted into bonus money. </p>
            <p> It’s time to start the real game! </p>","","instructions","","","","","","","","","","","","","",""
"learning-instructions","126","680152","0.0-4.0-0.0-0.0","pilot_wm_v1","66377b92cc73b915298b1bf5","8","null","null","false","","","","","","","886.5","<p> This time you are searching for treasure in the <b>ocean</b>.</p>","","instructions","","","","","","","","","","","","","",""
"learning-instructions","127","697970","0.0-4.0-0.0-0.1","pilot_wm_v1","66377b92cc73b915298b1bf5","8","null","null","false","","","","","","","548.2000000476837","<p><b>New</b> animals with <b>new</b> treasure chests live here. You need to explore to discover where the animal with the best treasure chest is.</p>
                    <p> Like before, once you figure out which animal has the chest with the most treasure, you should try to get to that animal and select that chest! </p>","","instructions","","","","","","","","","","","","","",""
"learning-instructions","128","714451","0.0-4.0-1.0-0.0","pilot_wm_v1","66377b92cc73b915298b1bf5","8","null","null","false","","","","","","","1750.1999999284744","<p> Remember, when you see a picture of the place, use the up and down keys to <b>find an animal</b>.</p>
            <p> When you encounter an animal, you should use the left and right keys to <b>select a treasure chest</b>.</p>
            <p> Don't forget to look out for the robber! </p>","","instructions","","","","","","","","","","","","","",""
"revaluation","129","720460","0.0-4.0-2.0-0.0","pilot_wm_v1","66377b92cc73b915298b1bf5","8","null","null","false","","false","","","","","[775.1000000238419,595]","./assets/img/ocean/memory/17.jpg","[""ArrowDown"",""ArrowRight""]","value training","ocean","17","{""ArrowUp,ArrowLeft"":26,""ArrowUp,ArrowRight"":10,""ArrowDown,ArrowLeft"":5,""ArrowDown,ArrowRight"":17}","false","ArrowDown,ArrowRight","false","","","","","0","revaluation","1",""
"html-keyboard-response","130","720963","0.0-4.0-2.0-1.0","pilot_wm_v1","66377b92cc73b915298b1bf5","8","null","null","false","","","","","","","null","<div style=""font-size:60px;"">+</div>","null","fixation","","","","","","","","","","","1","","",""
"revaluation","131","726971","0.0-4.0-2.0-0.1","pilot_wm_v1","66377b92cc73b915298b1bf5","8","null","null","false","","false","","","","","[1397.4000000953674,575.7000000476837]","./assets/img/ocean/memory/19.jpg","[""ArrowDown"",""ArrowLeft""]","value training","ocean","5","{""ArrowUp,ArrowLeft"":26,""ArrowUp,ArrowRight"":10,""ArrowDown,ArrowLeft"":5,""ArrowDown,ArrowRight"":17}","false","ArrowDown,ArrowLeft","false","","","","","2","revaluation","1",""
"html-keyboard-response","132","727474","0.0-4.0-2.0-1.1","pilot_wm_v1","66377b92cc73b915298b1bf5","8","null","null","false","","","","","","","null","<div style=""font-size:60px;"">+</div>","null","fixation","","","","","","","","","","","3","","",""
"revaluation","133","733487","0.0-4.0-2.0-0.2","pilot_wm_v1","66377b92cc73b915298b1bf5","8","null","null","false","","false","","","","","[524.1999999284744,578.7999999523163]","./assets/img/ocean/memory/1.jpg","[""ArrowUp"",""ArrowRight""]","value training","ocean","10","{""ArrowUp,ArrowLeft"":26,""ArrowUp,ArrowRight"":10,""ArrowDown,ArrowLeft"":5,""ArrowDown,ArrowRight"":17}","false","ArrowUp,ArrowRight","false","","","","","4","revaluation","1",""
"html-keyboard-response","134","733990","0.0-4.0-2.0-1.2","pilot_wm_v1","66377b92cc73b915298b1bf5","8","null","null","false","","","","","","","null","<div style=""font-size:60px;"">+</div>","null","fixation","","","","","","","","","","","5","","",""
"revaluation","135","740001","0.0-4.0-2.0-0.3","pilot_wm_v1","66377b92cc73b915298b1bf5","8","null","null","false","","false","","","","","[877,432.10000002384186]","./assets/img/ocean/memory/39.jpg","[""ArrowUp"",""ArrowLeft""]","value training","ocean","26","{""ArrowUp,ArrowLeft"":26,""ArrowUp,ArrowRight"":10,""ArrowDown,ArrowLeft"":5,""ArrowDown,ArrowRight"":17}","true","ArrowUp,ArrowLeft","false","","","","","6","revaluation","1",""
"html-keyboard-response","136","740504","0.0-4.0-2.0-1.3","pilot_wm_v1","66377b92cc73b915298b1bf5","8","null","null","false","","","","","","","null","<div style=""font-size:60px;"">+</div>","null","fixation","","","","","","","","","","","7","","",""
"revaluation","137","746514","0.0-4.0-2.0-0.4","pilot_wm_v1","66377b92cc73b915298b1bf5","8","null","null","false","","false","","","","","[965.5,506.7000000476837]","./assets/img/ocean/memory/31.jpg","[""ArrowUp"",""ArrowLeft""]","value training","ocean","26","{""ArrowUp,ArrowLeft"":26,""ArrowUp,ArrowRight"":10,""ArrowDown,ArrowLeft"":5,""ArrowDown,ArrowRight"":17}","true","ArrowUp,ArrowLeft","false","","","","","8","revaluation","1",""
"html-keyboard-response","138","747017","0.0-4.0-2.0-1.4","pilot_wm_v1","66377b92cc73b915298b1bf5","8","null","null","false","","","","","","","null","<div style=""font-size:60px;"">+</div>","null","fixation","","","","","","","","","","","9","","",""
"revaluation","139","753026","0.0-4.0-2.0-0.5","pilot_wm_v1","66377b92cc73b915298b1bf5","8","null","null","false","","false","","","","","[990.6000000238419,472.39999997615814]","./assets/img/ocean/memory/8.jpg","[""ArrowUp"",""ArrowLeft""]","value training","ocean","26","{""ArrowUp,ArrowLeft"":26,""ArrowUp,ArrowRight"":10,""ArrowDown,ArrowLeft"":5,""ArrowDown,ArrowRight"":17}","true","ArrowUp,ArrowLeft","false","","","","","10","revaluation","1",""
"html-keyboard-response","140","753530","0.0-4.0-2.0-1.5","pilot_wm_v1","66377b92cc73b915298b1bf5","8","null","null","false","","","","","","","null","<div style=""font-size:60px;"">+</div>","null","fixation","","","","","","","","","","","11","","",""
"revaluation","141","757537","0.0-4.0-2.0-0.6","pilot_wm_v1","66377b92cc73b915298b1bf5","8","null","null","false","","false","","","","","[1006.5999999046326]","./assets/img/ocean/catch/5.jpg","[""spaceBar""]","value training","ocean","0","{""ArrowUp,ArrowLeft"":26,""ArrowUp,ArrowRight"":10,""ArrowDown,ArrowLeft"":5,""ArrowDown,ArrowRight"":17}","true","spaceBar","true","","","","","12","revaluation","1",""
"html-keyboard-response","142","758039","0.0-4.0-2.0-1.6","pilot_wm_v1","66377b92cc73b915298b1bf5","8","null","null","false","","","","","","","null","<div style=""font-size:60px;"">+</div>","null","fixation","","","","","","","","","","","13","","",""
"revaluation","143","764052","0.0-4.0-2.0-0.7","pilot_wm_v1","66377b92cc73b915298b1bf5","8","null","null","false","","false","","","","","[1092.2999999523163,482]","./assets/img/ocean/memory/7.jpg","[""ArrowUp"",""ArrowLeft""]","value training","ocean","26","{""ArrowUp,ArrowLeft"":26,""ArrowUp,ArrowRight"":10,""ArrowDown,ArrowLeft"":5,""ArrowDown,ArrowRight"":17}","true","ArrowUp,ArrowLeft","false","","","","","14","revaluation","1",""
"html-keyboard-response","144","764561","0.0-4.0-2.0-1.7","pilot_wm_v1","66377b92cc73b915298b1bf5","8","null","null","false","","","","","","","null","<div style=""font-size:60px;"">+</div>","null","fixation","","","","","","","","","","","15","","",""
"revaluation","145","768568","0.0-4.0-2.0-0.8","pilot_wm_v1","66377b92cc73b915298b1bf5","8","null","null","false","","false","","","","","[652.3000000715256]","./assets/img/ocean/catch/2.jpg","[""spaceBar""]","value training","ocean","0","{""ArrowUp,ArrowLeft"":26,""ArrowUp,ArrowRight"":10,""ArrowDown,ArrowLeft"":5,""ArrowDown,ArrowRight"":17}","true","spaceBar","true","","","","","16","revaluation","1",""
"html-keyboard-response","146","769072","0.0-4.0-2.0-1.8","pilot_wm_v1","66377b92cc73b915298b1bf5","8","null","null","false","","","","","","","null","<div style=""font-size:60px;"">+</div>","null","fixation","","","","","","","","","","","17","","",""
"revaluation","147","775083","0.0-4.0-2.0-0.9","pilot_wm_v1","66377b92cc73b915298b1bf5","8","null","null","false","","false","","","","","[1235,534.8999999761581]","./assets/img/ocean/memory/21.jpg","[""ArrowUp"",""ArrowLeft""]","value training","ocean","26","{""ArrowUp,ArrowLeft"":26,""ArrowUp,ArrowRight"":10,""ArrowDown,ArrowLeft"":5,""ArrowDown,ArrowRight"":17}","true","ArrowUp,ArrowLeft","false","","","","","18","revaluation","1",""
"html-keyboard-response","148","775586","0.0-4.0-2.0-1.9","pilot_wm_v1","66377b92cc73b915298b1bf5","8","null","null","false","","","","","","","null","<div style=""font-size:60px;"">+</div>","null","fixation","","","","","","","","","","","19","","",""
"revaluation","149","781600","0.0-4.0-2.0-0.10","pilot_wm_v1","66377b92cc73b915298b1bf5","8","null","null","false","","false","","","","","[1775.1000000238419,425.1999999284744]","./assets/img/ocean/memory/27.jpg","[""ArrowUp"",""ArrowLeft""]","value training","ocean","26","{""ArrowUp,ArrowLeft"":26,""ArrowUp,ArrowRight"":10,""ArrowDown,ArrowLeft"":5,""ArrowDown,ArrowRight"":17}","true","ArrowUp,ArrowLeft","false","","","","","20","revaluation","1",""
"html-keyboard-response","150","782102","0.0-4.0-2.0-1.10","pilot_wm_v1","66377b92cc73b915298b1bf5","8","null","null","false","","","","","","","null","<div style=""font-size:60px;"">+</div>","null","fixation","","","","","","","","","","","21","","",""
"revaluation","151","788113","0.0-4.0-2.0-0.11","pilot_wm_v1","66377b92cc73b915298b1bf5","8","null","null","false","","false","","","","","[1390.6999999284744,496.1999999284744]","./assets/img/ocean/memory/22.jpg","[""ArrowUp"",""ArrowLeft""]","value training","ocean","26","{""ArrowUp,ArrowLeft"":26,""ArrowUp,ArrowRight"":10,""ArrowDown,ArrowLeft"":5,""ArrowDown,ArrowRight"":17}","true","ArrowUp,ArrowLeft","false","","","","","22","revaluation","1",""
"html-keyboard-response","152","788616","0.0-4.0-2.0-1.11","pilot_wm_v1","66377b92cc73b915298b1bf5","8","null","null","false","","","","","","","null","<div style=""font-size:60px;"">+</div>","null","fixation","","","","","","","","","","","23","","",""
"revaluation","153","794624","0.0-4.0-2.0-0.12","pilot_wm_v1","66377b92cc73b915298b1bf5","8","null","null","false","","false","","","","","[1702.7999999523163,447]","./assets/img/ocean/memory/24.jpg","[""ArrowUp"",""ArrowLeft""]","value training","ocean","26","{""ArrowUp,ArrowLeft"":26,""ArrowUp,ArrowRight"":10,""ArrowDown,ArrowLeft"":5,""ArrowDown,ArrowRight"":17}","true","ArrowUp,ArrowLeft","false","","","","","24","revaluation","1",""
"html-keyboard-response","154","795127","0.0-4.0-2.0-1.12","pilot_wm_v1","66377b92cc73b915298b1bf5","8","null","null","false","","","","","","","null","<div style=""font-size:60px;"">+</div>","null","fixation","","","","","","","","","","","25","","",""
"revaluation","155","799135","0.0-4.0-2.0-0.13","pilot_wm_v1","66377b92cc73b915298b1bf5","8","null","null","false","","false","","","","","[714.1000000238419]","./assets/img/ocean/catch/4.jpg","[""spaceBar""]","value training","ocean","0","{""ArrowUp,ArrowLeft"":26,""ArrowUp,ArrowRight"":10,""ArrowDown,ArrowLeft"":5,""ArrowDown,ArrowRight"":17}","true","spaceBar","true","","","","","26","revaluation","1",""
"html-keyboard-response","156","799638","0.0-4.0-2.0-1.13","pilot_wm_v1","66377b92cc73b915298b1bf5","8","null","null","false","","","","","","","null","<div style=""font-size:60px;"">+</div>","null","fixation","","","","","","","","","","","27","","",""
"revaluation","157","805648","0.0-4.0-2.0-0.14","pilot_wm_v1","66377b92cc73b915298b1bf5","8","null","null","false","","false","","","","","[823.8999999761581,381.60000002384186]","./assets/img/ocean/memory/16.jpg","[""ArrowUp"",""ArrowLeft""]","value training","ocean","26","{""ArrowUp,ArrowLeft"":26,""ArrowUp,ArrowRight"":10,""ArrowDown,ArrowLeft"":5,""ArrowDown,ArrowRight"":17}","true","ArrowUp,ArrowLeft","false","","","","","28","revaluation","1",""
"html-keyboard-response","158","806151","0.0-4.0-2.0-1.14","pilot_wm_v1","66377b92cc73b915298b1bf5","8","null","null","false","","","","","","","null","<div style=""font-size:60px;"">+</div>","null","fixation","","","","","","","","","","","29","","",""
"revaluation","159","810158","0.0-4.0-2.0-0.15","pilot_wm_v1","66377b92cc73b915298b1bf5","8","null","null","false","","true","","","","","[]","./assets/img/ocean/memory/14.jpg","[]","value training","ocean","-5","{""ArrowUp,ArrowLeft"":26,""ArrowUp,ArrowRight"":10,""ArrowDown,ArrowLeft"":5,""ArrowDown,ArrowRight"":17}","false","","false","","","","","30","revaluation","1",""
"html-keyboard-response","160","810662","0.0-4.0-2.0-1.15","pilot_wm_v1","66377b92cc73b915298b1bf5","8","null","null","false","","","","","","","null","<div style=""font-size:60px;"">+</div>","null","fixation","","","","","","","","","","","31","","",""
"revaluation","161","816672","0.0-4.0-2.0-0.16","pilot_wm_v1","66377b92cc73b915298b1bf5","8","null","null","false","","false","","","","","[700.6000000238419,330.8000000715256]","./assets/img/ocean/memory/19.jpg","[""ArrowUp"",""ArrowLeft""]","value training","ocean","26","{""ArrowUp,ArrowLeft"":26,""ArrowUp,ArrowRight"":10,""ArrowDown,ArrowLeft"":5,""ArrowDown,ArrowRight"":17}","true","ArrowUp,ArrowLeft","false","","","","","32","revaluation","1",""
"html-keyboard-response","162","817175","0.0-4.0-2.0-1.16","pilot_wm_v1","66377b92cc73b915298b1bf5","8","null","null","false","","","","","","","null","<div style=""font-size:60px;"">+</div>","null","fixation","","","","","","","","","","","33","","",""
"revaluation","163","821183","0.0-4.0-2.0-0.17","pilot_wm_v1","66377b92cc73b915298b1bf5","8","null","null","false","","false","","","","","[642.7000000476837]","./assets/img/ocean/catch/7.jpg","[""spaceBar""]","value training","ocean","0","{""ArrowUp,ArrowLeft"":26,""ArrowUp,ArrowRight"":10,""ArrowDown,ArrowLeft"":5,""ArrowDown,ArrowRight"":17}","true","spaceBar","true","","","","","34","revaluation","1",""
"html-keyboard-response","164","821686","0.0-4.0-2.0-1.17","pilot_wm_v1","66377b92cc73b915298b1bf5","8","null","null","false","","","","","","","null","<div style=""font-size:60px;"">+</div>","null","fixation","","","","","","","","","","","35","","",""
"revaluation","165","827696","0.0-4.0-2.0-0.18","pilot_wm_v1","66377b92cc73b915298b1bf5","8","null","null","false","","false","","","","","[982.7000000476837,400.2000000476837]","./assets/img/ocean/memory/15.jpg","[""ArrowUp"",""ArrowLeft""]","value training","ocean","26","{""ArrowUp,ArrowLeft"":26,""ArrowUp,ArrowRight"":10,""ArrowDown,ArrowLeft"":5,""ArrowDown,ArrowRight"":17}","true","ArrowUp,ArrowLeft","false","","","","","36","revaluation","1",""
"html-keyboard-response","166","828200","0.0-4.0-2.0-1.18","pilot_wm_v1","66377b92cc73b915298b1bf5","8","null","null","false","","","","","","","null","<div style=""font-size:60px;"">+</div>","null","fixation","","","","","","","","","","","37","","",""
"revaluation","167","834211","0.0-4.0-2.0-0.19","pilot_wm_v1","66377b92cc73b915298b1bf5","8","null","null","false","","false","","","","","[709.3999999761581,303.2999999523163]","./assets/img/ocean/memory/35.jpg","[""ArrowUp"",""ArrowLeft""]","value training","ocean","26","{""ArrowUp,ArrowLeft"":26,""ArrowUp,ArrowRight"":10,""ArrowDown,ArrowLeft"":5,""ArrowDown,ArrowRight"":17}","true","ArrowUp,ArrowLeft","false","","","","","38","revaluation","1",""
"html-keyboard-response","168","834714","0.0-4.0-2.0-1.19","pilot_wm_v1","66377b92cc73b915298b1bf5","8","null","null","false","","","","","","","null","<div style=""font-size:60px;"">+</div>","null","fixation","","","","","","","","","","","39","","",""
"revaluation","169","840724","0.0-4.0-2.0-0.20","pilot_wm_v1","66377b92cc73b915298b1bf5","8","null","null","false","","false","","","","","[1586,434]","./assets/img/ocean/memory/31.jpg","[""ArrowUp"",""ArrowLeft""]","value training","ocean","26","{""ArrowUp,ArrowLeft"":26,""ArrowUp,ArrowRight"":10,""ArrowDown,ArrowLeft"":5,""ArrowDown,ArrowRight"":17}","true","ArrowUp,ArrowLeft","false","","","","","40","revaluation","1",""
"html-keyboard-response","170","841227","0.0-4.0-2.0-1.20","pilot_wm_v1","66377b92cc73b915298b1bf5","8","null","null","false","","","","","","","null","<div style=""font-size:60px;"">+</div>","null","fixation","","","","","","","","","","","41","","",""
"revaluation","171","847238","0.0-4.0-2.0-0.21","pilot_wm_v1","66377b92cc73b915298b1bf5","8","null","null","false","","false","","","","","[1077,459.3000000715256]","./assets/img/ocean/memory/14.jpg","[""ArrowUp"",""ArrowLeft""]","value training","ocean","26","{""ArrowUp,ArrowLeft"":26,""ArrowUp,ArrowRight"":10,""ArrowDown,ArrowLeft"":5,""ArrowDown,ArrowRight"":17}","true","ArrowUp,ArrowLeft","false","","","","","42","revaluation","1",""
"html-keyboard-response","172","847742","0.0-4.0-2.0-1.21","pilot_wm_v1","66377b92cc73b915298b1bf5","8","null","null","false","","","","","","","null","<div style=""font-size:60px;"">+</div>","null","fixation","","","","","","","","","","","43","","",""
"revaluation","173","853753","0.0-4.0-2.0-0.22","pilot_wm_v1","66377b92cc73b915298b1bf5","8","null","null","false","","false","","","","","[882.6000000238419,548.4000000953674]","./assets/img/ocean/memory/0.jpg","[""ArrowUp"",""ArrowLeft""]","value training","ocean","26","{""ArrowUp,ArrowLeft"":26,""ArrowUp,ArrowRight"":10,""ArrowDown,ArrowLeft"":5,""ArrowDown,ArrowRight"":17}","true","ArrowUp,ArrowLeft","false","","","","","44","revaluation","1",""
"html-keyboard-response","174","854256","0.0-4.0-2.0-1.22","pilot_wm_v1","66377b92cc73b915298b1bf5","8","null","null","false","","","","","","","null","<div style=""font-size:60px;"">+</div>","null","fixation","","","","","","","","","","","45","","",""
"revaluation","175","860265","0.0-4.0-2.0-0.23","pilot_wm_v1","66377b92cc73b915298b1bf5","8","null","null","false","","false","","","","","[661.9000000953674,554.5]","./assets/img/ocean/memory/5.jpg","[""ArrowUp"",""ArrowLeft""]","value training","ocean","26","{""ArrowUp,ArrowLeft"":26,""ArrowUp,ArrowRight"":10,""ArrowDown,ArrowLeft"":5,""ArrowDown,ArrowRight"":17}","true","ArrowUp,ArrowLeft","false","","","","","46","revaluation","1",""
"html-keyboard-response","176","860768","0.0-4.0-2.0-1.23","pilot_wm_v1","66377b92cc73b915298b1bf5","8","null","null","false","","","","","","","null","<div style=""font-size:60px;"">+</div>","null","fixation","","","","","","","","","","","47","","",""
"revaluation","177","866778","0.0-4.0-2.0-0.24","pilot_wm_v1","66377b92cc73b915298b1bf5","8","null","null","false","","false","","","","","[735.8999999761581,429.5]","./assets/img/ocean/memory/10.jpg","[""ArrowUp"",""ArrowLeft""]","value training","ocean","26","{""ArrowUp,ArrowLeft"":26,""ArrowUp,ArrowRight"":10,""ArrowDown,ArrowLeft"":5,""ArrowDown,ArrowRight"":17}","true","ArrowUp,ArrowLeft","false","","","","","48","revaluation","1",""
"html-keyboard-response","178","867282","0.0-4.0-2.0-1.24","pilot_wm_v1","66377b92cc73b915298b1bf5","8","null","null","false","","","","","","","null","<div style=""font-size:60px;"">+</div>","null","fixation","","","","","","","","","","","49","","",""
"revaluation","179","873292","0.0-4.0-2.0-0.25","pilot_wm_v1","66377b92cc73b915298b1bf5","8","null","null","false","","false","","","","","[713.4000000953674,488.89999997615814]","./assets/img/ocean/memory/21.jpg","[""ArrowUp"",""ArrowLeft""]","value training","ocean","26","{""ArrowUp,ArrowLeft"":26,""ArrowUp,ArrowRight"":10,""ArrowDown,ArrowLeft"":5,""ArrowDown,ArrowRight"":17}","true","ArrowUp,ArrowLeft","false","","","","","50","revaluation","1",""
"html-keyboard-response","180","873794","0.0-4.0-2.0-1.25","pilot_wm_v1","66377b92cc73b915298b1bf5","8","null","null","false","","","","","","","null","<div style=""font-size:60px;"">+</div>","null","fixation","","","","","","","","","","","51","","",""
"revaluation","181","879803","0.0-4.0-2.0-0.26","pilot_wm_v1","66377b92cc73b915298b1bf5","8","null","null","false","","false","","","","","[871.1000000238419,458.1999999284744]","./assets/img/ocean/memory/15.jpg","[""ArrowUp"",""ArrowLeft""]","value training","ocean","26","{""ArrowUp,ArrowLeft"":26,""ArrowUp,ArrowRight"":10,""ArrowDown,ArrowLeft"":5,""ArrowDown,ArrowRight"":17}","true","ArrowUp,ArrowLeft","false","","","","","52","revaluation","1",""
"html-keyboard-response","182","880307","0.0-4.0-2.0-1.26","pilot_wm_v1","66377b92cc73b915298b1bf5","8","null","null","false","","","","","","","null","<div style=""font-size:60px;"">+</div>","null","fixation","","","","","","","","","","","53","","",""
"revaluation","183","886319","0.0-4.0-2.0-0.27","pilot_wm_v1","66377b92cc73b915298b1bf5","8","null","null","false","","false","","","","","[560.6000000238419,414.90000009536743]","./assets/img/ocean/memory/35.jpg","[""ArrowUp"",""ArrowLeft""]","value training","ocean","26","{""ArrowUp,ArrowLeft"":26,""ArrowUp,ArrowRight"":10,""ArrowDown,ArrowLeft"":5,""ArrowDown,ArrowRight"":17}","true","ArrowUp,ArrowLeft","false","","","","","54","revaluation","1",""
"html-keyboard-response","184","886823","0.0-4.0-2.0-1.27","pilot_wm_v1","66377b92cc73b915298b1bf5","8","null","null","false","","","","","","","null","<div style=""font-size:60px;"">+</div>","null","fixation","","","","","","","","","","","55","","",""
"revaluation","185","890832","0.0-4.0-2.0-0.28","pilot_wm_v1","66377b92cc73b915298b1bf5","8","null","null","false","","false","","","","","[798.8000000715256]","./assets/img/ocean/catch/0.jpg","[""spaceBar""]","value training","ocean","0","{""ArrowUp,ArrowLeft"":26,""ArrowUp,ArrowRight"":10,""ArrowDown,ArrowLeft"":5,""ArrowDown,ArrowRight"":17}","true","spaceBar","true","","","","","56","revaluation","1",""
"html-keyboard-response","186","891335","0.0-4.0-2.0-1.28","pilot_wm_v1","66377b92cc73b915298b1bf5","8","null","null","false","","","","","","","null","<div style=""font-size:60px;"">+</div>","null","fixation","","","","","","","","","","","57","","",""
"revaluation","187","897343","0.0-4.0-2.0-0.29","pilot_wm_v1","66377b92cc73b915298b1bf5","8","null","null","false","","false","","","","","[710.1000000238419,521]","./assets/img/ocean/memory/24.jpg","[""ArrowUp"",""ArrowLeft""]","value training","ocean","26","{""ArrowUp,ArrowLeft"":26,""ArrowUp,ArrowRight"":10,""ArrowDown,ArrowLeft"":5,""ArrowDown,ArrowRight"":17}","true","ArrowUp,ArrowLeft","false","","","","","58","revaluation","1",""
"html-keyboard-response","188","897847","0.0-4.0-2.0-1.29","pilot_wm_v1","66377b92cc73b915298b1bf5","8","null","null","false","","","","","","","null","<div style=""font-size:60px;"">+</div>","null","fixation","","","","","","","","","","","59","","",""
"revaluation","189","903856","0.0-4.0-2.0-0.30","pilot_wm_v1","66377b92cc73b915298b1bf5","8","null","null","false","","false","","","","","[874.2000000476837,477]","./assets/img/ocean/memory/7.jpg","[""ArrowUp"",""ArrowLeft""]","value training","ocean","26","{""ArrowUp,ArrowLeft"":26,""ArrowUp,ArrowRight"":10,""ArrowDown,ArrowLeft"":5,""ArrowDown,ArrowRight"":17}","true","ArrowUp,ArrowLeft","false","","","","","60","revaluation","1",""
"html-keyboard-response","190","904363","0.0-4.0-2.0-1.30","pilot_wm_v1","66377b92cc73b915298b1bf5","8","null","null","false","","","","","","","null","<div style=""font-size:60px;"">+</div>","null","fixation","","","","","","","","","","","61","","",""
"revaluation","191","910371","0.0-4.0-2.0-0.31","pilot_wm_v1","66377b92cc73b915298b1bf5","8","null","null","false","","false","","","","","[866.8000000715256,546.6999999284744]","./assets/img/ocean/memory/23.jpg","[""ArrowUp"",""ArrowLeft""]","value training","ocean","26","{""ArrowUp,ArrowLeft"":26,""ArrowUp,ArrowRight"":10,""ArrowDown,ArrowLeft"":5,""ArrowDown,ArrowRight"":17}","true","ArrowUp,ArrowLeft","false","","","","","62","revaluation","1",""
"html-keyboard-response","192","910874","0.0-4.0-2.0-1.31","pilot_wm_v1","66377b92cc73b915298b1bf5","8","null","null","false","","","","","","","null","<div style=""font-size:60px;"">+</div>","null","fixation","","","","","","","","","","","63","","",""
"revaluation","193","916882","0.0-4.0-2.0-0.32","pilot_wm_v1","66377b92cc73b915298b1bf5","8","null","null","false","","false","","","","","[533.8999999761581,448.2999999523163]","./assets/img/ocean/memory/27.jpg","[""ArrowUp"",""ArrowLeft""]","value training","ocean","26","{""ArrowUp,ArrowLeft"":26,""ArrowUp,ArrowRight"":10,""ArrowDown,ArrowLeft"":5,""ArrowDown,ArrowRight"":17}","true","ArrowUp,ArrowLeft","false","","","","","64","revaluation","1",""
"html-keyboard-response","194","917385","0.0-4.0-2.0-1.32","pilot_wm_v1","66377b92cc73b915298b1bf5","8","null","null","false","","","","","","","null","<div style=""font-size:60px;"">+</div>","null","fixation","","","","","","","","","","","65","","",""
"revaluation","195","923394","0.0-4.0-2.0-0.33","pilot_wm_v1","66377b92cc73b915298b1bf5","8","null","null","false","","false","","","","","[537.7999999523163,481.59999990463257]","./assets/img/ocean/memory/23.jpg","[""ArrowUp"",""ArrowLeft""]","value training","ocean","26","{""ArrowUp,ArrowLeft"":26,""ArrowUp,ArrowRight"":10,""ArrowDown,ArrowLeft"":5,""ArrowDown,ArrowRight"":17}","true","ArrowUp,ArrowLeft","false","","","","","66","revaluation","1",""
"html-keyboard-response","196","923897","0.0-4.0-2.0-1.33","pilot_wm_v1","66377b92cc73b915298b1bf5","8","null","null","false","","","","","","","null","<div style=""font-size:60px;"">+</div>","null","fixation","","","","","","","","","","","67","","",""
"revaluation","197","929909","0.0-4.0-2.0-0.34","pilot_wm_v1","66377b92cc73b915298b1bf5","8","null","null","false","","false","","","","","[530.7000000476837,553.8999999761581]","./assets/img/ocean/memory/10.jpg","[""ArrowUp"",""ArrowLeft""]","value training","ocean","26","{""ArrowUp,ArrowLeft"":26,""ArrowUp,ArrowRight"":10,""ArrowDown,ArrowLeft"":5,""ArrowDown,ArrowRight"":17}","true","ArrowUp,ArrowLeft","false","","","","","68","revaluation","1",""
"html-keyboard-response","198","930411","0.0-4.0-2.0-1.34","pilot_wm_v1","66377b92cc73b915298b1bf5","8","null","null","false","","","","","","","null","<div style=""font-size:60px;"">+</div>","null","fixation","","","","","","","","","","","69","","",""
"revaluation","199","936420","0.0-4.0-2.0-0.35","pilot_wm_v1","66377b92cc73b915298b1bf5","8","null","null","false","","false","","","","","[539.1000000238419,414.39999997615814]","./assets/img/ocean/memory/17.jpg","[""ArrowUp"",""ArrowLeft""]","value training","ocean","26","{""ArrowUp,ArrowLeft"":26,""ArrowUp,ArrowRight"":10,""ArrowDown,ArrowLeft"":5,""ArrowDown,ArrowRight"":17}","true","ArrowUp,ArrowLeft","false","","","","","70","revaluation","1",""
"html-keyboard-response","200","936922","0.0-4.0-2.0-1.35","pilot_wm_v1","66377b92cc73b915298b1bf5","8","null","null","false","","","","","","","null","<div style=""font-size:60px;"">+</div>","null","fixation","","","","","","","","","","","71","","",""
"revaluation","201","942931","0.0-4.0-2.0-0.36","pilot_wm_v1","66377b92cc73b915298b1bf5","8","null","null","false","","false","","","","","[574.1999999284744,447]","./assets/img/ocean/memory/36.jpg","[""ArrowUp"",""ArrowLeft""]","value training","ocean","26","{""ArrowUp,ArrowLeft"":26,""ArrowUp,ArrowRight"":10,""ArrowDown,ArrowLeft"":5,""ArrowDown,ArrowRight"":17}","true","ArrowUp,ArrowLeft","false","","","","","72","revaluation","1",""
"html-keyboard-response","202","943434","0.0-4.0-2.0-1.36","pilot_wm_v1","66377b92cc73b915298b1bf5","8","null","null","false","","","","","","","null","<div style=""font-size:60px;"">+</div>","null","fixation","","","","","","","","","","","73","","",""
"revaluation","203","949447","0.0-4.0-2.0-0.37","pilot_wm_v1","66377b92cc73b915298b1bf5","8","null","null","false","","false","","","","","[554.6999999284744,404.2000000476837]","./assets/img/ocean/memory/8.jpg","[""ArrowUp"",""ArrowLeft""]","value training","ocean","26","{""ArrowUp,ArrowLeft"":26,""ArrowUp,ArrowRight"":10,""ArrowDown,ArrowLeft"":5,""ArrowDown,ArrowRight"":17}","true","ArrowUp,ArrowLeft","false","","","","","74","revaluation","1",""
"html-keyboard-response","204","949950","0.0-4.0-2.0-1.37","pilot_wm_v1","66377b92cc73b915298b1bf5","8","null","null","false","","","","","","","null","<div style=""font-size:60px;"">+</div>","null","fixation","","","","","","","","","","","75","","",""
"revaluation","205","955960","0.0-4.0-2.0-0.38","pilot_wm_v1","66377b92cc73b915298b1bf5","8","null","null","false","","false","","","","","[534.7000000476837,732.3000000715256]","./assets/img/ocean/memory/16.jpg","[""ArrowUp"",""ArrowLeft""]","value training","ocean","26","{""ArrowUp,ArrowLeft"":26,""ArrowUp,ArrowRight"":10,""ArrowDown,ArrowLeft"":5,""ArrowDown,ArrowRight"":17}","true","ArrowUp,ArrowLeft","false","","","","","76","revaluation","1",""
"html-keyboard-response","206","956463","0.0-4.0-2.0-1.38","pilot_wm_v1","66377b92cc73b915298b1bf5","8","null","null","false","","","","","","","null","<div style=""font-size:60px;"">+</div>","null","fixation","","","","","","","","","","","77","","",""
"revaluation","207","962474","0.0-4.0-2.0-0.39","pilot_wm_v1","66377b92cc73b915298b1bf5","8","null","null","false","","true","","","","","[1525.2000000476837]","./assets/img/ocean/memory/36.jpg","[""ArrowUp""]","value training","ocean","-5","{""ArrowUp,ArrowLeft"":26,""ArrowUp,ArrowRight"":10,""ArrowDown,ArrowLeft"":5,""ArrowDown,ArrowRight"":17}","false","ArrowUp","false","","","","","78","revaluation","1",""
"html-keyboard-response","208","962978","0.0-4.0-2.0-1.39","pilot_wm_v1","66377b92cc73b915298b1bf5","8","null","null","false","","","","","","","null","<div style=""font-size:60px;"">+</div>","null","fixation","","","","","","","","","","","79","","",""
"revaluation","209","966986","0.0-4.0-2.0-0.40","pilot_wm_v1","66377b92cc73b915298b1bf5","8","null","null","false","","false","","","","","[728.8999999761581]","./assets/img/ocean/catch/3.jpg","[""spaceBar""]","value training","ocean","0","{""ArrowUp,ArrowLeft"":26,""ArrowUp,ArrowRight"":10,""ArrowDown,ArrowLeft"":5,""ArrowDown,ArrowRight"":17}","true","spaceBar","true","","","","","80","revaluation","1",""
"html-keyboard-response","210","967490","0.0-4.0-2.0-1.40","pilot_wm_v1","66377b92cc73b915298b1bf5","8","null","null","false","","","","","","","null","<div style=""font-size:60px;"">+</div>","null","fixation","","","","","","","","","","","81","","",""
"revaluation","211","973501","0.0-4.0-2.0-0.41","pilot_wm_v1","66377b92cc73b915298b1bf5","8","null","null","false","","false","","","","","[581.0999999046326,431.5]","./assets/img/ocean/memory/1.jpg","[""ArrowUp"",""ArrowLeft""]","value training","ocean","26","{""ArrowUp,ArrowLeft"":26,""ArrowUp,ArrowRight"":10,""ArrowDown,ArrowLeft"":5,""ArrowDown,ArrowRight"":17}","true","ArrowUp,ArrowLeft","false","","","","","82","revaluation","1",""
"html-keyboard-response","212","974003","0.0-4.0-2.0-1.41","pilot_wm_v1","66377b92cc73b915298b1bf5","8","null","null","false","","","","","","","null","<div style=""font-size:60px;"">+</div>","null","fixation","","","","","","","","","","","83","","",""
"revaluation","213","980012","0.0-4.0-2.0-0.42","pilot_wm_v1","66377b92cc73b915298b1bf5","8","null","null","false","","false","","","","","[504.60000002384186,243.20000004768372]","./assets/img/ocean/memory/39.jpg","[""ArrowUp"",""ArrowLeft""]","value training","ocean","26","{""ArrowUp,ArrowLeft"":26,""ArrowUp,ArrowRight"":10,""ArrowDown,ArrowLeft"":5,""ArrowDown,ArrowRight"":17}","true","ArrowUp,ArrowLeft","false","","","","","84","revaluation","1",""
"html-keyboard-response","214","980515","0.0-4.0-2.0-1.42","pilot_wm_v1","66377b92cc73b915298b1bf5","8","null","null","false","","","","","","","null","<div style=""font-size:60px;"">+</div>","null","fixation","","","","","","","","","","","85","","",""
"revaluation","215","986525","0.0-4.0-2.0-0.43","pilot_wm_v1","66377b92cc73b915298b1bf5","8","null","null","false","","false","","","","","[506.10000002384186,338.1999999284744]","./assets/img/ocean/memory/5.jpg","[""ArrowUp"",""ArrowLeft""]","value training","ocean","26","{""ArrowUp,ArrowLeft"":26,""ArrowUp,ArrowRight"":10,""ArrowDown,ArrowLeft"":5,""ArrowDown,ArrowRight"":17}","true","ArrowUp,ArrowLeft","false","","","","","86","revaluation","1",""
"html-keyboard-response","216","987027","0.0-4.0-2.0-1.43","pilot_wm_v1","66377b92cc73b915298b1bf5","8","null","null","false","","","","","","","null","<div style=""font-size:60px;"">+</div>","null","fixation","","","","","","","","","","","87","","",""
"revaluation","217","993038","0.0-4.0-2.0-0.44","pilot_wm_v1","66377b92cc73b915298b1bf5","8","null","null","false","","false","","","","","[664.2999999523163,465.7000000476837]","./assets/img/ocean/memory/22.jpg","[""ArrowUp"",""ArrowLeft""]","value training","ocean","26","{""ArrowUp,ArrowLeft"":26,""ArrowUp,ArrowRight"":10,""ArrowDown,ArrowLeft"":5,""ArrowDown,ArrowRight"":17}","true","ArrowUp,ArrowLeft","false","","","","","88","revaluation","1",""
"html-keyboard-response","218","993542","0.0-4.0-2.0-1.44","pilot_wm_v1","66377b92cc73b915298b1bf5","8","null","null","false","","","","","","","null","<div style=""font-size:60px;"">+</div>","null","fixation","","","","","","","","","","","89","","",""
"revaluation","219","997550","0.0-4.0-2.0-0.45","pilot_wm_v1","66377b92cc73b915298b1bf5","8","null","null","false","","false","","","","","[701.1000000238419]","./assets/img/ocean/catch/1.jpg","[""spaceBar""]","value training","ocean","0","{""ArrowUp,ArrowLeft"":26,""ArrowUp,ArrowRight"":10,""ArrowDown,ArrowLeft"":5,""ArrowDown,ArrowRight"":17}","true","spaceBar","true","","","","","90","revaluation","1",""
"html-keyboard-response","220","998053","0.0-4.0-2.0-1.45","pilot_wm_v1","66377b92cc73b915298b1bf5","8","null","null","false","","","","","","","null","<div style=""font-size:60px;"">+</div>","null","fixation","","","","","","","","","","","91","","",""
"revaluation","221","1004065","0.0-4.0-2.0-0.46","pilot_wm_v1","66377b92cc73b915298b1bf5","8","null","null","false","","false","","","","","[676.5,488.89999997615814]","./assets/img/ocean/memory/9.jpg","[""ArrowUp"",""ArrowLeft""]","value training","ocean","26","{""ArrowUp,ArrowLeft"":26,""ArrowUp,ArrowRight"":10,""ArrowDown,ArrowLeft"":5,""ArrowDown,ArrowRight"":17}","true","ArrowUp,ArrowLeft","false","","","","","92","revaluation","1",""
"html-keyboard-response","222","1004571","0.0-4.0-2.0-1.46","pilot_wm_v1","66377b92cc73b915298b1bf5","8","null","null","false","","","","","","","null","<div style=""font-size:60px;"">+</div>","null","fixation","","","","","","","","","","","93","","",""
"revaluation","223","1010580","0.0-4.0-2.0-0.47","pilot_wm_v1","66377b92cc73b915298b1bf5","8","null","null","false","","false","","","","","[737.3000000715256,492.5]","./assets/img/ocean/memory/0.jpg","[""ArrowUp"",""ArrowLeft""]","value training","ocean","26","{""ArrowUp,ArrowLeft"":26,""ArrowUp,ArrowRight"":10,""ArrowDown,ArrowLeft"":5,""ArrowDown,ArrowRight"":17}","true","ArrowUp,ArrowLeft","false","","","","","94","revaluation","1",""
"html-keyboard-response","224","1011084","0.0-4.0-2.0-1.47","pilot_wm_v1","66377b92cc73b915298b1bf5","8","null","null","false","","","","","","","null","<div style=""font-size:60px;"">+</div>","null","fixation","","","","","","","","","","","95","","",""
"revaluation","225","1017094","0.0-4.0-2.0-0.48","pilot_wm_v1","66377b92cc73b915298b1bf5","8","null","null","false","","false","","","","","[624.5,442.3000000715256]","./assets/img/ocean/memory/9.jpg","[""ArrowUp"",""ArrowLeft""]","value training","ocean","26","{""ArrowUp,ArrowLeft"":26,""ArrowUp,ArrowRight"":10,""ArrowDown,ArrowLeft"":5,""ArrowDown,ArrowRight"":17}","true","ArrowUp,ArrowLeft","false","","","","","96","revaluation","1",""
"html-keyboard-response","226","1017597","0.0-4.0-2.0-1.48","pilot_wm_v1","66377b92cc73b915298b1bf5","8","null","null","false","","","","","","","null","<div style=""font-size:60px;"">+</div>","null","fixation","","","","","","","","","","","97","","",""
"revaluation","227","1021605","0.0-4.0-2.0-0.49","pilot_wm_v1","66377b92cc73b915298b1bf5","8","null","null","false","","false","","","","","[561.8999999761581]","./assets/img/ocean/catch/6.jpg","[""spaceBar""]","value training","ocean","0","{""ArrowUp,ArrowLeft"":26,""ArrowUp,ArrowRight"":10,""ArrowDown,ArrowLeft"":5,""ArrowDown,ArrowRight"":17}","true","spaceBar","true","","","","","98","revaluation","1",""
"html-keyboard-response","228","1022108","0.0-4.0-2.0-1.49","pilot_wm_v1","66377b92cc73b915298b1bf5","8","null","null","false","","","","","","","null","<div style=""font-size:60px;"">+</div>","null","fixation","","","","","","","","","","","99","","",""
"learning-instructions","229","1036069","0.0-4.0-3.0-0.0","pilot_wm_v1","66377b92cc73b915298b1bf5","8","null","null","false","","","","","","","1003.6999999284744","<p> Now, you will travel with a friend who will choose whether you go up or down first. </p>
            <p> On these turns, you will just see the animal that they found. You will still get to choose which chest to search for treasure.</p>","","instructions","","","","","","","","","","","","","",""
"learning-instructions","230","1050702","0.0-4.0-3.0-0.1","pilot_wm_v1","66377b92cc73b915298b1bf5","8","null","null","false","","","","","","","3025.100000023842","<p> In this part, you will also hear beeps from your friend and see special treasure chests that need a password. </p>
            <p> Do your best to count the high beeps <b>and</b> choose between each animals' chests at the same time.</p>
            <img src='./assets/img/instructions/beep_chest.jpg' class='instructions-image'>","","instructions","","","","","","","","","","","","","",""
"revaluation","231","1054708","0.0-4.0-4.0-0.0","pilot_wm_v1","66377b92cc73b915298b1bf5","8","null","null","false","","false","","","","","[1350.8000000715256]","./assets/img/ocean/animals/octopus.jpg","[""ArrowLeft""]","revaluation","ocean","2","{""ArrowUp,ArrowLeft"":2,""ArrowUp,ArrowRight"":11,""ArrowDown,ArrowLeft"":8,""ArrowDown,ArrowRight"":27}","false","ArrowUp,ArrowLeft","","5_4","","","","0","revaluation","1",""
"html-keyboard-response","232","1055212","0.0-4.0-4.0-1.0","pilot_wm_v1","66377b92cc73b915298b1bf5","8","null","null","false","","","","","","","null","<div style=""font-size:60px;"">+</div>","null","fixation","","","","","","","","","","","","","",""
"revaluation","233","1059221","0.0-4.0-4.0-0.1","pilot_wm_v1","66377b92cc73b915298b1bf5","8","null","null","false","","false","","","","","[1509.1000000238419]","./assets/img/ocean/animals/seahorse.jpg","[""ArrowRight""]","revaluation","ocean","27","{""ArrowUp,ArrowLeft"":2,""ArrowUp,ArrowRight"":11,""ArrowDown,ArrowLeft"":8,""ArrowDown,ArrowRight"":27}","true","ArrowDown,ArrowRight","","16_0","","","","1","revaluation","1",""
"html-keyboard-response","234","1059723","0.0-4.0-4.0-1.1","pilot_wm_v1","66377b92cc73b915298b1bf5","8","null","null","false","","","","","","","null","<div style=""font-size:60px;"">+</div>","null","fixation","","","","","","","","","","","","","",""
"revaluation","235","1063731","0.0-4.0-4.0-0.2","pilot_wm_v1","66377b92cc73b915298b1bf5","8","null","null","false","","false","","","","","[954.8999999761581]","./assets/img/ocean/animals/octopus.jpg","[""ArrowLeft""]","revaluation","ocean","2","{""ArrowUp,ArrowLeft"":2,""ArrowUp,ArrowRight"":11,""ArrowDown,ArrowLeft"":8,""ArrowDown,ArrowRight"":27}","false","ArrowUp,ArrowLeft","","7_4","","","","2","revaluation","1",""
"html-keyboard-response","236","1064235","0.0-4.0-4.0-1.2","pilot_wm_v1","66377b92cc73b915298b1bf5","8","null","null","false","","","","","","","null","<div style=""font-size:60px;"">+</div>","null","fixation","","","","","","","","","","","","","",""
"revaluation","237","1068248","0.0-4.0-4.0-0.3","pilot_wm_v1","66377b92cc73b915298b1bf5","8","null","null","false","","false","","","","","[652.5]","./assets/img/ocean/animals/octopus.jpg","[""ArrowLeft""]","revaluation","ocean","2","{""ArrowUp,ArrowLeft"":2,""ArrowUp,ArrowRight"":11,""ArrowDown,ArrowLeft"":8,""ArrowDown,ArrowRight"":27}","false","ArrowUp,ArrowLeft","","4_0","","","","3","revaluation","1",""
"html-keyboard-response","238","1068751","0.0-4.0-4.0-1.3","pilot_wm_v1","66377b92cc73b915298b1bf5","8","null","null","false","","","","","","","null","<div style=""font-size:60px;"">+</div>","null","fixation","","","","","","","","","","","","","",""
"html-slider-response","239","1073820","0.0-4.0-4.0-2.3-0.3","pilot_wm_v1","66377b92cc73b915298b1bf5","8","null","null","false","","","","","","","5067","<div style=""width:500px;"">
        <p>What is the password?</p>
        <img src='./assets/img/instructions/beep_chest.jpg' class='instructions-image'>","8","beep chest","","","","true","","","","50","8","0","","","",""
"revaluation","240","1077825","0.0-4.0-4.0-0.4","pilot_wm_v1","66377b92cc73b915298b1bf5","8","null","null","false","","false","","","","","[994.7999999523163]","./assets/img/ocean/animals/octopus.jpg","[""ArrowLeft""]","revaluation","ocean","2","{""ArrowUp,ArrowLeft"":2,""ArrowUp,ArrowRight"":11,""ArrowDown,ArrowLeft"":8,""ArrowDown,ArrowRight"":27}","false","ArrowUp,ArrowLeft","","8_2","","","","4","revaluation","1",""
"html-keyboard-response","241","1078328","0.0-4.0-4.0-1.4","pilot_wm_v1","66377b92cc73b915298b1bf5","8","null","null","false","","","","","","","null","<div style=""font-size:60px;"">+</div>","null","fixation","","","","","","","","","","","","","",""
"revaluation","242","1082336","0.0-4.0-4.0-0.5","pilot_wm_v1","66377b92cc73b915298b1bf5","8","null","null","false","","false","","","","","[1081.1000000238419]","./assets/img/ocean/animals/seahorse.jpg","[""ArrowRight""]","revaluation","ocean","27","{""ArrowUp,ArrowLeft"":2,""ArrowUp,ArrowRight"":11,""ArrowDown,ArrowLeft"":8,""ArrowDown,ArrowRight"":27}","true","ArrowDown,ArrowRight","","11_4","","","","5","revaluation","1",""
"html-keyboard-response","243","1082839","0.0-4.0-4.0-1.5","pilot_wm_v1","66377b92cc73b915298b1bf5","8","null","null","false","","","","","","","null","<div style=""font-size:60px;"">+</div>","null","fixation","","","","","","","","","","","","","",""
"revaluation","244","1086846","0.0-4.0-4.0-0.6","pilot_wm_v1","66377b92cc73b915298b1bf5","8","null","null","false","","false","","","","","[484.7000000476837]","./assets/img/ocean/animals/seahorse.jpg","[""ArrowRight""]","revaluation","ocean","27","{""ArrowUp,ArrowLeft"":2,""ArrowUp,ArrowRight"":11,""ArrowDown,ArrowLeft"":8,""ArrowDown,ArrowRight"":27}","true","ArrowDown,ArrowRight","","15_0","","","","6","revaluation","1",""
"html-keyboard-response","245","1087350","0.0-4.0-4.0-1.6","pilot_wm_v1","66377b92cc73b915298b1bf5","8","null","null","false","","","","","","","null","<div style=""font-size:60px;"">+</div>","null","fixation","","","","","","","","","","","","","",""
"revaluation","246","1091357","0.0-4.0-4.0-0.7","pilot_wm_v1","66377b92cc73b915298b1bf5","8","null","null","false","","false","","","","","[565.5]","./assets/img/ocean/animals/seahorse.jpg","[""ArrowRight""]","revaluation","ocean","27","{""ArrowUp,ArrowLeft"":2,""ArrowUp,ArrowRight"":11,""ArrowDown,ArrowLeft"":8,""ArrowDown,ArrowRight"":27}","true","ArrowDown,ArrowRight","","13_2","","","","7","revaluation","1",""
"html-keyboard-response","247","1091860","0.0-4.0-4.0-1.7","pilot_wm_v1","66377b92cc73b915298b1bf5","8","null","null","false","","","","","","","null","<div style=""font-size:60px;"">+</div>","null","fixation","","","","","","","","","","","","","",""
"html-slider-response","248","1094219","0.0-4.0-4.0-2.7-0.7","pilot_wm_v1","66377b92cc73b915298b1bf5","8","null","null","false","","","","","","","2356","<div style=""width:500px;"">
        <p>What is the password?</p>
        <img src='./assets/img/instructions/beep_chest.jpg' class='instructions-image'>","8","beep chest","","","","true","","","","50","8","0","","","",""
"revaluation","249","1098223","0.0-4.0-4.0-0.8","pilot_wm_v1","66377b92cc73b915298b1bf5","8","null","null","false","","true","","","","","[]","./assets/img/ocean/animals/octopus.jpg","[]","revaluation","ocean","-5","{""ArrowUp,ArrowLeft"":2,""ArrowUp,ArrowRight"":11,""ArrowDown,ArrowLeft"":8,""ArrowDown,ArrowRight"":27}","false","ArrowUp","","9_2","","","","8","revaluation","1",""
"html-keyboard-response","250","1098726","0.0-4.0-4.0-1.8","pilot_wm_v1","66377b92cc73b915298b1bf5","8","null","null","false","","","","","","","null","<div style=""font-size:60px;"">+</div>","null","fixation","","","","","","","","","","","","","",""
"revaluation","251","1102734","0.0-4.0-4.0-0.9","pilot_wm_v1","66377b92cc73b915298b1bf5","8","null","null","false","","false","","","","","[524.5]","./assets/img/ocean/animals/seahorse.jpg","[""ArrowRight""]","revaluation","ocean","27","{""ArrowUp,ArrowLeft"":2,""ArrowUp,ArrowRight"":11,""ArrowDown,ArrowLeft"":8,""ArrowDown,ArrowRight"":27}","true","ArrowDown,ArrowRight","","18_0","","","","9","revaluation","1",""
"html-keyboard-response","252","1103237","0.0-4.0-4.0-1.9","pilot_wm_v1","66377b92cc73b915298b1bf5","8","null","null","false","","","","","","","null","<div style=""font-size:60px;"">+</div>","null","fixation","","","","","","","","","","","","","",""
"revaluation","253","1107245","0.0-4.0-4.0-0.10","pilot_wm_v1","66377b92cc73b915298b1bf5","8","null","null","false","","false","","","","","[903.6000000238419]","./assets/img/ocean/animals/seahorse.jpg","[""ArrowRight""]","revaluation","ocean","27","{""ArrowUp,ArrowLeft"":2,""ArrowUp,ArrowRight"":11,""ArrowDown,ArrowLeft"":8,""ArrowDown,ArrowRight"":27}","true","ArrowDown,ArrowRight","","17_1","","","","10","revaluation","1",""
"html-keyboard-response","254","1107748","0.0-4.0-4.0-1.10","pilot_wm_v1","66377b92cc73b915298b1bf5","8","null","null","false","","","","","","","null","<div style=""font-size:60px;"">+</div>","null","fixation","","","","","","","","","","","","","",""
"revaluation","255","1111755","0.0-4.0-4.0-0.11","pilot_wm_v1","66377b92cc73b915298b1bf5","8","null","null","false","","false","","","","","[1088]","./assets/img/ocean/animals/octopus.jpg","[""ArrowLeft""]","revaluation","ocean","2","{""ArrowUp,ArrowLeft"":2,""ArrowUp,ArrowRight"":11,""ArrowDown,ArrowLeft"":8,""ArrowDown,ArrowRight"":27}","false","ArrowUp,ArrowLeft","","6_3","","","","11","revaluation","1",""
"html-keyboard-response","256","1112258","0.0-4.0-4.0-1.11","pilot_wm_v1","66377b92cc73b915298b1bf5","8","null","null","false","","","","","","","null","<div style=""font-size:60px;"">+</div>","null","fixation","","","","","","","","","","","","","",""
"html-slider-response","257","1114985","0.0-4.0-4.0-2.11-0.11","pilot_wm_v1","66377b92cc73b915298b1bf5","8","null","null","false","","","","","","","2726","<div style=""width:500px;"">
        <p>What is the password?</p>
        <img src='./assets/img/instructions/beep_chest.jpg' class='instructions-image'>","7","beep chest","","","","false","","","","50","6","1","","","",""
"revaluation","258","1118990","0.0-4.0-4.0-0.12","pilot_wm_v1","66377b92cc73b915298b1bf5","8","null","null","false","","false","","","","","[732.2999999523163]","./assets/img/ocean/animals/seahorse.jpg","[""ArrowRight""]","revaluation","ocean","27","{""ArrowUp,ArrowLeft"":2,""ArrowUp,ArrowRight"":11,""ArrowDown,ArrowLeft"":8,""ArrowDown,ArrowRight"":27}","true","ArrowDown,ArrowRight","","14_4","","","","12","revaluation","1",""
"html-keyboard-response","259","1119493","0.0-4.0-4.0-1.12","pilot_wm_v1","66377b92cc73b915298b1bf5","8","null","null","false","","","","","","","null","<div style=""font-size:60px;"">+</div>","null","fixation","","","","","","","","","","","","","",""
"revaluation","260","1123501","0.0-4.0-4.0-0.13","pilot_wm_v1","66377b92cc73b915298b1bf5","8","null","null","false","","false","","","","","[529.1000000238419]","./assets/img/ocean/animals/octopus.jpg","[""ArrowLeft""]","revaluation","ocean","2","{""ArrowUp,ArrowLeft"":2,""ArrowUp,ArrowRight"":11,""ArrowDown,ArrowLeft"":8,""ArrowDown,ArrowRight"":27}","false","ArrowUp,ArrowLeft","","3_0","","","","13","revaluation","1",""
"html-keyboard-response","261","1124006","0.0-4.0-4.0-1.13","pilot_wm_v1","66377b92cc73b915298b1bf5","8","null","null","false","","","","","","","null","<div style=""font-size:60px;"">+</div>","null","fixation","","","","","","","","","","","","","",""
"revaluation","262","1128017","0.0-4.0-4.0-0.14","pilot_wm_v1","66377b92cc73b915298b1bf5","8","null","null","false","","false","","","","","[345]","./assets/img/ocean/animals/octopus.jpg","[""ArrowLeft""]","revaluation","ocean","2","{""ArrowUp,ArrowLeft"":2,""ArrowUp,ArrowRight"":11,""ArrowDown,ArrowLeft"":8,""ArrowDown,ArrowRight"":27}","false","ArrowUp,ArrowLeft","","2_1","","","","14","revaluation","1",""
"html-keyboard-response","263","1128521","0.0-4.0-4.0-1.14","pilot_wm_v1","66377b92cc73b915298b1bf5","8","null","null","false","","","","","","","null","<div style=""font-size:60px;"">+</div>","null","fixation","","","","","","","","","","","","","",""
"revaluation","264","1132528","0.0-4.0-4.0-0.15","pilot_wm_v1","66377b92cc73b915298b1bf5","8","null","null","false","","false","","","","","[803.5999999046326]","./assets/img/ocean/animals/seahorse.jpg","[""ArrowRight""]","revaluation","ocean","27","{""ArrowUp,ArrowLeft"":2,""ArrowUp,ArrowRight"":11,""ArrowDown,ArrowLeft"":8,""ArrowDown,ArrowRight"":27}","true","ArrowDown,ArrowRight","","10_3","","","","15","revaluation","1",""
"html-keyboard-response","265","1133031","0.0-4.0-4.0-1.15","pilot_wm_v1","66377b92cc73b915298b1bf5","8","null","null","false","","","","","","","null","<div style=""font-size:60px;"">+</div>","null","fixation","","","","","","","","","","","","","",""
"html-slider-response","266","1135185","0.0-4.0-4.0-2.15-0.15","pilot_wm_v1","66377b92cc73b915298b1bf5","8","null","null","false","","","","","","","2152","<div style=""width:500px;"">
        <p>What is the password?</p>
        <img src='./assets/img/instructions/beep_chest.jpg' class='instructions-image'>","7","beep chest","","","","false","","","","50","8","1","","","",""
"revaluation","267","1139190","0.0-4.0-4.0-0.16","pilot_wm_v1","66377b92cc73b915298b1bf5","8","null","null","false","","false","","","","","[1115.0999999046326]","./assets/img/ocean/animals/seahorse.jpg","[""ArrowRight""]","revaluation","ocean","27","{""ArrowUp,ArrowLeft"":2,""ArrowUp,ArrowRight"":11,""ArrowDown,ArrowLeft"":8,""ArrowDown,ArrowRight"":27}","true","ArrowDown,ArrowRight","","12_2","","","","16","revaluation","1",""
"html-keyboard-response","268","1139694","0.0-4.0-4.0-1.16","pilot_wm_v1","66377b92cc73b915298b1bf5","8","null","null","false","","","","","","","null","<div style=""font-size:60px;"">+</div>","null","fixation","","","","","","","","","","","","","",""
"revaluation","269","1143703","0.0-4.0-4.0-0.17","pilot_wm_v1","66377b92cc73b915298b1bf5","8","null","null","false","","false","","","","","[514.8999999761581]","./assets/img/ocean/animals/octopus.jpg","[""ArrowRight""]","revaluation","ocean","11","{""ArrowUp,ArrowLeft"":2,""ArrowUp,ArrowRight"":11,""ArrowDown,ArrowLeft"":8,""ArrowDown,ArrowRight"":27}","true","ArrowUp,ArrowRight","","1_4","","","","17","revaluation","1",""
"html-keyboard-response","270","1144206","0.0-4.0-4.0-1.17","pilot_wm_v1","66377b92cc73b915298b1bf5","8","null","null","false","","","","","","","null","<div style=""font-size:60px;"">+</div>","null","fixation","","","","","","","","","","","","","",""
"learning-instructions","271","1152307","0.0-4.0-6.0-0.0","pilot_wm_v1","66377b92cc73b915298b1bf5","8","null","null","false","","","","","","","null","<p> You have almost finished this part of the game! </p>
            <p> We are going to ask you to make a few more choices. </p>","","instructions","","","","","","","","","","","","","",""
"learning-instructions","272","1168281","0.0-4.0-6.0-0.1","pilot_wm_v1","66377b92cc73b915298b1bf5","8","null","null","false","","","","","","","null","<p> First, you need to decide whether to go up or down. When you see each picture, use the arrow keys to make your choice. </p>
            <p><b>You will not see which animal you found, but try to get to the one that will give you the most treasure.</b></p>","","instructions","","","","","","","","","","","","","",""
"html-keyboard-response","273","1169284","0.0-4.0-7.0-0.0","pilot_wm_v1","66377b92cc73b915298b1bf5","8","null","null","false","","","","","","","null","<div style=""font-size:100px;color:red;"">Starting in...</div>","null","","","","","","","","","","","","","","",""
"html-keyboard-response","274","1170287","0.0-4.0-7.0-1.0","pilot_wm_v1","66377b92cc73b915298b1bf5","8","null","null","false","","","","","","","null","<div style=""font-size:200px;color:red;"">3</div>","null","","","","","","","","","","","","","","",""
"html-keyboard-response","275","1171290","0.0-4.0-7.0-2.0","pilot_wm_v1","66377b92cc73b915298b1bf5","8","null","null","false","","","","","","","null","<div style=""font-size:200px;color:red;"">2</div>","null","","","","","","","","","","","","","","",""
"html-keyboard-response","276","1172293","0.0-4.0-7.0-3.0","pilot_wm_v1","66377b92cc73b915298b1bf5","8","null","null","false","","","","","","","null","<div style=""font-size:200px;color:red;"">1</div>","null","","","","","","","","","","","","","","",""
"revaluation","277","1172812","0.0-4.0-8.0-0.0","pilot_wm_v1","66377b92cc73b915298b1bf5","8","null","null","false","","false","","","","","[514.1000000238419]","./assets/img/ocean/test/3.jpg","[""ArrowDown""]","first stage test","ocean","0","{""ArrowUp,ArrowLeft"":2,""ArrowUp,ArrowRight"":11,""ArrowDown,ArrowLeft"":8,""ArrowDown,ArrowRight"":27}","true","ArrowDown","false","","","","","","revaluation","1",""
"html-keyboard-response","278","1173313","0.0-4.0-8.0-1.0","pilot_wm_v1","66377b92cc73b915298b1bf5","8","null","null","false","","","","","","","null","<div style=""font-size:60px;"">+</div>","null","fixation","","","","","","","","","","","","","",""
"revaluation","279","1174359","0.0-4.0-8.0-0.1","pilot_wm_v1","66377b92cc73b915298b1bf5","8","null","null","false","","false","","","","","[1040.7000000476837]","./assets/img/ocean/test/1.jpg","[""ArrowDown""]","first stage test","ocean","0","{""ArrowUp,ArrowLeft"":2,""ArrowUp,ArrowRight"":11,""ArrowDown,ArrowLeft"":8,""ArrowDown,ArrowRight"":27}","true","ArrowDown","false","","","","","","revaluation","1",""
"html-keyboard-response","280","1174861","0.0-4.0-8.0-1.1","pilot_wm_v1","66377b92cc73b915298b1bf5","8","null","null","false","","","","","","","null","<div style=""font-size:60px;"">+</div>","null","fixation","","","","","","","","","","","","","",""
"revaluation","281","1175343","0.0-4.0-8.0-0.2","pilot_wm_v1","66377b92cc73b915298b1bf5","8","null","null","false","","false","","","","","[477.10000002384186]","./assets/img/ocean/test/0.jpg","[""ArrowDown""]","first stage test","ocean","0","{""ArrowUp,ArrowLeft"":2,""ArrowUp,ArrowRight"":11,""ArrowDown,ArrowLeft"":8,""ArrowDown,ArrowRight"":27}","true","ArrowDown","false","","","","","","revaluation","1",""
"html-keyboard-response","282","1175845","0.0-4.0-8.0-1.2","pilot_wm_v1","66377b92cc73b915298b1bf5","8","null","null","false","","","","","","","null","<div style=""font-size:60px;"">+</div>","null","fixation","","","","","","","","","","","","","",""
"revaluation","283","1176158","0.0-4.0-8.0-0.3","pilot_wm_v1","66377b92cc73b915298b1bf5","8","null","null","false","","false","","","","","[308.39999997615814]","./assets/img/ocean/test/2.jpg","[""ArrowUp""]","first stage test","ocean","0","{""ArrowUp,ArrowLeft"":2,""ArrowUp,ArrowRight"":11,""ArrowDown,ArrowLeft"":8,""ArrowDown,ArrowRight"":27}","false","ArrowUp","false","","","","","","revaluation","1",""
"html-keyboard-response","284","1176659","0.0-4.0-8.0-1.3","pilot_wm_v1","66377b92cc73b915298b1bf5","8","null","null","false","","","","","","","null","<div style=""font-size:60px;"">+</div>","null","fixation","","","","","","","","","","","","","",""
