"trial_type","trial_index","time_elapsed","internal_node_id","task_version","subject_id","assigned_condition","age","gender","rest","success","timeout","failed_images","failed_audio","failed_video","browser_interaction","rt","stimulus","response","task_part","environment","score","rewardMap","correct","fullState","isCatch","audioStim","slider_start","answer","error","numberMissed","duration","trial_num","condition","order","bonus"
"pavlovia","0","6392","0.0-0.0","pilot_wm_v1","null","1","null","null","true","","","","","","","","","","","","","","","","","","","","","","","","","",""
"preload","1","29993","0.0-1.0","pilot_wm_v1","null","1","null","null","true","true","false","[]","[]","[]","[{""event"":""fullscreenenter"",""trial"":2,""time"":32184}]","","","","","","","","","","","","","","","","","","","",""
"fullscreen","2","33165","0.0-2.0","pilot_wm_v1","null","1","null","null","true","true","","","","","","","","","","","","","","","","","","","","","","","","",""
"audio-button-response","3","39672","0.0-3.0-0.0-0.0","pilot_wm_v1","null","1","null","null","true","","","","","","","6310","./assets/audio/audiotest/turtle.mp3","4","audio_test","","","","","","","","","","","","","","","",""
"audio-button-response","4","43110","0.0-3.0-0.1-0.1","pilot_wm_v1","null","1","null","null","true","","","","","","","2432","./assets/audio/audiotest/turtle.mp3","2","audio_test","","","","","","","","","","","","","","","",""
"learning-instructions","5","53585","0.0-3.0-1.0-0.0","pilot_wm_v1","null","1","null","null","true","","","","","","","3488.5","<p> Welcome! Please remember to stay in fullscreen mode and don't click away from the experiment. </p>","","instructions","","","","","","","","","","","","","","","",""
"learning-instructions","6","63593","0.0-3.0-1.0-0.1","pilot_wm_v1","null","1","null","null","true","","","","","","","1579.199999988079","<p> Today you will be playing a game to earn treasure. </p>
            <p> At the end of the experiment, you will earn a bonus based on how much treasure you find. </p>
            <img src='./assets/img/instructions/treasure.jpg' class='instructions-image'>","","instructions","","","","","","","","","","","","","","","",""
"learning-instructions","7","72722","0.0-3.0-1.0-0.2","pilot_wm_v1","null","1","null","null","true","","","","","","","845.5","<p> Animals have hidden treasure in treasure chests. </p>
            <p> You need to first find an animal and then choose which of their treasure chests to search. </p>
            <img src='./assets/img/space/animals/cat.jpg' class='instructions-image'>","","instructions","","","","","","","","","","","","","","","",""
"learning-instructions","8","86618","0.0-3.0-1.0-0.3","pilot_wm_v1","null","1","null","null","true","","","","","","","711","<p> In each round, you will search for treasure in a different place. In the real game, there will be two rounds. </p>
            <p> You will begin with a separate, practice round where you will search for treasure in outer space. </p>
            <img src='./assets/img/space/0.jpg' class='instructions-image'>","","instructions","","","","","","","","","","","","","","","",""
"learning-instructions","9","99191","0.0-3.0-1.0-0.4","pilot_wm_v1","null","1","null","null","true","","","","","","","1127.7999999821186","<p> On every turn, you will see a picture of the place that you are in, but the specific image may be different each time. </p>
            <p> For example, both of these images mean you are in outer space. </p>
            <img src='./assets/img/instructions/outerspace.jpg' class='instructions-image'>","","instructions","","","","","","","","","","","","","","","",""
"learning-instructions","10","108251","0.0-3.0-1.0-0.5","pilot_wm_v1","null","1","null","null","true","","","","","","","1207.7000000178814","<p> You need to decide which direction to travel in. </p>
            <p> You can choose between going <b>up or down</b> by using the arrow keys. </p>
            <img src='./assets/img/instructions/updown.jpg' class='instructions-image'>","","instructions","","","","","","","","","","","","","","","",""
"learning-instructions","11","117822","0.0-3.0-1.0-0.6","pilot_wm_v1","null","1","null","null","true","","","","","","","736","<p> You will have <b>2 seconds</b> to make your choice. </p>
            <p> If you do not make a choice within 2 seconds, you will not find an animal or earn treasure. </p>
            <img src='./assets/img/instructions/2seconds.jpg' class='instructions-image'>","","instructions","","","","","","","","","","","","","","","",""
"learning-instructions","12","125527","0.0-3.0-1.0-0.7","pilot_wm_v1","null","1","null","null","true","","","","","","","645","<p> Let’s try practicing that now! </p>
            <p> When you see a picture of the place you are in, press the <b>up</b> key to travel up. </p>
            <img src='./assets/img/instructions/pressUp.jpg' class='instructions-image'>","","instructions","","","","","","","","","","","","","","","",""
"revaluation","13","129545","0.0-3.0-2.0-0.0","pilot_wm_v1","null","1","null","null","true","","false","","","","","[912.3000000119209]","./assets/img/space/0.jpg","[""ArrowUp""]","first stage practice","space","0","null","null","ArrowUp","false","","","","","","","","","",""
"html-keyboard-response","14","130048","0.0-3.0-2.0-1.0","pilot_wm_v1","null","1","null","null","true","","","","","","","null","<div style=""font-size:60px;"">+</div>","null","fixation","","","","","","","","","","","","","","","",""
"revaluation","15","134054","0.0-3.0-2.0-0.1","pilot_wm_v1","null","1","null","null","true","","false","","","","","[1068.2000000178814]","./assets/img/space/1.jpg","[""ArrowUp""]","first stage practice","space","0","null","null","ArrowUp","false","","","","","","","","","",""
"html-keyboard-response","16","134556","0.0-3.0-2.0-1.1","pilot_wm_v1","null","1","null","null","true","","","","","","","null","<div style=""font-size:60px;"">+</div>","null","fixation","","","","","","","","","","","","","","","",""
"revaluation","17","138564","0.0-3.0-2.0-0.2","pilot_wm_v1","null","1","null","null","true","","false","","","","","[202.7999999821186]","./assets/img/space/2.jpg","[""ArrowUp""]","first stage practice","space","0","null","null","ArrowUp","false","","","","","","","","","",""
"html-keyboard-response","18","139065","0.0-3.0-2.0-1.2","pilot_wm_v1","null","1","null","null","true","","","","","","","null","<div style=""font-size:60px;"">+</div>","null","fixation","","","","","","","","","","","","","","","",""
"learning-instructions","19","144146","0.0-3.0-3.0-0.0","pilot_wm_v1","null","1","null","null","true","","","","","","","368.80000001192093","<p> Great job! Now try pressing the <b>down</b> key to travel down. </p>
            <img src='./assets/img/instructions/pressDown.jpg' class='instructions-image'>","","instructions","","","","","","","","","","","","","","","",""
"revaluation","20","148151","0.0-3.0-4.0-0.0","pilot_wm_v1","null","1","null","null","true","","false","","","","","[743.7999999821186]","./assets/img/space/3.jpg","[""ArrowDown""]","first stage practice","space","0","null","null","ArrowDown","false","","","","","","","","","",""
"html-keyboard-response","21","148653","0.0-3.0-4.0-1.0","pilot_wm_v1","null","1","null","null","true","","","","","","","null","<div style=""font-size:60px;"">+</div>","null","fixation","","","","","","","","","","","","","","","",""
"revaluation","22","152659","0.0-3.0-4.0-0.1","pilot_wm_v1","null","1","null","null","true","","false","","","","","[493.59999999403954]","./assets/img/space/4.jpg","[""ArrowDown""]","first stage practice","space","0","null","null","ArrowDown","false","","","","","","","","","",""
"html-keyboard-response","23","153161","0.0-3.0-4.0-1.1","pilot_wm_v1","null","1","null","null","true","","","","","","","null","<div style=""font-size:60px;"">+</div>","null","fixation","","","","","","","","","","","","","","","",""
"revaluation","24","157168","0.0-3.0-4.0-0.2","pilot_wm_v1","null","1","null","null","true","","false","","","","","[43.19999998807907]","./assets/img/space/5.jpg","[""ArrowDown""]","first stage practice","space","0","null","null","ArrowDown","false","","","","","","","","","",""
"html-keyboard-response","25","157670","0.0-3.0-4.0-1.2","pilot_wm_v1","null","1","null","null","true","","","","","","","null","<div style=""font-size:60px;"">+</div>","null","fixation","","","","","","","","","","","","","","","",""
"learning-instructions","26","168176","0.0-3.0-5.0-0.0","pilot_wm_v1","null","1","null","null","true","","","","","","","633.1999999880791","<p> The animals don’t move, so the animal in the upper part of a place will stay in the upper part of a place, and the animal in the lower part of a place will stay in the lower part of a place. </p>","","instructions","","","","","","","","","","","","","","","",""
"learning-instructions","27","177948","0.0-3.0-5.0-0.1","pilot_wm_v1","null","1","null","null","true","","","","","","","617.7000000178814","<p> Each animal has two treasure chests for you to choose from. </p>
            <p> The amount of treasure in each chest can range from <b> 0 to 40 pieces.</b></p>","","instructions","","","","","","","","","","","","","","","",""
"learning-instructions","28","190171","0.0-3.0-5.0-0.2","pilot_wm_v1","null","1","null","null","true","","","","","","","1009.6999999880791","<p> You should decide which chest to search for treasure by using the <b>left</b> and <b>right</b> arrow keys. </p>
            <p><b> Pay attention to which animal is on the screen, as the animals have different treasure chests. </b></p>
            <img src='./assets/img/instructions/leftright.jpg' class='instructions-image'>","","instructions","","","","","","","","","","","","","","","",""
"learning-instructions","29","197463","0.0-3.0-5.0-0.3","pilot_wm_v1","null","1","null","null","true","","","","","","","906.3000000119209","<p> Let’s try practicing that now. </p>
            <p> When you see an animal, choose which chest to search for treasure. </p>
            <img src='./assets/img/instructions/chooseChest.jpg' class='instructions-image'>","","instructions","","","","","","","","","","","","","","","",""
"revaluation","30","201467","0.0-3.0-6.0-0.0","pilot_wm_v1","null","1","null","null","true","","false","","","","","[742.5]","./assets/img/space/animals/cat.jpg","[""ArrowLeft""]","second stage practice","space","3","{""ArrowUp,ArrowLeft"":3,""ArrowUp,ArrowRight"":36,""ArrowDown,ArrowLeft"":15,""ArrowDown,ArrowRight"":23}","false","ArrowUp,ArrowLeft","","","","","","","","","","",""
"html-keyboard-response","31","201969","0.0-3.0-6.0-1.0","pilot_wm_v1","null","1","null","null","true","","","","","","","null","<div style=""font-size:60px;"">+</div>","null","fixation","","","","","","","","","","","","","","","",""
"revaluation","32","205976","0.0-3.0-6.0-0.1","pilot_wm_v1","null","1","null","null","true","","false","","","","","[709.0999999940395]","./assets/img/space/animals/rabbit.jpg","[""ArrowRight""]","second stage practice","space","23","{""ArrowUp,ArrowLeft"":3,""ArrowUp,ArrowRight"":36,""ArrowDown,ArrowLeft"":15,""ArrowDown,ArrowRight"":23}","true","ArrowDown,ArrowRight","","","","","","","","","","",""
"html-keyboard-response","33","206478","0.0-3.0-6.0-1.1","pilot_wm_v1","null","1","null","null","true","","","","","","","null","<div style=""font-size:60px;"">+</div>","null","fixation","","","","","","","","","","","","","","","",""
"revaluation","34","210482","0.0-3.0-6.0-0.2","pilot_wm_v1","null","1","null","null","true","","false","","","","","[402.59999999403954]","./assets/img/space/animals/cat.jpg","[""ArrowRight""]","second stage practice","space","36","{""ArrowUp,ArrowLeft"":3,""ArrowUp,ArrowRight"":36,""ArrowDown,ArrowLeft"":15,""ArrowDown,ArrowRight"":23}","true","ArrowUp,ArrowRight","","","","","","","","","","",""
"html-keyboard-response","35","210985","0.0-3.0-6.0-1.2","pilot_wm_v1","null","1","null","null","true","","","","","","","null","<div style=""font-size:60px;"">+</div>","null","fixation","","","","","","","","","","","","","","","",""
"revaluation","36","214992","0.0-3.0-6.0-0.3","pilot_wm_v1","null","1","null","null","true","","false","","","","","[428.40000000596046]","./assets/img/space/animals/rabbit.jpg","[""ArrowLeft""]","second stage practice","space","15","{""ArrowUp,ArrowLeft"":3,""ArrowUp,ArrowRight"":36,""ArrowDown,ArrowLeft"":15,""ArrowDown,ArrowRight"":23}","false","ArrowDown,ArrowLeft","","","","","","","","","","",""
"html-keyboard-response","37","215495","0.0-3.0-6.0-1.3","pilot_wm_v1","null","1","null","null","true","","","","","","","null","<div style=""font-size:60px;"">+</div>","null","fixation","","","","","","","","","","","","","","","",""
"learning-instructions","38","233856","0.0-3.0-7.0-0.0","pilot_wm_v1","null","1","null","null","true","","","","","","","1517.7000000178814","<p> Great job. Now let’s try putting it together. </p>
            <p> On each turn, you will first see a picture to remind you of the place you are in, and you need to choose whether to go up or down. </p>
            <p> Then you will see an animal and choose which of its chests to search for treasure. </p>","","instructions","","","","","","","","","","","","","","","",""
"learning-instructions","39","243288","0.0-3.0-7.0-0.1","pilot_wm_v1","null","1","null","null","true","","","","","","","1149.9000000059605","<p> When you choose whether to go up or down, try to go to the animal with the chest with the most treasure. </p>
            <p> Try practicing that now! </p>","","instructions","","","","","","","","","","","","","","","",""
"revaluation","40","249294","0.0-3.0-8.0-0.0","pilot_wm_v1","null","1","null","null","true","","false","","","","","[883.5999999940395,322]","./assets/img/space/6.jpg","[""ArrowUp"",""ArrowRight""]","full practice","space","36","{""ArrowUp,ArrowLeft"":3,""ArrowUp,ArrowRight"":36,""ArrowDown,ArrowLeft"":15,""ArrowDown,ArrowRight"":23}","true","ArrowUp,ArrowRight","false","","","","","","","","","",""
"html-keyboard-response","41","249796","0.0-3.0-8.0-1.0","pilot_wm_v1","null","1","null","null","true","","","","","","","null","<div style=""font-size:60px;"">+</div>","null","fixation","","","","","","","","","","","","","","","",""
"revaluation","42","255804","0.0-3.0-8.0-0.1","pilot_wm_v1","null","1","null","null","true","","false","","","","","[423.7000000178814,429.19999998807907]","./assets/img/space/7.jpg","[""ArrowDown"",""ArrowRight""]","full practice","space","23","{""ArrowUp,ArrowLeft"":3,""ArrowUp,ArrowRight"":36,""ArrowDown,ArrowLeft"":15,""ArrowDown,ArrowRight"":23}","false","ArrowDown,ArrowRight","false","","","","","","","","","",""
"html-keyboard-response","43","256306","0.0-3.0-8.0-1.1","pilot_wm_v1","null","1","null","null","true","","","","","","","null","<div style=""font-size:60px;"">+</div>","null","fixation","","","","","","","","","","","","","","","",""
"revaluation","44","262314","0.0-3.0-8.0-0.2","pilot_wm_v1","null","1","null","null","true","","false","","","","","[666.4000000059605,108.19999998807907]","./assets/img/space/8.jpg","[""ArrowUp"",""ArrowRight""]","full practice","space","36","{""ArrowUp,ArrowLeft"":3,""ArrowUp,ArrowRight"":36,""ArrowDown,ArrowLeft"":15,""ArrowDown,ArrowRight"":23}","true","ArrowUp,ArrowRight","false","","","","","","","","","",""
"html-keyboard-response","45","262817","0.0-3.0-8.0-1.2","pilot_wm_v1","null","1","null","null","true","","","","","","","null","<div style=""font-size:60px;"">+</div>","null","fixation","","","","","","","","","","","","","","","",""
"revaluation","46","268823","0.0-3.0-8.0-0.3","pilot_wm_v1","null","1","null","null","true","","false","","","","","[208.90000000596046,120.90000000596046]","./assets/img/space/9.jpg","[""ArrowUp"",""ArrowRight""]","full practice","space","36","{""ArrowUp,ArrowLeft"":3,""ArrowUp,ArrowRight"":36,""ArrowDown,ArrowLeft"":15,""ArrowDown,ArrowRight"":23}","true","ArrowUp,ArrowRight","false","","","","","","","","","",""
"html-keyboard-response","47","269326","0.0-3.0-8.0-1.3","pilot_wm_v1","null","1","null","null","true","","","","","","","null","<div style=""font-size:60px;"">+</div>","null","fixation","","","","","","","","","","","","","","","",""
"revaluation","48","275332","0.0-3.0-8.0-0.4","pilot_wm_v1","null","1","null","null","true","","false","","","","","[155.39999997615814,75.2999999821186]","./assets/img/space/10.jpg","[""ArrowUp"",""ArrowRight""]","full practice","space","36","{""ArrowUp,ArrowLeft"":3,""ArrowUp,ArrowRight"":36,""ArrowDown,ArrowLeft"":15,""ArrowDown,ArrowRight"":23}","true","ArrowUp,ArrowRight","false","","","","","","","","","",""
"html-keyboard-response","49","275835","0.0-3.0-8.0-1.4","pilot_wm_v1","null","1","null","null","true","","","","","","","null","<div style=""font-size:60px;"">+</div>","null","fixation","","","","","","","","","","","","","","","",""
"learning-instructions","50","286918","0.0-3.0-9.0-0.0","pilot_wm_v1","null","1","null","null","true","","","","","","","747","<p> One last thing: sometimes, you will see a robber. The robber can be anywhere in the picture. </p>
            <p> If you do not stop them, you will lose treasure. </p>
            <img src='./assets/img/instructions/robber.jpg' class='instructions-image'>","","instructions","","","","","","","","","","","","","","","",""
"learning-instructions","51","295365","0.0-3.0-9.0-0.1","pilot_wm_v1","null","1","null","null","true","","","","","","","1264.4000000059605","<p> If you see the robber, you should <b>press the space bar</b> rather than using the arrow keys. </p>
            <p> Try practicing that now! </p>","","instructions","","","","","","","","","","","","","","","",""
"revaluation","52","299370","0.0-3.0-10.0-0.0","pilot_wm_v1","null","1","null","null","true","","false","","","","","[1415.2999999821186]","./assets/img/space/catch/0.jpg","[""spaceBar""]","catch practice","space","0","{""ArrowUp,ArrowLeft"":3,""ArrowUp,ArrowRight"":36,""ArrowDown,ArrowLeft"":15,""ArrowDown,ArrowRight"":23}","true","spaceBar","true","","","","","","","","","",""
"html-keyboard-response","53","299873","0.0-3.0-10.0-1.0","pilot_wm_v1","null","1","null","null","true","","","","","","","null","<div style=""font-size:60px;"">+</div>","null","fixation","","","","","","","","","","","","","","","",""
"revaluation","54","303879","0.0-3.0-10.0-0.1","pilot_wm_v1","null","1","null","null","true","","false","","","","","[713.4000000059605]","./assets/img/space/catch/1.jpg","[""spaceBar""]","catch practice","space","0","{""ArrowUp,ArrowLeft"":3,""ArrowUp,ArrowRight"":36,""ArrowDown,ArrowLeft"":15,""ArrowDown,ArrowRight"":23}","true","spaceBar","true","","","","","","","","","",""
"html-keyboard-response","55","304381","0.0-3.0-10.0-1.1","pilot_wm_v1","null","1","null","null","true","","","","","","","null","<div style=""font-size:60px;"">+</div>","null","fixation","","","","","","","","","","","","","","","",""
"revaluation","56","308386","0.0-3.0-10.0-0.2","pilot_wm_v1","null","1","null","null","true","","false","","","","","[1580.4000000059605]","./assets/img/space/catch/2.jpg","[""spaceBar""]","catch practice","space","0","{""ArrowUp,ArrowLeft"":3,""ArrowUp,ArrowRight"":36,""ArrowDown,ArrowLeft"":15,""ArrowDown,ArrowRight"":23}","true","spaceBar","true","","","","","","","","","",""
"html-keyboard-response","57","308889","0.0-3.0-10.0-1.2","pilot_wm_v1","null","1","null","null","true","","","","","","","null","<div style=""font-size:60px;"">+</div>","null","fixation","","","","","","","","","","","","","","","",""
"learning-instructions","58","316139","0.0-3.0-11.0-0.0","pilot_wm_v1","null","1","null","null","true","","","","","","","1720.5999999940395","<p> Sometimes, you will come across a special kind of treasure chest that requires a password. </p>
            <img src='./assets/img/instructions/beep_chest.jpg' class='instructions-image'>","","instructions","","","","","","","","","","","","","","","",""
"learning-instructions","59","338923","0.0-3.0-11.0-0.1","pilot_wm_v1","null","1","null","null","true","","","","","","","1133.7999999821186","<p> Your friend will send you the password using a series of beeps so that you can open the chest and earn treasure. </p>
            <p> You will hear two kinds of beeps, a high beep and a low beep. </p>
            <p> You should report the number of high beeps that you heard before seeing the chest. </p>
            <img src='./assets/img/instructions/listen.jpg' class='instructions-image'>","","instructions","","","","","","","","","","","","","","","",""
"learning-instructions","60","362717","0.0-3.0-11.0-0.2","pilot_wm_v1","null","1","null","null","true","","","","","","","1463.7000000178814","<p> For example, if you hear this series of beeps, you should report 4 as the password using the slider. </p>
            <p> After reporting a password for a chest, you should count the high beeps again starting from 0. </p>
            <p> Let's try practicing that now. </p>","","instructions","","","","","","","","","","","","","","","",""
"audio-button-response","61","370767","0.0-3.0-12.0-0.0-0.0","pilot_wm_v1","null","1","null","null","true","","","","","","","null","./assets/audio/beeps/practice_6.wav","null","","","","","","","","","","","","","","","","",""
"html-slider-response","62","375466","0.0-3.0-12.0-0.0-1.0","pilot_wm_v1","null","1","null","null","true","","","","","","","4694","<div style=""width:500px;"">
        <p>What is the password?</p>
        <img src='./assets/img/instructions/beep_chest.jpg' class='instructions-image'>","6","","","","","false","","","","50","0","6","","","","","",""
"comp-q","63","381552","0.0-3.0-12.0-0.0-2.0","pilot_wm_v1","null","1","null","null","true","","","","","","","1865.699999988079","<p>Correct! There were 6 high pitched beeps before you saw the chest. </p>","0","beep_answer","","","","","","","","","","","","","","","",""
"audio-button-response","64","389587","0.0-3.0-12.0-0.1-0.1","pilot_wm_v1","null","1","null","null","true","","","","","","","null","./assets/audio/beeps/practice_4.wav","null","","","","","","","","","","","","","","","","",""
"html-slider-response","65","392279","0.0-3.0-12.0-0.1-1.1","pilot_wm_v1","null","1","null","null","true","","","","","","","2690","<div style=""width:500px;"">
        <p>What is the password?</p>
        <img src='./assets/img/instructions/beep_chest.jpg' class='instructions-image'>","4","","","","","false","","","","50","0","4","","","","","",""
"comp-q","66","398352","0.0-3.0-12.0-0.1-2.1","pilot_wm_v1","null","1","null","null","true","","","","","","","1874","<p>Correct! There were 4 high pitched beeps before you saw the chest. </p>","0","beep_answer","","","","","","","","","","","","","","","",""
"learning-instructions","67","409655","0.0-3.0-13.0-0.0","pilot_wm_v1","null","1","null","null","true","","","","","","","968.7999999821186","<p> Good job! In the real game we will not tell you if you entered the right password. </p>
            <p> Do your best, the treasure you earn from these chests will also give you extra bonus money. </p>","","instructions","","","","","","","","","","","","","","","",""
"learning-instructions","68","425563","0.0-3.0-14.0-0.0-0.0","pilot_wm_v1","null","1","null","null","true","","","","","","","2282.899999976158","<p> After you explore a place to find treasure, it will be time to play a different game. </p>
            <p> During this game, red dots will appear on the screen and fall down slowly. </p>
            <p><b> You must click on them before they reach the bottom. </b></p>
            <img src='./assets/img/instructions/dotGame.jpg' class='instructions-image'>","","instructions","","","","","","","","","","","","","","","",""
"learning-instructions","69","432495","0.0-3.0-14.0-0.0-0.1","pilot_wm_v1","null","1","null","null","true","","","","","","","1240","<p> For every dot you click, you will earn additional treasure. </p>
            <p> Let’s try practicing that now. </p>","","instructions","","","","","","","","","","","","","","","",""
"revaluation","70","447503","0.0-3.0-14.0-1.0-0.0","pilot_wm_v1","null","1","null","null","true","","","","","","","[85]","","","rest practice","","10","","","","","","","","","0","15000","","","",""
"learning-instructions","71","453909","0.0-3.0-15.0-0.0-0.0","pilot_wm_v1","null","1","null","null","true","","","","","","","1157.7999999821186","<p> Now, you will practice a shortened version of the game to get a sense of how it all fits together. </p>","","instructions","","","","","","","","","","","","","","","",""
"learning-instructions","72","458380","0.0-3.0-15.0-0.0-0.1","pilot_wm_v1","null","1","null","null","true","","","","","","","1269.5","<p>This time you are searching for treasure in outer space.</p>","","instructions","","","","","","","","","","","","","","","",""
"learning-instructions","73","474215","0.0-3.0-15.0-1.0-0.0","pilot_wm_v1","null","1","null","null","true","","","","","","","1029.800000011921","<p> Remember, when you see a picture of the place, use the up and down keys to <b>find an animal</b>.</p>
            <p> When you encounter an animal, you should use the left and right keys to <b>select a treasure chest</b>.</p>
            <p> Don't forget to look out for the robber! </p>","","instructions","","","","","","","","","","","","","","","",""
"revaluation","74","480222","0.0-3.0-15.0-2.0-0.0","pilot_wm_v1","null","1","null","null","true","","false","","","","","[1333.0999999940395,634.9000000059605]","./assets/img/space/11.jpg","[""ArrowUp"",""ArrowRight""]","practice block","space","36","{""ArrowUp,ArrowLeft"":3,""ArrowUp,ArrowRight"":36,""ArrowDown,ArrowLeft"":15,""ArrowDown,ArrowRight"":23}","true","ArrowUp,ArrowRight","false","","","","","","","","","",""
"html-keyboard-response","75","480725","0.0-3.0-15.0-2.0-1.0","pilot_wm_v1","null","1","null","null","true","","","","","","","null","<div style=""font-size:60px;"">+</div>","null","fixation","","","","","","","","","","","","","","","",""
"revaluation","76","486732","0.0-3.0-15.0-2.0-0.1","pilot_wm_v1","null","1","null","null","true","","false","","","","","[614.4000000059605,301.5]","./assets/img/space/12.jpg","[""ArrowUp"",""ArrowRight""]","practice block","space","36","{""ArrowUp,ArrowLeft"":3,""ArrowUp,ArrowRight"":36,""ArrowDown,ArrowLeft"":15,""ArrowDown,ArrowRight"":23}","true","ArrowUp,ArrowRight","false","","","","","","","","","",""
"html-keyboard-response","77","487235","0.0-3.0-15.0-2.0-1.1","pilot_wm_v1","null","1","null","null","true","","","","","","","null","<div style=""font-size:60px;"">+</div>","null","fixation","","","","","","","","","","","","","","","",""
"revaluation","78","493241","0.0-3.0-15.0-2.0-0.2","pilot_wm_v1","null","1","null","null","true","","false","","","","","[585.5,162.2999999821186]","./assets/img/space/13.jpg","[""ArrowUp"",""ArrowRight""]","practice block","space","36","{""ArrowUp,ArrowLeft"":3,""ArrowUp,ArrowRight"":36,""ArrowDown,ArrowLeft"":15,""ArrowDown,ArrowRight"":23}","true","ArrowUp,ArrowRight","false","","","","","","","","","",""
"html-keyboard-response","79","493741","0.0-3.0-15.0-2.0-1.2","pilot_wm_v1","null","1","null","null","true","","","","","","","null","<div style=""font-size:60px;"">+</div>","null","fixation","","","","","","","","","","","","","","","",""
"revaluation","80","499746","0.0-3.0-15.0-2.0-0.3","pilot_wm_v1","null","1","null","null","true","","false","","","","","[630.0999999940395,244.80000001192093]","./assets/img/space/14.jpg","[""ArrowUp"",""ArrowRight""]","practice block","space","36","{""ArrowUp,ArrowLeft"":3,""ArrowUp,ArrowRight"":36,""ArrowDown,ArrowLeft"":15,""ArrowDown,ArrowRight"":23}","true","ArrowUp,ArrowRight","false","","","","","","","","","",""
"html-keyboard-response","81","500248","0.0-3.0-15.0-2.0-1.3","pilot_wm_v1","null","1","null","null","true","","","","","","","null","<div style=""font-size:60px;"">+</div>","null","fixation","","","","","","","","","","","","","","","",""
"revaluation","82","506255","0.0-3.0-15.0-2.0-0.4","pilot_wm_v1","null","1","null","null","true","","false","","","","","[787.5,308]","./assets/img/space/11.jpg","[""ArrowUp"",""ArrowRight""]","practice block","space","36","{""ArrowUp,ArrowLeft"":3,""ArrowUp,ArrowRight"":36,""ArrowDown,ArrowLeft"":15,""ArrowDown,ArrowRight"":23}","true","ArrowUp,ArrowRight","false","","","","","","","","","",""
"html-keyboard-response","83","506756","0.0-3.0-15.0-2.0-1.4","pilot_wm_v1","null","1","null","null","true","","","","","","","null","<div style=""font-size:60px;"">+</div>","null","fixation","","","","","","","","","","","","","","","",""
"revaluation","84","512764","0.0-3.0-15.0-2.0-0.5","pilot_wm_v1","null","1","null","null","true","","false","","","","","[743.6999999880791,266.39999997615814]","./assets/img/space/12.jpg","[""ArrowUp"",""ArrowRight""]","practice block","space","36","{""ArrowUp,ArrowLeft"":3,""ArrowUp,ArrowRight"":36,""ArrowDown,ArrowLeft"":15,""ArrowDown,ArrowRight"":23}","true","ArrowUp,ArrowRight","false","","","","","","","","","",""
"html-keyboard-response","85","513267","0.0-3.0-15.0-2.0-1.5","pilot_wm_v1","null","1","null","null","true","","","","","","","null","<div style=""font-size:60px;"">+</div>","null","fixation","","","","","","","","","","","","","","","",""
"revaluation","86","519275","0.0-3.0-15.0-2.0-0.6","pilot_wm_v1","null","1","null","null","true","","false","","","","","[645.7999999821186,314.40000000596046]","./assets/img/space/13.jpg","[""ArrowUp"",""ArrowRight""]","practice block","space","36","{""ArrowUp,ArrowLeft"":3,""ArrowUp,ArrowRight"":36,""ArrowDown,ArrowLeft"":15,""ArrowDown,ArrowRight"":23}","true","ArrowUp,ArrowRight","false","","","","","","","","","",""
"html-keyboard-response","87","519777","0.0-3.0-15.0-2.0-1.6","pilot_wm_v1","null","1","null","null","true","","","","","","","null","<div style=""font-size:60px;"">+</div>","null","fixation","","","","","","","","","","","","","","","",""
"revaluation","88","525784","0.0-3.0-15.0-2.0-0.7","pilot_wm_v1","null","1","null","null","true","","false","","","","","[570.9000000059605,263.19999998807907]","./assets/img/space/14.jpg","[""ArrowUp"",""ArrowRight""]","practice block","space","36","{""ArrowUp,ArrowLeft"":3,""ArrowUp,ArrowRight"":36,""ArrowDown,ArrowLeft"":15,""ArrowDown,ArrowRight"":23}","true","ArrowUp,ArrowRight","false","","","","","","","","","",""
"html-keyboard-response","89","526285","0.0-3.0-15.0-2.0-1.7","pilot_wm_v1","null","1","null","null","true","","","","","","","null","<div style=""font-size:60px;"">+</div>","null","fixation","","","","","","","","","","","","","","","",""
"revaluation","90","530290","0.0-3.0-15.0-2.0-0.8","pilot_wm_v1","null","1","null","null","true","","false","","","","","[531.2000000178814]","./assets/img/space/catch/3.jpg","[""ArrowUp""]","practice block","space","-10","{""ArrowUp,ArrowLeft"":3,""ArrowUp,ArrowRight"":36,""ArrowDown,ArrowLeft"":15,""ArrowDown,ArrowRight"":23}","false","ArrowUp","true","","","","","","","","","",""
"html-keyboard-response","91","530793","0.0-3.0-15.0-2.0-1.8","pilot_wm_v1","null","1","null","null","true","","","","","","","null","<div style=""font-size:60px;"">+</div>","null","fixation","","","","","","","","","","","","","","","",""
"learning-instructions","92","545101","0.0-3.0-15.0-3.0-0.0","pilot_wm_v1","null","1","null","null","true","","","","","","","1212.300000011921","<p> Now, you will travel with a friend who will choose whether you go up or down first. </p>
            <p> On these turns, you will just see the animal that they found. You will still get to choose which chest to search for treasure.</p>","","instructions","","","","","","","","","","","","","","","",""
"learning-instructions","93","557485","0.0-3.0-15.0-3.0-0.1","pilot_wm_v1","null","1","null","null","true","","","","","","","569","<p> In this part, you will also hear beeps from your friend and see special treasure chests that need a password. </p>
            <p> Do your best to count the high beeps <b>and</b> choose between each animals' chests at the same time.</p>
            <img src='./assets/img/instructions/beep_chest.jpg' class='instructions-image'>","","instructions","","","","","","","","","","","","","","","",""
"revaluation","94","561492","0.0-3.0-15.0-4.0-0.0","pilot_wm_v1","null","1","null","null","true","","false","","","","","[833.8999999761581]","./assets/img/space/animals/cat.jpg","[""ArrowRight""]","practice block","space","36","{""ArrowUp,ArrowLeft"":3,""ArrowUp,ArrowRight"":36,""ArrowDown,ArrowLeft"":15,""ArrowDown,ArrowRight"":23}","true","ArrowUp,ArrowRight","","[""19_0""]","","","","","","0","","",""
"html-keyboard-response","95","561997","0.0-3.0-15.0-4.0-1.0","pilot_wm_v1","null","1","null","null","true","","","","","","","null","<div style=""font-size:60px;"">+</div>","null","fixation","","","","","","","","","","","","","","","",""
"revaluation","96","566001","0.0-3.0-15.0-4.0-0.1","pilot_wm_v1","null","1","null","null","true","","false","","","","","[876.6999999880791]","./assets/img/space/animals/rabbit.jpg","[""ArrowRight""]","practice block","space","23","{""ArrowUp,ArrowLeft"":3,""ArrowUp,ArrowRight"":36,""ArrowDown,ArrowLeft"":15,""ArrowDown,ArrowRight"":23}","true","ArrowDown,ArrowRight","","[""22_3""]","","","","","","1","","",""
"html-keyboard-response","97","566504","0.0-3.0-15.0-4.0-1.1","pilot_wm_v1","null","1","null","null","true","","","","","","","null","<div style=""font-size:60px;"">+</div>","null","fixation","","","","","","","","","","","","","","","",""
"revaluation","98","570510","0.0-3.0-15.0-4.0-0.2","pilot_wm_v1","null","1","null","null","true","","false","","","","","[657.5999999940395]","./assets/img/space/animals/cat.jpg","[""ArrowRight""]","practice block","space","36","{""ArrowUp,ArrowLeft"":3,""ArrowUp,ArrowRight"":36,""ArrowDown,ArrowLeft"":15,""ArrowDown,ArrowRight"":23}","true","ArrowUp,ArrowRight","","[""20_0""]","","","","","","2","","",""
"html-keyboard-response","99","571012","0.0-3.0-15.0-4.0-1.2","pilot_wm_v1","null","1","null","null","true","","","","","","","null","<div style=""font-size:60px;"">+</div>","null","fixation","","","","","","","","","","","","","","","",""
"revaluation","100","575018","0.0-3.0-15.0-4.0-0.3","pilot_wm_v1","null","1","null","null","true","","false","","","","","[589.9000000059605]","./assets/img/space/animals/rabbit.jpg","[""ArrowRight""]","practice block","space","23","{""ArrowUp,ArrowLeft"":3,""ArrowUp,ArrowRight"":36,""ArrowDown,ArrowLeft"":15,""ArrowDown,ArrowRight"":23}","true","ArrowDown,ArrowRight","","[""21_1""]","","","","","","3","","",""
"html-keyboard-response","101","575520","0.0-3.0-15.0-4.0-1.3","pilot_wm_v1","null","1","null","null","true","","","","","","","null","<div style=""font-size:60px;"">+</div>","null","fixation","","","","","","","","","","","","","","","",""
"html-slider-response","102","578879","0.0-3.0-15.0-4.0-2.3-0.3","pilot_wm_v1","null","1","null","null","true","","","","","","","3357","<div style=""width:500px;"">
        <p>What is the password?</p>
        <img src='./assets/img/instructions/beep_chest.jpg' class='instructions-image'>","4","","","","","false","","","","50","82","78","","","","","",""
"learning-instructions","103","587400","0.0-3.0-15.0-5.0-0.0-0.0","pilot_wm_v1","null","1","null","null","true","","","","","","","1128.699999988079","<p> Time to play the dot game! </p>
            <p> For 15 seconds, click the red dots on the following screen as they appear. </p>","","instructions","","","","","","","","","","","","","","","",""
"revaluation","104","602403","0.0-3.0-15.0-5.0-1.0-0.0","pilot_wm_v1","null","1","null","null","true","","","","","","","[128]","","","rest practice","","10","","","","","","","","","0","15000","","","",""
"learning-instructions","105","610547","0.0-3.0-15.0-6.0-0.0","pilot_wm_v1","null","1","null","null","true","","","","","","","null","<p> You have almost finished this part of the game! </p>
            <p> We are going to ask you to make a few more choices. </p>","","instructions","","","","","","","","","","","","","","","",""
"learning-instructions","106","626586","0.0-3.0-15.0-6.0-0.1","pilot_wm_v1","null","1","null","null","true","","","","","","","null","<p> First, you need to decide whether to go up or down. When you see each picture, use the arrow keys to make your choice. </p>
            <p><b>You will not see which animal you found, but try to get to the one that will give you the most treasure.</b></p>","","instructions","","","","","","","","","","","","","","","",""
"html-keyboard-response","107","627588","0.0-3.0-15.0-7.0-0.0","pilot_wm_v1","null","1","null","null","true","","","","","","","null","<div style=""font-size:100px;color:red;"">Starting in...</div>","null","","","","","","","","","","","","","","","","",""
"html-keyboard-response","108","628590","0.0-3.0-15.0-7.0-1.0","pilot_wm_v1","null","1","null","null","true","","","","","","","null","<div style=""font-size:200px;color:red;"">3</div>","null","","","","","","","","","","","","","","","","",""
"html-keyboard-response","109","629591","0.0-3.0-15.0-7.0-2.0","pilot_wm_v1","null","1","null","null","true","","","","","","","null","<div style=""font-size:200px;color:red;"">2</div>","null","","","","","","","","","","","","","","","","",""
"html-keyboard-response","110","630592","0.0-3.0-15.0-7.0-3.0","pilot_wm_v1","null","1","null","null","true","","","","","","","null","<div style=""font-size:200px;color:red;"">1</div>","null","","","","","","","","","","","","","","","","",""
"revaluation","111","630916","0.0-3.0-15.0-8.0","pilot_wm_v1","null","1","null","null","true","","false","","","","","[321.69999998807907]","./assets/img/space/15.jpg","[""ArrowUp""]","practice block","space","0","{""ArrowUp,ArrowLeft"":3,""ArrowUp,ArrowRight"":36,""ArrowDown,ArrowLeft"":15,""ArrowDown,ArrowRight"":23}","true","ArrowUp","false","","","","","","","","","",""
"html-keyboard-response","112","631417","0.0-3.0-15.0-9.0","pilot_wm_v1","null","1","null","null","true","","","","","","","null","<div style=""font-size:60px;"">+</div>","null","fixation","","","","","","","","","","","","","","","",""
"learning-instructions","113","644813","0.0-3.0-15.0-10.0-0.0","pilot_wm_v1","null","1","null","null","true","","","","","","","null","<p> Now you will see the animals again and can search their chests for treasure. </p>
            <p> This time, you will not see how much treasure you earned, but you will earn more bonus money for making better choices. </p>","","instructions","","","","","","","","","","","","","","","",""
"html-keyboard-response","114","645816","0.0-3.0-15.0-11.0-0.0","pilot_wm_v1","null","1","null","null","true","","","","","","","null","<div style=""font-size:100px;color:red;"">Starting in...</div>","null","","","","","","","","","","","","","","","","",""
"html-keyboard-response","115","646817","0.0-3.0-15.0-11.0-1.0","pilot_wm_v1","null","1","null","null","true","","","","","","","null","<div style=""font-size:200px;color:red;"">3</div>","null","","","","","","","","","","","","","","","","",""
"html-keyboard-response","116","647819","0.0-3.0-15.0-11.0-2.0","pilot_wm_v1","null","1","null","null","true","","","","","","","null","<div style=""font-size:200px;color:red;"">2</div>","null","","","","","","","","","","","","","","","","",""
"html-keyboard-response","117","648822","0.0-3.0-15.0-11.0-3.0","pilot_wm_v1","null","1","null","null","true","","","","","","","null","<div style=""font-size:200px;color:red;"">1</div>","null","","","","","","","","","","","","","","","","",""
"revaluation","118","649502","0.0-3.0-15.0-12.0-0.0","pilot_wm_v1","null","1","null","null","true","","false","","","","","[677.8000000119209]","./assets/img/space/animals/cat.jpg","[""ArrowRight""]","practice block","space","0","{""ArrowUp,ArrowLeft"":3,""ArrowUp,ArrowRight"":36,""ArrowDown,ArrowLeft"":15,""ArrowDown,ArrowRight"":23}","true","ArrowUp,ArrowRight","","","","","","","","","","",""
"html-keyboard-response","119","650003","0.0-3.0-15.0-12.0-1.0","pilot_wm_v1","null","1","null","null","true","","","","","","","null","<div style=""font-size:60px;"">+</div>","null","fixation","","","","","","","","","","","","","","","",""
"revaluation","120","650530","0.0-3.0-15.0-12.0-0.1","pilot_wm_v1","null","1","null","null","true","","false","","","","","[524.7999999821186]","./assets/img/space/animals/rabbit.jpg","[""ArrowRight""]","practice block","space","0","{""ArrowUp,ArrowLeft"":3,""ArrowUp,ArrowRight"":36,""ArrowDown,ArrowLeft"":15,""ArrowDown,ArrowRight"":23}","true","ArrowDown,ArrowRight","","","","","","","","","","",""
"html-keyboard-response","121","651032","0.0-3.0-15.0-12.0-1.1","pilot_wm_v1","null","1","null","null","true","","","","","","","null","<div style=""font-size:60px;"">+</div>","null","fixation","","","","","","","","","","","","","","","",""
"learning-instructions","122","657620","0.0-3.0-16.0-0.0","pilot_wm_v1","null","1","null","null","true","","","","","","","1995.7000000178814","<p> Before you start, we're going to ask you a few questions about how the game works. </p>","","instructions","","","","","","","","","","","","","","","",""
"comp-q","123","665122","0.0-3.0-17.0-0.0-0.0","pilot_wm_v1","null","1","null","null","true","","","","","","","1904.9000000059605","<p> <b> True or False? </b> </p>
            <p> There can be 50 pieces of treasure in a given animal's chest. </p>","1","comp_question","","","","true","","","","","","","","","","","",""
"comp-q","124","672902","0.0-3.0-17.0-0.0-1.0","pilot_wm_v1","null","1","null","null","true","","","","","","","1098.9000000059605","<p> <b> That's right! </b> The amount of treasure in each chest can range from 0 to 40 pieces. </p>","0","comp_answer","","","","","","","","","","","","","","","",""
"comp-q","125","681174","0.0-3.0-17.0-0.1-0.1","pilot_wm_v1","null","1","null","null","true","","","","","","","1134","<p> <b> True or False? </b> </p><p> In this game, all animals have the same amount of treasure in their left and right chests. </p>","1","comp_question","","","","true","","","","","","","","","","","",""
"comp-q","126","688587","0.0-3.0-17.0-0.1-1.1","pilot_wm_v1","null","1","null","null","true","","","","","","","2161.300000011921","<p> <b> That's right! </b> Animals have different amounts of treasure in their treasure chests. </p>","0","comp_answer","","","","","","","","","","","","","","","",""
"comp-q","127","700037","0.0-3.0-17.0-0.2-0.2","pilot_wm_v1","null","1","null","null","true","","","","","","","1811.5","<p> <b> True or False? </b> </p><p> The same animal will always be there if you go up in the same place. </p>","0","comp_question","","","","true","","","","","","","","","","","",""
"comp-q","128","707815","0.0-3.0-17.0-0.2-1.2","pilot_wm_v1","null","1","null","null","true","","","","","","","1316.2999999821186","<p> <b> That's right! </b> One animal lives in the upper part and one lives in the lower part of every place. </p>","0","comp_answer","","","","","","","","","","","","","","","",""
"comp-q","129","714010","0.0-3.0-17.0-0.3-0.3","pilot_wm_v1","null","1","null","null","true","","","","","","","654.6999999880791","<p> <b> True or False? </b> </p><p> If you see a different picture, it means you are in a new place. </p>","1","comp_question","","","","true","","","","","","","","","","","",""
"comp-q","130","727305","0.0-3.0-17.0-0.3-1.3","pilot_wm_v1","null","1","null","null","true","","","","","","","2044","<p> <b> That's right! </b> Lots of different images may show the same place. For example,  you may see three different images that all remind you that you are in outer space. </p>","0","comp_answer","","","","","","","","","","","","","","","",""
"learning-instructions","131","738116","0.0-3.0-18.0-0.0","pilot_wm_v1","null","1","null","null","true","","","","","","","938","<p> Good job. Remember to do your best because the amount of treasure you earn will be converted into bonus money. </p>
            <p> It’s time to start the real game! </p>","","instructions","","","","","","","","","","","","","","","",""
"learning-instructions","132","744394","0.0-4.0-0.0-0.0","pilot_wm_v1","null","1","null","null","true","","","","","","","3558.0999999940395","<p> This time you are searching for treasure in the <b>ocean</b>.</p>","","instructions","","","","","","","","","","","","","","","",""
"learning-instructions","133","763354","0.0-4.0-0.0-0.1","pilot_wm_v1","null","1","null","null","true","","","","","","","1614","<p><b>New</b> animals with <b>new</b> treasure chests live here. You need to explore to discover where the animal with the best treasure chest is.</p>
                    <p> Like before, once you figure out which animal has the chest with the most treasure, you should try to get to that animal and select that chest! </p>","","instructions","","","","","","","","","","","","","","","",""
"learning-instructions","134","778733","0.0-4.0-1.0-0.0","pilot_wm_v1","null","1","null","null","true","","","","","","","645.5","<p> Remember, when you see a picture of the place, use the up and down keys to <b>find an animal</b>.</p>
            <p> When you encounter an animal, you should use the left and right keys to <b>select a treasure chest</b>.</p>
            <p> Don't forget to look out for the robber! </p>","","instructions","","","","","","","","","","","","","","","",""
"revaluation","135","784739","0.0-4.0-2.0-0.0","pilot_wm_v1","null","1","null","null","true","","false","","","","","[1135.699999988079,464.80000001192093]","./assets/img/ocean/memory/20.jpg","[""ArrowUp"",""ArrowRight""]","value training","ocean","10","{""ArrowUp,ArrowLeft"":26,""ArrowUp,ArrowRight"":10,""ArrowDown,ArrowLeft"":5,""ArrowDown,ArrowRight"":17}","false","ArrowUp,ArrowRight","false","","","","","","","0","original","1",""
"html-keyboard-response","136","785244","0.0-4.0-2.0-1.0","pilot_wm_v1","null","1","null","null","true","","","","","","","null","<div style=""font-size:60px;"">+</div>","null","fixation","","","","","","","","","","","","","1","","",""
"revaluation","137","791250","0.0-4.0-2.0-0.1","pilot_wm_v1","null","1","null","null","true","","false","","","","","[270.30000001192093,254.59999999403954]","./assets/img/ocean/memory/13.jpg","[""ArrowUp"",""ArrowLeft""]","value training","ocean","26","{""ArrowUp,ArrowLeft"":26,""ArrowUp,ArrowRight"":10,""ArrowDown,ArrowLeft"":5,""ArrowDown,ArrowRight"":17}","true","ArrowUp,ArrowLeft","false","","","","","","","2","original","1",""
"html-keyboard-response","138","791752","0.0-4.0-2.0-1.1","pilot_wm_v1","null","1","null","null","true","","","","","","","null","<div style=""font-size:60px;"">+</div>","null","fixation","","","","","","","","","","","","","3","","",""
"revaluation","139","797760","0.0-4.0-2.0-0.2","pilot_wm_v1","null","1","null","null","true","","false","","","","","[341.80000001192093,346.60000002384186]","./assets/img/ocean/memory/35.jpg","[""ArrowDown"",""ArrowRight""]","value training","ocean","17","{""ArrowUp,ArrowLeft"":26,""ArrowUp,ArrowRight"":10,""ArrowDown,ArrowLeft"":5,""ArrowDown,ArrowRight"":17}","false","ArrowDown,ArrowRight","false","","","","","","","4","original","1",""
"html-keyboard-response","140","798262","0.0-4.0-2.0-1.2","pilot_wm_v1","null","1","null","null","true","","","","","","","null","<div style=""font-size:60px;"">+</div>","null","fixation","","","","","","","","","","","","","5","","",""
"revaluation","141","804268","0.0-4.0-2.0-0.3","pilot_wm_v1","null","1","null","null","true","","false","","","","","[319.90000000596046,351.09999999403954]","./assets/img/ocean/memory/15.jpg","[""ArrowDown"",""ArrowLeft""]","value training","ocean","5","{""ArrowUp,ArrowLeft"":26,""ArrowUp,ArrowRight"":10,""ArrowDown,ArrowLeft"":5,""ArrowDown,ArrowRight"":17}","false","ArrowDown,ArrowLeft","false","","","","","","","6","original","1",""
"html-keyboard-response","142","804771","0.0-4.0-2.0-1.3","pilot_wm_v1","null","1","null","null","true","","","","","","","null","<div style=""font-size:60px;"">+</div>","null","fixation","","","","","","","","","","","","","7","","",""
"revaluation","143","810776","0.0-4.0-2.0-0.4","pilot_wm_v1","null","1","null","null","true","","false","","","","","[375.90000000596046,161.19999998807907]","./assets/img/ocean/memory/22.jpg","[""ArrowUp"",""ArrowLeft""]","value training","ocean","26","{""ArrowUp,ArrowLeft"":26,""ArrowUp,ArrowRight"":10,""ArrowDown,ArrowLeft"":5,""ArrowDown,ArrowRight"":17}","true","ArrowUp,ArrowLeft","false","","","","","","","8","original","1",""
"html-keyboard-response","144","811277","0.0-4.0-2.0-1.4","pilot_wm_v1","null","1","null","null","true","","","","","","","null","<div style=""font-size:60px;"">+</div>","null","fixation","","","","","","","","","","","","","9","","",""
"revaluation","145","817284","0.0-4.0-2.0-0.5","pilot_wm_v1","null","1","null","null","true","","false","","","","","[326.5,280]","./assets/img/ocean/memory/16.jpg","[""ArrowUp"",""ArrowLeft""]","value training","ocean","26","{""ArrowUp,ArrowLeft"":26,""ArrowUp,ArrowRight"":10,""ArrowDown,ArrowLeft"":5,""ArrowDown,ArrowRight"":17}","true","ArrowUp,ArrowLeft","false","","","","","","","10","original","1",""
"html-keyboard-response","146","817786","0.0-4.0-2.0-1.5","pilot_wm_v1","null","1","null","null","true","","","","","","","null","<div style=""font-size:60px;"">+</div>","null","fixation","","","","","","","","","","","","","11","","",""
"revaluation","147","823793","0.0-4.0-2.0-0.6","pilot_wm_v1","null","1","null","null","true","","false","","","","","[552.5,442.09999999403954]","./assets/img/ocean/memory/2.jpg","[""ArrowUp"",""ArrowLeft""]","value training","ocean","26","{""ArrowUp,ArrowLeft"":26,""ArrowUp,ArrowRight"":10,""ArrowDown,ArrowLeft"":5,""ArrowDown,ArrowRight"":17}","true","ArrowUp,ArrowLeft","false","","","","","","","12","original","1",""
"html-keyboard-response","148","824296","0.0-4.0-2.0-1.6","pilot_wm_v1","null","1","null","null","true","","","","","","","null","<div style=""font-size:60px;"">+</div>","null","fixation","","","","","","","","","","","","","13","","",""
"revaluation","149","830302","0.0-4.0-2.0-0.7","pilot_wm_v1","null","1","null","null","true","","false","","","","","[571.7000000178814,236.09999999403954]","./assets/img/ocean/memory/15.jpg","[""ArrowUp"",""ArrowLeft""]","value training","ocean","26","{""ArrowUp,ArrowLeft"":26,""ArrowUp,ArrowRight"":10,""ArrowDown,ArrowLeft"":5,""ArrowDown,ArrowRight"":17}","true","ArrowUp,ArrowLeft","false","","","","","","","14","original","1",""
"html-keyboard-response","150","830805","0.0-4.0-2.0-1.7","pilot_wm_v1","null","1","null","null","true","","","","","","","null","<div style=""font-size:60px;"">+</div>","null","fixation","","","","","","","","","","","","","15","","",""
"revaluation","151","836813","0.0-4.0-2.0-0.8","pilot_wm_v1","null","1","null","null","true","","false","","","","","[520.6999999880791,176.7000000178814]","./assets/img/ocean/memory/25.jpg","[""ArrowUp"",""ArrowLeft""]","value training","ocean","26","{""ArrowUp,ArrowLeft"":26,""ArrowUp,ArrowRight"":10,""ArrowDown,ArrowLeft"":5,""ArrowDown,ArrowRight"":17}","true","ArrowUp,ArrowLeft","false","","","","","","","16","original","1",""
"html-keyboard-response","152","837316","0.0-4.0-2.0-1.8","pilot_wm_v1","null","1","null","null","true","","","","","","","null","<div style=""font-size:60px;"">+</div>","null","fixation","","","","","","","","","","","","","17","","",""
"revaluation","153","843325","0.0-4.0-2.0-0.9","pilot_wm_v1","null","1","null","null","true","","false","","","","","[462.2999999821186,325.40000000596046]","./assets/img/ocean/memory/17.jpg","[""ArrowUp"",""ArrowLeft""]","value training","ocean","26","{""ArrowUp,ArrowLeft"":26,""ArrowUp,ArrowRight"":10,""ArrowDown,ArrowLeft"":5,""ArrowDown,ArrowRight"":17}","true","ArrowUp,ArrowLeft","false","","","","","","","18","original","1",""
"html-keyboard-response","154","843828","0.0-4.0-2.0-1.9","pilot_wm_v1","null","1","null","null","true","","","","","","","null","<div style=""font-size:60px;"">+</div>","null","fixation","","","","","","","","","","","","","19","","",""
"revaluation","155","849837","0.0-4.0-2.0-0.10","pilot_wm_v1","null","1","null","null","true","","false","","","","","[408.5,290.30000001192093]","./assets/img/ocean/memory/19.jpg","[""ArrowUp"",""ArrowLeft""]","value training","ocean","26","{""ArrowUp,ArrowLeft"":26,""ArrowUp,ArrowRight"":10,""ArrowDown,ArrowLeft"":5,""ArrowDown,ArrowRight"":17}","true","ArrowUp,ArrowLeft","false","","","","","","","20","original","1",""
"html-keyboard-response","156","850339","0.0-4.0-2.0-1.10","pilot_wm_v1","null","1","null","null","true","","","","","","","null","<div style=""font-size:60px;"">+</div>","null","fixation","","","","","","","","","","","","","21","","",""
"revaluation","157","856346","0.0-4.0-2.0-0.11","pilot_wm_v1","null","1","null","null","true","","false","","","","","[594,567.5]","./assets/img/ocean/memory/41.jpg","[""ArrowUp"",""ArrowLeft""]","value training","ocean","26","{""ArrowUp,ArrowLeft"":26,""ArrowUp,ArrowRight"":10,""ArrowDown,ArrowLeft"":5,""ArrowDown,ArrowRight"":17}","true","ArrowUp,ArrowLeft","false","","","","","","","22","original","1",""
"html-keyboard-response","158","856847","0.0-4.0-2.0-1.11","pilot_wm_v1","null","1","null","null","true","","","","","","","null","<div style=""font-size:60px;"">+</div>","null","fixation","","","","","","","","","","","","","23","","",""
"revaluation","159","862852","0.0-4.0-2.0-0.12","pilot_wm_v1","null","1","null","null","true","","false","","","","","[409.69999998807907,477.60000002384186]","./assets/img/ocean/memory/6.jpg","[""ArrowUp"",""ArrowLeft""]","value training","ocean","26","{""ArrowUp,ArrowLeft"":26,""ArrowUp,ArrowRight"":10,""ArrowDown,ArrowLeft"":5,""ArrowDown,ArrowRight"":17}","true","ArrowUp,ArrowLeft","false","","","","","","","24","original","1",""
"html-keyboard-response","160","863355","0.0-4.0-2.0-1.12","pilot_wm_v1","null","1","null","null","true","","","","","","","null","<div style=""font-size:60px;"">+</div>","null","fixation","","","","","","","","","","","","","25","","",""
"revaluation","161","869362","0.0-4.0-2.0-0.13","pilot_wm_v1","null","1","null","null","true","","false","","","","","[468.40000000596046,451.30000001192093]","./assets/img/ocean/memory/23.jpg","[""ArrowUp"",""ArrowLeft""]","value training","ocean","26","{""ArrowUp,ArrowLeft"":26,""ArrowUp,ArrowRight"":10,""ArrowDown,ArrowLeft"":5,""ArrowDown,ArrowRight"":17}","true","ArrowUp,ArrowLeft","false","","","","","","","26","original","1",""
"html-keyboard-response","162","869865","0.0-4.0-2.0-1.13","pilot_wm_v1","null","1","null","null","true","","","","","","","null","<div style=""font-size:60px;"">+</div>","null","fixation","","","","","","","","","","","","","27","","",""
"revaluation","163","873871","0.0-4.0-2.0-0.14","pilot_wm_v1","null","1","null","null","true","","false","","","","","[1269.5]","./assets/img/ocean/catch/0.jpg","[""spaceBar""]","value training","ocean","0","{""ArrowUp,ArrowLeft"":26,""ArrowUp,ArrowRight"":10,""ArrowDown,ArrowLeft"":5,""ArrowDown,ArrowRight"":17}","true","spaceBar","true","","","","","","","28","original","1",""
"html-keyboard-response","164","874372","0.0-4.0-2.0-1.14","pilot_wm_v1","null","1","null","null","true","","","","","","","null","<div style=""font-size:60px;"">+</div>","null","fixation","","","","","","","","","","","","","29","","",""
"revaluation","165","878378","0.0-4.0-2.0-0.15","pilot_wm_v1","null","1","null","null","true","","false","","","","","[1185.7999999821186]","./assets/img/ocean/catch/4.jpg","[""spaceBar""]","value training","ocean","0","{""ArrowUp,ArrowLeft"":26,""ArrowUp,ArrowRight"":10,""ArrowDown,ArrowLeft"":5,""ArrowDown,ArrowRight"":17}","true","spaceBar","true","","","","","","","30","original","1",""
"html-keyboard-response","166","878880","0.0-4.0-2.0-1.15","pilot_wm_v1","null","1","null","null","true","","","","","","","null","<div style=""font-size:60px;"">+</div>","null","fixation","","","","","","","","","","","","","31","","",""
"revaluation","167","884888","0.0-4.0-2.0-0.16","pilot_wm_v1","null","1","null","null","true","","false","","","","","[602.0999999940395,21.19999998807907]","./assets/img/ocean/memory/3.jpg","[""ArrowUp"",""ArrowLeft""]","value training","ocean","26","{""ArrowUp,ArrowLeft"":26,""ArrowUp,ArrowRight"":10,""ArrowDown,ArrowLeft"":5,""ArrowDown,ArrowRight"":17}","true","ArrowUp,ArrowLeft","false","","","","","","","32","original","1",""
"html-keyboard-response","168","885391","0.0-4.0-2.0-1.16","pilot_wm_v1","null","1","null","null","true","","","","","","","null","<div style=""font-size:60px;"">+</div>","null","fixation","","","","","","","","","","","","","33","","",""
"revaluation","169","891399","0.0-4.0-2.0-0.17","pilot_wm_v1","null","1","null","null","true","","false","","","","","[546.2999999821186,248.10000002384186]","./assets/img/ocean/memory/17.jpg","[""ArrowUp"",""ArrowLeft""]","value training","ocean","26","{""ArrowUp,ArrowLeft"":26,""ArrowUp,ArrowRight"":10,""ArrowDown,ArrowLeft"":5,""ArrowDown,ArrowRight"":17}","true","ArrowUp,ArrowLeft","false","","","","","","","34","original","1",""
"html-keyboard-response","170","891901","0.0-4.0-2.0-1.17","pilot_wm_v1","null","1","null","null","true","","","","","","","null","<div style=""font-size:60px;"">+</div>","null","fixation","","","","","","","","","","","","","35","","",""
"revaluation","171","895907","0.0-4.0-2.0-0.18","pilot_wm_v1","null","1","null","null","true","","false","","","","","[1166.3999999761581]","./assets/img/ocean/catch/1.jpg","[""spaceBar""]","value training","ocean","0","{""ArrowUp,ArrowLeft"":26,""ArrowUp,ArrowRight"":10,""ArrowDown,ArrowLeft"":5,""ArrowDown,ArrowRight"":17}","true","spaceBar","true","","","","","","","36","original","1",""
"html-keyboard-response","172","896408","0.0-4.0-2.0-1.18","pilot_wm_v1","null","1","null","null","true","","","","","","","null","<div style=""font-size:60px;"">+</div>","null","fixation","","","","","","","","","","","","","37","","",""
"revaluation","173","902416","0.0-4.0-2.0-0.19","pilot_wm_v1","null","1","null","null","true","","false","","","","","[635.3000000119209,533.3000000119209]","./assets/img/ocean/memory/2.jpg","[""ArrowUp"",""ArrowLeft""]","value training","ocean","26","{""ArrowUp,ArrowLeft"":26,""ArrowUp,ArrowRight"":10,""ArrowDown,ArrowLeft"":5,""ArrowDown,ArrowRight"":17}","true","ArrowUp,ArrowLeft","false","","","","","","","38","original","1",""
"html-keyboard-response","174","902918","0.0-4.0-2.0-1.19","pilot_wm_v1","null","1","null","null","true","","","","","","","null","<div style=""font-size:60px;"">+</div>","null","fixation","","","","","","","","","","","","","39","","",""
"revaluation","175","908925","0.0-4.0-2.0-0.20","pilot_wm_v1","null","1","null","null","true","","false","","","","","[1339.2000000178814,565.5]","./assets/img/ocean/memory/23.jpg","[""ArrowUp"",""ArrowLeft""]","value training","ocean","26","{""ArrowUp,ArrowLeft"":26,""ArrowUp,ArrowRight"":10,""ArrowDown,ArrowLeft"":5,""ArrowDown,ArrowRight"":17}","true","ArrowUp,ArrowLeft","false","","","","","","","40","original","1",""
"html-keyboard-response","176","909428","0.0-4.0-2.0-1.20","pilot_wm_v1","null","1","null","null","true","","","","","","","null","<div style=""font-size:60px;"">+</div>","null","fixation","","","","","","","","","","","","","41","","",""
"revaluation","177","915437","0.0-4.0-2.0-0.21","pilot_wm_v1","null","1","null","null","true","","false","","","","","[607.2000000178814,435.59999999403954]","./assets/img/ocean/memory/25.jpg","[""ArrowUp"",""ArrowLeft""]","value training","ocean","26","{""ArrowUp,ArrowLeft"":26,""ArrowUp,ArrowRight"":10,""ArrowDown,ArrowLeft"":5,""ArrowDown,ArrowRight"":17}","true","ArrowUp,ArrowLeft","false","","","","","","","42","original","1",""
"html-keyboard-response","178","915940","0.0-4.0-2.0-1.21","pilot_wm_v1","null","1","null","null","true","","","","","","","null","<div style=""font-size:60px;"">+</div>","null","fixation","","","","","","","","","","","","","43","","",""
"revaluation","179","921947","0.0-4.0-2.0-0.22","pilot_wm_v1","null","1","null","null","true","","false","","","","","[521.9000000059605,358.59999999403954]","./assets/img/ocean/memory/5.jpg","[""ArrowUp"",""ArrowLeft""]","value training","ocean","26","{""ArrowUp,ArrowLeft"":26,""ArrowUp,ArrowRight"":10,""ArrowDown,ArrowLeft"":5,""ArrowDown,ArrowRight"":17}","true","ArrowUp,ArrowLeft","false","","","","","","","44","original","1",""
"html-keyboard-response","180","922450","0.0-4.0-2.0-1.22","pilot_wm_v1","null","1","null","null","true","","","","","","","null","<div style=""font-size:60px;"">+</div>","null","fixation","","","","","","","","","","","","","45","","",""
"revaluation","181","928456","0.0-4.0-2.0-0.23","pilot_wm_v1","null","1","null","null","true","","false","","","","","[759.6999999880791,739.6999999880791]","./assets/img/ocean/memory/1.jpg","[""ArrowUp"",""ArrowLeft""]","value training","ocean","26","{""ArrowUp,ArrowLeft"":26,""ArrowUp,ArrowRight"":10,""ArrowDown,ArrowLeft"":5,""ArrowDown,ArrowRight"":17}","true","ArrowUp,ArrowLeft","false","","","","","","","46","original","1",""
"html-keyboard-response","182","928958","0.0-4.0-2.0-1.23","pilot_wm_v1","null","1","null","null","true","","","","","","","null","<div style=""font-size:60px;"">+</div>","null","fixation","","","","","","","","","","","","","47","","",""
"revaluation","183","934967","0.0-4.0-2.0-0.24","pilot_wm_v1","null","1","null","null","true","","false","","","","","[506.5,1771]","./assets/img/ocean/memory/12.jpg","[""ArrowUp"",""ArrowLeft""]","value training","ocean","26","{""ArrowUp,ArrowLeft"":26,""ArrowUp,ArrowRight"":10,""ArrowDown,ArrowLeft"":5,""ArrowDown,ArrowRight"":17}","true","ArrowUp,ArrowLeft","false","","","","","","","48","original","1",""
"html-keyboard-response","184","935469","0.0-4.0-2.0-1.24","pilot_wm_v1","null","1","null","null","true","","","","","","","null","<div style=""font-size:60px;"">+</div>","null","fixation","","","","","","","","","","","","","49","","",""
"revaluation","185","939475","0.0-4.0-2.0-0.25","pilot_wm_v1","null","1","null","null","true","","false","","","","","[637.6000000238419]","./assets/img/ocean/catch/3.jpg","[""ArrowUp""]","value training","ocean","-10","{""ArrowUp,ArrowLeft"":26,""ArrowUp,ArrowRight"":10,""ArrowDown,ArrowLeft"":5,""ArrowDown,ArrowRight"":17}","false","ArrowUp","true","","","","","","","50","original","1",""
"html-keyboard-response","186","939977","0.0-4.0-2.0-1.25","pilot_wm_v1","null","1","null","null","true","","","","","","","null","<div style=""font-size:60px;"">+</div>","null","fixation","","","","","","","","","","","","","51","","",""
"revaluation","187","943983","0.0-4.0-2.0-0.26","pilot_wm_v1","null","1","null","null","true","","true","","","","","[]","./assets/img/ocean/memory/16.jpg","[]","value training","ocean","-5","{""ArrowUp,ArrowLeft"":26,""ArrowUp,ArrowRight"":10,""ArrowDown,ArrowLeft"":5,""ArrowDown,ArrowRight"":17}","false","","false","","","","","","","52","original","1",""
"html-keyboard-response","188","944485","0.0-4.0-2.0-1.26","pilot_wm_v1","null","1","null","null","true","","","","","","","null","<div style=""font-size:60px;"">+</div>","null","fixation","","","","","","","","","","","","","53","","",""
"revaluation","189","950493","0.0-4.0-2.0-0.27","pilot_wm_v1","null","1","null","null","true","","false","","","","","[522.8000000119209,142.40000000596046]","./assets/img/ocean/memory/20.jpg","[""ArrowUp"",""ArrowLeft""]","value training","ocean","26","{""ArrowUp,ArrowLeft"":26,""ArrowUp,ArrowRight"":10,""ArrowDown,ArrowLeft"":5,""ArrowDown,ArrowRight"":17}","true","ArrowUp,ArrowLeft","false","","","","","","","54","original","1",""
"html-keyboard-response","190","950995","0.0-4.0-2.0-1.27","pilot_wm_v1","null","1","null","null","true","","","","","","","null","<div style=""font-size:60px;"">+</div>","null","fixation","","","","","","","","","","","","","55","","",""
"revaluation","191","957003","0.0-4.0-2.0-0.28","pilot_wm_v1","null","1","null","null","true","","false","","","","","[576.6999999880791,1]","./assets/img/ocean/memory/7.jpg","[""ArrowUp"",""ArrowLeft""]","value training","ocean","26","{""ArrowUp,ArrowLeft"":26,""ArrowUp,ArrowRight"":10,""ArrowDown,ArrowLeft"":5,""ArrowDown,ArrowRight"":17}","true","ArrowUp,ArrowLeft","false","","","","","","","56","original","1",""
"html-keyboard-response","192","957505","0.0-4.0-2.0-1.28","pilot_wm_v1","null","1","null","null","true","","","","","","","null","<div style=""font-size:60px;"">+</div>","null","fixation","","","","","","","","","","","","","57","","",""
"revaluation","193","963512","0.0-4.0-2.0-0.29","pilot_wm_v1","null","1","null","null","true","","false","","","","","[456,849.5]","./assets/img/ocean/memory/41.jpg","[""ArrowUp"",""ArrowLeft""]","value training","ocean","26","{""ArrowUp,ArrowLeft"":26,""ArrowUp,ArrowRight"":10,""ArrowDown,ArrowLeft"":5,""ArrowDown,ArrowRight"":17}","true","ArrowUp,ArrowLeft","false","","","","","","","58","original","1",""
"html-keyboard-response","194","964015","0.0-4.0-2.0-1.29","pilot_wm_v1","null","1","null","null","true","","","","","","","null","<div style=""font-size:60px;"">+</div>","null","fixation","","","","","","","","","","","","","59","","",""
"revaluation","195","970022","0.0-4.0-2.0-0.30","pilot_wm_v1","null","1","null","null","true","","false","","","","","[546.2000000178814,1333.5]","./assets/img/ocean/memory/0.jpg","[""ArrowUp"",""ArrowLeft""]","value training","ocean","26","{""ArrowUp,ArrowLeft"":26,""ArrowUp,ArrowRight"":10,""ArrowDown,ArrowLeft"":5,""ArrowDown,ArrowRight"":17}","true","ArrowUp,ArrowLeft","false","","","","","","","60","original","1",""
"html-keyboard-response","196","970523","0.0-4.0-2.0-1.30","pilot_wm_v1","null","1","null","null","true","","","","","","","null","<div style=""font-size:60px;"">+</div>","null","fixation","","","","","","","","","","","","","61","","",""
"revaluation","197","976530","0.0-4.0-2.0-0.31","pilot_wm_v1","null","1","null","null","true","","false","","","","","[454.5,111.19999998807907]","./assets/img/ocean/memory/22.jpg","[""ArrowUp"",""ArrowLeft""]","value training","ocean","26","{""ArrowUp,ArrowLeft"":26,""ArrowUp,ArrowRight"":10,""ArrowDown,ArrowLeft"":5,""ArrowDown,ArrowRight"":17}","true","ArrowUp,ArrowLeft","false","","","","","","","62","original","1",""
"html-keyboard-response","198","977033","0.0-4.0-2.0-1.31","pilot_wm_v1","null","1","null","null","true","","","","","","","null","<div style=""font-size:60px;"">+</div>","null","fixation","","","","","","","","","","","","","63","","",""
"revaluation","199","983042","0.0-4.0-2.0-0.32","pilot_wm_v1","null","1","null","null","true","","false","","","","","[144.60000002384186,134.30000001192093]","./assets/img/ocean/memory/3.jpg","[""ArrowUp"",""ArrowLeft""]","value training","ocean","26","{""ArrowUp,ArrowLeft"":26,""ArrowUp,ArrowRight"":10,""ArrowDown,ArrowLeft"":5,""ArrowDown,ArrowRight"":17}","true","ArrowUp,ArrowLeft","false","","","","","","","64","original","1",""
"html-keyboard-response","200","983544","0.0-4.0-2.0-1.32","pilot_wm_v1","null","1","null","null","true","","","","","","","null","<div style=""font-size:60px;"">+</div>","null","fixation","","","","","","","","","","","","","65","","",""
"revaluation","201","989552","0.0-4.0-2.0-0.33","pilot_wm_v1","null","1","null","null","true","","false","","","","","[728.4000000059605,44]","./assets/img/ocean/memory/6.jpg","[""ArrowUp"",""ArrowLeft""]","value training","ocean","26","{""ArrowUp,ArrowLeft"":26,""ArrowUp,ArrowRight"":10,""ArrowDown,ArrowLeft"":5,""ArrowDown,ArrowRight"":17}","true","ArrowUp,ArrowLeft","false","","","","","","","66","original","1",""
"html-keyboard-response","202","990055","0.0-4.0-2.0-1.33","pilot_wm_v1","null","1","null","null","true","","","","","","","null","<div style=""font-size:60px;"">+</div>","null","fixation","","","","","","","","","","","","","67","","",""
"revaluation","203","996062","0.0-4.0-2.0-0.34","pilot_wm_v1","null","1","null","null","true","","false","","","","","[308.90000000596046,158.40000000596046]","./assets/img/ocean/memory/26.jpg","[""ArrowUp"",""ArrowLeft""]","value training","ocean","26","{""ArrowUp,ArrowLeft"":26,""ArrowUp,ArrowRight"":10,""ArrowDown,ArrowLeft"":5,""ArrowDown,ArrowRight"":17}","true","ArrowUp,ArrowLeft","false","","","","","","","68","original","1",""
"html-keyboard-response","204","996564","0.0-4.0-2.0-1.34","pilot_wm_v1","null","1","null","null","true","","","","","","","null","<div style=""font-size:60px;"">+</div>","null","fixation","","","","","","","","","","","","","69","","",""
"revaluation","205","1000569","0.0-4.0-2.0-0.35","pilot_wm_v1","null","1","null","null","true","","false","","","","","[727.5999999940395]","./assets/img/ocean/catch/7.jpg","[""ArrowUp""]","value training","ocean","-10","{""ArrowUp,ArrowLeft"":26,""ArrowUp,ArrowRight"":10,""ArrowDown,ArrowLeft"":5,""ArrowDown,ArrowRight"":17}","false","ArrowUp","true","","","","","","","70","original","1",""
"html-keyboard-response","206","1001071","0.0-4.0-2.0-1.35","pilot_wm_v1","null","1","null","null","true","","","","","","","null","<div style=""font-size:60px;"">+</div>","null","fixation","","","","","","","","","","","","","71","","",""
"revaluation","207","1005076","0.0-4.0-2.0-0.36","pilot_wm_v1","null","1","null","null","true","","false","","","","","[319.5]","./assets/img/ocean/catch/2.jpg","[""ArrowUp""]","value training","ocean","-10","{""ArrowUp,ArrowLeft"":26,""ArrowUp,ArrowRight"":10,""ArrowDown,ArrowLeft"":5,""ArrowDown,ArrowRight"":17}","false","ArrowUp","true","","","","","","","72","original","1",""
"html-keyboard-response","208","1005579","0.0-4.0-2.0-1.36","pilot_wm_v1","null","1","null","null","true","","","","","","","null","<div style=""font-size:60px;"">+</div>","null","fixation","","","","","","","","","","","","","73","","",""
"revaluation","209","1011586","0.0-4.0-2.0-0.37","pilot_wm_v1","null","1","null","null","true","","false","","","","","[429.2999999821186,270.89999997615814]","./assets/img/ocean/memory/0.jpg","[""ArrowUp"",""ArrowLeft""]","value training","ocean","26","{""ArrowUp,ArrowLeft"":26,""ArrowUp,ArrowRight"":10,""ArrowDown,ArrowLeft"":5,""ArrowDown,ArrowRight"":17}","true","ArrowUp,ArrowLeft","false","","","","","","","74","original","1",""
"html-keyboard-response","210","1012088","0.0-4.0-2.0-1.37","pilot_wm_v1","null","1","null","null","true","","","","","","","null","<div style=""font-size:60px;"">+</div>","null","fixation","","","","","","","","","","","","","75","","",""
"revaluation","211","1016093","0.0-4.0-2.0-0.38","pilot_wm_v1","null","1","null","null","true","","false","","","","","[878.4000000059605]","./assets/img/ocean/catch/5.jpg","[""ArrowUp""]","value training","ocean","-10","{""ArrowUp,ArrowLeft"":26,""ArrowUp,ArrowRight"":10,""ArrowDown,ArrowLeft"":5,""ArrowDown,ArrowRight"":17}","false","ArrowUp","true","","","","","","","76","original","1",""
"html-keyboard-response","212","1016596","0.0-4.0-2.0-1.38","pilot_wm_v1","null","1","null","null","true","","","","","","","null","<div style=""font-size:60px;"">+</div>","null","fixation","","","","","","","","","","","","","77","","",""
"revaluation","213","1022602","0.0-4.0-2.0-0.39","pilot_wm_v1","null","1","null","null","true","","false","","","","","[624.5999999940395,140.80000001192093]","./assets/img/ocean/memory/1.jpg","[""ArrowUp"",""ArrowLeft""]","value training","ocean","26","{""ArrowUp,ArrowLeft"":26,""ArrowUp,ArrowRight"":10,""ArrowDown,ArrowLeft"":5,""ArrowDown,ArrowRight"":17}","true","ArrowUp,ArrowLeft","false","","","","","","","78","original","1",""
"html-keyboard-response","214","1023105","0.0-4.0-2.0-1.39","pilot_wm_v1","null","1","null","null","true","","","","","","","null","<div style=""font-size:60px;"">+</div>","null","fixation","","","","","","","","","","","","","79","","",""
"revaluation","215","1029113","0.0-4.0-2.0-0.40","pilot_wm_v1","null","1","null","null","true","","false","","","","","[494.2000000178814,56.099999994039536]","./assets/img/ocean/memory/7.jpg","[""ArrowUp"",""ArrowLeft""]","value training","ocean","26","{""ArrowUp,ArrowLeft"":26,""ArrowUp,ArrowRight"":10,""ArrowDown,ArrowLeft"":5,""ArrowDown,ArrowRight"":17}","true","ArrowUp,ArrowLeft","false","","","","","","","80","original","1",""
"html-keyboard-response","216","1029614","0.0-4.0-2.0-1.40","pilot_wm_v1","null","1","null","null","true","","","","","","","null","<div style=""font-size:60px;"">+</div>","null","fixation","","","","","","","","","","","","","81","","",""
"revaluation","217","1035621","0.0-4.0-2.0-0.41","pilot_wm_v1","null","1","null","null","true","","false","","","","","[444.39999997615814,120]","./assets/img/ocean/memory/12.jpg","[""ArrowUp"",""ArrowLeft""]","value training","ocean","26","{""ArrowUp,ArrowLeft"":26,""ArrowUp,ArrowRight"":10,""ArrowDown,ArrowLeft"":5,""ArrowDown,ArrowRight"":17}","true","ArrowUp,ArrowLeft","false","","","","","","","82","original","1",""
"html-keyboard-response","218","1036124","0.0-4.0-2.0-1.41","pilot_wm_v1","null","1","null","null","true","","","","","","","null","<div style=""font-size:60px;"">+</div>","null","fixation","","","","","","","","","","","","","83","","",""
"revaluation","219","1042132","0.0-4.0-2.0-0.42","pilot_wm_v1","null","1","null","null","true","","false","","","","","[1339.7000000178814,309.2999999821186]","./assets/img/ocean/memory/26.jpg","[""ArrowUp"",""ArrowLeft""]","value training","ocean","26","{""ArrowUp,ArrowLeft"":26,""ArrowUp,ArrowRight"":10,""ArrowDown,ArrowLeft"":5,""ArrowDown,ArrowRight"":17}","true","ArrowUp,ArrowLeft","false","","","","","","","84","original","1",""
"html-keyboard-response","220","1042634","0.0-4.0-2.0-1.42","pilot_wm_v1","null","1","null","null","true","","","","","","","null","<div style=""font-size:60px;"">+</div>","null","fixation","","","","","","","","","","","","","85","","",""
"revaluation","221","1048642","0.0-4.0-2.0-0.43","pilot_wm_v1","null","1","null","null","true","","false","","","","","[1024.7999999821186,91.80000001192093]","./assets/img/ocean/memory/21.jpg","[""ArrowUp"",""ArrowLeft""]","value training","ocean","26","{""ArrowUp,ArrowLeft"":26,""ArrowUp,ArrowRight"":10,""ArrowDown,ArrowLeft"":5,""ArrowDown,ArrowRight"":17}","true","ArrowUp,ArrowLeft","false","","","","","","","86","original","1",""
"html-keyboard-response","222","1049145","0.0-4.0-2.0-1.43","pilot_wm_v1","null","1","null","null","true","","","","","","","null","<div style=""font-size:60px;"">+</div>","null","fixation","","","","","","","","","","","","","87","","",""
"revaluation","223","1055152","0.0-4.0-2.0-0.44","pilot_wm_v1","null","1","null","null","true","","false","","","","","[1315.7000000178814,272.69999998807907]","./assets/img/ocean/memory/35.jpg","[""ArrowDown"",""ArrowRight""]","value training","ocean","17","{""ArrowUp,ArrowLeft"":26,""ArrowUp,ArrowRight"":10,""ArrowDown,ArrowLeft"":5,""ArrowDown,ArrowRight"":17}","false","ArrowDown,ArrowRight","false","","","","","","","88","original","1",""
"html-keyboard-response","224","1055654","0.0-4.0-2.0-1.44","pilot_wm_v1","null","1","null","null","true","","","","","","","null","<div style=""font-size:60px;"">+</div>","null","fixation","","","","","","","","","","","","","89","","",""
"revaluation","225","1061661","0.0-4.0-2.0-0.45","pilot_wm_v1","null","1","null","null","true","","false","","","","","[577.7999999821186,263.09999999403954]","./assets/img/ocean/memory/21.jpg","[""ArrowDown"",""ArrowLeft""]","value training","ocean","5","{""ArrowUp,ArrowLeft"":26,""ArrowUp,ArrowRight"":10,""ArrowDown,ArrowLeft"":5,""ArrowDown,ArrowRight"":17}","false","ArrowDown,ArrowLeft","false","","","","","","","90","original","1",""
"html-keyboard-response","226","1062164","0.0-4.0-2.0-1.45","pilot_wm_v1","null","1","null","null","true","","","","","","","null","<div style=""font-size:60px;"">+</div>","null","fixation","","","","","","","","","","","","","91","","",""
"revaluation","227","1066169","0.0-4.0-2.0-0.46","pilot_wm_v1","null","1","null","null","true","","false","","","","","[154.19999998807907]","./assets/img/ocean/catch/6.jpg","[""ArrowUp""]","value training","ocean","-10","{""ArrowUp,ArrowLeft"":26,""ArrowUp,ArrowRight"":10,""ArrowDown,ArrowLeft"":5,""ArrowDown,ArrowRight"":17}","false","ArrowUp","true","","","","","","","92","original","1",""
"html-keyboard-response","228","1066672","0.0-4.0-2.0-1.46","pilot_wm_v1","null","1","null","null","true","","","","","","","null","<div style=""font-size:60px;"">+</div>","null","fixation","","","","","","","","","","","","","93","","",""
"revaluation","229","1072677","0.0-4.0-2.0-0.47","pilot_wm_v1","null","1","null","null","true","","false","","","","","[408.09999999403954,286.7999999821186]","./assets/img/ocean/memory/5.jpg","[""ArrowUp"",""ArrowRight""]","value training","ocean","10","{""ArrowUp,ArrowLeft"":26,""ArrowUp,ArrowRight"":10,""ArrowDown,ArrowLeft"":5,""ArrowDown,ArrowRight"":17}","false","ArrowUp,ArrowRight","false","","","","","","","94","original","1",""
"html-keyboard-response","230","1073180","0.0-4.0-2.0-1.47","pilot_wm_v1","null","1","null","null","true","","","","","","","null","<div style=""font-size:60px;"">+</div>","null","fixation","","","","","","","","","","","","","95","","",""
"revaluation","231","1079189","0.0-4.0-2.0-0.48","pilot_wm_v1","null","1","null","null","true","","false","","","","","[424.59999999403954,201.7999999821186]","./assets/img/ocean/memory/19.jpg","[""ArrowUp"",""ArrowLeft""]","value training","ocean","26","{""ArrowUp,ArrowLeft"":26,""ArrowUp,ArrowRight"":10,""ArrowDown,ArrowLeft"":5,""ArrowDown,ArrowRight"":17}","true","ArrowUp,ArrowLeft","false","","","","","","","96","original","1",""
"html-keyboard-response","232","1079691","0.0-4.0-2.0-1.48","pilot_wm_v1","null","1","null","null","true","","","","","","","null","<div style=""font-size:60px;"">+</div>","null","fixation","","","","","","","","","","","","","97","","",""
"revaluation","233","1085698","0.0-4.0-2.0-0.49","pilot_wm_v1","null","1","null","null","true","","false","","","","","[438.40000000596046,274.09999999403954]","./assets/img/ocean/memory/13.jpg","[""ArrowUp"",""ArrowLeft""]","value training","ocean","26","{""ArrowUp,ArrowLeft"":26,""ArrowUp,ArrowRight"":10,""ArrowDown,ArrowLeft"":5,""ArrowDown,ArrowRight"":17}","true","ArrowUp,ArrowLeft","false","","","","","","","98","original","1",""
"html-keyboard-response","234","1086200","0.0-4.0-2.0-1.49","pilot_wm_v1","null","1","null","null","true","","","","","","","null","<div style=""font-size:60px;"">+</div>","null","fixation","","","","","","","","","","","","","99","","",""
"learning-instructions","235","1100173","0.0-4.0-3.0-0.0","pilot_wm_v1","null","1","null","null","true","","","","","","","919","<p> Now, you will travel with a friend who will choose whether you go up or down first. </p>
            <p> On these turns, you will just see the animal that they found. You will still get to choose which chest to search for treasure.</p>","","instructions","","","","","","","","","","","","","","","",""
"learning-instructions","236","1112364","0.0-4.0-3.0-0.1","pilot_wm_v1","null","1","null","null","true","","","","","","","587.4000000059605","<p> In this part, you will also hear beeps from your friend and see special treasure chests that need a password. </p>
            <p> Do your best to count the high beeps <b>and</b> choose between each animals' chests at the same time.</p>
            <img src='./assets/img/instructions/beep_chest.jpg' class='instructions-image'>","","instructions","","","","","","","","","","","","","","","",""
"revaluation","237","1116368","0.0-4.0-4.0-0.0","pilot_wm_v1","null","1","null","null","true","","true","","","","","[]","./assets/img/ocean/animals/octopus.jpg","[]","revaluation","ocean","-5","{""ArrowUp,ArrowLeft"":26,""ArrowUp,ArrowRight"":10,""ArrowDown,ArrowLeft"":5,""ArrowDown,ArrowRight"":17}","false","ArrowUp","","2_1","","","","","","0","original","1",""
"html-keyboard-response","238","1116872","0.0-4.0-4.0-1.0","pilot_wm_v1","null","1","null","null","true","","","","","","","null","<div style=""font-size:60px;"">+</div>","null","fixation","","","","","","","","","","","","","","","",""
"revaluation","239","1120877","0.0-4.0-4.0-0.1","pilot_wm_v1","null","1","null","null","true","","false","","","","","[1837.800000011921]","./assets/img/ocean/animals/seahorse.jpg","[""ArrowRight""]","revaluation","ocean","17","{""ArrowUp,ArrowLeft"":26,""ArrowUp,ArrowRight"":10,""ArrowDown,ArrowLeft"":5,""ArrowDown,ArrowRight"":17}","true","ArrowDown,ArrowRight","","14_4","","","","","","1","original","1",""
"html-keyboard-response","240","1121380","0.0-4.0-4.0-1.1","pilot_wm_v1","null","1","null","null","true","","","","","","","null","<div style=""font-size:60px;"">+</div>","null","fixation","","","","","","","","","","","","","","","",""
"revaluation","241","1125385","0.0-4.0-4.0-0.2","pilot_wm_v1","null","1","null","null","true","","false","","","","","[1748.5999999940395]","./assets/img/ocean/animals/octopus.jpg","[""ArrowLeft""]","revaluation","ocean","26","{""ArrowUp,ArrowLeft"":26,""ArrowUp,ArrowRight"":10,""ArrowDown,ArrowLeft"":5,""ArrowDown,ArrowRight"":17}","true","ArrowUp,ArrowLeft","","8_2","","","","","","2","original","1",""
"html-keyboard-response","242","1125888","0.0-4.0-4.0-1.2","pilot_wm_v1","null","1","null","null","true","","","","","","","null","<div style=""font-size:60px;"">+</div>","null","fixation","","","","","","","","","","","","","","","",""
"revaluation","243","1129892","0.0-4.0-4.0-0.3","pilot_wm_v1","null","1","null","null","true","","false","","","","","[1766.699999988079]","./assets/img/ocean/animals/seahorse.jpg","[""ArrowRight""]","revaluation","ocean","17","{""ArrowUp,ArrowLeft"":26,""ArrowUp,ArrowRight"":10,""ArrowDown,ArrowLeft"":5,""ArrowDown,ArrowRight"":17}","true","ArrowDown,ArrowRight","","15_0","","","","","","3","original","1",""
"html-keyboard-response","244","1130395","0.0-4.0-4.0-1.3","pilot_wm_v1","null","1","null","null","true","","","","","","","null","<div style=""font-size:60px;"">+</div>","null","fixation","","","","","","","","","","","","","","","",""
"html-slider-response","245","1135291","0.0-4.0-4.0-2.3-0.3","pilot_wm_v1","null","1","null","null","true","","","","","","","4894","<div style=""width:500px;"">
        <p>What is the password?</p>
        <img src='./assets/img/instructions/beep_chest.jpg' class='instructions-image'>","9","","","","","false","","","","50","7","2","","","","","",""
"revaluation","246","1139297","0.0-4.0-4.0-0.4","pilot_wm_v1","null","1","null","null","true","","false","","","","","[1860.4000000059605]","./assets/img/ocean/animals/seahorse.jpg","[""ArrowRight""]","revaluation","ocean","17","{""ArrowUp,ArrowLeft"":26,""ArrowUp,ArrowRight"":10,""ArrowDown,ArrowLeft"":5,""ArrowDown,ArrowRight"":17}","true","ArrowDown,ArrowRight","","13_2","","","","","","4","original","1",""
"html-keyboard-response","247","1139799","0.0-4.0-4.0-1.4","pilot_wm_v1","null","1","null","null","true","","","","","","","null","<div style=""font-size:60px;"">+</div>","null","fixation","","","","","","","","","","","","","","","",""
"revaluation","248","1143805","0.0-4.0-4.0-0.5","pilot_wm_v1","null","1","null","null","true","","false","","","","","[747.5]","./assets/img/ocean/animals/octopus.jpg","[""ArrowLeft""]","revaluation","ocean","26","{""ArrowUp,ArrowLeft"":26,""ArrowUp,ArrowRight"":10,""ArrowDown,ArrowLeft"":5,""ArrowDown,ArrowRight"":17}","true","ArrowUp,ArrowLeft","","7_4","","","","","","5","original","1",""
"html-keyboard-response","249","1144307","0.0-4.0-4.0-1.5","pilot_wm_v1","null","1","null","null","true","","","","","","","null","<div style=""font-size:60px;"">+</div>","null","fixation","","","","","","","","","","","","","","","",""
"revaluation","250","1148312","0.0-4.0-4.0-0.6","pilot_wm_v1","null","1","null","null","true","","false","","","","","[743.0999999940395]","./assets/img/ocean/animals/seahorse.jpg","[""ArrowRight""]","revaluation","ocean","17","{""ArrowUp,ArrowLeft"":26,""ArrowUp,ArrowRight"":10,""ArrowDown,ArrowLeft"":5,""ArrowDown,ArrowRight"":17}","true","ArrowDown,ArrowRight","","18_0","","","","","","6","original","1",""
"html-keyboard-response","251","1148814","0.0-4.0-4.0-1.6","pilot_wm_v1","null","1","null","null","true","","","","","","","null","<div style=""font-size:60px;"">+</div>","null","fixation","","","","","","","","","","","","","","","",""
"revaluation","252","1152820","0.0-4.0-4.0-0.7","pilot_wm_v1","null","1","null","null","true","","false","","","","","[766.8999999761581]","./assets/img/ocean/animals/seahorse.jpg","[""ArrowRight""]","revaluation","ocean","17","{""ArrowUp,ArrowLeft"":26,""ArrowUp,ArrowRight"":10,""ArrowDown,ArrowLeft"":5,""ArrowDown,ArrowRight"":17}","true","ArrowDown,ArrowRight","","10_3","","","","","","7","original","1",""
"html-keyboard-response","253","1153322","0.0-4.0-4.0-1.7","pilot_wm_v1","null","1","null","null","true","","","","","","","null","<div style=""font-size:60px;"">+</div>","null","fixation","","","","","","","","","","","","","","","",""
"html-slider-response","254","1155452","0.0-4.0-4.0-2.7-0.7","pilot_wm_v1","null","1","null","null","true","","","","","","","2129","<div style=""width:500px;"">
        <p>What is the password?</p>
        <img src='./assets/img/instructions/beep_chest.jpg' class='instructions-image'>","9","","","","","true","","","","50","9","0","","","","","",""
"revaluation","255","1159458","0.0-4.0-4.0-0.8","pilot_wm_v1","null","1","null","null","true","","false","","","","","[1722.300000011921]","./assets/img/ocean/animals/octopus.jpg","[""ArrowLeft""]","revaluation","ocean","26","{""ArrowUp,ArrowLeft"":26,""ArrowUp,ArrowRight"":10,""ArrowDown,ArrowLeft"":5,""ArrowDown,ArrowRight"":17}","true","ArrowUp,ArrowLeft","","9_2","","","","","","8","original","1",""
"html-keyboard-response","256","1159961","0.0-4.0-4.0-1.8","pilot_wm_v1","null","1","null","null","true","","","","","","","null","<div style=""font-size:60px;"">+</div>","null","fixation","","","","","","","","","","","","","","","",""
"revaluation","257","1163968","0.0-4.0-4.0-0.9","pilot_wm_v1","null","1","null","null","true","","false","","","","","[1299]","./assets/img/ocean/animals/octopus.jpg","[""ArrowLeft""]","revaluation","ocean","26","{""ArrowUp,ArrowLeft"":26,""ArrowUp,ArrowRight"":10,""ArrowDown,ArrowLeft"":5,""ArrowDown,ArrowRight"":17}","true","ArrowUp,ArrowLeft","","1_4","","","","","","9","original","1",""
"html-keyboard-response","258","1164470","0.0-4.0-4.0-1.9","pilot_wm_v1","null","1","null","null","true","","","","","","","null","<div style=""font-size:60px;"">+</div>","null","fixation","","","","","","","","","","","","","","","",""
"revaluation","259","1168475","0.0-4.0-4.0-0.10","pilot_wm_v1","null","1","null","null","true","","false","","","","","[1184.0999999940395]","./assets/img/ocean/animals/seahorse.jpg","[""ArrowRight""]","revaluation","ocean","17","{""ArrowUp,ArrowLeft"":26,""ArrowUp,ArrowRight"":10,""ArrowDown,ArrowLeft"":5,""ArrowDown,ArrowRight"":17}","true","ArrowDown,ArrowRight","","16_0","","","","","","10","original","1",""
"html-keyboard-response","260","1168977","0.0-4.0-4.0-1.10","pilot_wm_v1","null","1","null","null","true","","","","","","","null","<div style=""font-size:60px;"">+</div>","null","fixation","","","","","","","","","","","","","","","",""
"revaluation","261","1172983","0.0-4.0-4.0-0.11","pilot_wm_v1","null","1","null","null","true","","false","","","","","[1088.9000000059605]","./assets/img/ocean/animals/octopus.jpg","[""ArrowLeft""]","revaluation","ocean","26","{""ArrowUp,ArrowLeft"":26,""ArrowUp,ArrowRight"":10,""ArrowDown,ArrowLeft"":5,""ArrowDown,ArrowRight"":17}","true","ArrowUp,ArrowLeft","","5_4","","","","","","11","original","1",""
"html-keyboard-response","262","1173485","0.0-4.0-4.0-1.11","pilot_wm_v1","null","1","null","null","true","","","","","","","null","<div style=""font-size:60px;"">+</div>","null","fixation","","","","","","","","","","","","","","","",""
"html-slider-response","263","1177278","0.0-4.0-4.0-2.11-0.11","pilot_wm_v1","null","1","null","null","true","","","","","","","3791","<div style=""width:500px;"">
        <p>What is the password?</p>
        <img src='./assets/img/instructions/beep_chest.jpg' class='instructions-image'>","10","","","","","true","","","","50","10","0","","","","","",""
"revaluation","264","1181282","0.0-4.0-4.0-0.12","pilot_wm_v1","null","1","null","null","true","","true","","","","","[]","./assets/img/ocean/animals/seahorse.jpg","[]","revaluation","ocean","-5","{""ArrowUp,ArrowLeft"":26,""ArrowUp,ArrowRight"":10,""ArrowDown,ArrowLeft"":5,""ArrowDown,ArrowRight"":17}","false","ArrowDown","","17_1","","","","","","12","original","1",""
"html-keyboard-response","265","1181784","0.0-4.0-4.0-1.12","pilot_wm_v1","null","1","null","null","true","","","","","","","null","<div style=""font-size:60px;"">+</div>","null","fixation","","","","","","","","","","","","","","","",""
"revaluation","266","1185790","0.0-4.0-4.0-0.13","pilot_wm_v1","null","1","null","null","true","","false","","","","","[763.6000000238419]","./assets/img/ocean/animals/octopus.jpg","[""ArrowLeft""]","revaluation","ocean","26","{""ArrowUp,ArrowLeft"":26,""ArrowUp,ArrowRight"":10,""ArrowDown,ArrowLeft"":5,""ArrowDown,ArrowRight"":17}","true","ArrowUp,ArrowLeft","","6_3","","","","","","13","original","1",""
"html-keyboard-response","267","1186292","0.0-4.0-4.0-1.13","pilot_wm_v1","null","1","null","null","true","","","","","","","null","<div style=""font-size:60px;"">+</div>","null","fixation","","","","","","","","","","","","","","","",""
"revaluation","268","1190295","0.0-4.0-4.0-0.14","pilot_wm_v1","null","1","null","null","true","","false","","","","","[586.9000000059605]","./assets/img/ocean/animals/octopus.jpg","[""ArrowLeft""]","revaluation","ocean","26","{""ArrowUp,ArrowLeft"":26,""ArrowUp,ArrowRight"":10,""ArrowDown,ArrowLeft"":5,""ArrowDown,ArrowRight"":17}","true","ArrowUp,ArrowLeft","","3_0","","","","","","14","original","1",""
"html-keyboard-response","269","1190797","0.0-4.0-4.0-1.14","pilot_wm_v1","null","1","null","null","true","","","","","","","null","<div style=""font-size:60px;"">+</div>","null","fixation","","","","","","","","","","","","","","","",""
"revaluation","270","1194804","0.0-4.0-4.0-0.15","pilot_wm_v1","null","1","null","null","true","","false","","","","","[1261]","./assets/img/ocean/animals/seahorse.jpg","[""ArrowRight""]","revaluation","ocean","17","{""ArrowUp,ArrowLeft"":26,""ArrowUp,ArrowRight"":10,""ArrowDown,ArrowLeft"":5,""ArrowDown,ArrowRight"":17}","true","ArrowDown,ArrowRight","","11_4","","","","","","15","original","1",""
"html-keyboard-response","271","1195307","0.0-4.0-4.0-1.15","pilot_wm_v1","null","1","null","null","true","","","","","","","null","<div style=""font-size:60px;"">+</div>","null","fixation","","","","","","","","","","","","","","","",""
"html-slider-response","272","1197349","0.0-4.0-4.0-2.15-0.15","pilot_wm_v1","null","1","null","null","true","","","","","","","2040","<div style=""width:500px;"">
        <p>What is the password?</p>
        <img src='./assets/img/instructions/beep_chest.jpg' class='instructions-image'>","8","","","","","true","","","","50","8","0","","","","","",""
"revaluation","273","1201354","0.0-4.0-4.0-0.16","pilot_wm_v1","null","1","null","null","true","","false","","","","","[1435.8999999761581]","./assets/img/ocean/animals/seahorse.jpg","[""ArrowRight""]","revaluation","ocean","17","{""ArrowUp,ArrowLeft"":26,""ArrowUp,ArrowRight"":10,""ArrowDown,ArrowLeft"":5,""ArrowDown,ArrowRight"":17}","true","ArrowDown,ArrowRight","","12_2","","","","","","16","original","1",""
"html-keyboard-response","274","1201856","0.0-4.0-4.0-1.16","pilot_wm_v1","null","1","null","null","true","","","","","","","null","<div style=""font-size:60px;"">+</div>","null","fixation","","","","","","","","","","","","","","","",""
"revaluation","275","1205861","0.0-4.0-4.0-0.17","pilot_wm_v1","null","1","null","null","true","","false","","","","","[1274.5999999940395]","./assets/img/ocean/animals/octopus.jpg","[""ArrowLeft""]","revaluation","ocean","26","{""ArrowUp,ArrowLeft"":26,""ArrowUp,ArrowRight"":10,""ArrowDown,ArrowLeft"":5,""ArrowDown,ArrowRight"":17}","true","ArrowUp,ArrowLeft","","4_0","","","","","","17","original","1",""
"html-keyboard-response","276","1206363","0.0-4.0-4.0-1.17","pilot_wm_v1","null","1","null","null","true","","","","","","","null","<div style=""font-size:60px;"">+</div>","null","fixation","","","","","","","","","","","","","","","",""
"learning-instructions","277","1219623","0.0-4.0-5.0-0.0-0.0","pilot_wm_v1","null","1","null","null","true","","","","","","","1916.4000000059605","<p> Time to play the dot game! </p>
            <p> For one minute, click the red dots on the following screen as they appear. </p>
            <p><b> Don't look away, as you will earn bonus for clicking dots</b>. </p>","","instructions","","","","","","","","","","","","","","","",""
"revaluation","278","1279629","0.0-4.0-5.0-1.0-0.0","pilot_wm_v1","null","1","null","null","true","","","","","","","[113,208,121,93,69,116]","","","rest","","60","","","","","","","","","0","60000","","","",""
"learning-instructions","279","1287925","0.0-4.0-6.0-0.0","pilot_wm_v1","null","1","null","null","true","","","","","","","null","<p> You have almost finished this part of the game! </p>
            <p> We are going to ask you to make a few more choices. </p>","","instructions","","","","","","","","","","","","","","","",""
"learning-instructions","280","1303900","0.0-4.0-6.0-0.1","pilot_wm_v1","null","1","null","null","true","","","","","","","null","<p> First, you need to decide whether to go up or down. When you see each picture, use the arrow keys to make your choice. </p>
            <p><b>You will not see which animal you found, but try to get to the one that will give you the most treasure.</b></p>","","instructions","","","","","","","","","","","","","","","",""
"html-keyboard-response","281","1304902","0.0-4.0-7.0-0.0","pilot_wm_v1","null","1","null","null","true","","","","","","","null","<div style=""font-size:100px;color:red;"">Starting in...</div>","null","","","","","","","","","","","","","","","","",""
"html-keyboard-response","282","1305905","0.0-4.0-7.0-1.0","pilot_wm_v1","null","1","null","null","true","","","","","","","null","<div style=""font-size:200px;color:red;"">3</div>","null","","","","","","","","","","","","","","","","",""
"html-keyboard-response","283","1306907","0.0-4.0-7.0-2.0","pilot_wm_v1","null","1","null","null","true","","","","","","","null","<div style=""font-size:200px;color:red;"">2</div>","null","","","","","","","","","","","","","","","","",""
"html-keyboard-response","284","1307908","0.0-4.0-7.0-3.0","pilot_wm_v1","null","1","null","null","true","","","","","","","null","<div style=""font-size:200px;color:red;"">1</div>","null","","","","","","","","","","","","","","","","",""
"revaluation","285","1308315","0.0-4.0-8.0-0.0","pilot_wm_v1","null","1","null","null","true","","false","","","","","[405]","./assets/img/ocean/test/2.jpg","[""ArrowUp""]","first stage test","ocean","0","{""ArrowUp,ArrowLeft"":26,""ArrowUp,ArrowRight"":10,""ArrowDown,ArrowLeft"":5,""ArrowDown,ArrowRight"":17}","true","ArrowUp","false","","","","","","","","original","1",""
"html-keyboard-response","286","1308817","0.0-4.0-8.0-1.0","pilot_wm_v1","null","1","null","null","true","","","","","","","null","<div style=""font-size:60px;"">+</div>","null","fixation","","","","","","","","","","","","","","","",""
"revaluation","287","1309600","0.0-4.0-8.0-0.1","pilot_wm_v1","null","1","null","null","true","","false","","","","","[780.8999999761581]","./assets/img/ocean/test/1.jpg","[""ArrowUp""]","first stage test","ocean","0","{""ArrowUp,ArrowLeft"":26,""ArrowUp,ArrowRight"":10,""ArrowDown,ArrowLeft"":5,""ArrowDown,ArrowRight"":17}","true","ArrowUp","false","","","","","","","","original","1",""
"html-keyboard-response","288","1310101","0.0-4.0-8.0-1.1","pilot_wm_v1","null","1","null","null","true","","","","","","","null","<div style=""font-size:60px;"">+</div>","null","fixation","","","","","","","","","","","","","","","",""
"revaluation","289","1310411","0.0-4.0-8.0-0.2","pilot_wm_v1","null","1","null","null","true","","false","","","","","[308.09999999403954]","./assets/img/ocean/test/3.jpg","[""ArrowUp""]","first stage test","ocean","0","{""ArrowUp,ArrowLeft"":26,""ArrowUp,ArrowRight"":10,""ArrowDown,ArrowLeft"":5,""ArrowDown,ArrowRight"":17}","true","ArrowUp","false","","","","","","","","original","1",""
"html-keyboard-response","290","1310913","0.0-4.0-8.0-1.2","pilot_wm_v1","null","1","null","null","true","","","","","","","null","<div style=""font-size:60px;"">+</div>","null","fixation","","","","","","","","","","","","","","","",""
"revaluation","291","1311278","0.0-4.0-8.0-0.3","pilot_wm_v1","null","1","null","null","true","","false","","","","","[363]","./assets/img/ocean/test/0.jpg","[""ArrowUp""]","first stage test","ocean","0","{""ArrowUp,ArrowLeft"":26,""ArrowUp,ArrowRight"":10,""ArrowDown,ArrowLeft"":5,""ArrowDown,ArrowRight"":17}","true","ArrowUp","false","","","","","","","","original","1",""
"html-keyboard-response","292","1311779","0.0-4.0-8.0-1.3","pilot_wm_v1","null","1","null","null","true","","","","","","","null","<div style=""font-size:60px;"">+</div>","null","fixation","","","","","","","","","","","","","","","",""
"learning-instructions","293","1325124","0.0-4.0-9.0-0.0","pilot_wm_v1","null","1","null","null","true","","","","","","","null","<p> Now you will see the animals again and can search their chests for treasure. </p>
            <p> This time, you will not see how much treasure you earned, but you will earn more bonus money for making better choices. </p>","","instructions","","","","","","","","","","","","","","","",""
"html-keyboard-response","294","1326126","0.0-4.0-10.0-0.0","pilot_wm_v1","null","1","null","null","true","","","","","","","null","<div style=""font-size:100px;color:red;"">Starting in...</div>","null","","","","","","","","","","","","","","","","",""
"html-keyboard-response","295","1327127","0.0-4.0-10.0-1.0","pilot_wm_v1","null","1","null","null","true","","","","","","","null","<div style=""font-size:200px;color:red;"">3</div>","null","","","","","","","","","","","","","","","","",""
"html-keyboard-response","296","1328130","0.0-4.0-10.0-2.0","pilot_wm_v1","null","1","null","null","true","","","","","","","null","<div style=""font-size:200px;color:red;"">2</div>","null","","","","","","","","","","","","","","","","",""
"html-keyboard-response","297","1329132","0.0-4.0-10.0-3.0","pilot_wm_v1","null","1","null","null","true","","","","","","","null","<div style=""font-size:200px;color:red;"">1</div>","null","","","","","","","","","","","","","","","","",""
"revaluation","298","1329634","0.0-4.0-11.0-0.0","pilot_wm_v1","null","1","null","null","true","","false","","","","","[499.59999999403954]","./assets/img/ocean/animals/octopus.jpg","[""ArrowLeft""]","second stage test","ocean","0","{""ArrowUp,ArrowLeft"":26,""ArrowUp,ArrowRight"":10,""ArrowDown,ArrowLeft"":5,""ArrowDown,ArrowRight"":17}","true","ArrowUp,ArrowLeft","","","","","","","","","original","1",""
"html-keyboard-response","299","1330135","0.0-4.0-11.0-1.0","pilot_wm_v1","null","1","null","null","true","","","","","","","null","<div style=""font-size:60px;"">+</div>","null","fixation","","","","","","","","","","","","","","","",""
