"trial_type","trial_index","time_elapsed","internal_node_id","task_version","subject_id","assigned_condition","age","gender","rest","success","timeout","failed_images","failed_audio","failed_video","browser_interaction","rt","stimulus","response","task_part","environment","score","rewardMap","correct","fullState","isCatch","audioStim","slider_start","answer","error","numberMissed","duration","trial_num","condition","order","bonus"
"pavlovia","0","1047","0.0-0.0","pilot_wm_v1","6688d16e085c316a7ced59c1","4","null","null","true","","","","","","","","","","","","","","","","","","","","","","","","","",""
"preload","1","7594","0.0-1.0","pilot_wm_v1","6688d16e085c316a7ced59c1","4","null","null","true","true","false","[]","[]","[]","[{""event"":""fullscreenenter"",""trial"":2,""time"":11161}]","","","","","","","","","","","","","","","","","","","",""
"fullscreen","2","12159","0.0-2.0","pilot_wm_v1","6688d16e085c316a7ced59c1","4","null","null","true","true","","","","","","","","","","","","","","","","","","","","","","","","",""
"audio-button-response","3","13551","0.0-3.0-0.0-0.0","pilot_wm_v1","6688d16e085c316a7ced59c1","4","null","null","true","","","","","","","1371","./assets/audio/audiotest/turtle.mp3","2","audio_test","","","","","","","","","","","","","","","",""
"learning-instructions","4","23439","0.0-3.0-1.0-0.0","pilot_wm_v1","6688d16e085c316a7ced59c1","4","null","null","true","","","","","","","2926.5","<p> Welcome! Please remember to stay in fullscreen mode and don't click away from the experiment. </p>","","instructions","","","","","","","","","","","","","","","",""
"learning-instructions","5","33706","0.0-3.0-1.0-0.1","pilot_wm_v1","6688d16e085c316a7ced59c1","4","null","null","true","","","","","","","1883.699999988079","<p> Today you will be playing a game to earn treasure. </p>
            <p> At the end of the experiment, you will earn a bonus based on how much treasure you find. </p>
            <img src='./assets/img/instructions/treasure.jpg' class='instructions-image'>","","instructions","","","","","","","","","","","","","","","",""
"learning-instructions","6","43748","0.0-3.0-1.0-0.2","pilot_wm_v1","6688d16e085c316a7ced59c1","4","null","null","true","","","","","","","1796.1000000238419","<p> Animals have hidden treasure in treasure chests. </p>
            <p> You need to first find an animal and then choose which of their treasure chests to search. </p>
            <img src='./assets/img/space/animals/cat.jpg' class='instructions-image'>","","instructions","","","","","","","","","","","","","","","",""
"learning-instructions","7","57655","0.0-3.0-1.0-0.3","pilot_wm_v1","6688d16e085c316a7ced59c1","4","null","null","true","","","","","","","782.8000000119209","<p> In each round, you will search for treasure in a different place. In the real game, there will be two rounds. </p>
            <p> You will begin with a separate, practice round where you will search for treasure in outer space. </p>
            <img src='./assets/img/space/0.jpg' class='instructions-image'>","","instructions","","","","","","","","","","","","","","","",""
"learning-instructions","8","70128","0.0-3.0-1.0-0.4","pilot_wm_v1","6688d16e085c316a7ced59c1","4","null","null","true","","","","","","","1075.5","<p> On every turn, you will see a picture of the place that you are in, but the specific image may be different each time. </p>
            <p> For example, both of these images mean you are in outer space. </p>
            <img src='./assets/img/instructions/outerspace.jpg' class='instructions-image'>","","instructions","","","","","","","","","","","","","","","",""
"learning-instructions","9","79367","0.0-3.0-1.0-0.5","pilot_wm_v1","6688d16e085c316a7ced59c1","4","null","null","true","","","","","","","1434.6000000238419","<p> You need to decide which direction to travel in. </p>
            <p> You can choose between going <b>up or down</b> by using the arrow keys. </p>
            <img src='./assets/img/instructions/updown.jpg' class='instructions-image'>","","instructions","","","","","","","","","","","","","","","",""
"learning-instructions","10","89663","0.0-3.0-1.0-0.6","pilot_wm_v1","6688d16e085c316a7ced59c1","4","null","null","true","","","","","","","1511","<p> You will have <b>2 seconds</b> to make your choice. </p>
            <p> If you do not make a choice within 2 seconds, you will not find an animal or earn treasure. </p>
            <img src='./assets/img/instructions/2seconds.jpg' class='instructions-image'>","","instructions","","","","","","","","","","","","","","","",""
"learning-instructions","11","98295","0.0-3.0-1.0-0.7","pilot_wm_v1","6688d16e085c316a7ced59c1","4","null","null","true","","","","","","","1602.2000000476837","<p> Let’s try practicing that now! </p>
            <p> When you see a picture of the place you are in, press the <b>up</b> key to travel up. </p>
            <img src='./assets/img/instructions/pressUp.jpg' class='instructions-image'>","","instructions","","","","","","","","","","","","","","","",""
"revaluation","12","102326","0.0-3.0-2.0-0.0","pilot_wm_v1","6688d16e085c316a7ced59c1","4","null","null","true","","true","","","","","[]","./assets/img/space/0.jpg","[]","first stage practice","space","-5","null","null","","false","","","","","","","","","",""
"html-keyboard-response","13","102837","0.0-3.0-2.0-1.0","pilot_wm_v1","6688d16e085c316a7ced59c1","4","null","null","true","","","","","","","null","<div style=""font-size:60px;"">+</div>","null","fixation","","","","","","","","","","","","","","","",""
"revaluation","14","106860","0.0-3.0-2.0-0.1","pilot_wm_v1","6688d16e085c316a7ced59c1","4","null","null","true","","false","","","","","[728.8000000119209]","./assets/img/space/1.jpg","[""ArrowUp""]","first stage practice","space","0","null","null","ArrowUp","false","","","","","","","","","",""
"html-keyboard-response","15","107370","0.0-3.0-2.0-1.1","pilot_wm_v1","6688d16e085c316a7ced59c1","4","null","null","true","","","","","","","null","<div style=""font-size:60px;"">+</div>","null","fixation","","","","","","","","","","","","","","","",""
"revaluation","16","111392","0.0-3.0-2.0-0.2","pilot_wm_v1","6688d16e085c316a7ced59c1","4","null","null","true","","false","","","","","[1559.199999988079]","./assets/img/space/2.jpg","[""ArrowUp""]","first stage practice","space","0","null","null","ArrowUp","false","","","","","","","","","",""
"html-keyboard-response","17","111901","0.0-3.0-2.0-1.2","pilot_wm_v1","6688d16e085c316a7ced59c1","4","null","null","true","","","","","","","null","<div style=""font-size:60px;"">+</div>","null","fixation","","","","","","","","","","","","","","","",""
"learning-instructions","18","117958","0.0-3.0-3.0-0.0","pilot_wm_v1","6688d16e085c316a7ced59c1","4","null","null","true","","","","","","","1375","<p> Great job! Now try pressing the <b>down</b> key to travel down. </p>
            <img src='./assets/img/instructions/pressDown.jpg' class='instructions-image'>","","instructions","","","","","","","","","","","","","","","",""
"revaluation","19","121970","0.0-3.0-4.0-0.0","pilot_wm_v1","6688d16e085c316a7ced59c1","4","null","null","true","","false","","","","","[748.9000000357628]","./assets/img/space/3.jpg","[""ArrowDown""]","first stage practice","space","0","null","null","ArrowDown","false","","","","","","","","","",""
"html-keyboard-response","20","122479","0.0-3.0-4.0-1.0","pilot_wm_v1","6688d16e085c316a7ced59c1","4","null","null","true","","","","","","","null","<div style=""font-size:60px;"">+</div>","null","fixation","","","","","","","","","","","","","","","",""
"revaluation","21","126498","0.0-3.0-4.0-0.1","pilot_wm_v1","6688d16e085c316a7ced59c1","4","null","null","true","","false","","","","","[326.9000000357628]","./assets/img/space/4.jpg","[""ArrowDown""]","first stage practice","space","0","null","null","ArrowDown","false","","","","","","","","","",""
"html-keyboard-response","22","127008","0.0-3.0-4.0-1.1","pilot_wm_v1","6688d16e085c316a7ced59c1","4","null","null","true","","","","","","","null","<div style=""font-size:60px;"">+</div>","null","fixation","","","","","","","","","","","","","","","",""
"revaluation","23","131030","0.0-3.0-4.0-0.2","pilot_wm_v1","6688d16e085c316a7ced59c1","4","null","null","true","","false","","","","","[824.8999999761581]","./assets/img/space/5.jpg","[""ArrowDown""]","first stage practice","space","0","null","null","ArrowDown","false","","","","","","","","","",""
"html-keyboard-response","24","131540","0.0-3.0-4.0-1.2","pilot_wm_v1","6688d16e085c316a7ced59c1","4","null","null","true","","","","","","","null","<div style=""font-size:60px;"">+</div>","null","fixation","","","","","","","","","","","","","","","",""
"learning-instructions","25","142949","0.0-3.0-5.0-0.0","pilot_wm_v1","6688d16e085c316a7ced59c1","4","null","null","true","","","","","","","1566.9000000357628","<p> The animals don’t move, so the animal in the upper part of a place will stay in the upper part of a place, and the animal in the lower part of a place will stay in the lower part of a place. </p>","","instructions","","","","","","","","","","","","","","","",""
"learning-instructions","26","153282","0.0-3.0-5.0-0.1","pilot_wm_v1","6688d16e085c316a7ced59c1","4","null","null","true","","","","","","","1219.9000000357628","<p> Each animal has two treasure chests for you to choose from. </p>
            <p> The amount of treasure in each chest can range from <b> 0 to 40 pieces.</b></p>","","instructions","","","","","","","","","","","","","","","",""
"learning-instructions","27","165427","0.0-3.0-5.0-0.2","pilot_wm_v1","6688d16e085c316a7ced59c1","4","null","null","true","","","","","","","975.8000000119209","<p> You should decide which chest to search for treasure by using the <b>left</b> and <b>right</b> arrow keys. </p>
            <p><b> Pay attention to which animal is on the screen, as the animals have different treasure chests. </b></p>
            <img src='./assets/img/instructions/leftright.jpg' class='instructions-image'>","","instructions","","","","","","","","","","","","","","","",""
"learning-instructions","28","173103","0.0-3.0-5.0-0.3","pilot_wm_v1","6688d16e085c316a7ced59c1","4","null","null","true","","","","","","","1321.699999988079","<p> Let’s try practicing that now. </p>
            <p> When you see an animal, choose which chest to search for treasure. </p>
            <img src='./assets/img/instructions/chooseChest.jpg' class='instructions-image'>","","instructions","","","","","","","","","","","","","","","",""
"revaluation","29","177124","0.0-3.0-6.0-0.0","pilot_wm_v1","6688d16e085c316a7ced59c1","4","null","null","true","","false","","","","","[793.1999999880791]","./assets/img/space/animals/rabbit.jpg","[""ArrowLeft""]","second stage practice","space","15","{""ArrowUp,ArrowLeft"":3,""ArrowUp,ArrowRight"":36,""ArrowDown,ArrowLeft"":15,""ArrowDown,ArrowRight"":23}","false","ArrowDown,ArrowLeft","","","","","","","","","","",""
"html-keyboard-response","30","177632","0.0-3.0-6.0-1.0","pilot_wm_v1","6688d16e085c316a7ced59c1","4","null","null","true","","","","","","","null","<div style=""font-size:60px;"">+</div>","null","fixation","","","","","","","","","","","","","","","",""
"revaluation","31","181653","0.0-3.0-6.0-0.1","pilot_wm_v1","6688d16e085c316a7ced59c1","4","null","null","true","","false","","","","","[678.3000000119209]","./assets/img/space/animals/cat.jpg","[""ArrowRight""]","second stage practice","space","36","{""ArrowUp,ArrowLeft"":3,""ArrowUp,ArrowRight"":36,""ArrowDown,ArrowLeft"":15,""ArrowDown,ArrowRight"":23}","true","ArrowUp,ArrowRight","","","","","","","","","","",""
"html-keyboard-response","32","182163","0.0-3.0-6.0-1.1","pilot_wm_v1","6688d16e085c316a7ced59c1","4","null","null","true","","","","","","","null","<div style=""font-size:60px;"">+</div>","null","fixation","","","","","","","","","","","","","","","",""
"revaluation","33","186177","0.0-3.0-6.0-0.2","pilot_wm_v1","6688d16e085c316a7ced59c1","4","null","null","true","","false","","","","","[468.80000001192093]","./assets/img/space/animals/rabbit.jpg","[""ArrowRight""]","second stage practice","space","23","{""ArrowUp,ArrowLeft"":3,""ArrowUp,ArrowRight"":36,""ArrowDown,ArrowLeft"":15,""ArrowDown,ArrowRight"":23}","true","ArrowDown,ArrowRight","","","","","","","","","","",""
"html-keyboard-response","34","186690","0.0-3.0-6.0-1.2","pilot_wm_v1","6688d16e085c316a7ced59c1","4","null","null","true","","","","","","","null","<div style=""font-size:60px;"">+</div>","null","fixation","","","","","","","","","","","","","","","",""
"revaluation","35","190705","0.0-3.0-6.0-0.3","pilot_wm_v1","6688d16e085c316a7ced59c1","4","null","null","true","","false","","","","","[372.5]","./assets/img/space/animals/cat.jpg","[""ArrowRight""]","second stage practice","space","36","{""ArrowUp,ArrowLeft"":3,""ArrowUp,ArrowRight"":36,""ArrowDown,ArrowLeft"":15,""ArrowDown,ArrowRight"":23}","true","ArrowUp,ArrowRight","","","","","","","","","","",""
"html-keyboard-response","36","191218","0.0-3.0-6.0-1.3","pilot_wm_v1","6688d16e085c316a7ced59c1","4","null","null","true","","","","","","","null","<div style=""font-size:60px;"">+</div>","null","fixation","","","","","","","","","","","","","","","",""
"learning-instructions","37","208809","0.0-3.0-7.0-0.0","pilot_wm_v1","6688d16e085c316a7ced59c1","4","null","null","true","","","","","","","796.4000000357628","<p> Great job. Now let’s try putting it together. </p>
            <p> On each turn, you will first see a picture to remind you of the place you are in, and you need to choose whether to go up or down. </p>
            <p> Then you will see an animal and choose which of its chests to search for treasure. </p>","","instructions","","","","","","","","","","","","","","","",""
"learning-instructions","38","218223","0.0-3.0-7.0-0.1","pilot_wm_v1","6688d16e085c316a7ced59c1","4","null","null","true","","","","","","","1170.5999999642372","<p> When you choose whether to go up or down, try to go to the animal with the chest with the most treasure. </p>
            <p> Try practicing that now! </p>","","instructions","","","","","","","","","","","","","","","",""
"revaluation","39","224233","0.0-3.0-8.0-0.0","pilot_wm_v1","6688d16e085c316a7ced59c1","4","null","null","true","","false","","","","","[790.5,796.6000000238419]","./assets/img/space/6.jpg","[""ArrowUp"",""ArrowRight""]","full practice","space","36","{""ArrowUp,ArrowLeft"":3,""ArrowUp,ArrowRight"":36,""ArrowDown,ArrowLeft"":15,""ArrowDown,ArrowRight"":23}","true","ArrowUp,ArrowRight","false","","","","","","","","","",""
"html-keyboard-response","40","224746","0.0-3.0-8.0-1.0","pilot_wm_v1","6688d16e085c316a7ced59c1","4","null","null","true","","","","","","","null","<div style=""font-size:60px;"">+</div>","null","fixation","","","","","","","","","","","","","","","",""
"revaluation","41","230781","0.0-3.0-8.0-0.1","pilot_wm_v1","6688d16e085c316a7ced59c1","4","null","null","true","","false","","","","","[1081.5,586.1999999880791]","./assets/img/space/7.jpg","[""ArrowDown"",""ArrowLeft""]","full practice","space","15","{""ArrowUp,ArrowLeft"":3,""ArrowUp,ArrowRight"":36,""ArrowDown,ArrowLeft"":15,""ArrowDown,ArrowRight"":23}","false","ArrowDown,ArrowLeft","false","","","","","","","","","",""
"html-keyboard-response","42","231291","0.0-3.0-8.0-1.1","pilot_wm_v1","6688d16e085c316a7ced59c1","4","null","null","true","","","","","","","null","<div style=""font-size:60px;"">+</div>","null","fixation","","","","","","","","","","","","","","","",""
"revaluation","43","237336","0.0-3.0-8.0-0.2","pilot_wm_v1","6688d16e085c316a7ced59c1","4","null","null","true","","false","","","","","[1100.300000011921,401]","./assets/img/space/8.jpg","[""ArrowUp"",""ArrowLeft""]","full practice","space","3","{""ArrowUp,ArrowLeft"":3,""ArrowUp,ArrowRight"":36,""ArrowDown,ArrowLeft"":15,""ArrowDown,ArrowRight"":23}","false","ArrowUp,ArrowLeft","false","","","","","","","","","",""
"html-keyboard-response","44","237847","0.0-3.0-8.0-1.2","pilot_wm_v1","6688d16e085c316a7ced59c1","4","null","null","true","","","","","","","null","<div style=""font-size:60px;"">+</div>","null","fixation","","","","","","","","","","","","","","","",""
"revaluation","45","243875","0.0-3.0-8.0-0.3","pilot_wm_v1","6688d16e085c316a7ced59c1","4","null","null","true","","false","","","","","[301,450.89999997615814]","./assets/img/space/9.jpg","[""ArrowDown"",""ArrowRight""]","full practice","space","23","{""ArrowUp,ArrowLeft"":3,""ArrowUp,ArrowRight"":36,""ArrowDown,ArrowLeft"":15,""ArrowDown,ArrowRight"":23}","false","ArrowDown,ArrowRight","false","","","","","","","","","",""
"html-keyboard-response","46","244387","0.0-3.0-8.0-1.3","pilot_wm_v1","6688d16e085c316a7ced59c1","4","null","null","true","","","","","","","null","<div style=""font-size:60px;"">+</div>","null","fixation","","","","","","","","","","","","","","","",""
"revaluation","47","250401","0.0-3.0-8.0-0.4","pilot_wm_v1","6688d16e085c316a7ced59c1","4","null","null","true","","false","","","","","[802.8000000119209,346.60000002384186]","./assets/img/space/10.jpg","[""ArrowUp"",""ArrowLeft""]","full practice","space","3","{""ArrowUp,ArrowLeft"":3,""ArrowUp,ArrowRight"":36,""ArrowDown,ArrowLeft"":15,""ArrowDown,ArrowRight"":23}","false","ArrowUp,ArrowLeft","false","","","","","","","","","",""
"html-keyboard-response","48","250902","0.0-3.0-8.0-1.4","pilot_wm_v1","6688d16e085c316a7ced59c1","4","null","null","true","","","","","","","null","<div style=""font-size:60px;"">+</div>","null","fixation","","","","","","","","","","","","","","","",""
"learning-instructions","49","262385","0.0-3.0-9.0-0.0","pilot_wm_v1","6688d16e085c316a7ced59c1","4","null","null","true","","","","","","","1195.4000000357628","<p> One last thing: sometimes, you will see a robber. The robber can be anywhere in the picture. </p>
            <p> If you do not stop them, you will lose treasure. </p>
            <img src='./assets/img/instructions/robber.jpg' class='instructions-image'>","","instructions","","","","","","","","","","","","","","","",""
"learning-instructions","50","270813","0.0-3.0-9.0-0.1","pilot_wm_v1","6688d16e085c316a7ced59c1","4","null","null","true","","","","","","","1284.2000000476837","<p> If you see the robber, you should <b>press the space bar</b> rather than using the arrow keys. </p>
            <p> Try practicing that now! </p>","","instructions","","","","","","","","","","","","","","","",""
"revaluation","51","274830","0.0-3.0-10.0-0.0","pilot_wm_v1","6688d16e085c316a7ced59c1","4","null","null","true","","false","","","","","[705.2999999523163]","./assets/img/space/catch/0.jpg","[""spaceBar""]","catch practice","space","0","{""ArrowUp,ArrowLeft"":3,""ArrowUp,ArrowRight"":36,""ArrowDown,ArrowLeft"":15,""ArrowDown,ArrowRight"":23}","true","spaceBar","true","","","","","","","","","",""
"html-keyboard-response","52","275341","0.0-3.0-10.0-1.0","pilot_wm_v1","6688d16e085c316a7ced59c1","4","null","null","true","","","","","","","null","<div style=""font-size:60px;"">+</div>","null","fixation","","","","","","","","","","","","","","","",""
"revaluation","53","279351","0.0-3.0-10.0-0.1","pilot_wm_v1","6688d16e085c316a7ced59c1","4","null","null","true","","false","","","","","[517.9000000357628]","./assets/img/space/catch/1.jpg","[""spaceBar""]","catch practice","space","0","{""ArrowUp,ArrowLeft"":3,""ArrowUp,ArrowRight"":36,""ArrowDown,ArrowLeft"":15,""ArrowDown,ArrowRight"":23}","true","spaceBar","true","","","","","","","","","",""
"html-keyboard-response","54","279864","0.0-3.0-10.0-1.1","pilot_wm_v1","6688d16e085c316a7ced59c1","4","null","null","true","","","","","","","null","<div style=""font-size:60px;"">+</div>","null","fixation","","","","","","","","","","","","","","","",""
"revaluation","55","283881","0.0-3.0-10.0-0.2","pilot_wm_v1","6688d16e085c316a7ced59c1","4","null","null","true","","false","","","","","[670.5]","./assets/img/space/catch/2.jpg","[""spaceBar""]","catch practice","space","0","{""ArrowUp,ArrowLeft"":3,""ArrowUp,ArrowRight"":36,""ArrowDown,ArrowLeft"":15,""ArrowDown,ArrowRight"":23}","true","spaceBar","true","","","","","","","","","",""
"html-keyboard-response","56","284393","0.0-3.0-10.0-1.2","pilot_wm_v1","6688d16e085c316a7ced59c1","4","null","null","true","","","","","","","null","<div style=""font-size:60px;"">+</div>","null","fixation","","","","","","","","","","","","","","","",""
"learning-instructions","57","291219","0.0-3.0-11.0-0.0","pilot_wm_v1","6688d16e085c316a7ced59c1","4","null","null","true","","","","","","","1310.7999999523163","<p> Sometimes, you will come across a special kind of treasure chest that requires a password. </p>
            <img src='./assets/img/instructions/beep_chest.jpg' class='instructions-image'>","","instructions","","","","","","","","","","","","","","","",""
"learning-instructions","58","314300","0.0-3.0-11.0-0.1","pilot_wm_v1","6688d16e085c316a7ced59c1","4","null","null","true","","","","","","","1481.8999999761581","<p> Your friend will send you the password using a series of beeps so that you can open the chest and earn treasure. </p>
            <p> You will hear two kinds of beeps, a high beep and a low beep. </p>
            <p> You should report the number of high beeps that you heard before seeing the chest. </p>
            <img src='./assets/img/instructions/listen.jpg' class='instructions-image'>","","instructions","","","","","","","","","","","","","","","",""
"learning-instructions","59","337204","0.0-3.0-11.0-0.2","pilot_wm_v1","6688d16e085c316a7ced59c1","4","null","null","true","","","","","","","625.9000000357628","<p> For example, if you hear this series of beeps, you should report 4 as the password using the slider. </p>
            <p> After reporting a password for a chest, you should count the high beeps again starting from 0. </p>
            <p> Let's try practicing that now. </p>","","instructions","","","","","","","","","","","","","","","",""
"audio-button-response","60","345219","0.0-3.0-12.0-0.0-0.0","pilot_wm_v1","6688d16e085c316a7ced59c1","4","null","null","true","","","","","","","null","./assets/audio/beeps/practice_6.wav","null","","","","","","","","","","","","","","","","",""
"html-slider-response","61","348565","0.0-3.0-12.0-0.0-1.0","pilot_wm_v1","6688d16e085c316a7ced59c1","4","null","null","true","","","","","","","3344","<div style=""width:500px;"">
        <p>What is the password?</p>
        <img src='./assets/img/instructions/beep_chest.jpg' class='instructions-image'>","6","beep chest","","","","false","","","","50","0","6","","","","","",""
"comp-q","62","354039","0.0-3.0-12.0-0.0-2.0","pilot_wm_v1","6688d16e085c316a7ced59c1","4","null","null","true","","","","","","","1270","<p>Correct! There were 6 high pitched beeps before you saw the chest. </p>","0","beep answer","","","","","","","","","","","","","","","",""
"audio-button-response","63","362058","0.0-3.0-12.0-0.1-0.1","pilot_wm_v1","6688d16e085c316a7ced59c1","4","null","null","true","","","","","","","null","./assets/audio/beeps/practice_4.wav","null","","","","","","","","","","","","","","","","",""
"html-slider-response","64","365663","0.0-3.0-12.0-0.1-1.1","pilot_wm_v1","6688d16e085c316a7ced59c1","4","null","null","true","","","","","","","3604","<div style=""width:500px;"">
        <p>What is the password?</p>
        <img src='./assets/img/instructions/beep_chest.jpg' class='instructions-image'>","5","beep chest","","","","false","","","","50","0","5","","","","","",""
"comp-q","65","372415","0.0-3.0-12.0-0.1-2.1","pilot_wm_v1","6688d16e085c316a7ced59c1","4","null","null","true","","","","","","","1406.199999988079","<p>Incorrect! Please try again. Remember to count the number of high pitched beeps only. </p>","0","beep answer","","","","","","","","","","","","","","","",""
"audio-button-response","66","380408","0.0-3.0-12.0-0.2-0.2","pilot_wm_v1","6688d16e085c316a7ced59c1","4","null","null","true","","","","","","","null","./assets/audio/beeps/practice_4.wav","null","","","","","","","","","","","","","","","","",""
"html-slider-response","67","383822","0.0-3.0-12.0-0.2-1.2","pilot_wm_v1","6688d16e085c316a7ced59c1","4","null","null","true","","","","","","","3413","<div style=""width:500px;"">
        <p>What is the password?</p>
        <img src='./assets/img/instructions/beep_chest.jpg' class='instructions-image'>","4","beep chest","","","","false","","","","50","0","4","","","","","",""
"comp-q","68","389423","0.0-3.0-12.0-0.2-2.2","pilot_wm_v1","6688d16e085c316a7ced59c1","4","null","null","true","","","","","","","1415.3999999761581","<p>Correct! There were 4 high pitched beeps before you saw the chest. </p>","0","beep answer","","","","","","","","","","","","","","","",""
"learning-instructions","69","402056","0.0-3.0-13.0-0.0","pilot_wm_v1","6688d16e085c316a7ced59c1","4","null","null","true","","","","","","","2328","<p> Good job! In the real game we will not tell you if you entered the right password. </p>
            <p> Do your best, the treasure you earn from these chests will also give you extra bonus money. </p>","","instructions","","","","","","","","","","","","","","","",""
"learning-instructions","70","416806","0.0-3.0-14.0-0.0-0.0","pilot_wm_v1","6688d16e085c316a7ced59c1","4","null","null","true","","","","","","","1187.7999999523163","<p> After you explore a place to find treasure, it will be time to play a different game. </p>
            <p> During this game, red dots will appear on the screen and fall down slowly. </p>
            <p><b> You must click on them before they reach the bottom. </b></p>
            <img src='./assets/img/instructions/dotGame.jpg' class='instructions-image'>","","instructions","","","","","","","","","","","","","","","",""
"learning-instructions","71","423270","0.0-3.0-14.0-0.0-0.1","pilot_wm_v1","6688d16e085c316a7ced59c1","4","null","null","true","","","","","","","811.9000000357628","<p> For every dot you click, you will earn additional treasure. </p>
            <p> Let’s try practicing that now. </p>","","instructions","","","","","","","","","","","","","","","",""
"revaluation","72","438274","0.0-3.0-14.0-1.0-0.0","pilot_wm_v1","6688d16e085c316a7ced59c1","4","null","null","true","","","","","","","[56,48]","","","rest practice","","20","","","","","","","","","0","15000","","","",""
"learning-instructions","73","444713","0.0-3.0-15.0-0.0-0.0","pilot_wm_v1","6688d16e085c316a7ced59c1","4","null","null","true","","","","","","","1195.6000000238419","<p> Now, you will practice a shortened version of the game to get a sense of how it all fits together. </p>","","instructions","","","","","","","","","","","","","","","",""
"learning-instructions","74","448550","0.0-3.0-15.0-0.0-0.1","pilot_wm_v1","6688d16e085c316a7ced59c1","4","null","null","true","","","","","","","662.2000000476837","<p>This time you are searching for treasure in outer space.</p>","","instructions","","","","","","","","","","","","","","","",""
"learning-instructions","75","464050","0.0-3.0-15.0-1.0-0.0","pilot_wm_v1","6688d16e085c316a7ced59c1","4","null","null","true","","","","","","","762","<p> Remember, when you see a picture of the place, use the up and down keys to <b>find an animal</b>.</p>
            <p> When you encounter an animal, you should use the left and right keys to <b>select a treasure chest</b>.</p>
            <p> Don't forget to look out for the robber! </p>","","instructions","","","","","","","","","","","","","","","",""
"revaluation","76","470082","0.0-3.0-15.0-2.0-0.0","pilot_wm_v1","6688d16e085c316a7ced59c1","4","null","null","true","","false","","","","","[1059.300000011921,729.1000000238419]","./assets/img/space/11.jpg","[""ArrowUp"",""ArrowRight""]","practice block","space","36","{""ArrowUp,ArrowLeft"":3,""ArrowUp,ArrowRight"":36,""ArrowDown,ArrowLeft"":15,""ArrowDown,ArrowRight"":23}","true","ArrowUp,ArrowRight","false","","","","","","","","","",""
"html-keyboard-response","77","470595","0.0-3.0-15.0-2.0-1.0","pilot_wm_v1","6688d16e085c316a7ced59c1","4","null","null","true","","","","","","","null","<div style=""font-size:60px;"">+</div>","null","fixation","","","","","","","","","","","","","","","",""
"revaluation","78","476616","0.0-3.0-15.0-2.0-0.1","pilot_wm_v1","6688d16e085c316a7ced59c1","4","null","null","true","","false","","","","","[1531.8999999761581,681.8000000119209]","./assets/img/space/12.jpg","[""ArrowDown"",""ArrowRight""]","practice block","space","23","{""ArrowUp,ArrowLeft"":3,""ArrowUp,ArrowRight"":36,""ArrowDown,ArrowLeft"":15,""ArrowDown,ArrowRight"":23}","false","ArrowDown,ArrowRight","false","","","","","","","","","",""
"html-keyboard-response","79","477126","0.0-3.0-15.0-2.0-1.1","pilot_wm_v1","6688d16e085c316a7ced59c1","4","null","null","true","","","","","","","null","<div style=""font-size:60px;"">+</div>","null","fixation","","","","","","","","","","","","","","","",""
"revaluation","80","483164","0.0-3.0-15.0-2.0-0.2","pilot_wm_v1","6688d16e085c316a7ced59c1","4","null","null","true","","false","","","","","[784.6999999880791,350.69999998807907]","./assets/img/space/13.jpg","[""ArrowUp"",""ArrowRight""]","practice block","space","36","{""ArrowUp,ArrowLeft"":3,""ArrowUp,ArrowRight"":36,""ArrowDown,ArrowLeft"":15,""ArrowDown,ArrowRight"":23}","true","ArrowUp,ArrowRight","false","","","","","","","","","",""
"html-keyboard-response","81","483675","0.0-3.0-15.0-2.0-1.2","pilot_wm_v1","6688d16e085c316a7ced59c1","4","null","null","true","","","","","","","null","<div style=""font-size:60px;"">+</div>","null","fixation","","","","","","","","","","","","","","","",""
"revaluation","82","489700","0.0-3.0-15.0-2.0-0.3","pilot_wm_v1","6688d16e085c316a7ced59c1","4","null","null","true","","false","","","","","[839.5,225.19999998807907]","./assets/img/space/14.jpg","[""ArrowUp"",""ArrowRight""]","practice block","space","36","{""ArrowUp,ArrowLeft"":3,""ArrowUp,ArrowRight"":36,""ArrowDown,ArrowLeft"":15,""ArrowDown,ArrowRight"":23}","true","ArrowUp,ArrowRight","false","","","","","","","","","",""
"html-keyboard-response","83","490209","0.0-3.0-15.0-2.0-1.3","pilot_wm_v1","6688d16e085c316a7ced59c1","4","null","null","true","","","","","","","null","<div style=""font-size:60px;"">+</div>","null","fixation","","","","","","","","","","","","","","","",""
"revaluation","84","496219","0.0-3.0-15.0-2.0-0.4","pilot_wm_v1","6688d16e085c316a7ced59c1","4","null","null","true","","false","","","","","[1321.699999988079,502.4000000357628]","./assets/img/space/11.jpg","[""ArrowDown"",""ArrowRight""]","practice block","space","23","{""ArrowUp,ArrowLeft"":3,""ArrowUp,ArrowRight"":36,""ArrowDown,ArrowLeft"":15,""ArrowDown,ArrowRight"":23}","false","ArrowDown,ArrowRight","false","","","","","","","","","",""
"html-keyboard-response","85","496720","0.0-3.0-15.0-2.0-1.4","pilot_wm_v1","6688d16e085c316a7ced59c1","4","null","null","true","","","","","","","null","<div style=""font-size:60px;"">+</div>","null","fixation","","","","","","","","","","","","","","","",""
"revaluation","86","502726","0.0-3.0-15.0-2.0-0.5","pilot_wm_v1","6688d16e085c316a7ced59c1","4","null","null","true","","false","","","","","[1015.1999999880791,349.10000002384186]","./assets/img/space/12.jpg","[""ArrowUp"",""ArrowRight""]","practice block","space","36","{""ArrowUp,ArrowLeft"":3,""ArrowUp,ArrowRight"":36,""ArrowDown,ArrowLeft"":15,""ArrowDown,ArrowRight"":23}","true","ArrowUp,ArrowRight","false","","","","","","","","","",""
"html-keyboard-response","87","503228","0.0-3.0-15.0-2.0-1.5","pilot_wm_v1","6688d16e085c316a7ced59c1","4","null","null","true","","","","","","","null","<div style=""font-size:60px;"">+</div>","null","fixation","","","","","","","","","","","","","","","",""
"revaluation","88","509234","0.0-3.0-15.0-2.0-0.6","pilot_wm_v1","6688d16e085c316a7ced59c1","4","null","null","true","","false","","","","","[855.1000000238419,265]","./assets/img/space/13.jpg","[""ArrowUp"",""ArrowRight""]","practice block","space","36","{""ArrowUp,ArrowLeft"":3,""ArrowUp,ArrowRight"":36,""ArrowDown,ArrowLeft"":15,""ArrowDown,ArrowRight"":23}","true","ArrowUp,ArrowRight","false","","","","","","","","","",""
"html-keyboard-response","89","509736","0.0-3.0-15.0-2.0-1.6","pilot_wm_v1","6688d16e085c316a7ced59c1","4","null","null","true","","","","","","","null","<div style=""font-size:60px;"">+</div>","null","fixation","","","","","","","","","","","","","","","",""
"revaluation","90","515740","0.0-3.0-15.0-2.0-0.7","pilot_wm_v1","6688d16e085c316a7ced59c1","4","null","null","true","","false","","","","","[831.7000000476837,244.9000000357628]","./assets/img/space/14.jpg","[""ArrowUp"",""ArrowRight""]","practice block","space","36","{""ArrowUp,ArrowLeft"":3,""ArrowUp,ArrowRight"":36,""ArrowDown,ArrowLeft"":15,""ArrowDown,ArrowRight"":23}","true","ArrowUp,ArrowRight","false","","","","","","","","","",""
"html-keyboard-response","91","516242","0.0-3.0-15.0-2.0-1.7","pilot_wm_v1","6688d16e085c316a7ced59c1","4","null","null","true","","","","","","","null","<div style=""font-size:60px;"">+</div>","null","fixation","","","","","","","","","","","","","","","",""
"revaluation","92","520246","0.0-3.0-15.0-2.0-0.8","pilot_wm_v1","6688d16e085c316a7ced59c1","4","null","null","true","","false","","","","","[483.5999999642372]","./assets/img/space/catch/3.jpg","[""spaceBar""]","practice block","space","0","{""ArrowUp,ArrowLeft"":3,""ArrowUp,ArrowRight"":36,""ArrowDown,ArrowLeft"":15,""ArrowDown,ArrowRight"":23}","true","spaceBar","true","","","","","","","","","",""
"html-keyboard-response","93","520748","0.0-3.0-15.0-2.0-1.8","pilot_wm_v1","6688d16e085c316a7ced59c1","4","null","null","true","","","","","","","null","<div style=""font-size:60px;"">+</div>","null","fixation","","","","","","","","","","","","","","","",""
"learning-instructions","94","535161","0.0-3.0-15.0-3.0-0.0","pilot_wm_v1","6688d16e085c316a7ced59c1","4","null","null","true","","","","","","","1507.2000000476837","<p> Now, you will travel with a friend who will choose whether you go up or down first. </p>
            <p> On these turns, you will just see the animal that they found. You will still get to choose which chest to search for treasure.</p>","","instructions","","","","","","","","","","","","","","","",""
"learning-instructions","95","548011","0.0-3.0-15.0-3.0-0.1","pilot_wm_v1","6688d16e085c316a7ced59c1","4","null","null","true","","","","","","","1237","<p> In this part, you will also hear beeps from your friend and see special treasure chests that need a password. </p>
            <p> Do your best to count the high beeps <b>and</b> choose between each animals' chests at the same time.</p>
            <img src='./assets/img/instructions/beep_chest.jpg' class='instructions-image'>","","instructions","","","","","","","","","","","","","","","",""
"revaluation","96","552034","0.0-3.0-15.0-4.0-0.0","pilot_wm_v1","6688d16e085c316a7ced59c1","4","null","null","true","","false","","","","","[880.4000000357628]","./assets/img/space/animals/rabbit.jpg","[""ArrowRight""]","practice block","space","23","{""ArrowUp,ArrowLeft"":3,""ArrowUp,ArrowRight"":36,""ArrowDown,ArrowLeft"":15,""ArrowDown,ArrowRight"":23}","true","ArrowDown,ArrowRight","","[""22_3""]","","","","","","0","","",""
"html-keyboard-response","97","552544","0.0-3.0-15.0-4.0-1.0","pilot_wm_v1","6688d16e085c316a7ced59c1","4","null","null","true","","","","","","","null","<div style=""font-size:60px;"">+</div>","null","fixation","","","","","","","","","","","","","","","",""
"revaluation","98","556566","0.0-3.0-15.0-4.0-0.1","pilot_wm_v1","6688d16e085c316a7ced59c1","4","null","null","true","","false","","","","","[1848.199999988079]","./assets/img/space/animals/cat.jpg","[""ArrowLeft""]","practice block","space","3","{""ArrowUp,ArrowLeft"":3,""ArrowUp,ArrowRight"":36,""ArrowDown,ArrowLeft"":15,""ArrowDown,ArrowRight"":23}","false","ArrowUp,ArrowLeft","","[""19_0""]","","","","","","1","","",""
"html-keyboard-response","99","557078","0.0-3.0-15.0-4.0-1.1","pilot_wm_v1","6688d16e085c316a7ced59c1","4","null","null","true","","","","","","","null","<div style=""font-size:60px;"">+</div>","null","fixation","","","","","","","","","","","","","","","",""
"revaluation","100","561090","0.0-3.0-15.0-4.0-0.2","pilot_wm_v1","6688d16e085c316a7ced59c1","4","null","null","true","","false","","","","","[565]","./assets/img/space/animals/cat.jpg","[""ArrowRight""]","practice block","space","36","{""ArrowUp,ArrowLeft"":3,""ArrowUp,ArrowRight"":36,""ArrowDown,ArrowLeft"":15,""ArrowDown,ArrowRight"":23}","true","ArrowUp,ArrowRight","","[""20_0""]","","","","","","2","","",""
"html-keyboard-response","101","561602","0.0-3.0-15.0-4.0-1.2","pilot_wm_v1","6688d16e085c316a7ced59c1","4","null","null","true","","","","","","","null","<div style=""font-size:60px;"">+</div>","null","fixation","","","","","","","","","","","","","","","",""
"revaluation","102","565625","0.0-3.0-15.0-4.0-0.3","pilot_wm_v1","6688d16e085c316a7ced59c1","4","null","null","true","","false","","","","","[499.5]","./assets/img/space/animals/rabbit.jpg","[""ArrowRight""]","practice block","space","23","{""ArrowUp,ArrowLeft"":3,""ArrowUp,ArrowRight"":36,""ArrowDown,ArrowLeft"":15,""ArrowDown,ArrowRight"":23}","true","ArrowDown,ArrowRight","","[""21_1""]","","","","","","3","","",""
"html-keyboard-response","103","566136","0.0-3.0-15.0-4.0-1.3","pilot_wm_v1","6688d16e085c316a7ced59c1","4","null","null","true","","","","","","","null","<div style=""font-size:60px;"">+</div>","null","fixation","","","","","","","","","","","","","","","",""
"html-slider-response","104","572369","0.0-3.0-15.0-4.0-2.3-0.3","pilot_wm_v1","6688d16e085c316a7ced59c1","4","null","null","true","","","","","","","6232","<div style=""width:500px;"">
        <p>What is the password?</p>
        <img src='./assets/img/instructions/beep_chest.jpg' class='instructions-image'>","1","beep chest","","","","false","","","","50","82","81","","","","","",""
"learning-instructions","105","580653","0.0-3.0-15.0-5.0-0.0-0.0","pilot_wm_v1","6688d16e085c316a7ced59c1","4","null","null","true","","","","","","","929.8000000119209","<p> Time to play the dot game! </p>
            <p> For 15 seconds, click the red dots on the following screen as they appear. </p>","","instructions","","","","","","","","","","","","","","","",""
"revaluation","106","595653","0.0-3.0-15.0-5.0-1.0-0.0","pilot_wm_v1","6688d16e085c316a7ced59c1","4","null","null","true","","","","","","","[57,43]","","","rest practice","","20","","","","","","","","","0","15000","","","",""
"learning-instructions","107","603775","0.0-3.0-15.0-6.0-0.0","pilot_wm_v1","6688d16e085c316a7ced59c1","4","null","null","true","","","","","","","null","<p> You have almost finished this part of the game! </p>
            <p> We are going to ask you to make a few more choices. </p>","","instructions","","","","","","","","","","","","","","","",""
"learning-instructions","108","619763","0.0-3.0-15.0-6.0-0.1","pilot_wm_v1","6688d16e085c316a7ced59c1","4","null","null","true","","","","","","","null","<p> First, you need to decide whether to go up or down. When you see each picture, use the arrow keys to make your choice. </p>
            <p><b>You will not see which animal you found, but try to get to the one that will give you the most treasure.</b></p>","","instructions","","","","","","","","","","","","","","","",""
"html-keyboard-response","109","620775","0.0-3.0-15.0-7.0-0.0","pilot_wm_v1","6688d16e085c316a7ced59c1","4","null","null","true","","","","","","","null","<div style=""font-size:100px;color:red;"">Starting in...</div>","null","","","","","","","","","","","","","","","","",""
"html-keyboard-response","110","621778","0.0-3.0-15.0-7.0-1.0","pilot_wm_v1","6688d16e085c316a7ced59c1","4","null","null","true","","","","","","","null","<div style=""font-size:200px;color:red;"">3</div>","null","","","","","","","","","","","","","","","","",""
"html-keyboard-response","111","622781","0.0-3.0-15.0-7.0-2.0","pilot_wm_v1","6688d16e085c316a7ced59c1","4","null","null","true","","","","","","","null","<div style=""font-size:200px;color:red;"">2</div>","null","","","","","","","","","","","","","","","","",""
"html-keyboard-response","112","623788","0.0-3.0-15.0-7.0-3.0","pilot_wm_v1","6688d16e085c316a7ced59c1","4","null","null","true","","","","","","","null","<div style=""font-size:200px;color:red;"">1</div>","null","","","","","","","","","","","","","","","","",""
"revaluation","113","624658","0.0-3.0-15.0-8.0","pilot_wm_v1","6688d16e085c316a7ced59c1","4","null","null","true","","false","","","","","[869.3000000119209]","./assets/img/space/15.jpg","[""ArrowUp""]","practice block","space","0","{""ArrowUp,ArrowLeft"":3,""ArrowUp,ArrowRight"":36,""ArrowDown,ArrowLeft"":15,""ArrowDown,ArrowRight"":23}","true","ArrowUp","false","","","","","","","","","",""
"html-keyboard-response","114","625161","0.0-3.0-15.0-9.0","pilot_wm_v1","6688d16e085c316a7ced59c1","4","null","null","true","","","","","","","null","<div style=""font-size:60px;"">+</div>","null","fixation","","","","","","","","","","","","","","","",""
"learning-instructions","115","638534","0.0-3.0-15.0-10.0-0.0","pilot_wm_v1","6688d16e085c316a7ced59c1","4","null","null","true","","","","","","","null","<p> Now you will see the animals again and can search their chests for treasure. </p>
            <p> This time, you will not see how much treasure you earned, but you will earn more bonus money for making better choices. </p>","","instructions","","","","","","","","","","","","","","","",""
"html-keyboard-response","116","639535","0.0-3.0-15.0-11.0-0.0","pilot_wm_v1","6688d16e085c316a7ced59c1","4","null","null","true","","","","","","","null","<div style=""font-size:100px;color:red;"">Starting in...</div>","null","","","","","","","","","","","","","","","","",""
"html-keyboard-response","117","640542","0.0-3.0-15.0-11.0-1.0","pilot_wm_v1","6688d16e085c316a7ced59c1","4","null","null","true","","","","","","","null","<div style=""font-size:200px;color:red;"">3</div>","null","","","","","","","","","","","","","","","","",""
"html-keyboard-response","118","641558","0.0-3.0-15.0-11.0-2.0","pilot_wm_v1","6688d16e085c316a7ced59c1","4","null","null","true","","","","","","","null","<div style=""font-size:200px;color:red;"">2</div>","null","","","","","","","","","","","","","","","","",""
"html-keyboard-response","119","642563","0.0-3.0-15.0-11.0-3.0","pilot_wm_v1","6688d16e085c316a7ced59c1","4","null","null","true","","","","","","","null","<div style=""font-size:200px;color:red;"">1</div>","null","","","","","","","","","","","","","","","","",""
"revaluation","120","642968","0.0-3.0-15.0-12.0-0.0","pilot_wm_v1","6688d16e085c316a7ced59c1","4","null","null","true","","false","","","","","[403.39999997615814]","./assets/img/space/animals/cat.jpg","[""ArrowRight""]","practice block","space","0","{""ArrowUp,ArrowLeft"":3,""ArrowUp,ArrowRight"":36,""ArrowDown,ArrowLeft"":15,""ArrowDown,ArrowRight"":23}","true","ArrowUp,ArrowRight","","","","","","","","","","",""
"html-keyboard-response","121","643476","0.0-3.0-15.0-12.0-1.0","pilot_wm_v1","6688d16e085c316a7ced59c1","4","null","null","true","","","","","","","null","<div style=""font-size:60px;"">+</div>","null","fixation","","","","","","","","","","","","","","","",""
"revaluation","122","644067","0.0-3.0-15.0-12.0-0.1","pilot_wm_v1","6688d16e085c316a7ced59c1","4","null","null","true","","false","","","","","[589.3000000119209]","./assets/img/space/animals/rabbit.jpg","[""ArrowRight""]","practice block","space","0","{""ArrowUp,ArrowLeft"":3,""ArrowUp,ArrowRight"":36,""ArrowDown,ArrowLeft"":15,""ArrowDown,ArrowRight"":23}","true","ArrowDown,ArrowRight","","","","","","","","","","",""
"html-keyboard-response","123","644573","0.0-3.0-15.0-12.0-1.1","pilot_wm_v1","6688d16e085c316a7ced59c1","4","null","null","true","","","","","","","null","<div style=""font-size:60px;"">+</div>","null","fixation","","","","","","","","","","","","","","","",""
"learning-instructions","124","650713","0.0-3.0-16.0-0.0","pilot_wm_v1","6688d16e085c316a7ced59c1","4","null","null","true","","","","","","","1579.8999999761581","<p> Before you start, we're going to ask you a few questions about how the game works. </p>","","instructions","","","","","","","","","","","","","","","",""
"comp-q","125","659606","0.0-3.0-17.0-0.0-0.0","pilot_wm_v1","6688d16e085c316a7ced59c1","4","null","null","true","","","","","","","3321.199999988079","<p> <b> True or False? </b> </p>
            <p> There can be 50 pieces of treasure in a given animal's chest. </p>","1","comp_question","","","","true","","","","","","","","","","","",""
"comp-q","126","667460","0.0-3.0-17.0-0.0-1.0","pilot_wm_v1","6688d16e085c316a7ced59c1","4","null","null","true","","","","","","","1206.199999988079","<p> <b> That's right! </b> The amount of treasure in each chest can range from 0 to 40 pieces. </p>","0","comp_answer","","","","","","","","","","","","","","","",""
"comp-q","127","675300","0.0-3.0-17.0-0.1-0.1","pilot_wm_v1","6688d16e085c316a7ced59c1","4","null","null","true","","","","","","","735.5","<p> <b> True or False? </b> </p><p> In this game, all animals have the same amount of treasure in their left and right chests. </p>","1","comp_question","","","","true","","","","","","","","","","","",""
"comp-q","128","682378","0.0-3.0-17.0-0.1-1.1","pilot_wm_v1","6688d16e085c316a7ced59c1","4","null","null","true","","","","","","","1854.1000000238419","<p> <b> That's right! </b> Animals have different amounts of treasure in their treasure chests. </p>","0","comp_answer","","","","","","","","","","","","","","","",""
"comp-q","129","695359","0.0-3.0-17.0-0.2-0.2","pilot_wm_v1","6688d16e085c316a7ced59c1","4","null","null","true","","","","","","","7145.599999964237","<p> <b> True or False? </b> </p><p> The same animal will always be there if you go up in the same place. </p>","0","comp_question","","","","true","","","","","","","","","","","",""
"comp-q","130","703079","0.0-3.0-17.0-0.2-1.2","pilot_wm_v1","6688d16e085c316a7ced59c1","4","null","null","true","","","","","","","1295.699999988079","<p> <b> That's right! </b> One animal lives in the upper part and one lives in the lower part of every place. </p>","0","comp_answer","","","","","","","","","","","","","","","",""
"comp-q","131","710232","0.0-3.0-17.0-0.3-0.3","pilot_wm_v1","6688d16e085c316a7ced59c1","4","null","null","true","","","","","","","1648.699999988079","<p> <b> True or False? </b> </p><p> If you see a different picture, it means you are in a new place. </p>","0","comp_question","","","","false","","","","","","","","","","","",""
"comp-q","132","722639","0.0-3.0-17.0-0.3-1.3","pilot_wm_v1","6688d16e085c316a7ced59c1","4","null","null","true","","","","","","","1336.0999999642372","<p> <b>Incorrect.</b> Lots of different images may show the same place. For example,  you may see three different images that all remind you that you are in outer space. </p>","0","comp_answer","","","","","","","","","","","","","","","",""
"comp-q","133","728646","0.0-3.0-17.0-0.4-0.4","pilot_wm_v1","6688d16e085c316a7ced59c1","4","null","null","true","","","","","","","513","<p> <b> True or False? </b> </p><p> If you see a different picture, it means you are in a new place. </p>","1","comp_question","","","","true","","","","","","","","","","","",""
"comp-q","134","741403","0.0-3.0-17.0-0.4-1.4","pilot_wm_v1","6688d16e085c316a7ced59c1","4","null","null","true","","","","","","","1549.5999999642372","<p> <b> That's right! </b> Lots of different images may show the same place. For example,  you may see three different images that all remind you that you are in outer space. </p>","0","comp_answer","","","","","","","","","","","","","","","",""
"learning-instructions","135","752020","0.0-3.0-18.0-0.0","pilot_wm_v1","6688d16e085c316a7ced59c1","4","null","null","true","","","","","","","776.3999999761581","<p> Good job. Remember to do your best because the amount of treasure you earn will be converted into bonus money. </p>
            <p> It’s time to start the real game! </p>","","instructions","","","","","","","","","","","","","","","",""
"learning-instructions","136","756164","0.0-4.0-0.0-0.0","pilot_wm_v1","6688d16e085c316a7ced59c1","4","null","null","true","","","","","","","1439.800000011921","<p> This time you are searching for treasure in the <b>ocean</b>.</p>","","instructions","","","","","","","","","","","","","","","",""
"learning-instructions","137","774819","0.0-4.0-0.0-0.1","pilot_wm_v1","6688d16e085c316a7ced59c1","4","null","null","true","","","","","","","1395.7999999523163","<p><b>New</b> animals with <b>new</b> treasure chests live here. You need to explore to discover where the animal with the best treasure chest is.</p>
                    <p> Like before, once you figure out which animal has the chest with the most treasure, you should try to get to that animal and select that chest! </p>","","instructions","","","","","","","","","","","","","","","",""
"learning-instructions","138","790716","0.0-4.0-1.0-0.0","pilot_wm_v1","6688d16e085c316a7ced59c1","4","null","null","true","","","","","","","1172.699999988079","<p> Remember, when you see a picture of the place, use the up and down keys to <b>find an animal</b>.</p>
            <p> When you encounter an animal, you should use the left and right keys to <b>select a treasure chest</b>.</p>
            <p> Don't forget to look out for the robber! </p>","","instructions","","","","","","","","","","","","","","","",""
"revaluation","139","796750","0.0-4.0-2.0-0.0","pilot_wm_v1","6688d16e085c316a7ced59c1","4","null","null","true","","false","","","","","[1021.3000000119209,508.5999999642372]","./assets/img/ocean/memory/20.jpg","[""ArrowUp"",""ArrowLeft""]","value training","ocean","26","{""ArrowUp,ArrowLeft"":26,""ArrowUp,ArrowRight"":10,""ArrowDown,ArrowLeft"":5,""ArrowDown,ArrowRight"":17}","true","ArrowUp,ArrowLeft","false","","","","","","","0","revaluation","1",""
"html-keyboard-response","140","797264","0.0-4.0-2.0-1.0","pilot_wm_v1","6688d16e085c316a7ced59c1","4","null","null","true","","","","","","","null","<div style=""font-size:60px;"">+</div>","null","fixation","","","","","","","","","","","","","1","","",""
"revaluation","141","803302","0.0-4.0-2.0-0.1","pilot_wm_v1","6688d16e085c316a7ced59c1","4","null","null","true","","false","","","","","[484.89999997615814,313.69999998807907]","./assets/img/ocean/memory/30.jpg","[""ArrowUp"",""ArrowRight""]","value training","ocean","10","{""ArrowUp,ArrowLeft"":26,""ArrowUp,ArrowRight"":10,""ArrowDown,ArrowLeft"":5,""ArrowDown,ArrowRight"":17}","false","ArrowUp,ArrowRight","false","","","","","","","2","revaluation","1",""
"html-keyboard-response","142","803810","0.0-4.0-2.0-1.1","pilot_wm_v1","6688d16e085c316a7ced59c1","4","null","null","true","","","","","","","null","<div style=""font-size:60px;"">+</div>","null","fixation","","","","","","","","","","","","","3","","",""
"revaluation","143","809836","0.0-4.0-2.0-0.2","pilot_wm_v1","6688d16e085c316a7ced59c1","4","null","null","true","","false","","","","","[582.6999999880791,328.60000002384186]","./assets/img/ocean/memory/37.jpg","[""ArrowDown"",""ArrowLeft""]","value training","ocean","5","{""ArrowUp,ArrowLeft"":26,""ArrowUp,ArrowRight"":10,""ArrowDown,ArrowLeft"":5,""ArrowDown,ArrowRight"":17}","false","ArrowDown,ArrowLeft","false","","","","","","","4","revaluation","1",""
"html-keyboard-response","144","810347","0.0-4.0-2.0-1.2","pilot_wm_v1","6688d16e085c316a7ced59c1","4","null","null","true","","","","","","","null","<div style=""font-size:60px;"">+</div>","null","fixation","","","","","","","","","","","","","5","","",""
"revaluation","145","816374","0.0-4.0-2.0-0.3","pilot_wm_v1","6688d16e085c316a7ced59c1","4","null","null","true","","false","","","","","[566.5,215.39999997615814]","./assets/img/ocean/memory/19.jpg","[""ArrowDown"",""ArrowRight""]","value training","ocean","17","{""ArrowUp,ArrowLeft"":26,""ArrowUp,ArrowRight"":10,""ArrowDown,ArrowLeft"":5,""ArrowDown,ArrowRight"":17}","false","ArrowDown,ArrowRight","false","","","","","","","6","revaluation","1",""
"html-keyboard-response","146","816884","0.0-4.0-2.0-1.3","pilot_wm_v1","6688d16e085c316a7ced59c1","4","null","null","true","","","","","","","null","<div style=""font-size:60px;"">+</div>","null","fixation","","","","","","","","","","","","","7","","",""
"revaluation","147","822901","0.0-4.0-2.0-0.4","pilot_wm_v1","6688d16e085c316a7ced59c1","4","null","null","true","","false","","","","","[566.3999999761581,373.4000000357628]","./assets/img/ocean/memory/12.jpg","[""ArrowUp"",""ArrowLeft""]","value training","ocean","26","{""ArrowUp,ArrowLeft"":26,""ArrowUp,ArrowRight"":10,""ArrowDown,ArrowLeft"":5,""ArrowDown,ArrowRight"":17}","true","ArrowUp,ArrowLeft","false","","","","","","","8","revaluation","1",""
"html-keyboard-response","148","823402","0.0-4.0-2.0-1.4","pilot_wm_v1","6688d16e085c316a7ced59c1","4","null","null","true","","","","","","","null","<div style=""font-size:60px;"">+</div>","null","fixation","","","","","","","","","","","","","9","","",""
"revaluation","149","829408","0.0-4.0-2.0-0.5","pilot_wm_v1","6688d16e085c316a7ced59c1","4","null","null","true","","false","","","","","[790.0999999642372,248]","./assets/img/ocean/memory/21.jpg","[""ArrowUp"",""ArrowLeft""]","value training","ocean","26","{""ArrowUp,ArrowLeft"":26,""ArrowUp,ArrowRight"":10,""ArrowDown,ArrowLeft"":5,""ArrowDown,ArrowRight"":17}","true","ArrowUp,ArrowLeft","false","","","","","","","10","revaluation","1",""
"html-keyboard-response","150","829910","0.0-4.0-2.0-1.5","pilot_wm_v1","6688d16e085c316a7ced59c1","4","null","null","true","","","","","","","null","<div style=""font-size:60px;"">+</div>","null","fixation","","","","","","","","","","","","","11","","",""
"revaluation","151","833913","0.0-4.0-2.0-0.6","pilot_wm_v1","6688d16e085c316a7ced59c1","4","null","null","true","","false","","","","","[619.1999999880791]","./assets/img/ocean/catch/7.jpg","[""spaceBar""]","value training","ocean","0","{""ArrowUp,ArrowLeft"":26,""ArrowUp,ArrowRight"":10,""ArrowDown,ArrowLeft"":5,""ArrowDown,ArrowRight"":17}","true","spaceBar","true","","","","","","","12","revaluation","1",""
"html-keyboard-response","152","834414","0.0-4.0-2.0-1.6","pilot_wm_v1","6688d16e085c316a7ced59c1","4","null","null","true","","","","","","","null","<div style=""font-size:60px;"">+</div>","null","fixation","","","","","","","","","","","","","13","","",""
"revaluation","153","840420","0.0-4.0-2.0-0.7","pilot_wm_v1","6688d16e085c316a7ced59c1","4","null","null","true","","false","","","","","[588.6000000238419,282.5]","./assets/img/ocean/memory/40.jpg","[""ArrowUp"",""ArrowLeft""]","value training","ocean","26","{""ArrowUp,ArrowLeft"":26,""ArrowUp,ArrowRight"":10,""ArrowDown,ArrowLeft"":5,""ArrowDown,ArrowRight"":17}","true","ArrowUp,ArrowLeft","false","","","","","","","14","revaluation","1",""
"html-keyboard-response","154","840921","0.0-4.0-2.0-1.7","pilot_wm_v1","6688d16e085c316a7ced59c1","4","null","null","true","","","","","","","null","<div style=""font-size:60px;"">+</div>","null","fixation","","","","","","","","","","","","","15","","",""
"revaluation","155","846926","0.0-4.0-2.0-0.8","pilot_wm_v1","6688d16e085c316a7ced59c1","4","null","null","true","","false","","","","","[676.5,329.4000000357628]","./assets/img/ocean/memory/11.jpg","[""ArrowUp"",""ArrowLeft""]","value training","ocean","26","{""ArrowUp,ArrowLeft"":26,""ArrowUp,ArrowRight"":10,""ArrowDown,ArrowLeft"":5,""ArrowDown,ArrowRight"":17}","true","ArrowUp,ArrowLeft","false","","","","","","","16","revaluation","1",""
"html-keyboard-response","156","847428","0.0-4.0-2.0-1.8","pilot_wm_v1","6688d16e085c316a7ced59c1","4","null","null","true","","","","","","","null","<div style=""font-size:60px;"">+</div>","null","fixation","","","","","","","","","","","","","17","","",""
"revaluation","157","853434","0.0-4.0-2.0-0.9","pilot_wm_v1","6688d16e085c316a7ced59c1","4","null","null","true","","false","","","","","[818.3999999761581,347.10000002384186]","./assets/img/ocean/memory/35.jpg","[""ArrowUp"",""ArrowLeft""]","value training","ocean","26","{""ArrowUp,ArrowLeft"":26,""ArrowUp,ArrowRight"":10,""ArrowDown,ArrowLeft"":5,""ArrowDown,ArrowRight"":17}","true","ArrowUp,ArrowLeft","false","","","","","","","18","revaluation","1",""
"html-keyboard-response","158","853935","0.0-4.0-2.0-1.9","pilot_wm_v1","6688d16e085c316a7ced59c1","4","null","null","true","","","","","","","null","<div style=""font-size:60px;"">+</div>","null","fixation","","","","","","","","","","","","","19","","",""
"revaluation","159","859940","0.0-4.0-2.0-0.10","pilot_wm_v1","6688d16e085c316a7ced59c1","4","null","null","true","","false","","","","","[689.0999999642372,383.89999997615814]","./assets/img/ocean/memory/27.jpg","[""ArrowUp"",""ArrowLeft""]","value training","ocean","26","{""ArrowUp,ArrowLeft"":26,""ArrowUp,ArrowRight"":10,""ArrowDown,ArrowLeft"":5,""ArrowDown,ArrowRight"":17}","true","ArrowUp,ArrowLeft","false","","","","","","","20","revaluation","1",""
"html-keyboard-response","160","860441","0.0-4.0-2.0-1.10","pilot_wm_v1","6688d16e085c316a7ced59c1","4","null","null","true","","","","","","","null","<div style=""font-size:60px;"">+</div>","null","fixation","","","","","","","","","","","","","21","","",""
"revaluation","161","864443","0.0-4.0-2.0-0.11","pilot_wm_v1","6688d16e085c316a7ced59c1","4","null","null","true","","false","","","","","[689]","./assets/img/ocean/catch/1.jpg","[""spaceBar""]","value training","ocean","0","{""ArrowUp,ArrowLeft"":26,""ArrowUp,ArrowRight"":10,""ArrowDown,ArrowLeft"":5,""ArrowDown,ArrowRight"":17}","true","spaceBar","true","","","","","","","22","revaluation","1",""
"html-keyboard-response","162","864944","0.0-4.0-2.0-1.11","pilot_wm_v1","6688d16e085c316a7ced59c1","4","null","null","true","","","","","","","null","<div style=""font-size:60px;"">+</div>","null","fixation","","","","","","","","","","","","","23","","",""
"revaluation","163","870948","0.0-4.0-2.0-0.12","pilot_wm_v1","6688d16e085c316a7ced59c1","4","null","null","true","","false","","","","","[548.3999999761581,217.30000001192093]","./assets/img/ocean/memory/26.jpg","[""ArrowUp"",""ArrowLeft""]","value training","ocean","26","{""ArrowUp,ArrowLeft"":26,""ArrowUp,ArrowRight"":10,""ArrowDown,ArrowLeft"":5,""ArrowDown,ArrowRight"":17}","true","ArrowUp,ArrowLeft","false","","","","","","","24","revaluation","1",""
"html-keyboard-response","164","871449","0.0-4.0-2.0-1.12","pilot_wm_v1","6688d16e085c316a7ced59c1","4","null","null","true","","","","","","","null","<div style=""font-size:60px;"">+</div>","null","fixation","","","","","","","","","","","","","25","","",""
"revaluation","165","877454","0.0-4.0-2.0-0.13","pilot_wm_v1","6688d16e085c316a7ced59c1","4","null","null","true","","false","","","","","[494.19999998807907,259.30000001192093]","./assets/img/ocean/memory/34.jpg","[""ArrowUp"",""ArrowLeft""]","value training","ocean","26","{""ArrowUp,ArrowLeft"":26,""ArrowUp,ArrowRight"":10,""ArrowDown,ArrowLeft"":5,""ArrowDown,ArrowRight"":17}","true","ArrowUp,ArrowLeft","false","","","","","","","26","revaluation","1",""
"html-keyboard-response","166","877955","0.0-4.0-2.0-1.13","pilot_wm_v1","6688d16e085c316a7ced59c1","4","null","null","true","","","","","","","null","<div style=""font-size:60px;"">+</div>","null","fixation","","","","","","","","","","","","","27","","",""
"revaluation","167","883959","0.0-4.0-2.0-0.14","pilot_wm_v1","6688d16e085c316a7ced59c1","4","null","null","true","","false","","","","","[592.3999999761581,250.20000004768372]","./assets/img/ocean/memory/9.jpg","[""ArrowUp"",""ArrowLeft""]","value training","ocean","26","{""ArrowUp,ArrowLeft"":26,""ArrowUp,ArrowRight"":10,""ArrowDown,ArrowLeft"":5,""ArrowDown,ArrowRight"":17}","true","ArrowUp,ArrowLeft","false","","","","","","","28","revaluation","1",""
"html-keyboard-response","168","884461","0.0-4.0-2.0-1.14","pilot_wm_v1","6688d16e085c316a7ced59c1","4","null","null","true","","","","","","","null","<div style=""font-size:60px;"">+</div>","null","fixation","","","","","","","","","","","","","29","","",""
"revaluation","169","890465","0.0-4.0-2.0-0.15","pilot_wm_v1","6688d16e085c316a7ced59c1","4","null","null","true","","false","","","","","[485.9000000357628,227.9000000357628]","./assets/img/ocean/memory/17.jpg","[""ArrowUp"",""ArrowLeft""]","value training","ocean","26","{""ArrowUp,ArrowLeft"":26,""ArrowUp,ArrowRight"":10,""ArrowDown,ArrowLeft"":5,""ArrowDown,ArrowRight"":17}","true","ArrowUp,ArrowLeft","false","","","","","","","30","revaluation","1",""
"html-keyboard-response","170","890966","0.0-4.0-2.0-1.15","pilot_wm_v1","6688d16e085c316a7ced59c1","4","null","null","true","","","","","","","null","<div style=""font-size:60px;"">+</div>","null","fixation","","","","","","","","","","","","","31","","",""
"revaluation","171","896972","0.0-4.0-2.0-0.16","pilot_wm_v1","6688d16e085c316a7ced59c1","4","null","null","true","","false","","","","","[554.7000000476837,462.80000001192093]","./assets/img/ocean/memory/0.jpg","[""ArrowUp"",""ArrowLeft""]","value training","ocean","26","{""ArrowUp,ArrowLeft"":26,""ArrowUp,ArrowRight"":10,""ArrowDown,ArrowLeft"":5,""ArrowDown,ArrowRight"":17}","true","ArrowUp,ArrowLeft","false","","","","","","","32","revaluation","1",""
"html-keyboard-response","172","897473","0.0-4.0-2.0-1.16","pilot_wm_v1","6688d16e085c316a7ced59c1","4","null","null","true","","","","","","","null","<div style=""font-size:60px;"">+</div>","null","fixation","","","","","","","","","","","","","33","","",""
"revaluation","173","903478","0.0-4.0-2.0-0.17","pilot_wm_v1","6688d16e085c316a7ced59c1","4","null","null","true","","false","","","","","[554.6999999880791,225.60000002384186]","./assets/img/ocean/memory/34.jpg","[""ArrowUp"",""ArrowLeft""]","value training","ocean","26","{""ArrowUp,ArrowLeft"":26,""ArrowUp,ArrowRight"":10,""ArrowDown,ArrowLeft"":5,""ArrowDown,ArrowRight"":17}","true","ArrowUp,ArrowLeft","false","","","","","","","34","revaluation","1",""
"html-keyboard-response","174","903980","0.0-4.0-2.0-1.17","pilot_wm_v1","6688d16e085c316a7ced59c1","4","null","null","true","","","","","","","null","<div style=""font-size:60px;"">+</div>","null","fixation","","","","","","","","","","","","","35","","",""
"revaluation","175","909985","0.0-4.0-2.0-0.18","pilot_wm_v1","6688d16e085c316a7ced59c1","4","null","null","true","","false","","","","","[675.8000000119209,281.5]","./assets/img/ocean/memory/16.jpg","[""ArrowUp"",""ArrowLeft""]","value training","ocean","26","{""ArrowUp,ArrowLeft"":26,""ArrowUp,ArrowRight"":10,""ArrowDown,ArrowLeft"":5,""ArrowDown,ArrowRight"":17}","true","ArrowUp,ArrowLeft","false","","","","","","","36","revaluation","1",""
"html-keyboard-response","176","910486","0.0-4.0-2.0-1.18","pilot_wm_v1","6688d16e085c316a7ced59c1","4","null","null","true","","","","","","","null","<div style=""font-size:60px;"">+</div>","null","fixation","","","","","","","","","","","","","37","","",""
"revaluation","177","916490","0.0-4.0-2.0-0.19","pilot_wm_v1","6688d16e085c316a7ced59c1","4","null","null","true","","false","","","","","[716.5,247.30000001192093]","./assets/img/ocean/memory/39.jpg","[""ArrowUp"",""ArrowLeft""]","value training","ocean","26","{""ArrowUp,ArrowLeft"":26,""ArrowUp,ArrowRight"":10,""ArrowDown,ArrowLeft"":5,""ArrowDown,ArrowRight"":17}","true","ArrowUp,ArrowLeft","false","","","","","","","38","revaluation","1",""
"html-keyboard-response","178","916992","0.0-4.0-2.0-1.19","pilot_wm_v1","6688d16e085c316a7ced59c1","4","null","null","true","","","","","","","null","<div style=""font-size:60px;"">+</div>","null","fixation","","","","","","","","","","","","","39","","",""
"revaluation","179","922995","0.0-4.0-2.0-0.20","pilot_wm_v1","6688d16e085c316a7ced59c1","4","null","null","true","","false","","","","","[671.3999999761581,277.10000002384186]","./assets/img/ocean/memory/30.jpg","[""ArrowUp"",""ArrowLeft""]","value training","ocean","26","{""ArrowUp,ArrowLeft"":26,""ArrowUp,ArrowRight"":10,""ArrowDown,ArrowLeft"":5,""ArrowDown,ArrowRight"":17}","true","ArrowUp,ArrowLeft","false","","","","","","","40","revaluation","1",""
"html-keyboard-response","180","923496","0.0-4.0-2.0-1.20","pilot_wm_v1","6688d16e085c316a7ced59c1","4","null","null","true","","","","","","","null","<div style=""font-size:60px;"">+</div>","null","fixation","","","","","","","","","","","","","41","","",""
"revaluation","181","927499","0.0-4.0-2.0-0.21","pilot_wm_v1","6688d16e085c316a7ced59c1","4","null","null","true","","false","","","","","[642.0999999642372]","./assets/img/ocean/catch/3.jpg","[""spaceBar""]","value training","ocean","0","{""ArrowUp,ArrowLeft"":26,""ArrowUp,ArrowRight"":10,""ArrowDown,ArrowLeft"":5,""ArrowDown,ArrowRight"":17}","true","spaceBar","true","","","","","","","42","revaluation","1",""
"html-keyboard-response","182","928000","0.0-4.0-2.0-1.21","pilot_wm_v1","6688d16e085c316a7ced59c1","4","null","null","true","","","","","","","null","<div style=""font-size:60px;"">+</div>","null","fixation","","","","","","","","","","","","","43","","",""
"revaluation","183","934002","0.0-4.0-2.0-0.22","pilot_wm_v1","6688d16e085c316a7ced59c1","4","null","null","true","","false","","","","","[606.6999999880791,247.70000004768372]","./assets/img/ocean/memory/16.jpg","[""ArrowUp"",""ArrowLeft""]","value training","ocean","26","{""ArrowUp,ArrowLeft"":26,""ArrowUp,ArrowRight"":10,""ArrowDown,ArrowLeft"":5,""ArrowDown,ArrowRight"":17}","true","ArrowUp,ArrowLeft","false","","","","","","","44","revaluation","1",""
"html-keyboard-response","184","934504","0.0-4.0-2.0-1.22","pilot_wm_v1","6688d16e085c316a7ced59c1","4","null","null","true","","","","","","","null","<div style=""font-size:60px;"">+</div>","null","fixation","","","","","","","","","","","","","45","","",""
"revaluation","185","938505","0.0-4.0-2.0-0.23","pilot_wm_v1","6688d16e085c316a7ced59c1","4","null","null","true","","false","","","","","[558.4000000357628]","./assets/img/ocean/catch/0.jpg","[""spaceBar""]","value training","ocean","0","{""ArrowUp,ArrowLeft"":26,""ArrowUp,ArrowRight"":10,""ArrowDown,ArrowLeft"":5,""ArrowDown,ArrowRight"":17}","true","spaceBar","true","","","","","","","46","revaluation","1",""
"html-keyboard-response","186","939007","0.0-4.0-2.0-1.23","pilot_wm_v1","6688d16e085c316a7ced59c1","4","null","null","true","","","","","","","null","<div style=""font-size:60px;"">+</div>","null","fixation","","","","","","","","","","","","","47","","",""
"revaluation","187","945012","0.0-4.0-2.0-0.24","pilot_wm_v1","6688d16e085c316a7ced59c1","4","null","null","true","","false","","","","","[503.19999998807907,232]","./assets/img/ocean/memory/26.jpg","[""ArrowUp"",""ArrowLeft""]","value training","ocean","26","{""ArrowUp,ArrowLeft"":26,""ArrowUp,ArrowRight"":10,""ArrowDown,ArrowLeft"":5,""ArrowDown,ArrowRight"":17}","true","ArrowUp,ArrowLeft","false","","","","","","","48","revaluation","1",""
"html-keyboard-response","188","945514","0.0-4.0-2.0-1.24","pilot_wm_v1","6688d16e085c316a7ced59c1","4","null","null","true","","","","","","","null","<div style=""font-size:60px;"">+</div>","null","fixation","","","","","","","","","","","","","49","","",""
"revaluation","189","951517","0.0-4.0-2.0-0.25","pilot_wm_v1","6688d16e085c316a7ced59c1","4","null","null","true","","false","","","","","[646,249.80000001192093]","./assets/img/ocean/memory/21.jpg","[""ArrowUp"",""ArrowLeft""]","value training","ocean","26","{""ArrowUp,ArrowLeft"":26,""ArrowUp,ArrowRight"":10,""ArrowDown,ArrowLeft"":5,""ArrowDown,ArrowRight"":17}","true","ArrowUp,ArrowLeft","false","","","","","","","50","revaluation","1",""
"html-keyboard-response","190","952019","0.0-4.0-2.0-1.25","pilot_wm_v1","6688d16e085c316a7ced59c1","4","null","null","true","","","","","","","null","<div style=""font-size:60px;"">+</div>","null","fixation","","","","","","","","","","","","","51","","",""
"revaluation","191","958022","0.0-4.0-2.0-0.26","pilot_wm_v1","6688d16e085c316a7ced59c1","4","null","null","true","","false","","","","","[635.8000000119209,314.60000002384186]","./assets/img/ocean/memory/0.jpg","[""ArrowUp"",""ArrowLeft""]","value training","ocean","26","{""ArrowUp,ArrowLeft"":26,""ArrowUp,ArrowRight"":10,""ArrowDown,ArrowLeft"":5,""ArrowDown,ArrowRight"":17}","true","ArrowUp,ArrowLeft","false","","","","","","","52","revaluation","1",""
"html-keyboard-response","192","958524","0.0-4.0-2.0-1.26","pilot_wm_v1","6688d16e085c316a7ced59c1","4","null","null","true","","","","","","","null","<div style=""font-size:60px;"">+</div>","null","fixation","","","","","","","","","","","","","53","","",""
"revaluation","193","962528","0.0-4.0-2.0-0.27","pilot_wm_v1","6688d16e085c316a7ced59c1","4","null","null","true","","false","","","","","[723.6999999880791]","./assets/img/ocean/catch/6.jpg","[""spaceBar""]","value training","ocean","0","{""ArrowUp,ArrowLeft"":26,""ArrowUp,ArrowRight"":10,""ArrowDown,ArrowLeft"":5,""ArrowDown,ArrowRight"":17}","true","spaceBar","true","","","","","","","54","revaluation","1",""
"html-keyboard-response","194","963029","0.0-4.0-2.0-1.27","pilot_wm_v1","6688d16e085c316a7ced59c1","4","null","null","true","","","","","","","null","<div style=""font-size:60px;"">+</div>","null","fixation","","","","","","","","","","","","","55","","",""
"revaluation","195","969034","0.0-4.0-2.0-0.28","pilot_wm_v1","6688d16e085c316a7ced59c1","4","null","null","true","","false","","","","","[573.2999999523163,218.10000002384186]","./assets/img/ocean/memory/9.jpg","[""ArrowUp"",""ArrowLeft""]","value training","ocean","26","{""ArrowUp,ArrowLeft"":26,""ArrowUp,ArrowRight"":10,""ArrowDown,ArrowLeft"":5,""ArrowDown,ArrowRight"":17}","true","ArrowUp,ArrowLeft","false","","","","","","","56","revaluation","1",""
"html-keyboard-response","196","969536","0.0-4.0-2.0-1.28","pilot_wm_v1","6688d16e085c316a7ced59c1","4","null","null","true","","","","","","","null","<div style=""font-size:60px;"">+</div>","null","fixation","","","","","","","","","","","","","57","","",""
"revaluation","197","975541","0.0-4.0-2.0-0.29","pilot_wm_v1","6688d16e085c316a7ced59c1","4","null","null","true","","false","","","","","[696.8000000119209,315]","./assets/img/ocean/memory/11.jpg","[""ArrowUp"",""ArrowLeft""]","value training","ocean","26","{""ArrowUp,ArrowLeft"":26,""ArrowUp,ArrowRight"":10,""ArrowDown,ArrowLeft"":5,""ArrowDown,ArrowRight"":17}","true","ArrowUp,ArrowLeft","false","","","","","","","58","revaluation","1",""
"html-keyboard-response","198","976043","0.0-4.0-2.0-1.29","pilot_wm_v1","6688d16e085c316a7ced59c1","4","null","null","true","","","","","","","null","<div style=""font-size:60px;"">+</div>","null","fixation","","","","","","","","","","","","","59","","",""
"revaluation","199","982046","0.0-4.0-2.0-0.30","pilot_wm_v1","6688d16e085c316a7ced59c1","4","null","null","true","","false","","","","","[891.8000000119209,223.5]","./assets/img/ocean/memory/14.jpg","[""ArrowUp"",""ArrowLeft""]","value training","ocean","26","{""ArrowUp,ArrowLeft"":26,""ArrowUp,ArrowRight"":10,""ArrowDown,ArrowLeft"":5,""ArrowDown,ArrowRight"":17}","true","ArrowUp,ArrowLeft","false","","","","","","","60","revaluation","1",""
"html-keyboard-response","200","982547","0.0-4.0-2.0-1.30","pilot_wm_v1","6688d16e085c316a7ced59c1","4","null","null","true","","","","","","","null","<div style=""font-size:60px;"">+</div>","null","fixation","","","","","","","","","","","","","61","","",""
"revaluation","201","988551","0.0-4.0-2.0-0.31","pilot_wm_v1","6688d16e085c316a7ced59c1","4","null","null","true","","false","","","","","[661.6000000238419,266.5]","./assets/img/ocean/memory/19.jpg","[""ArrowUp"",""ArrowLeft""]","value training","ocean","26","{""ArrowUp,ArrowLeft"":26,""ArrowUp,ArrowRight"":10,""ArrowDown,ArrowLeft"":5,""ArrowDown,ArrowRight"":17}","true","ArrowUp,ArrowLeft","false","","","","","","","62","revaluation","1",""
"html-keyboard-response","202","989052","0.0-4.0-2.0-1.31","pilot_wm_v1","6688d16e085c316a7ced59c1","4","null","null","true","","","","","","","null","<div style=""font-size:60px;"">+</div>","null","fixation","","","","","","","","","","","","","63","","",""
"revaluation","203","995057","0.0-4.0-2.0-0.32","pilot_wm_v1","6688d16e085c316a7ced59c1","4","null","null","true","","false","","","","","[539.5,213.5]","./assets/img/ocean/memory/1.jpg","[""ArrowUp"",""ArrowLeft""]","value training","ocean","26","{""ArrowUp,ArrowLeft"":26,""ArrowUp,ArrowRight"":10,""ArrowDown,ArrowLeft"":5,""ArrowDown,ArrowRight"":17}","true","ArrowUp,ArrowLeft","false","","","","","","","64","revaluation","1",""
"html-keyboard-response","204","995559","0.0-4.0-2.0-1.32","pilot_wm_v1","6688d16e085c316a7ced59c1","4","null","null","true","","","","","","","null","<div style=""font-size:60px;"">+</div>","null","fixation","","","","","","","","","","","","","65","","",""
"revaluation","205","1001564","0.0-4.0-2.0-0.33","pilot_wm_v1","6688d16e085c316a7ced59c1","4","null","null","true","","false","","","","","[573.2999999523163,233.30000001192093]","./assets/img/ocean/memory/12.jpg","[""ArrowUp"",""ArrowLeft""]","value training","ocean","26","{""ArrowUp,ArrowLeft"":26,""ArrowUp,ArrowRight"":10,""ArrowDown,ArrowLeft"":5,""ArrowDown,ArrowRight"":17}","true","ArrowUp,ArrowLeft","false","","","","","","","66","revaluation","1",""
"html-keyboard-response","206","1002066","0.0-4.0-2.0-1.33","pilot_wm_v1","6688d16e085c316a7ced59c1","4","null","null","true","","","","","","","null","<div style=""font-size:60px;"">+</div>","null","fixation","","","","","","","","","","","","","67","","",""
"revaluation","207","1008072","0.0-4.0-2.0-0.34","pilot_wm_v1","6688d16e085c316a7ced59c1","4","null","null","true","","false","","","","","[653.2999999523163,224]","./assets/img/ocean/memory/35.jpg","[""ArrowUp"",""ArrowLeft""]","value training","ocean","26","{""ArrowUp,ArrowLeft"":26,""ArrowUp,ArrowRight"":10,""ArrowDown,ArrowLeft"":5,""ArrowDown,ArrowRight"":17}","true","ArrowUp,ArrowLeft","false","","","","","","","68","revaluation","1",""
"html-keyboard-response","208","1008573","0.0-4.0-2.0-1.34","pilot_wm_v1","6688d16e085c316a7ced59c1","4","null","null","true","","","","","","","null","<div style=""font-size:60px;"">+</div>","null","fixation","","","","","","","","","","","","","69","","",""
"revaluation","209","1012576","0.0-4.0-2.0-0.35","pilot_wm_v1","6688d16e085c316a7ced59c1","4","null","null","true","","false","","","","","[508.19999998807907]","./assets/img/ocean/catch/4.jpg","[""spaceBar""]","value training","ocean","0","{""ArrowUp,ArrowLeft"":26,""ArrowUp,ArrowRight"":10,""ArrowDown,ArrowLeft"":5,""ArrowDown,ArrowRight"":17}","true","spaceBar","true","","","","","","","70","revaluation","1",""
"html-keyboard-response","210","1013078","0.0-4.0-2.0-1.35","pilot_wm_v1","6688d16e085c316a7ced59c1","4","null","null","true","","","","","","","null","<div style=""font-size:60px;"">+</div>","null","fixation","","","","","","","","","","","","","71","","",""
"revaluation","211","1019083","0.0-4.0-2.0-0.36","pilot_wm_v1","6688d16e085c316a7ced59c1","4","null","null","true","","false","","","","","[539.6999999880791,179.4000000357628]","./assets/img/ocean/memory/37.jpg","[""ArrowUp"",""ArrowLeft""]","value training","ocean","26","{""ArrowUp,ArrowLeft"":26,""ArrowUp,ArrowRight"":10,""ArrowDown,ArrowLeft"":5,""ArrowDown,ArrowRight"":17}","true","ArrowUp,ArrowLeft","false","","","","","","","72","revaluation","1",""
"html-keyboard-response","212","1019584","0.0-4.0-2.0-1.36","pilot_wm_v1","6688d16e085c316a7ced59c1","4","null","null","true","","","","","","","null","<div style=""font-size:60px;"">+</div>","null","fixation","","","","","","","","","","","","","73","","",""
"revaluation","213","1025588","0.0-4.0-2.0-0.37","pilot_wm_v1","6688d16e085c316a7ced59c1","4","null","null","true","","false","","","","","[515.1999999880791,60.30000001192093]","./assets/img/ocean/memory/27.jpg","[""ArrowUp"",""ArrowLeft""]","value training","ocean","26","{""ArrowUp,ArrowLeft"":26,""ArrowUp,ArrowRight"":10,""ArrowDown,ArrowLeft"":5,""ArrowDown,ArrowRight"":17}","true","ArrowUp,ArrowLeft","false","","","","","","","74","revaluation","1",""
"html-keyboard-response","214","1026090","0.0-4.0-2.0-1.37","pilot_wm_v1","6688d16e085c316a7ced59c1","4","null","null","true","","","","","","","null","<div style=""font-size:60px;"">+</div>","null","fixation","","","","","","","","","","","","","75","","",""
"revaluation","215","1030093","0.0-4.0-2.0-0.38","pilot_wm_v1","6688d16e085c316a7ced59c1","4","null","null","true","","false","","","","","[611.2999999523163]","./assets/img/ocean/catch/2.jpg","[""spaceBar""]","value training","ocean","0","{""ArrowUp,ArrowLeft"":26,""ArrowUp,ArrowRight"":10,""ArrowDown,ArrowLeft"":5,""ArrowDown,ArrowRight"":17}","true","spaceBar","true","","","","","","","76","revaluation","1",""
"html-keyboard-response","216","1030595","0.0-4.0-2.0-1.38","pilot_wm_v1","6688d16e085c316a7ced59c1","4","null","null","true","","","","","","","null","<div style=""font-size:60px;"">+</div>","null","fixation","","","","","","","","","","","","","77","","",""
"revaluation","217","1036599","0.0-4.0-2.0-0.39","pilot_wm_v1","6688d16e085c316a7ced59c1","4","null","null","true","","false","","","","","[567.5999999642372,230.60000002384186]","./assets/img/ocean/memory/41.jpg","[""ArrowUp"",""ArrowLeft""]","value training","ocean","26","{""ArrowUp,ArrowLeft"":26,""ArrowUp,ArrowRight"":10,""ArrowDown,ArrowLeft"":5,""ArrowDown,ArrowRight"":17}","true","ArrowUp,ArrowLeft","false","","","","","","","78","revaluation","1",""
"html-keyboard-response","218","1037100","0.0-4.0-2.0-1.39","pilot_wm_v1","6688d16e085c316a7ced59c1","4","null","null","true","","","","","","","null","<div style=""font-size:60px;"">+</div>","null","fixation","","","","","","","","","","","","","79","","",""
"revaluation","219","1043105","0.0-4.0-2.0-0.40","pilot_wm_v1","6688d16e085c316a7ced59c1","4","null","null","true","","false","","","","","[632.6999999880791,241.5]","./assets/img/ocean/memory/10.jpg","[""ArrowUp"",""ArrowLeft""]","value training","ocean","26","{""ArrowUp,ArrowLeft"":26,""ArrowUp,ArrowRight"":10,""ArrowDown,ArrowLeft"":5,""ArrowDown,ArrowRight"":17}","true","ArrowUp,ArrowLeft","false","","","","","","","80","revaluation","1",""
"html-keyboard-response","220","1043607","0.0-4.0-2.0-1.40","pilot_wm_v1","6688d16e085c316a7ced59c1","4","null","null","true","","","","","","","null","<div style=""font-size:60px;"">+</div>","null","fixation","","","","","","","","","","","","","81","","",""
"revaluation","221","1049611","0.0-4.0-2.0-0.41","pilot_wm_v1","6688d16e085c316a7ced59c1","4","null","null","true","","false","","","","","[400.60000002384186,213.4000000357628]","./assets/img/ocean/memory/17.jpg","[""ArrowUp"",""ArrowLeft""]","value training","ocean","26","{""ArrowUp,ArrowLeft"":26,""ArrowUp,ArrowRight"":10,""ArrowDown,ArrowLeft"":5,""ArrowDown,ArrowRight"":17}","true","ArrowUp,ArrowLeft","false","","","","","","","82","revaluation","1",""
"html-keyboard-response","222","1050113","0.0-4.0-2.0-1.41","pilot_wm_v1","6688d16e085c316a7ced59c1","4","null","null","true","","","","","","","null","<div style=""font-size:60px;"">+</div>","null","fixation","","","","","","","","","","","","","83","","",""
"revaluation","223","1056126","0.0-4.0-2.0-0.42","pilot_wm_v1","6688d16e085c316a7ced59c1","4","null","null","true","","false","","","","","[816.4000000357628,354.19999998807907]","./assets/img/ocean/memory/14.jpg","[""ArrowUp"",""ArrowLeft""]","value training","ocean","26","{""ArrowUp,ArrowLeft"":26,""ArrowUp,ArrowRight"":10,""ArrowDown,ArrowLeft"":5,""ArrowDown,ArrowRight"":17}","true","ArrowUp,ArrowLeft","false","","","","","","","84","revaluation","1",""
"html-keyboard-response","224","1056641","0.0-4.0-2.0-1.42","pilot_wm_v1","6688d16e085c316a7ced59c1","4","null","null","true","","","","","","","null","<div style=""font-size:60px;"">+</div>","null","fixation","","","","","","","","","","","","","85","","",""
"revaluation","225","1062645","0.0-4.0-2.0-0.43","pilot_wm_v1","6688d16e085c316a7ced59c1","4","null","null","true","","false","","","","","[653.8999999761581,240]","./assets/img/ocean/memory/39.jpg","[""ArrowUp"",""ArrowLeft""]","value training","ocean","26","{""ArrowUp,ArrowLeft"":26,""ArrowUp,ArrowRight"":10,""ArrowDown,ArrowLeft"":5,""ArrowDown,ArrowRight"":17}","true","ArrowUp,ArrowLeft","false","","","","","","","86","revaluation","1",""
"html-keyboard-response","226","1063146","0.0-4.0-2.0-1.43","pilot_wm_v1","6688d16e085c316a7ced59c1","4","null","null","true","","","","","","","null","<div style=""font-size:60px;"">+</div>","null","fixation","","","","","","","","","","","","","87","","",""
"revaluation","227","1069150","0.0-4.0-2.0-0.44","pilot_wm_v1","6688d16e085c316a7ced59c1","4","null","null","true","","false","","","","","[681.0999999642372,234.9000000357628]","./assets/img/ocean/memory/40.jpg","[""ArrowUp"",""ArrowLeft""]","value training","ocean","26","{""ArrowUp,ArrowLeft"":26,""ArrowUp,ArrowRight"":10,""ArrowDown,ArrowLeft"":5,""ArrowDown,ArrowRight"":17}","true","ArrowUp,ArrowLeft","false","","","","","","","88","revaluation","1",""
"html-keyboard-response","228","1069652","0.0-4.0-2.0-1.44","pilot_wm_v1","6688d16e085c316a7ced59c1","4","null","null","true","","","","","","","null","<div style=""font-size:60px;"">+</div>","null","fixation","","","","","","","","","","","","","89","","",""
"revaluation","229","1073655","0.0-4.0-2.0-0.45","pilot_wm_v1","6688d16e085c316a7ced59c1","4","null","null","true","","false","","","","","[550.6999999880791]","./assets/img/ocean/catch/5.jpg","[""ArrowUp""]","value training","ocean","-10","{""ArrowUp,ArrowLeft"":26,""ArrowUp,ArrowRight"":10,""ArrowDown,ArrowLeft"":5,""ArrowDown,ArrowRight"":17}","false","ArrowUp","true","","","","","","","90","revaluation","1",""
"html-keyboard-response","230","1074157","0.0-4.0-2.0-1.45","pilot_wm_v1","6688d16e085c316a7ced59c1","4","null","null","true","","","","","","","null","<div style=""font-size:60px;"">+</div>","null","fixation","","","","","","","","","","","","","91","","",""
"revaluation","231","1080168","0.0-4.0-2.0-0.46","pilot_wm_v1","6688d16e085c316a7ced59c1","4","null","null","true","","false","","","","","[466.30000001192093,226.30000001192093]","./assets/img/ocean/memory/10.jpg","[""ArrowUp"",""ArrowLeft""]","value training","ocean","26","{""ArrowUp,ArrowLeft"":26,""ArrowUp,ArrowRight"":10,""ArrowDown,ArrowLeft"":5,""ArrowDown,ArrowRight"":17}","true","ArrowUp,ArrowLeft","false","","","","","","","92","revaluation","1",""
"html-keyboard-response","232","1080670","0.0-4.0-2.0-1.46","pilot_wm_v1","6688d16e085c316a7ced59c1","4","null","null","true","","","","","","","null","<div style=""font-size:60px;"">+</div>","null","fixation","","","","","","","","","","","","","93","","",""
"revaluation","233","1086673","0.0-4.0-2.0-0.47","pilot_wm_v1","6688d16e085c316a7ced59c1","4","null","null","true","","false","","","","","[710.2999999523163,224.10000002384186]","./assets/img/ocean/memory/20.jpg","[""ArrowUp"",""ArrowLeft""]","value training","ocean","26","{""ArrowUp,ArrowLeft"":26,""ArrowUp,ArrowRight"":10,""ArrowDown,ArrowLeft"":5,""ArrowDown,ArrowRight"":17}","true","ArrowUp,ArrowLeft","false","","","","","","","94","revaluation","1",""
"html-keyboard-response","234","1087174","0.0-4.0-2.0-1.47","pilot_wm_v1","6688d16e085c316a7ced59c1","4","null","null","true","","","","","","","null","<div style=""font-size:60px;"">+</div>","null","fixation","","","","","","","","","","","","","95","","",""
"revaluation","235","1093178","0.0-4.0-2.0-0.48","pilot_wm_v1","6688d16e085c316a7ced59c1","4","null","null","true","","false","","","","","[519.3000000119209,246]","./assets/img/ocean/memory/41.jpg","[""ArrowUp"",""ArrowLeft""]","value training","ocean","26","{""ArrowUp,ArrowLeft"":26,""ArrowUp,ArrowRight"":10,""ArrowDown,ArrowLeft"":5,""ArrowDown,ArrowRight"":17}","true","ArrowUp,ArrowLeft","false","","","","","","","96","revaluation","1",""
"html-keyboard-response","236","1093679","0.0-4.0-2.0-1.48","pilot_wm_v1","6688d16e085c316a7ced59c1","4","null","null","true","","","","","","","null","<div style=""font-size:60px;"">+</div>","null","fixation","","","","","","","","","","","","","97","","",""
"revaluation","237","1099683","0.0-4.0-2.0-0.49","pilot_wm_v1","6688d16e085c316a7ced59c1","4","null","null","true","","false","","","","","[695.8999999761581,234.80000001192093]","./assets/img/ocean/memory/1.jpg","[""ArrowUp"",""ArrowLeft""]","value training","ocean","26","{""ArrowUp,ArrowLeft"":26,""ArrowUp,ArrowRight"":10,""ArrowDown,ArrowLeft"":5,""ArrowDown,ArrowRight"":17}","true","ArrowUp,ArrowLeft","false","","","","","","","98","revaluation","1",""
"html-keyboard-response","238","1100185","0.0-4.0-2.0-1.49","pilot_wm_v1","6688d16e085c316a7ced59c1","4","null","null","true","","","","","","","null","<div style=""font-size:60px;"">+</div>","null","fixation","","","","","","","","","","","","","99","","",""
"learning-instructions","239","1115207","0.0-4.0-3.0-0.0","pilot_wm_v1","6688d16e085c316a7ced59c1","4","null","null","true","","","","","","","2127.400000035763","<p> Now, you will travel with a friend who will choose whether you go up or down first. </p>
            <p> On these turns, you will just see the animal that they found. You will still get to choose which chest to search for treasure.</p>","","instructions","","","","","","","","","","","","","","","",""
"learning-instructions","240","1135972","0.0-4.0-3.0-0.1","pilot_wm_v1","6688d16e085c316a7ced59c1","4","null","null","true","","","","","","","9161.899999976158","<p> In this part, you will also hear beeps from your friend and see special treasure chests that need a password. </p>
            <p> Do your best to count the high beeps <b>and</b> choose between each animals' chests at the same time.</p>
            <img src='./assets/img/instructions/beep_chest.jpg' class='instructions-image'>","","instructions","","","","","","","","","","","","","","","",""
"revaluation","241","1139990","0.0-4.0-4.0-0.0","pilot_wm_v1","6688d16e085c316a7ced59c1","4","null","null","true","","false","","","","","[758.3000000119209]","./assets/img/ocean/animals/octopus.jpg","[""ArrowRight""]","revaluation","ocean","27","{""ArrowUp,ArrowLeft"":2,""ArrowUp,ArrowRight"":11,""ArrowDown,ArrowLeft"":8,""ArrowDown,ArrowRight"":27}","true","ArrowDown,ArrowRight","","10_3","","","","","","0","revaluation","1",""
"html-keyboard-response","242","1140498","0.0-4.0-4.0-1.0","pilot_wm_v1","6688d16e085c316a7ced59c1","4","null","null","true","","","","","","","null","<div style=""font-size:60px;"">+</div>","null","fixation","","","","","","","","","","","","","","","",""
"revaluation","243","1144515","0.0-4.0-4.0-0.1","pilot_wm_v1","6688d16e085c316a7ced59c1","4","null","null","true","","false","","","","","[642.8000000119209]","./assets/img/ocean/animals/seahorse.jpg","[""ArrowLeft""]","revaluation","ocean","2","{""ArrowUp,ArrowLeft"":2,""ArrowUp,ArrowRight"":11,""ArrowDown,ArrowLeft"":8,""ArrowDown,ArrowRight"":27}","false","ArrowUp,ArrowLeft","","4_0","","","","","","1","revaluation","1",""
"html-keyboard-response","244","1145027","0.0-4.0-4.0-1.1","pilot_wm_v1","6688d16e085c316a7ced59c1","4","null","null","true","","","","","","","null","<div style=""font-size:60px;"">+</div>","null","fixation","","","","","","","","","","","","","","","",""
"revaluation","245","1149040","0.0-4.0-4.0-0.2","pilot_wm_v1","6688d16e085c316a7ced59c1","4","null","null","true","","false","","","","","[582.5999999642372]","./assets/img/ocean/animals/octopus.jpg","[""ArrowRight""]","revaluation","ocean","27","{""ArrowUp,ArrowLeft"":2,""ArrowUp,ArrowRight"":11,""ArrowDown,ArrowLeft"":8,""ArrowDown,ArrowRight"":27}","true","ArrowDown,ArrowRight","","13_2","","","","","","2","revaluation","1",""
"html-keyboard-response","246","1149547","0.0-4.0-4.0-1.2","pilot_wm_v1","6688d16e085c316a7ced59c1","4","null","null","true","","","","","","","null","<div style=""font-size:60px;"">+</div>","null","fixation","","","","","","","","","","","","","","","",""
"revaluation","247","1153578","0.0-4.0-4.0-0.3","pilot_wm_v1","6688d16e085c316a7ced59c1","4","null","null","true","","false","","","","","[932.9000000357628]","./assets/img/ocean/animals/octopus.jpg","[""ArrowRight""]","revaluation","ocean","27","{""ArrowUp,ArrowLeft"":2,""ArrowUp,ArrowRight"":11,""ArrowDown,ArrowLeft"":8,""ArrowDown,ArrowRight"":27}","true","ArrowDown,ArrowRight","","17_1","","","","","","3","revaluation","1",""
"html-keyboard-response","248","1154089","0.0-4.0-4.0-1.3","pilot_wm_v1","6688d16e085c316a7ced59c1","4","null","null","true","","","","","","","null","<div style=""font-size:60px;"">+</div>","null","fixation","","","","","","","","","","","","","","","",""
"html-slider-response","249","1163212","0.0-4.0-4.0-2.3-0.3","pilot_wm_v1","6688d16e085c316a7ced59c1","4","null","null","true","","","","","","","9121","<div style=""width:500px;"">
        <p>What is the password?</p>
        <img src='./assets/img/instructions/beep_chest.jpg' class='instructions-image'>","1","beep chest","","","","false","","","","50","6","5","","","","","",""
"revaluation","250","1167214","0.0-4.0-4.0-0.4","pilot_wm_v1","6688d16e085c316a7ced59c1","4","null","null","true","","false","","","","","[1170.4000000357628]","./assets/img/ocean/animals/seahorse.jpg","[""ArrowRight""]","revaluation","ocean","11","{""ArrowUp,ArrowLeft"":2,""ArrowUp,ArrowRight"":11,""ArrowDown,ArrowLeft"":8,""ArrowDown,ArrowRight"":27}","true","ArrowUp,ArrowRight","","2_1","","","","","","4","revaluation","1",""
"html-keyboard-response","251","1167715","0.0-4.0-4.0-1.4","pilot_wm_v1","6688d16e085c316a7ced59c1","4","null","null","true","","","","","","","null","<div style=""font-size:60px;"">+</div>","null","fixation","","","","","","","","","","","","","","","",""
"revaluation","252","1171719","0.0-4.0-4.0-0.5","pilot_wm_v1","6688d16e085c316a7ced59c1","4","null","null","true","","false","","","","","[1006.3000000119209]","./assets/img/ocean/animals/octopus.jpg","[""ArrowRight""]","revaluation","ocean","27","{""ArrowUp,ArrowLeft"":2,""ArrowUp,ArrowRight"":11,""ArrowDown,ArrowLeft"":8,""ArrowDown,ArrowRight"":27}","true","ArrowDown,ArrowRight","","11_4","","","","","","5","revaluation","1",""
"html-keyboard-response","253","1172220","0.0-4.0-4.0-1.5","pilot_wm_v1","6688d16e085c316a7ced59c1","4","null","null","true","","","","","","","null","<div style=""font-size:60px;"">+</div>","null","fixation","","","","","","","","","","","","","","","",""
"revaluation","254","1176223","0.0-4.0-4.0-0.6","pilot_wm_v1","6688d16e085c316a7ced59c1","4","null","null","true","","false","","","","","[950.0999999642372]","./assets/img/ocean/animals/octopus.jpg","[""ArrowRight""]","revaluation","ocean","27","{""ArrowUp,ArrowLeft"":2,""ArrowUp,ArrowRight"":11,""ArrowDown,ArrowLeft"":8,""ArrowDown,ArrowRight"":27}","true","ArrowDown,ArrowRight","","15_0","","","","","","6","revaluation","1",""
"html-keyboard-response","255","1176724","0.0-4.0-4.0-1.6","pilot_wm_v1","6688d16e085c316a7ced59c1","4","null","null","true","","","","","","","null","<div style=""font-size:60px;"">+</div>","null","fixation","","","","","","","","","","","","","","","",""
"revaluation","256","1180728","0.0-4.0-4.0-0.7","pilot_wm_v1","6688d16e085c316a7ced59c1","4","null","null","true","","false","","","","","[804.6999999880791]","./assets/img/ocean/animals/seahorse.jpg","[""ArrowRight""]","revaluation","ocean","11","{""ArrowUp,ArrowLeft"":2,""ArrowUp,ArrowRight"":11,""ArrowDown,ArrowLeft"":8,""ArrowDown,ArrowRight"":27}","true","ArrowUp,ArrowRight","","5_4","","","","","","7","revaluation","1",""
"html-keyboard-response","257","1181230","0.0-4.0-4.0-1.7","pilot_wm_v1","6688d16e085c316a7ced59c1","4","null","null","true","","","","","","","null","<div style=""font-size:60px;"">+</div>","null","fixation","","","","","","","","","","","","","","","",""
"html-slider-response","258","1186526","0.0-4.0-4.0-2.7-0.7","pilot_wm_v1","6688d16e085c316a7ced59c1","4","null","null","true","","","","","","","5296","<div style=""width:500px;"">
        <p>What is the password?</p>
        <img src='./assets/img/instructions/beep_chest.jpg' class='instructions-image'>","4","beep chest","","","","false","","","","50","9","5","","","","","",""
"revaluation","259","1190543","0.0-4.0-4.0-0.8","pilot_wm_v1","6688d16e085c316a7ced59c1","4","null","null","true","","false","","","","","[849.0999999642372]","./assets/img/ocean/animals/octopus.jpg","[""ArrowRight""]","revaluation","ocean","27","{""ArrowUp,ArrowLeft"":2,""ArrowUp,ArrowRight"":11,""ArrowDown,ArrowLeft"":8,""ArrowDown,ArrowRight"":27}","true","ArrowDown,ArrowRight","","18_0","","","","","","8","revaluation","1",""
"html-keyboard-response","260","1191044","0.0-4.0-4.0-1.8","pilot_wm_v1","6688d16e085c316a7ced59c1","4","null","null","true","","","","","","","null","<div style=""font-size:60px;"">+</div>","null","fixation","","","","","","","","","","","","","","","",""
"revaluation","261","1195048","0.0-4.0-4.0-0.9","pilot_wm_v1","6688d16e085c316a7ced59c1","4","null","null","true","","false","","","","","[520]","./assets/img/ocean/animals/seahorse.jpg","[""ArrowRight""]","revaluation","ocean","11","{""ArrowUp,ArrowLeft"":2,""ArrowUp,ArrowRight"":11,""ArrowDown,ArrowLeft"":8,""ArrowDown,ArrowRight"":27}","true","ArrowUp,ArrowRight","","1_4","","","","","","9","revaluation","1",""
"html-keyboard-response","262","1195550","0.0-4.0-4.0-1.9","pilot_wm_v1","6688d16e085c316a7ced59c1","4","null","null","true","","","","","","","null","<div style=""font-size:60px;"">+</div>","null","fixation","","","","","","","","","","","","","","","",""
"revaluation","263","1199556","0.0-4.0-4.0-0.10","pilot_wm_v1","6688d16e085c316a7ced59c1","4","null","null","true","","false","","","","","[626]","./assets/img/ocean/animals/octopus.jpg","[""ArrowRight""]","revaluation","ocean","27","{""ArrowUp,ArrowLeft"":2,""ArrowUp,ArrowRight"":11,""ArrowDown,ArrowLeft"":8,""ArrowDown,ArrowRight"":27}","true","ArrowDown,ArrowRight","","12_2","","","","","","10","revaluation","1",""
"html-keyboard-response","264","1200058","0.0-4.0-4.0-1.10","pilot_wm_v1","6688d16e085c316a7ced59c1","4","null","null","true","","","","","","","null","<div style=""font-size:60px;"">+</div>","null","fixation","","","","","","","","","","","","","","","",""
"revaluation","265","1204062","0.0-4.0-4.0-0.11","pilot_wm_v1","6688d16e085c316a7ced59c1","4","null","null","true","","false","","","","","[591]","./assets/img/ocean/animals/octopus.jpg","[""ArrowRight""]","revaluation","ocean","27","{""ArrowUp,ArrowLeft"":2,""ArrowUp,ArrowRight"":11,""ArrowDown,ArrowLeft"":8,""ArrowDown,ArrowRight"":27}","true","ArrowDown,ArrowRight","","16_0","","","","","","11","revaluation","1",""
"html-keyboard-response","266","1204564","0.0-4.0-4.0-1.11","pilot_wm_v1","6688d16e085c316a7ced59c1","4","null","null","true","","","","","","","null","<div style=""font-size:60px;"">+</div>","null","fixation","","","","","","","","","","","","","","","",""
"html-slider-response","267","1207400","0.0-4.0-4.0-2.11-0.11","pilot_wm_v1","6688d16e085c316a7ced59c1","4","null","null","true","","","","","","","2835","<div style=""width:500px;"">
        <p>What is the password?</p>
        <img src='./assets/img/instructions/beep_chest.jpg' class='instructions-image'>","0","beep chest","","","","false","","","","50","6","6","","","","","",""
"revaluation","268","1211403","0.0-4.0-4.0-0.12","pilot_wm_v1","6688d16e085c316a7ced59c1","4","null","null","true","","false","","","","","[1090.3999999761581]","./assets/img/ocean/animals/seahorse.jpg","[""ArrowRight""]","revaluation","ocean","11","{""ArrowUp,ArrowLeft"":2,""ArrowUp,ArrowRight"":11,""ArrowDown,ArrowLeft"":8,""ArrowDown,ArrowRight"":27}","true","ArrowUp,ArrowRight","","6_3","","","","","","12","revaluation","1",""
"html-keyboard-response","269","1211904","0.0-4.0-4.0-1.12","pilot_wm_v1","6688d16e085c316a7ced59c1","4","null","null","true","","","","","","","null","<div style=""font-size:60px;"">+</div>","null","fixation","","","","","","","","","","","","","","","",""
"revaluation","270","1215908","0.0-4.0-4.0-0.13","pilot_wm_v1","6688d16e085c316a7ced59c1","4","null","null","true","","false","","","","","[825.0999999642372]","./assets/img/ocean/animals/seahorse.jpg","[""ArrowRight""]","revaluation","ocean","11","{""ArrowUp,ArrowLeft"":2,""ArrowUp,ArrowRight"":11,""ArrowDown,ArrowLeft"":8,""ArrowDown,ArrowRight"":27}","true","ArrowUp,ArrowRight","","9_2","","","","","","13","revaluation","1",""
"html-keyboard-response","271","1216410","0.0-4.0-4.0-1.13","pilot_wm_v1","6688d16e085c316a7ced59c1","4","null","null","true","","","","","","","null","<div style=""font-size:60px;"">+</div>","null","fixation","","","","","","","","","","","","","","","",""
"revaluation","272","1220414","0.0-4.0-4.0-0.14","pilot_wm_v1","6688d16e085c316a7ced59c1","4","null","null","true","","false","","","","","[550.6000000238419]","./assets/img/ocean/animals/seahorse.jpg","[""ArrowRight""]","revaluation","ocean","11","{""ArrowUp,ArrowLeft"":2,""ArrowUp,ArrowRight"":11,""ArrowDown,ArrowLeft"":8,""ArrowDown,ArrowRight"":27}","true","ArrowUp,ArrowRight","","3_0","","","","","","14","revaluation","1",""
"html-keyboard-response","273","1220916","0.0-4.0-4.0-1.14","pilot_wm_v1","6688d16e085c316a7ced59c1","4","null","null","true","","","","","","","null","<div style=""font-size:60px;"">+</div>","null","fixation","","","","","","","","","","","","","","","",""
"revaluation","274","1224920","0.0-4.0-4.0-0.15","pilot_wm_v1","6688d16e085c316a7ced59c1","4","null","null","true","","false","","","","","[528.3000000119209]","./assets/img/ocean/animals/octopus.jpg","[""ArrowRight""]","revaluation","ocean","27","{""ArrowUp,ArrowLeft"":2,""ArrowUp,ArrowRight"":11,""ArrowDown,ArrowLeft"":8,""ArrowDown,ArrowRight"":27}","true","ArrowDown,ArrowRight","","14_4","","","","","","15","revaluation","1",""
"html-keyboard-response","275","1225422","0.0-4.0-4.0-1.15","pilot_wm_v1","6688d16e085c316a7ced59c1","4","null","null","true","","","","","","","null","<div style=""font-size:60px;"">+</div>","null","fixation","","","","","","","","","","","","","","","",""
"html-slider-response","276","1231754","0.0-4.0-4.0-2.15-0.15","pilot_wm_v1","6688d16e085c316a7ced59c1","4","null","null","true","","","","","","","6332","<div style=""width:500px;"">
        <p>What is the password?</p>
        <img src='./assets/img/instructions/beep_chest.jpg' class='instructions-image'>","4","beep chest","","","","false","","","","50","9","5","","","","","",""
"revaluation","277","1235757","0.0-4.0-4.0-0.16","pilot_wm_v1","6688d16e085c316a7ced59c1","4","null","null","true","","false","","","","","[872.1999999880791]","./assets/img/ocean/animals/seahorse.jpg","[""ArrowRight""]","revaluation","ocean","11","{""ArrowUp,ArrowLeft"":2,""ArrowUp,ArrowRight"":11,""ArrowDown,ArrowLeft"":8,""ArrowDown,ArrowRight"":27}","true","ArrowUp,ArrowRight","","7_4","","","","","","16","revaluation","1",""
"html-keyboard-response","278","1236259","0.0-4.0-4.0-1.16","pilot_wm_v1","6688d16e085c316a7ced59c1","4","null","null","true","","","","","","","null","<div style=""font-size:60px;"">+</div>","null","fixation","","","","","","","","","","","","","","","",""
"revaluation","279","1240261","0.0-4.0-4.0-0.17","pilot_wm_v1","6688d16e085c316a7ced59c1","4","null","null","true","","false","","","","","[469.2999999523163]","./assets/img/ocean/animals/seahorse.jpg","[""ArrowRight""]","revaluation","ocean","11","{""ArrowUp,ArrowLeft"":2,""ArrowUp,ArrowRight"":11,""ArrowDown,ArrowLeft"":8,""ArrowDown,ArrowRight"":27}","true","ArrowUp,ArrowRight","","8_2","","","","","","17","revaluation","1",""
