"trial_type","trial_index","time_elapsed","internal_node_id","task_version","subject_id","assigned_condition","age","gender","rest","success","timeout","failed_images","failed_audio","failed_video","browser_interaction","rt","stimulus","response","task_part","environment","score","rewardMap","correct","fullState","isCatch","audioStim","slider_start","answer","error","numberMissed","duration","trial_num","condition","order","bonus"
"pavlovia","0","1254","0.0-0.0","pilot_wm_v1","66572731cb06ce43c72bdf8a","4","null","null","true","","","","","","","","","","","","","","","","","","","","","","","","","",""
"preload","1","11151","0.0-1.0","pilot_wm_v1","66572731cb06ce43c72bdf8a","4","null","null","true","true","false","[]","[]","[]","[{""event"":""fullscreenenter"",""trial"":2,""time"":19153}]","","","","","","","","","","","","","","","","","","","",""
"fullscreen","2","20136","0.0-2.0","pilot_wm_v1","66572731cb06ce43c72bdf8a","4","null","null","true","true","","","","","","","","","","","","","","","","","","","","","","","","",""
"audio-button-response","3","21517","0.0-3.0-0.0-0.0","pilot_wm_v1","66572731cb06ce43c72bdf8a","4","null","null","true","","","","","","","1333","./assets/audio/audiotest/turtle.mp3","2","audio_test","","","","","","","","","","","","","","","",""
"learning-instructions","4","29917","0.0-3.0-1.0-0.0","pilot_wm_v1","66572731cb06ce43c72bdf8a","4","null","null","true","","","","","","","1436.1999999999825","<p> Welcome! Please remember to stay in fullscreen mode and don't click away from the experiment. </p>","","instructions","","","","","","","","","","","","","","","",""
"learning-instructions","5","39567","0.0-3.0-1.0-0.1","pilot_wm_v1","66572731cb06ce43c72bdf8a","4","null","null","true","","","","","","","1250.9000000000233","<p> Today you will be playing a game to earn treasure. </p>
            <p> At the end of the experiment, you will earn a bonus based on how much treasure you find. </p>
            <img src='./assets/img/instructions/treasure.jpg' class='instructions-image'>","","instructions","","","","","","","","","","","","","","","",""
"learning-instructions","6","48818","0.0-3.0-1.0-0.2","pilot_wm_v1","66572731cb06ce43c72bdf8a","4","null","null","true","","","","","","","1002.9000000000233","<p> Animals have hidden treasure in treasure chests. </p>
            <p> You need to first find an animal and then choose which of their treasure chests to search. </p>
            <img src='./assets/img/space/animals/cat.jpg' class='instructions-image'>","","instructions","","","","","","","","","","","","","","","",""
"learning-instructions","7","63052","0.0-3.0-1.0-0.3","pilot_wm_v1","66572731cb06ce43c72bdf8a","4","null","null","true","","","","","","","1108.2999999999884","<p> In each round, you will search for treasure in a different place. In the real game, there will be two rounds. </p>
            <p> You will begin with a separate, practice round where you will search for treasure in outer space. </p>
            <img src='./assets/img/space/0.jpg' class='instructions-image'>","","instructions","","","","","","","","","","","","","","","",""
"learning-instructions","8","75518","0.0-3.0-1.0-0.4","pilot_wm_v1","66572731cb06ce43c72bdf8a","4","null","null","true","","","","","","","1073.5","<p> On every turn, you will see a picture of the place that you are in, but the specific image may be different each time. </p>
            <p> For example, both of these images mean you are in outer space. </p>
            <img src='./assets/img/instructions/outerspace.jpg' class='instructions-image'>","","instructions","","","","","","","","","","","","","","","",""
"learning-instructions","9","84553","0.0-3.0-1.0-0.5","pilot_wm_v1","66572731cb06ce43c72bdf8a","4","null","null","true","","","","","","","1221.7999999999884","<p> You need to decide which direction to travel in. </p>
            <p> You can choose between going <b>up or down</b> by using the arrow keys. </p>
            <img src='./assets/img/instructions/updown.jpg' class='instructions-image'>","","instructions","","","","","","","","","","","","","","","",""
"learning-instructions","10","94303","0.0-3.0-1.0-0.6","pilot_wm_v1","66572731cb06ce43c72bdf8a","4","null","null","true","","","","","","","955.7999999999884","<p> You will have <b>2 seconds</b> to make your choice. </p>
            <p> If you do not make a choice within 2 seconds, you will not find an animal or earn treasure. </p>
            <img src='./assets/img/instructions/2seconds.jpg' class='instructions-image'>","","instructions","","","","","","","","","","","","","","","",""
"learning-instructions","11","102520","0.0-3.0-1.0-0.7","pilot_wm_v1","66572731cb06ce43c72bdf8a","4","null","null","true","","","","","","","1193.600000000035","<p> Let’s try practicing that now! </p>
            <p> When you see a picture of the place you are in, press the <b>up</b> key to travel up. </p>
            <img src='./assets/img/instructions/pressUp.jpg' class='instructions-image'>","","instructions","","","","","","","","","","","","","","","",""
"revaluation","12","106534","0.0-3.0-2.0-0.0","pilot_wm_v1","66572731cb06ce43c72bdf8a","4","null","null","true","","true","","","","","[]","./assets/img/space/0.jpg","[]","first stage practice","space","-5","null","null","","false","","","","","","","","","",""
"html-keyboard-response","13","107038","0.0-3.0-2.0-1.0","pilot_wm_v1","66572731cb06ce43c72bdf8a","4","null","null","true","","","","","","","null","<div style=""font-size:60px;"">+</div>","null","fixation","","","","","","","","","","","","","","","",""
"revaluation","14","111046","0.0-3.0-2.0-0.1","pilot_wm_v1","66572731cb06ce43c72bdf8a","4","null","null","true","","false","","","","","[673.5]","./assets/img/space/1.jpg","[""ArrowUp""]","first stage practice","space","0","null","null","ArrowUp","false","","","","","","","","","",""
"html-keyboard-response","15","111548","0.0-3.0-2.0-1.1","pilot_wm_v1","66572731cb06ce43c72bdf8a","4","null","null","true","","","","","","","null","<div style=""font-size:60px;"">+</div>","null","fixation","","","","","","","","","","","","","","","",""
"revaluation","16","115556","0.0-3.0-2.0-0.2","pilot_wm_v1","66572731cb06ce43c72bdf8a","4","null","null","true","","false","","","","","[703.2000000000116]","./assets/img/space/2.jpg","[""ArrowUp""]","first stage practice","space","0","null","null","ArrowUp","false","","","","","","","","","",""
"html-keyboard-response","17","116059","0.0-3.0-2.0-1.2","pilot_wm_v1","66572731cb06ce43c72bdf8a","4","null","null","true","","","","","","","null","<div style=""font-size:60px;"">+</div>","null","fixation","","","","","","","","","","","","","","","",""
"learning-instructions","18","122088","0.0-3.0-3.0-0.0","pilot_wm_v1","66572731cb06ce43c72bdf8a","4","null","null","true","","","","","","","1337","<p> Great job! Now try pressing the <b>down</b> key to travel down. </p>
            <img src='./assets/img/instructions/pressDown.jpg' class='instructions-image'>","","instructions","","","","","","","","","","","","","","","",""
"revaluation","19","126094","0.0-3.0-4.0-0.0","pilot_wm_v1","66572731cb06ce43c72bdf8a","4","null","null","true","","false","","","","","[478.70000000001164]","./assets/img/space/3.jpg","[""ArrowDown""]","first stage practice","space","0","null","null","ArrowDown","false","","","","","","","","","",""
"html-keyboard-response","20","126597","0.0-3.0-4.0-1.0","pilot_wm_v1","66572731cb06ce43c72bdf8a","4","null","null","true","","","","","","","null","<div style=""font-size:60px;"">+</div>","null","fixation","","","","","","","","","","","","","","","",""
"revaluation","21","130604","0.0-3.0-4.0-0.1","pilot_wm_v1","66572731cb06ce43c72bdf8a","4","null","null","true","","false","","","","","[714.3999999999651]","./assets/img/space/4.jpg","[""ArrowDown""]","first stage practice","space","0","null","null","ArrowDown","false","","","","","","","","","",""
"html-keyboard-response","22","131107","0.0-3.0-4.0-1.1","pilot_wm_v1","66572731cb06ce43c72bdf8a","4","null","null","true","","","","","","","null","<div style=""font-size:60px;"">+</div>","null","fixation","","","","","","","","","","","","","","","",""
"revaluation","23","135114","0.0-3.0-4.0-0.2","pilot_wm_v1","66572731cb06ce43c72bdf8a","4","null","null","true","","false","","","","","[797.1000000000349]","./assets/img/space/5.jpg","[""ArrowDown""]","first stage practice","space","0","null","null","ArrowDown","false","","","","","","","","","",""
"html-keyboard-response","24","135617","0.0-3.0-4.0-1.2","pilot_wm_v1","66572731cb06ce43c72bdf8a","4","null","null","true","","","","","","","null","<div style=""font-size:60px;"">+</div>","null","fixation","","","","","","","","","","","","","","","",""
"learning-instructions","25","146904","0.0-3.0-5.0-0.0","pilot_wm_v1","66572731cb06ce43c72bdf8a","4","null","null","true","","","","","","","1449.600000000035","<p> The animals don’t move, so the animal in the upper part of a place will stay in the upper part of a place, and the animal in the lower part of a place will stay in the lower part of a place. </p>","","instructions","","","","","","","","","","","","","","","",""
"learning-instructions","26","157422","0.0-3.0-5.0-0.1","pilot_wm_v1","66572731cb06ce43c72bdf8a","4","null","null","true","","","","","","","1401","<p> Each animal has two treasure chests for you to choose from. </p>
            <p> The amount of treasure in each chest can range from <b> 0 to 40 pieces.</b></p>","","instructions","","","","","","","","","","","","","","","",""
"learning-instructions","27","171338","0.0-3.0-5.0-0.2","pilot_wm_v1","66572731cb06ce43c72bdf8a","4","null","null","true","","","","","","","2751.0999999999767","<p> You should decide which chest to search for treasure by using the <b>left</b> and <b>right</b> arrow keys. </p>
            <p><b> Pay attention to which animal is on the screen, as the animals have different treasure chests. </b></p>
            <img src='./assets/img/instructions/leftright.jpg' class='instructions-image'>","","instructions","","","","","","","","","","","","","","","",""
"learning-instructions","28","178739","0.0-3.0-5.0-0.3","pilot_wm_v1","66572731cb06ce43c72bdf8a","4","null","null","true","","","","","","","1053","<p> Let’s try practicing that now. </p>
            <p> When you see an animal, choose which chest to search for treasure. </p>
            <img src='./assets/img/instructions/chooseChest.jpg' class='instructions-image'>","","instructions","","","","","","","","","","","","","","","",""
"revaluation","29","182750","0.0-3.0-6.0-0.0","pilot_wm_v1","66572731cb06ce43c72bdf8a","4","null","null","true","","false","","","","","[489.70000000001164]","./assets/img/space/animals/cat.jpg","[""ArrowRight""]","second stage practice","space","36","{""ArrowUp,ArrowLeft"":3,""ArrowUp,ArrowRight"":36,""ArrowDown,ArrowLeft"":15,""ArrowDown,ArrowRight"":23}","true","ArrowUp,ArrowRight","","","","","","","","","","",""
"html-keyboard-response","30","183252","0.0-3.0-6.0-1.0","pilot_wm_v1","66572731cb06ce43c72bdf8a","4","null","null","true","","","","","","","null","<div style=""font-size:60px;"">+</div>","null","fixation","","","","","","","","","","","","","","","",""
"revaluation","31","187259","0.0-3.0-6.0-0.1","pilot_wm_v1","66572731cb06ce43c72bdf8a","4","null","null","true","","false","","","","","[473.29999999998836]","./assets/img/space/animals/cat.jpg","[""ArrowRight""]","second stage practice","space","36","{""ArrowUp,ArrowLeft"":3,""ArrowUp,ArrowRight"":36,""ArrowDown,ArrowLeft"":15,""ArrowDown,ArrowRight"":23}","true","ArrowUp,ArrowRight","","","","","","","","","","",""
"html-keyboard-response","32","187761","0.0-3.0-6.0-1.1","pilot_wm_v1","66572731cb06ce43c72bdf8a","4","null","null","true","","","","","","","null","<div style=""font-size:60px;"">+</div>","null","fixation","","","","","","","","","","","","","","","",""
"revaluation","33","191769","0.0-3.0-6.0-0.2","pilot_wm_v1","66572731cb06ce43c72bdf8a","4","null","null","true","","false","","","","","[550.2000000000116]","./assets/img/space/animals/rabbit.jpg","[""ArrowLeft""]","second stage practice","space","15","{""ArrowUp,ArrowLeft"":3,""ArrowUp,ArrowRight"":36,""ArrowDown,ArrowLeft"":15,""ArrowDown,ArrowRight"":23}","false","ArrowDown,ArrowLeft","","","","","","","","","","",""
"html-keyboard-response","34","192271","0.0-3.0-6.0-1.2","pilot_wm_v1","66572731cb06ce43c72bdf8a","4","null","null","true","","","","","","","null","<div style=""font-size:60px;"">+</div>","null","fixation","","","","","","","","","","","","","","","",""
"revaluation","35","196278","0.0-3.0-6.0-0.3","pilot_wm_v1","66572731cb06ce43c72bdf8a","4","null","null","true","","false","","","","","[462.80000000004657]","./assets/img/space/animals/rabbit.jpg","[""ArrowRight""]","second stage practice","space","23","{""ArrowUp,ArrowLeft"":3,""ArrowUp,ArrowRight"":36,""ArrowDown,ArrowLeft"":15,""ArrowDown,ArrowRight"":23}","true","ArrowDown,ArrowRight","","","","","","","","","","",""
"html-keyboard-response","36","196782","0.0-3.0-6.0-1.3","pilot_wm_v1","66572731cb06ce43c72bdf8a","4","null","null","true","","","","","","","null","<div style=""font-size:60px;"">+</div>","null","fixation","","","","","","","","","","","","","","","",""
"learning-instructions","37","219607","0.0-3.0-7.0-0.0","pilot_wm_v1","66572731cb06ce43c72bdf8a","4","null","null","true","","","","","","","6032.900000000023","<p> Great job. Now let’s try putting it together. </p>
            <p> On each turn, you will first see a picture to remind you of the place you are in, and you need to choose whether to go up or down. </p>
            <p> Then you will see an animal and choose which of its chests to search for treasure. </p>","","instructions","","","","","","","","","","","","","","","",""
"learning-instructions","38","228824","0.0-3.0-7.0-0.1","pilot_wm_v1","66572731cb06ce43c72bdf8a","4","null","null","true","","","","","","","971.5999999999767","<p> When you choose whether to go up or down, try to go to the animal with the chest with the most treasure. </p>
            <p> Try practicing that now! </p>","","instructions","","","","","","","","","","","","","","","",""
"revaluation","39","234833","0.0-3.0-8.0-0.0","pilot_wm_v1","66572731cb06ce43c72bdf8a","4","null","null","true","","false","","","","","[744.2000000000116,869.8000000000466]","./assets/img/space/6.jpg","[""ArrowUp"",""ArrowRight""]","full practice","space","36","{""ArrowUp,ArrowLeft"":3,""ArrowUp,ArrowRight"":36,""ArrowDown,ArrowLeft"":15,""ArrowDown,ArrowRight"":23}","true","ArrowUp,ArrowRight","false","","","","","","","","","",""
"html-keyboard-response","40","235336","0.0-3.0-8.0-1.0","pilot_wm_v1","66572731cb06ce43c72bdf8a","4","null","null","true","","","","","","","null","<div style=""font-size:60px;"">+</div>","null","fixation","","","","","","","","","","","","","","","",""
"revaluation","41","241344","0.0-3.0-8.0-0.1","pilot_wm_v1","66572731cb06ce43c72bdf8a","4","null","null","true","","false","","","","","[874.2000000000116,1184.9000000000233]","./assets/img/space/7.jpg","[""ArrowDown"",""ArrowLeft""]","full practice","space","15","{""ArrowUp,ArrowLeft"":3,""ArrowUp,ArrowRight"":36,""ArrowDown,ArrowLeft"":15,""ArrowDown,ArrowRight"":23}","false","ArrowDown,ArrowLeft","false","","","","","","","","","",""
"html-keyboard-response","42","241846","0.0-3.0-8.0-1.1","pilot_wm_v1","66572731cb06ce43c72bdf8a","4","null","null","true","","","","","","","null","<div style=""font-size:60px;"">+</div>","null","fixation","","","","","","","","","","","","","","","",""
"revaluation","43","247854","0.0-3.0-8.0-0.2","pilot_wm_v1","66572731cb06ce43c72bdf8a","4","null","null","true","","false","","","","","[1146.899999999965,643.2999999999884]","./assets/img/space/8.jpg","[""ArrowDown"",""ArrowRight""]","full practice","space","23","{""ArrowUp,ArrowLeft"":3,""ArrowUp,ArrowRight"":36,""ArrowDown,ArrowLeft"":15,""ArrowDown,ArrowRight"":23}","false","ArrowDown,ArrowRight","false","","","","","","","","","",""
"html-keyboard-response","44","248357","0.0-3.0-8.0-1.2","pilot_wm_v1","66572731cb06ce43c72bdf8a","4","null","null","true","","","","","","","null","<div style=""font-size:60px;"">+</div>","null","fixation","","","","","","","","","","","","","","","",""
"revaluation","45","254366","0.0-3.0-8.0-0.3","pilot_wm_v1","66572731cb06ce43c72bdf8a","4","null","null","true","","false","","","","","[1121.899999999965,1041.2000000000116]","./assets/img/space/9.jpg","[""ArrowDown"",""ArrowLeft""]","full practice","space","15","{""ArrowUp,ArrowLeft"":3,""ArrowUp,ArrowRight"":36,""ArrowDown,ArrowLeft"":15,""ArrowDown,ArrowRight"":23}","false","ArrowDown,ArrowLeft","false","","","","","","","","","",""
"html-keyboard-response","46","254868","0.0-3.0-8.0-1.3","pilot_wm_v1","66572731cb06ce43c72bdf8a","4","null","null","true","","","","","","","null","<div style=""font-size:60px;"">+</div>","null","fixation","","","","","","","","","","","","","","","",""
"revaluation","47","260877","0.0-3.0-8.0-0.4","pilot_wm_v1","66572731cb06ce43c72bdf8a","4","null","null","true","","false","","","","","[1188.5999999999767,564]","./assets/img/space/10.jpg","[""ArrowDown"",""ArrowRight""]","full practice","space","23","{""ArrowUp,ArrowLeft"":3,""ArrowUp,ArrowRight"":36,""ArrowDown,ArrowLeft"":15,""ArrowDown,ArrowRight"":23}","false","ArrowDown,ArrowRight","false","","","","","","","","","",""
"html-keyboard-response","48","261379","0.0-3.0-8.0-1.4","pilot_wm_v1","66572731cb06ce43c72bdf8a","4","null","null","true","","","","","","","null","<div style=""font-size:60px;"">+</div>","null","fixation","","","","","","","","","","","","","","","",""
"learning-instructions","49","277275","0.0-3.0-9.0-0.0","pilot_wm_v1","66572731cb06ce43c72bdf8a","4","null","null","true","","","","","","","5565.599999999977","<p> One last thing: sometimes, you will see a robber. The robber can be anywhere in the picture. </p>
            <p> If you do not stop them, you will lose treasure. </p>
            <img src='./assets/img/instructions/robber.jpg' class='instructions-image'>","","instructions","","","","","","","","","","","","","","","",""
"learning-instructions","50","285127","0.0-3.0-9.0-0.1","pilot_wm_v1","66572731cb06ce43c72bdf8a","4","null","null","true","","","","","","","697.0999999999767","<p> If you see the robber, you should <b>press the space bar</b> rather than using the arrow keys. </p>
            <p> Try practicing that now! </p>","","instructions","","","","","","","","","","","","","","","",""
"revaluation","51","289133","0.0-3.0-10.0-0.0","pilot_wm_v1","66572731cb06ce43c72bdf8a","4","null","null","true","","false","","","","","[870.3000000000466]","./assets/img/space/catch/0.jpg","[""spaceBar""]","catch practice","space","0","{""ArrowUp,ArrowLeft"":3,""ArrowUp,ArrowRight"":36,""ArrowDown,ArrowLeft"":15,""ArrowDown,ArrowRight"":23}","true","spaceBar","true","","","","","","","","","",""
"html-keyboard-response","52","289635","0.0-3.0-10.0-1.0","pilot_wm_v1","66572731cb06ce43c72bdf8a","4","null","null","true","","","","","","","null","<div style=""font-size:60px;"">+</div>","null","fixation","","","","","","","","","","","","","","","",""
"revaluation","53","293643","0.0-3.0-10.0-0.1","pilot_wm_v1","66572731cb06ce43c72bdf8a","4","null","null","true","","false","","","","","[783.2999999999884]","./assets/img/space/catch/1.jpg","[""spaceBar""]","catch practice","space","0","{""ArrowUp,ArrowLeft"":3,""ArrowUp,ArrowRight"":36,""ArrowDown,ArrowLeft"":15,""ArrowDown,ArrowRight"":23}","true","spaceBar","true","","","","","","","","","",""
"html-keyboard-response","54","294145","0.0-3.0-10.0-1.1","pilot_wm_v1","66572731cb06ce43c72bdf8a","4","null","null","true","","","","","","","null","<div style=""font-size:60px;"">+</div>","null","fixation","","","","","","","","","","","","","","","",""
"revaluation","55","298152","0.0-3.0-10.0-0.2","pilot_wm_v1","66572731cb06ce43c72bdf8a","4","null","null","true","","false","","","","","[667.9000000000233]","./assets/img/space/catch/2.jpg","[""spaceBar""]","catch practice","space","0","{""ArrowUp,ArrowLeft"":3,""ArrowUp,ArrowRight"":36,""ArrowDown,ArrowLeft"":15,""ArrowDown,ArrowRight"":23}","true","spaceBar","true","","","","","","","","","",""
"html-keyboard-response","56","298654","0.0-3.0-10.0-1.2","pilot_wm_v1","66572731cb06ce43c72bdf8a","4","null","null","true","","","","","","","null","<div style=""font-size:60px;"">+</div>","null","fixation","","","","","","","","","","","","","","","",""
"learning-instructions","57","305294","0.0-3.0-11.0-0.0","pilot_wm_v1","66572731cb06ce43c72bdf8a","4","null","null","true","","","","","","","1123.8000000000466","<p> Sometimes, you will come across a special kind of treasure chest that requires a password. </p>
            <img src='./assets/img/instructions/beep_chest.jpg' class='instructions-image'>","","instructions","","","","","","","","","","","","","","","",""
"learning-instructions","58","329078","0.0-3.0-11.0-0.1","pilot_wm_v1","66572731cb06ce43c72bdf8a","4","null","null","true","","","","","","","2182.4000000000233","<p> Your friend will send you the password using a series of beeps so that you can open the chest and earn treasure. </p>
            <p> You will hear two kinds of beeps, a high beep and a low beep. </p>
            <p> You should report the number of high beeps that you heard before seeing the chest. </p>
            <img src='./assets/img/instructions/listen.jpg' class='instructions-image'>","","instructions","","","","","","","","","","","","","","","",""
"learning-instructions","59","352912","0.0-3.0-11.0-0.2","pilot_wm_v1","66572731cb06ce43c72bdf8a","4","null","null","true","","","","","","","1547","<p> For example, if you hear this series of beeps, you should report 4 as the password using the slider. </p>
            <p> After reporting a password for a chest, you should count the high beeps again starting from 0. </p>
            <p> Let's try practicing that now. </p>","","instructions","","","","","","","","","","","","","","","",""
"audio-button-response","60","360955","0.0-3.0-12.0-0.0-0.0","pilot_wm_v1","66572731cb06ce43c72bdf8a","4","null","null","true","","","","","","","null","./assets/audio/beeps/practice_6.wav","null","","","","","","","","","","","","","","","","",""
"html-slider-response","61","364430","0.0-3.0-12.0-0.0-1.0","pilot_wm_v1","66572731cb06ce43c72bdf8a","4","null","null","true","","","","","","","3468","<div style=""width:500px;"">
        <p>What is the password?</p>
        <img src='./assets/img/instructions/beep_chest.jpg' class='instructions-image'>","6","beep chest","","","","false","","","","50","0","6","","","","","",""
"comp-q","62","370214","0.0-3.0-12.0-0.0-2.0","pilot_wm_v1","66572731cb06ce43c72bdf8a","4","null","null","true","","","","","","","1576.0999999999767","<p>Correct! There were 6 high pitched beeps before you saw the chest. </p>","0","beep answer","","","","","","","","","","","","","","","",""
"audio-button-response","63","378262","0.0-3.0-12.0-0.1-0.1","pilot_wm_v1","66572731cb06ce43c72bdf8a","4","null","null","true","","","","","","","null","./assets/audio/beeps/practice_4.wav","null","","","","","","","","","","","","","","","","",""
"html-slider-response","64","380497","0.0-3.0-12.0-0.1-1.1","pilot_wm_v1","66572731cb06ce43c72bdf8a","4","null","null","true","","","","","","","2233","<div style=""width:500px;"">
        <p>What is the password?</p>
        <img src='./assets/img/instructions/beep_chest.jpg' class='instructions-image'>","4","beep chest","","","","false","","","","50","0","4","","","","","",""
"comp-q","65","385597","0.0-3.0-12.0-0.1-2.1","pilot_wm_v1","66572731cb06ce43c72bdf8a","4","null","null","true","","","","","","","918.0999999999767","<p>Correct! There were 4 high pitched beeps before you saw the chest. </p>","0","beep answer","","","","","","","","","","","","","","","",""
"learning-instructions","66","398197","0.0-3.0-13.0-0.0","pilot_wm_v1","66572731cb06ce43c72bdf8a","4","null","null","true","","","","","","","2291.5999999999767","<p> Good job! In the real game we will not tell you if you entered the right password. </p>
            <p> Do your best, the treasure you earn from these chests will also give you extra bonus money. </p>","","instructions","","","","","","","","","","","","","","","",""
"learning-instructions","67","412681","0.0-3.0-14.0-0.0-0.0","pilot_wm_v1","66572731cb06ce43c72bdf8a","4","null","null","true","","","","","","","918.4000000000233","<p> After you explore a place to find treasure, it will be time to play a different game. </p>
            <p> During this game, red dots will appear on the screen and fall down slowly. </p>
            <p><b> You must click on them before they reach the bottom. </b></p>
            <img src='./assets/img/instructions/dotGame.jpg' class='instructions-image'>","","instructions","","","","","","","","","","","","","","","",""
"learning-instructions","68","419314","0.0-3.0-14.0-0.0-0.1","pilot_wm_v1","66572731cb06ce43c72bdf8a","4","null","null","true","","","","","","","970.9000000000233","<p> For every dot you click, you will earn additional treasure. </p>
            <p> Let’s try practicing that now. </p>","","instructions","","","","","","","","","","","","","","","",""
"revaluation","69","434322","0.0-3.0-14.0-1.0-0.0","pilot_wm_v1","66572731cb06ce43c72bdf8a","4","null","null","true","","","","","","","[55]","","","rest practice","","10","","","","","","","","","0","15000","","","",""
"learning-instructions","70","440382","0.0-3.0-15.0-0.0-0.0","pilot_wm_v1","66572731cb06ce43c72bdf8a","4","null","null","true","","","","","","","805.5","<p> Now, you will practice a shortened version of the game to get a sense of how it all fits together. </p>","","instructions","","","","","","","","","","","","","","","",""
"learning-instructions","71","444416","0.0-3.0-15.0-0.0-0.1","pilot_wm_v1","66572731cb06ce43c72bdf8a","4","null","null","true","","","","","","","855","<p>This time you are searching for treasure in outer space.</p>","","instructions","","","","","","","","","","","","","","","",""
"learning-instructions","72","460750","0.0-3.0-15.0-1.0-0.0","pilot_wm_v1","66572731cb06ce43c72bdf8a","4","null","null","true","","","","","","","1588.4000000000233","<p> Remember, when you see a picture of the place, use the up and down keys to <b>find an animal</b>.</p>
            <p> When you encounter an animal, you should use the left and right keys to <b>select a treasure chest</b>.</p>
            <p> Don't forget to look out for the robber! </p>","","instructions","","","","","","","","","","","","","","","",""
"revaluation","73","466756","0.0-3.0-15.0-2.0-0.0","pilot_wm_v1","66572731cb06ce43c72bdf8a","4","null","null","true","","false","","","","","[805.2999999999302,1026.3000000000466]","./assets/img/space/11.jpg","[""ArrowDown"",""ArrowLeft""]","practice block","space","15","{""ArrowUp,ArrowLeft"":3,""ArrowUp,ArrowRight"":36,""ArrowDown,ArrowLeft"":15,""ArrowDown,ArrowRight"":23}","false","ArrowDown,ArrowLeft","false","","","","","","","","","",""
"html-keyboard-response","74","467258","0.0-3.0-15.0-2.0-1.0","pilot_wm_v1","66572731cb06ce43c72bdf8a","4","null","null","true","","","","","","","null","<div style=""font-size:60px;"">+</div>","null","fixation","","","","","","","","","","","","","","","",""
"revaluation","75","473266","0.0-3.0-15.0-2.0-0.1","pilot_wm_v1","66572731cb06ce43c72bdf8a","4","null","null","true","","false","","","","","[629.8000000000466,1198.6999999999534]","./assets/img/space/12.jpg","[""ArrowUp"",""ArrowRight""]","practice block","space","36","{""ArrowUp,ArrowLeft"":3,""ArrowUp,ArrowRight"":36,""ArrowDown,ArrowLeft"":15,""ArrowDown,ArrowRight"":23}","true","ArrowUp,ArrowRight","false","","","","","","","","","",""
"html-keyboard-response","76","473768","0.0-3.0-15.0-2.0-1.1","pilot_wm_v1","66572731cb06ce43c72bdf8a","4","null","null","true","","","","","","","null","<div style=""font-size:60px;"">+</div>","null","fixation","","","","","","","","","","","","","","","",""
"revaluation","77","479777","0.0-3.0-15.0-2.0-0.2","pilot_wm_v1","66572731cb06ce43c72bdf8a","4","null","null","true","","false","","","","","[679.1999999999534,523]","./assets/img/space/13.jpg","[""ArrowUp"",""ArrowRight""]","practice block","space","36","{""ArrowUp,ArrowLeft"":3,""ArrowUp,ArrowRight"":36,""ArrowDown,ArrowLeft"":15,""ArrowDown,ArrowRight"":23}","true","ArrowUp,ArrowRight","false","","","","","","","","","",""
"html-keyboard-response","78","480279","0.0-3.0-15.0-2.0-1.2","pilot_wm_v1","66572731cb06ce43c72bdf8a","4","null","null","true","","","","","","","null","<div style=""font-size:60px;"">+</div>","null","fixation","","","","","","","","","","","","","","","",""
"revaluation","79","486289","0.0-3.0-15.0-2.0-0.3","pilot_wm_v1","66572731cb06ce43c72bdf8a","4","null","null","true","","false","","","","","[515.8000000000466,921.0999999999767]","./assets/img/space/14.jpg","[""ArrowUp"",""ArrowRight""]","practice block","space","36","{""ArrowUp,ArrowLeft"":3,""ArrowUp,ArrowRight"":36,""ArrowDown,ArrowLeft"":15,""ArrowDown,ArrowRight"":23}","true","ArrowUp,ArrowRight","false","","","","","","","","","",""
"html-keyboard-response","80","486792","0.0-3.0-15.0-2.0-1.3","pilot_wm_v1","66572731cb06ce43c72bdf8a","4","null","null","true","","","","","","","null","<div style=""font-size:60px;"">+</div>","null","fixation","","","","","","","","","","","","","","","",""
"revaluation","81","492801","0.0-3.0-15.0-2.0-0.4","pilot_wm_v1","66572731cb06ce43c72bdf8a","4","null","null","true","","false","","","","","[745.8000000000466,546.4000000000233]","./assets/img/space/11.jpg","[""ArrowUp"",""ArrowRight""]","practice block","space","36","{""ArrowUp,ArrowLeft"":3,""ArrowUp,ArrowRight"":36,""ArrowDown,ArrowLeft"":15,""ArrowDown,ArrowRight"":23}","true","ArrowUp,ArrowRight","false","","","","","","","","","",""
"html-keyboard-response","82","493304","0.0-3.0-15.0-2.0-1.4","pilot_wm_v1","66572731cb06ce43c72bdf8a","4","null","null","true","","","","","","","null","<div style=""font-size:60px;"">+</div>","null","fixation","","","","","","","","","","","","","","","",""
"revaluation","83","499313","0.0-3.0-15.0-2.0-0.5","pilot_wm_v1","66572731cb06ce43c72bdf8a","4","null","null","true","","false","","","","","[519.1999999999534,507.5999999999767]","./assets/img/space/12.jpg","[""ArrowDown"",""ArrowLeft""]","practice block","space","15","{""ArrowUp,ArrowLeft"":3,""ArrowUp,ArrowRight"":36,""ArrowDown,ArrowLeft"":15,""ArrowDown,ArrowRight"":23}","false","ArrowDown,ArrowLeft","false","","","","","","","","","",""
"html-keyboard-response","84","499814","0.0-3.0-15.0-2.0-1.5","pilot_wm_v1","66572731cb06ce43c72bdf8a","4","null","null","true","","","","","","","null","<div style=""font-size:60px;"">+</div>","null","fixation","","","","","","","","","","","","","","","",""
"revaluation","85","505823","0.0-3.0-15.0-2.0-0.6","pilot_wm_v1","66572731cb06ce43c72bdf8a","4","null","null","true","","false","","","","","[539.9000000000233,617]","./assets/img/space/13.jpg","[""ArrowUp"",""ArrowRight""]","practice block","space","36","{""ArrowUp,ArrowLeft"":3,""ArrowUp,ArrowRight"":36,""ArrowDown,ArrowLeft"":15,""ArrowDown,ArrowRight"":23}","true","ArrowUp,ArrowRight","false","","","","","","","","","",""
"html-keyboard-response","86","506325","0.0-3.0-15.0-2.0-1.6","pilot_wm_v1","66572731cb06ce43c72bdf8a","4","null","null","true","","","","","","","null","<div style=""font-size:60px;"">+</div>","null","fixation","","","","","","","","","","","","","","","",""
"revaluation","87","512332","0.0-3.0-15.0-2.0-0.7","pilot_wm_v1","66572731cb06ce43c72bdf8a","4","null","null","true","","false","","","","","[758.7999999999302,596.6000000000931]","./assets/img/space/14.jpg","[""ArrowUp"",""ArrowRight""]","practice block","space","36","{""ArrowUp,ArrowLeft"":3,""ArrowUp,ArrowRight"":36,""ArrowDown,ArrowLeft"":15,""ArrowDown,ArrowRight"":23}","true","ArrowUp,ArrowRight","false","","","","","","","","","",""
"html-keyboard-response","88","512835","0.0-3.0-15.0-2.0-1.7","pilot_wm_v1","66572731cb06ce43c72bdf8a","4","null","null","true","","","","","","","null","<div style=""font-size:60px;"">+</div>","null","fixation","","","","","","","","","","","","","","","",""
"revaluation","89","516842","0.0-3.0-15.0-2.0-0.8","pilot_wm_v1","66572731cb06ce43c72bdf8a","4","null","null","true","","false","","","","","[557.5]","./assets/img/space/catch/3.jpg","[""spaceBar""]","practice block","space","0","{""ArrowUp,ArrowLeft"":3,""ArrowUp,ArrowRight"":36,""ArrowDown,ArrowLeft"":15,""ArrowDown,ArrowRight"":23}","true","spaceBar","true","","","","","","","","","",""
"html-keyboard-response","90","517344","0.0-3.0-15.0-2.0-1.8","pilot_wm_v1","66572731cb06ce43c72bdf8a","4","null","null","true","","","","","","","null","<div style=""font-size:60px;"">+</div>","null","fixation","","","","","","","","","","","","","","","",""
"learning-instructions","91","530919","0.0-3.0-15.0-3.0-0.0","pilot_wm_v1","66572731cb06ce43c72bdf8a","4","null","null","true","","","","","","","641.1000000000931","<p> Now, you will travel with a friend who will choose whether you go up or down first. </p>
            <p> On these turns, you will just see the animal that they found. You will still get to choose which chest to search for treasure.</p>","","instructions","","","","","","","","","","","","","","","",""
"learning-instructions","92","543502","0.0-3.0-15.0-3.0-0.1","pilot_wm_v1","66572731cb06ce43c72bdf8a","4","null","null","true","","","","","","","967.6000000000931","<p> In this part, you will also hear beeps from your friend and see special treasure chests that need a password. </p>
            <p> Do your best to count the high beeps <b>and</b> choose between each animals' chests at the same time.</p>
            <img src='./assets/img/instructions/beep_chest.jpg' class='instructions-image'>","","instructions","","","","","","","","","","","","","","","",""
"revaluation","93","547509","0.0-3.0-15.0-4.0-0.0","pilot_wm_v1","66572731cb06ce43c72bdf8a","4","null","null","true","","false","","","","","[735.5]","./assets/img/space/animals/cat.jpg","[""ArrowRight""]","practice block","space","36","{""ArrowUp,ArrowLeft"":3,""ArrowUp,ArrowRight"":36,""ArrowDown,ArrowLeft"":15,""ArrowDown,ArrowRight"":23}","true","ArrowUp,ArrowRight","","[""19_0""]","","","","","","0","","",""
"html-keyboard-response","94","548015","0.0-3.0-15.0-4.0-1.0","pilot_wm_v1","66572731cb06ce43c72bdf8a","4","null","null","true","","","","","","","null","<div style=""font-size:60px;"">+</div>","null","fixation","","","","","","","","","","","","","","","",""
"revaluation","95","552021","0.0-3.0-15.0-4.0-0.1","pilot_wm_v1","66572731cb06ce43c72bdf8a","4","null","null","true","","true","","","","","[]","./assets/img/space/animals/rabbit.jpg","[]","practice block","space","-5","{""ArrowUp,ArrowLeft"":3,""ArrowUp,ArrowRight"":36,""ArrowDown,ArrowLeft"":15,""ArrowDown,ArrowRight"":23}","false","ArrowDown","","[""21_1""]","","","","","","1","","",""
"html-keyboard-response","96","552525","0.0-3.0-15.0-4.0-1.1","pilot_wm_v1","66572731cb06ce43c72bdf8a","4","null","null","true","","","","","","","null","<div style=""font-size:60px;"">+</div>","null","fixation","","","","","","","","","","","","","","","",""
"revaluation","97","556532","0.0-3.0-15.0-4.0-0.2","pilot_wm_v1","66572731cb06ce43c72bdf8a","4","null","null","true","","false","","","","","[544.5]","./assets/img/space/animals/rabbit.jpg","[""ArrowLeft""]","practice block","space","15","{""ArrowUp,ArrowLeft"":3,""ArrowUp,ArrowRight"":36,""ArrowDown,ArrowLeft"":15,""ArrowDown,ArrowRight"":23}","false","ArrowDown,ArrowLeft","","[""22_3""]","","","","","","2","","",""
"html-keyboard-response","98","557035","0.0-3.0-15.0-4.0-1.2","pilot_wm_v1","66572731cb06ce43c72bdf8a","4","null","null","true","","","","","","","null","<div style=""font-size:60px;"">+</div>","null","fixation","","","","","","","","","","","","","","","",""
"revaluation","99","561043","0.0-3.0-15.0-4.0-0.3","pilot_wm_v1","66572731cb06ce43c72bdf8a","4","null","null","true","","false","","","","","[586.7000000001863]","./assets/img/space/animals/cat.jpg","[""ArrowRight""]","practice block","space","36","{""ArrowUp,ArrowLeft"":3,""ArrowUp,ArrowRight"":36,""ArrowDown,ArrowLeft"":15,""ArrowDown,ArrowRight"":23}","true","ArrowUp,ArrowRight","","[""20_0""]","","","","","","3","","",""
"html-keyboard-response","100","561545","0.0-3.0-15.0-4.0-1.3","pilot_wm_v1","66572731cb06ce43c72bdf8a","4","null","null","true","","","","","","","null","<div style=""font-size:60px;"">+</div>","null","fixation","","","","","","","","","","","","","","","",""
"html-slider-response","101","565654","0.0-3.0-15.0-4.0-2.3-0.3","pilot_wm_v1","66572731cb06ce43c72bdf8a","4","null","null","true","","","","","","","4105","<div style=""width:500px;"">
        <p>What is the password?</p>
        <img src='./assets/img/instructions/beep_chest.jpg' class='instructions-image'>","4","beep chest","","","","false","","","","50","82","78","","","","","",""
"learning-instructions","102","574004","0.0-3.0-15.0-5.0-0.0-0.0","pilot_wm_v1","66572731cb06ce43c72bdf8a","4","null","null","true","","","","","","","993.6999999999534","<p> Time to play the dot game! </p>
            <p> For 15 seconds, click the red dots on the following screen as they appear. </p>","","instructions","","","","","","","","","","","","","","","",""
"revaluation","103","589007","0.0-3.0-15.0-5.0-1.0-0.0","pilot_wm_v1","66572731cb06ce43c72bdf8a","4","null","null","true","","","","","","","[83]","","","rest practice","","10","","","","","","","","","0","15000","","","",""
"learning-instructions","104","597124","0.0-3.0-15.0-6.0-0.0","pilot_wm_v1","66572731cb06ce43c72bdf8a","4","null","null","true","","","","","","","null","<p> You have almost finished this part of the game! </p>
            <p> We are going to ask you to make a few more choices. </p>","","instructions","","","","","","","","","","","","","","","",""
"learning-instructions","105","613113","0.0-3.0-15.0-6.0-0.1","pilot_wm_v1","66572731cb06ce43c72bdf8a","4","null","null","true","","","","","","","null","<p> First, you need to decide whether to go up or down. When you see each picture, use the arrow keys to make your choice. </p>
            <p><b>You will not see which animal you found, but try to get to the one that will give you the most treasure.</b></p>","","instructions","","","","","","","","","","","","","","","",""
"html-keyboard-response","106","614116","0.0-3.0-15.0-7.0-0.0","pilot_wm_v1","66572731cb06ce43c72bdf8a","4","null","null","true","","","","","","","null","<div style=""font-size:100px;color:red;"">Starting in...</div>","null","","","","","","","","","","","","","","","","",""
"html-keyboard-response","107","615119","0.0-3.0-15.0-7.0-1.0","pilot_wm_v1","66572731cb06ce43c72bdf8a","4","null","null","true","","","","","","","null","<div style=""font-size:200px;color:red;"">3</div>","null","","","","","","","","","","","","","","","","",""
"html-keyboard-response","108","616122","0.0-3.0-15.0-7.0-2.0","pilot_wm_v1","66572731cb06ce43c72bdf8a","4","null","null","true","","","","","","","null","<div style=""font-size:200px;color:red;"">2</div>","null","","","","","","","","","","","","","","","","",""
"html-keyboard-response","109","617125","0.0-3.0-15.0-7.0-3.0","pilot_wm_v1","66572731cb06ce43c72bdf8a","4","null","null","true","","","","","","","null","<div style=""font-size:200px;color:red;"">1</div>","null","","","","","","","","","","","","","","","","",""
"revaluation","110","617699","0.0-3.0-15.0-8.0","pilot_wm_v1","66572731cb06ce43c72bdf8a","4","null","null","true","","false","","","","","[570.1000000000931]","./assets/img/space/15.jpg","[""ArrowUp""]","practice block","space","0","{""ArrowUp,ArrowLeft"":3,""ArrowUp,ArrowRight"":36,""ArrowDown,ArrowLeft"":15,""ArrowDown,ArrowRight"":23}","true","ArrowUp","false","","","","","","","","","",""
"html-keyboard-response","111","618200","0.0-3.0-15.0-9.0","pilot_wm_v1","66572731cb06ce43c72bdf8a","4","null","null","true","","","","","","","null","<div style=""font-size:60px;"">+</div>","null","fixation","","","","","","","","","","","","","","","",""
"learning-instructions","112","631562","0.0-3.0-15.0-10.0-0.0","pilot_wm_v1","66572731cb06ce43c72bdf8a","4","null","null","true","","","","","","","null","<p> Now you will see the animals again and can search their chests for treasure. </p>
            <p> This time, you will not see how much treasure you earned, but you will earn more bonus money for making better choices. </p>","","instructions","","","","","","","","","","","","","","","",""
"html-keyboard-response","113","632565","0.0-3.0-15.0-11.0-0.0","pilot_wm_v1","66572731cb06ce43c72bdf8a","4","null","null","true","","","","","","","null","<div style=""font-size:100px;color:red;"">Starting in...</div>","null","","","","","","","","","","","","","","","","",""
"html-keyboard-response","114","633567","0.0-3.0-15.0-11.0-1.0","pilot_wm_v1","66572731cb06ce43c72bdf8a","4","null","null","true","","","","","","","null","<div style=""font-size:200px;color:red;"">3</div>","null","","","","","","","","","","","","","","","","",""
"html-keyboard-response","115","634570","0.0-3.0-15.0-11.0-2.0","pilot_wm_v1","66572731cb06ce43c72bdf8a","4","null","null","true","","","","","","","null","<div style=""font-size:200px;color:red;"">2</div>","null","","","","","","","","","","","","","","","","",""
"html-keyboard-response","116","635573","0.0-3.0-15.0-11.0-3.0","pilot_wm_v1","66572731cb06ce43c72bdf8a","4","null","null","true","","","","","","","null","<div style=""font-size:200px;color:red;"">1</div>","null","","","","","","","","","","","","","","","","",""
"revaluation","117","636008","0.0-3.0-15.0-12.0-0.0","pilot_wm_v1","66572731cb06ce43c72bdf8a","4","null","null","true","","false","","","","","[431.80000000004657]","./assets/img/space/animals/cat.jpg","[""ArrowRight""]","practice block","space","0","{""ArrowUp,ArrowLeft"":3,""ArrowUp,ArrowRight"":36,""ArrowDown,ArrowLeft"":15,""ArrowDown,ArrowRight"":23}","true","ArrowUp,ArrowRight","","","","","","","","","","",""
"html-keyboard-response","118","636510","0.0-3.0-15.0-12.0-1.0","pilot_wm_v1","66572731cb06ce43c72bdf8a","4","null","null","true","","","","","","","null","<div style=""font-size:60px;"">+</div>","null","fixation","","","","","","","","","","","","","","","",""
"revaluation","119","637114","0.0-3.0-15.0-12.0-0.1","pilot_wm_v1","66572731cb06ce43c72bdf8a","4","null","null","true","","false","","","","","[599.2999999998137]","./assets/img/space/animals/rabbit.jpg","[""ArrowRight""]","practice block","space","0","{""ArrowUp,ArrowLeft"":3,""ArrowUp,ArrowRight"":36,""ArrowDown,ArrowLeft"":15,""ArrowDown,ArrowRight"":23}","true","ArrowDown,ArrowRight","","","","","","","","","","",""
"html-keyboard-response","120","637615","0.0-3.0-15.0-12.0-1.1","pilot_wm_v1","66572731cb06ce43c72bdf8a","4","null","null","true","","","","","","","null","<div style=""font-size:60px;"">+</div>","null","fixation","","","","","","","","","","","","","","","",""
"learning-instructions","121","643506","0.0-3.0-16.0-0.0","pilot_wm_v1","66572731cb06ce43c72bdf8a","4","null","null","true","","","","","","","1320.8999999999069","<p> Before you start, we're going to ask you a few questions about how the game works. </p>","","instructions","","","","","","","","","","","","","","","",""
"comp-q","122","650290","0.0-3.0-17.0-0.0-0.0","pilot_wm_v1","66572731cb06ce43c72bdf8a","4","null","null","true","","","","","","","1213.3000000000466","<p> <b> True or False? </b> </p>
            <p> There can be 50 pieces of treasure in a given animal's chest. </p>","1","comp_question","","","","true","","","","","","","","","","","",""
"comp-q","123","657924","0.0-3.0-17.0-0.0-1.0","pilot_wm_v1","66572731cb06ce43c72bdf8a","4","null","null","true","","","","","","","985.4000000001397","<p> <b> That's right! </b> The amount of treasure in each chest can range from 0 to 40 pieces. </p>","0","comp_answer","","","","","","","","","","","","","","","",""
"comp-q","124","666574","0.0-3.0-17.0-0.1-0.1","pilot_wm_v1","66572731cb06ce43c72bdf8a","4","null","null","true","","","","","","","1544.6999999999534","<p> <b> True or False? </b> </p><p> In this game, all animals have the same amount of treasure in their left and right chests. </p>","1","comp_question","","","","true","","","","","","","","","","","",""
"comp-q","125","672973","0.0-3.0-17.0-0.1-1.1","pilot_wm_v1","66572731cb06ce43c72bdf8a","4","null","null","true","","","","","","","1181.3999999999069","<p> <b> That's right! </b> Animals have different amounts of treasure in their treasure chests. </p>","0","comp_answer","","","","","","","","","","","","","","","",""
"comp-q","126","680358","0.0-3.0-17.0-0.2-0.2","pilot_wm_v1","66572731cb06ce43c72bdf8a","4","null","null","true","","","","","","","1552.3000000000466","<p> <b> True or False? </b> </p><p> The same animal will always be there if you go up in the same place. </p>","1","comp_question","","","","false","","","","","","","","","","","",""
"comp-q","127","691408","0.0-3.0-17.0-0.2-1.2","pilot_wm_v1","66572731cb06ce43c72bdf8a","4","null","null","true","","","","","","","4757.100000000093","<p> <b>Incorrect.</b> One animal lives in the upper part and one lives in the lower part of every place. </p>","0","comp_answer","","","","","","","","","","","","","","","",""
"comp-q","128","702409","0.0-3.0-17.0-0.3-0.3","pilot_wm_v1","66572731cb06ce43c72bdf8a","4","null","null","true","","","","","","","5176.100000000093","<p> <b> True or False? </b> </p><p> The same animal will always be there if you go up in the same place. </p>","0","comp_question","","","","true","","","","","","","","","","","",""
"comp-q","129","710009","0.0-3.0-17.0-0.3-1.3","pilot_wm_v1","66572731cb06ce43c72bdf8a","4","null","null","true","","","","","","","1165.4000000001397","<p> <b> That's right! </b> One animal lives in the upper part and one lives in the lower part of every place. </p>","0","comp_answer","","","","","","","","","","","","","","","",""
"comp-q","130","719341","0.0-3.0-17.0-0.4-0.4","pilot_wm_v1","66572731cb06ce43c72bdf8a","4","null","null","true","","","","","","","3814.7999999998137","<p> <b> True or False? </b> </p><p> If you see a different picture, it means you are in a new place. </p>","0","comp_question","","","","false","","","","","","","","","","","",""
"comp-q","131","731056","0.0-3.0-17.0-0.4-1.4","pilot_wm_v1","66572731cb06ce43c72bdf8a","4","null","null","true","","","","","","","764.1999999999534","<p> <b>Incorrect.</b> Lots of different images may show the same place. For example,  you may see three different images that all remind you that you are in outer space. </p>","0","comp_answer","","","","","","","","","","","","","","","",""
"comp-q","132","736972","0.0-3.0-17.0-0.5-0.5","pilot_wm_v1","66572731cb06ce43c72bdf8a","4","null","null","true","","","","","","","413.89999999990687","<p> <b> True or False? </b> </p><p> If you see a different picture, it means you are in a new place. </p>","1","comp_question","","","","true","","","","","","","","","","","",""
"comp-q","133","748939","0.0-3.0-17.0-0.5-1.5","pilot_wm_v1","66572731cb06ce43c72bdf8a","4","null","null","true","","","","","","","759.3999999999069","<p> <b> That's right! </b> Lots of different images may show the same place. For example,  you may see three different images that all remind you that you are in outer space. </p>","0","comp_answer","","","","","","","","","","","","","","","",""
"learning-instructions","134","760388","0.0-3.0-18.0-0.0","pilot_wm_v1","66572731cb06ce43c72bdf8a","4","null","null","true","","","","","","","1617.1000000000931","<p> Good job. Remember to do your best because the amount of treasure you earn will be converted into bonus money. </p>
            <p> It’s time to start the real game! </p>","","instructions","","","","","","","","","","","","","","","",""
"learning-instructions","135","764505","0.0-4.0-0.0-0.0","pilot_wm_v1","66572731cb06ce43c72bdf8a","4","null","null","true","","","","","","","1355.1999999999534","<p> This time you are searching for treasure in the <b>canyon</b>.</p>","","instructions","","","","","","","","","","","","","","","",""
"learning-instructions","136","783188","0.0-4.0-0.0-0.1","pilot_wm_v1","66572731cb06ce43c72bdf8a","4","null","null","true","","","","","","","1414.5999999998603","<p><b>New</b> animals with <b>new</b> treasure chests live here. You need to explore to discover where the animal with the best treasure chest is.</p>
                    <p> Like before, once you figure out which animal has the chest with the most treasure, you should try to get to that animal and select that chest! </p>","","instructions","","","","","","","","","","","","","","","",""
"learning-instructions","137","799372","0.0-4.0-1.0-0.0","pilot_wm_v1","66572731cb06ce43c72bdf8a","4","null","null","true","","","","","","","1454.1999999999534","<p> Remember, when you see a picture of the place, use the up and down keys to <b>find an animal</b>.</p>
            <p> When you encounter an animal, you should use the left and right keys to <b>select a treasure chest</b>.</p>
            <p> Don't forget to look out for the robber! </p>","","instructions","","","","","","","","","","","","","","","",""
"revaluation","138","805379","0.0-4.0-2.0-0.0","pilot_wm_v1","66572731cb06ce43c72bdf8a","4","null","null","true","","false","","","","","[920.1999999999534,423.5999999998603]","./assets/img/canyon/memory/17.jpg","[""ArrowUp"",""ArrowRight""]","value training","canyon","10","{""ArrowUp,ArrowLeft"":26,""ArrowUp,ArrowRight"":10,""ArrowDown,ArrowLeft"":5,""ArrowDown,ArrowRight"":17}","false","ArrowUp,ArrowRight","false","","","","","","","0","revaluation","1",""
"html-keyboard-response","139","805885","0.0-4.0-2.0-1.0","pilot_wm_v1","66572731cb06ce43c72bdf8a","4","null","null","true","","","","","","","null","<div style=""font-size:60px;"">+</div>","null","fixation","","","","","","","","","","","","","1","","",""
"revaluation","140","811895","0.0-4.0-2.0-0.1","pilot_wm_v1","66572731cb06ce43c72bdf8a","4","null","null","true","","false","","","","","[438.60000000009313,460.9000000001397]","./assets/img/canyon/memory/21.jpg","[""ArrowUp"",""ArrowLeft""]","value training","canyon","26","{""ArrowUp,ArrowLeft"":26,""ArrowUp,ArrowRight"":10,""ArrowDown,ArrowLeft"":5,""ArrowDown,ArrowRight"":17}","true","ArrowUp,ArrowLeft","false","","","","","","","2","revaluation","1",""
"html-keyboard-response","141","812397","0.0-4.0-2.0-1.1","pilot_wm_v1","66572731cb06ce43c72bdf8a","4","null","null","true","","","","","","","null","<div style=""font-size:60px;"">+</div>","null","fixation","","","","","","","","","","","","","3","","",""
"revaluation","142","818406","0.0-4.0-2.0-0.2","pilot_wm_v1","66572731cb06ce43c72bdf8a","4","null","null","true","","false","","","","","[322.80000000004657,433.60000000009313]","./assets/img/canyon/memory/41.jpg","[""ArrowDown"",""ArrowRight""]","value training","canyon","17","{""ArrowUp,ArrowLeft"":26,""ArrowUp,ArrowRight"":10,""ArrowDown,ArrowLeft"":5,""ArrowDown,ArrowRight"":17}","false","ArrowDown,ArrowRight","false","","","","","","","4","revaluation","1",""
"html-keyboard-response","143","818908","0.0-4.0-2.0-1.2","pilot_wm_v1","66572731cb06ce43c72bdf8a","4","null","null","true","","","","","","","null","<div style=""font-size:60px;"">+</div>","null","fixation","","","","","","","","","","","","","5","","",""
"revaluation","144","824916","0.0-4.0-2.0-0.3","pilot_wm_v1","66572731cb06ce43c72bdf8a","4","null","null","true","","false","","","","","[484.19999999995343,427]","./assets/img/canyon/memory/5.jpg","[""ArrowDown"",""ArrowLeft""]","value training","canyon","5","{""ArrowUp,ArrowLeft"":26,""ArrowUp,ArrowRight"":10,""ArrowDown,ArrowLeft"":5,""ArrowDown,ArrowRight"":17}","false","ArrowDown,ArrowLeft","false","","","","","","","6","revaluation","1",""
"html-keyboard-response","145","825418","0.0-4.0-2.0-1.3","pilot_wm_v1","66572731cb06ce43c72bdf8a","4","null","null","true","","","","","","","null","<div style=""font-size:60px;"">+</div>","null","fixation","","","","","","","","","","","","","7","","",""
"revaluation","146","829425","0.0-4.0-2.0-0.4","pilot_wm_v1","66572731cb06ce43c72bdf8a","4","null","null","true","","false","","","","","[755.6999999999534]","./assets/img/canyon/catch/1.jpg","[""spaceBar""]","value training","canyon","0","{""ArrowUp,ArrowLeft"":26,""ArrowUp,ArrowRight"":10,""ArrowDown,ArrowLeft"":5,""ArrowDown,ArrowRight"":17}","true","spaceBar","true","","","","","","","8","revaluation","1",""
"html-keyboard-response","147","829928","0.0-4.0-2.0-1.4","pilot_wm_v1","66572731cb06ce43c72bdf8a","4","null","null","true","","","","","","","null","<div style=""font-size:60px;"">+</div>","null","fixation","","","","","","","","","","","","","9","","",""
"revaluation","148","835935","0.0-4.0-2.0-0.5","pilot_wm_v1","66572731cb06ce43c72bdf8a","4","null","null","true","","false","","","","","[416.30000000004657,422.89999999990687]","./assets/img/canyon/memory/10.jpg","[""ArrowUp"",""ArrowLeft""]","value training","canyon","26","{""ArrowUp,ArrowLeft"":26,""ArrowUp,ArrowRight"":10,""ArrowDown,ArrowLeft"":5,""ArrowDown,ArrowRight"":17}","true","ArrowUp,ArrowLeft","false","","","","","","","10","revaluation","1",""
"html-keyboard-response","149","836438","0.0-4.0-2.0-1.5","pilot_wm_v1","66572731cb06ce43c72bdf8a","4","null","null","true","","","","","","","null","<div style=""font-size:60px;"">+</div>","null","fixation","","","","","","","","","","","","","11","","",""
"revaluation","150","840445","0.0-4.0-2.0-0.6","pilot_wm_v1","66572731cb06ce43c72bdf8a","4","null","null","true","","false","","","","","[638.3999999999069]","./assets/img/canyon/catch/7.jpg","[""spaceBar""]","value training","canyon","0","{""ArrowUp,ArrowLeft"":26,""ArrowUp,ArrowRight"":10,""ArrowDown,ArrowLeft"":5,""ArrowDown,ArrowRight"":17}","true","spaceBar","true","","","","","","","12","revaluation","1",""
"html-keyboard-response","151","840948","0.0-4.0-2.0-1.6","pilot_wm_v1","66572731cb06ce43c72bdf8a","4","null","null","true","","","","","","","null","<div style=""font-size:60px;"">+</div>","null","fixation","","","","","","","","","","","","","13","","",""
"revaluation","152","846957","0.0-4.0-2.0-0.7","pilot_wm_v1","66572731cb06ce43c72bdf8a","4","null","null","true","","false","","","","","[483.0999999998603,481]","./assets/img/canyon/memory/7.jpg","[""ArrowUp"",""ArrowRight""]","value training","canyon","10","{""ArrowUp,ArrowLeft"":26,""ArrowUp,ArrowRight"":10,""ArrowDown,ArrowLeft"":5,""ArrowDown,ArrowRight"":17}","false","ArrowUp,ArrowRight","false","","","","","","","14","revaluation","1",""
"html-keyboard-response","153","847460","0.0-4.0-2.0-1.7","pilot_wm_v1","66572731cb06ce43c72bdf8a","4","null","null","true","","","","","","","null","<div style=""font-size:60px;"">+</div>","null","fixation","","","","","","","","","","","","","15","","",""
"revaluation","154","853469","0.0-4.0-2.0-0.8","pilot_wm_v1","66572731cb06ce43c72bdf8a","4","null","null","true","","false","","","","","[643.8000000000466,375]","./assets/img/canyon/memory/40.jpg","[""ArrowDown"",""ArrowRight""]","value training","canyon","17","{""ArrowUp,ArrowLeft"":26,""ArrowUp,ArrowRight"":10,""ArrowDown,ArrowLeft"":5,""ArrowDown,ArrowRight"":17}","false","ArrowDown,ArrowRight","false","","","","","","","16","revaluation","1",""
"html-keyboard-response","155","853972","0.0-4.0-2.0-1.8","pilot_wm_v1","66572731cb06ce43c72bdf8a","4","null","null","true","","","","","","","null","<div style=""font-size:60px;"">+</div>","null","fixation","","","","","","","","","","","","","17","","",""
"revaluation","156","859980","0.0-4.0-2.0-0.9","pilot_wm_v1","66572731cb06ce43c72bdf8a","4","null","null","true","","false","","","","","[662.1999999999534,303]","./assets/img/canyon/memory/0.jpg","[""ArrowDown"",""ArrowLeft""]","value training","canyon","5","{""ArrowUp,ArrowLeft"":26,""ArrowUp,ArrowRight"":10,""ArrowDown,ArrowLeft"":5,""ArrowDown,ArrowRight"":17}","false","ArrowDown,ArrowLeft","false","","","","","","","18","revaluation","1",""
"html-keyboard-response","157","860483","0.0-4.0-2.0-1.9","pilot_wm_v1","66572731cb06ce43c72bdf8a","4","null","null","true","","","","","","","null","<div style=""font-size:60px;"">+</div>","null","fixation","","","","","","","","","","","","","19","","",""
"revaluation","158","866492","0.0-4.0-2.0-0.10","pilot_wm_v1","66572731cb06ce43c72bdf8a","4","null","null","true","","false","","","","","[498.5,479.19999999995343]","./assets/img/canyon/memory/2.jpg","[""ArrowUp"",""ArrowLeft""]","value training","canyon","26","{""ArrowUp,ArrowLeft"":26,""ArrowUp,ArrowRight"":10,""ArrowDown,ArrowLeft"":5,""ArrowDown,ArrowRight"":17}","true","ArrowUp,ArrowLeft","false","","","","","","","20","revaluation","1",""
"html-keyboard-response","159","866994","0.0-4.0-2.0-1.10","pilot_wm_v1","66572731cb06ce43c72bdf8a","4","null","null","true","","","","","","","null","<div style=""font-size:60px;"">+</div>","null","fixation","","","","","","","","","","","","","21","","",""
"revaluation","160","873003","0.0-4.0-2.0-0.11","pilot_wm_v1","66572731cb06ce43c72bdf8a","4","null","null","true","","false","","","","","[557.8000000000466,411.5]","./assets/img/canyon/memory/5.jpg","[""ArrowUp"",""ArrowLeft""]","value training","canyon","26","{""ArrowUp,ArrowLeft"":26,""ArrowUp,ArrowRight"":10,""ArrowDown,ArrowLeft"":5,""ArrowDown,ArrowRight"":17}","true","ArrowUp,ArrowLeft","false","","","","","","","22","revaluation","1",""
"html-keyboard-response","161","873506","0.0-4.0-2.0-1.11","pilot_wm_v1","66572731cb06ce43c72bdf8a","4","null","null","true","","","","","","","null","<div style=""font-size:60px;"">+</div>","null","fixation","","","","","","","","","","","","","23","","",""
"revaluation","162","879514","0.0-4.0-2.0-0.12","pilot_wm_v1","66572731cb06ce43c72bdf8a","4","null","null","true","","false","","","","","[594.6999999999534,500.30000000004657]","./assets/img/canyon/memory/17.jpg","[""ArrowUp"",""ArrowLeft""]","value training","canyon","26","{""ArrowUp,ArrowLeft"":26,""ArrowUp,ArrowRight"":10,""ArrowDown,ArrowLeft"":5,""ArrowDown,ArrowRight"":17}","true","ArrowUp,ArrowLeft","false","","","","","","","24","revaluation","1",""
"html-keyboard-response","163","880017","0.0-4.0-2.0-1.12","pilot_wm_v1","66572731cb06ce43c72bdf8a","4","null","null","true","","","","","","","null","<div style=""font-size:60px;"">+</div>","null","fixation","","","","","","","","","","","","","25","","",""
"revaluation","164","886027","0.0-4.0-2.0-0.13","pilot_wm_v1","66572731cb06ce43c72bdf8a","4","null","null","true","","false","","","","","[658,513.3000000000466]","./assets/img/canyon/memory/41.jpg","[""ArrowUp"",""ArrowLeft""]","value training","canyon","26","{""ArrowUp,ArrowLeft"":26,""ArrowUp,ArrowRight"":10,""ArrowDown,ArrowLeft"":5,""ArrowDown,ArrowRight"":17}","true","ArrowUp,ArrowLeft","false","","","","","","","26","revaluation","1",""
"html-keyboard-response","165","886529","0.0-4.0-2.0-1.13","pilot_wm_v1","66572731cb06ce43c72bdf8a","4","null","null","true","","","","","","","null","<div style=""font-size:60px;"">+</div>","null","fixation","","","","","","","","","","","","","27","","",""
"revaluation","166","892537","0.0-4.0-2.0-0.14","pilot_wm_v1","66572731cb06ce43c72bdf8a","4","null","null","true","","false","","","","","[714.6000000000931,410.4000000001397]","./assets/img/canyon/memory/24.jpg","[""ArrowUp"",""ArrowLeft""]","value training","canyon","26","{""ArrowUp,ArrowLeft"":26,""ArrowUp,ArrowRight"":10,""ArrowDown,ArrowLeft"":5,""ArrowDown,ArrowRight"":17}","true","ArrowUp,ArrowLeft","false","","","","","","","28","revaluation","1",""
"html-keyboard-response","167","893040","0.0-4.0-2.0-1.14","pilot_wm_v1","66572731cb06ce43c72bdf8a","4","null","null","true","","","","","","","null","<div style=""font-size:60px;"">+</div>","null","fixation","","","","","","","","","","","","","29","","",""
"revaluation","168","899047","0.0-4.0-2.0-0.15","pilot_wm_v1","66572731cb06ce43c72bdf8a","4","null","null","true","","false","","","","","[889.2000000001863,377]","./assets/img/canyon/memory/2.jpg","[""ArrowUp"",""ArrowLeft""]","value training","canyon","26","{""ArrowUp,ArrowLeft"":26,""ArrowUp,ArrowRight"":10,""ArrowDown,ArrowLeft"":5,""ArrowDown,ArrowRight"":17}","true","ArrowUp,ArrowLeft","false","","","","","","","30","revaluation","1",""
"html-keyboard-response","169","899550","0.0-4.0-2.0-1.15","pilot_wm_v1","66572731cb06ce43c72bdf8a","4","null","null","true","","","","","","","null","<div style=""font-size:60px;"">+</div>","null","fixation","","","","","","","","","","","","","31","","",""
"revaluation","170","905558","0.0-4.0-2.0-0.16","pilot_wm_v1","66572731cb06ce43c72bdf8a","4","null","null","true","","false","","","","","[781.5,366]","./assets/img/canyon/memory/29.jpg","[""ArrowUp"",""ArrowLeft""]","value training","canyon","26","{""ArrowUp,ArrowLeft"":26,""ArrowUp,ArrowRight"":10,""ArrowDown,ArrowLeft"":5,""ArrowDown,ArrowRight"":17}","true","ArrowUp,ArrowLeft","false","","","","","","","32","revaluation","1",""
"html-keyboard-response","171","906061","0.0-4.0-2.0-1.16","pilot_wm_v1","66572731cb06ce43c72bdf8a","4","null","null","true","","","","","","","null","<div style=""font-size:60px;"">+</div>","null","fixation","","","","","","","","","","","","","33","","",""
"revaluation","172","910068","0.0-4.0-2.0-0.17","pilot_wm_v1","66572731cb06ce43c72bdf8a","4","null","null","true","","false","","","","","[512.8000000000466]","./assets/img/canyon/catch/3.jpg","[""spaceBar""]","value training","canyon","0","{""ArrowUp,ArrowLeft"":26,""ArrowUp,ArrowRight"":10,""ArrowDown,ArrowLeft"":5,""ArrowDown,ArrowRight"":17}","true","spaceBar","true","","","","","","","34","revaluation","1",""
"html-keyboard-response","173","910571","0.0-4.0-2.0-1.17","pilot_wm_v1","66572731cb06ce43c72bdf8a","4","null","null","true","","","","","","","null","<div style=""font-size:60px;"">+</div>","null","fixation","","","","","","","","","","","","","35","","",""
"revaluation","174","916580","0.0-4.0-2.0-0.18","pilot_wm_v1","66572731cb06ce43c72bdf8a","4","null","null","true","","false","","","","","[580.2999999998137,384.10000000009313]","./assets/img/canyon/memory/0.jpg","[""ArrowUp"",""ArrowLeft""]","value training","canyon","26","{""ArrowUp,ArrowLeft"":26,""ArrowUp,ArrowRight"":10,""ArrowDown,ArrowLeft"":5,""ArrowDown,ArrowRight"":17}","true","ArrowUp,ArrowLeft","false","","","","","","","36","revaluation","1",""
"html-keyboard-response","175","917083","0.0-4.0-2.0-1.18","pilot_wm_v1","66572731cb06ce43c72bdf8a","4","null","null","true","","","","","","","null","<div style=""font-size:60px;"">+</div>","null","fixation","","","","","","","","","","","","","37","","",""
"revaluation","176","921090","0.0-4.0-2.0-0.19","pilot_wm_v1","66572731cb06ce43c72bdf8a","4","null","null","true","","false","","","","","[598.1000000000931]","./assets/img/canyon/catch/2.jpg","[""spaceBar""]","value training","canyon","0","{""ArrowUp,ArrowLeft"":26,""ArrowUp,ArrowRight"":10,""ArrowDown,ArrowLeft"":5,""ArrowDown,ArrowRight"":17}","true","spaceBar","true","","","","","","","38","revaluation","1",""
"html-keyboard-response","177","921592","0.0-4.0-2.0-1.19","pilot_wm_v1","66572731cb06ce43c72bdf8a","4","null","null","true","","","","","","","null","<div style=""font-size:60px;"">+</div>","null","fixation","","","","","","","","","","","","","39","","",""
"revaluation","178","927600","0.0-4.0-2.0-0.20","pilot_wm_v1","66572731cb06ce43c72bdf8a","4","null","null","true","","false","","","","","[608.7999999998137,499.79999999981374]","./assets/img/canyon/memory/30.jpg","[""ArrowUp"",""ArrowLeft""]","value training","canyon","26","{""ArrowUp,ArrowLeft"":26,""ArrowUp,ArrowRight"":10,""ArrowDown,ArrowLeft"":5,""ArrowDown,ArrowRight"":17}","true","ArrowUp,ArrowLeft","false","","","","","","","40","revaluation","1",""
"html-keyboard-response","179","928103","0.0-4.0-2.0-1.20","pilot_wm_v1","66572731cb06ce43c72bdf8a","4","null","null","true","","","","","","","null","<div style=""font-size:60px;"">+</div>","null","fixation","","","","","","","","","","","","","41","","",""
"revaluation","180","934112","0.0-4.0-2.0-0.21","pilot_wm_v1","66572731cb06ce43c72bdf8a","4","null","null","true","","false","","","","","[689.5,374.80000000004657]","./assets/img/canyon/memory/27.jpg","[""ArrowUp"",""ArrowLeft""]","value training","canyon","26","{""ArrowUp,ArrowLeft"":26,""ArrowUp,ArrowRight"":10,""ArrowDown,ArrowLeft"":5,""ArrowDown,ArrowRight"":17}","true","ArrowUp,ArrowLeft","false","","","","","","","42","revaluation","1",""
"html-keyboard-response","181","934615","0.0-4.0-2.0-1.21","pilot_wm_v1","66572731cb06ce43c72bdf8a","4","null","null","true","","","","","","","null","<div style=""font-size:60px;"">+</div>","null","fixation","","","","","","","","","","","","","43","","",""
"revaluation","182","940624","0.0-4.0-2.0-0.22","pilot_wm_v1","66572731cb06ce43c72bdf8a","4","null","null","true","","false","","","","","[780.6999999999534,348.30000000004657]","./assets/img/canyon/memory/24.jpg","[""ArrowUp"",""ArrowLeft""]","value training","canyon","26","{""ArrowUp,ArrowLeft"":26,""ArrowUp,ArrowRight"":10,""ArrowDown,ArrowLeft"":5,""ArrowDown,ArrowRight"":17}","true","ArrowUp,ArrowLeft","false","","","","","","","44","revaluation","1",""
"html-keyboard-response","183","941127","0.0-4.0-2.0-1.22","pilot_wm_v1","66572731cb06ce43c72bdf8a","4","null","null","true","","","","","","","null","<div style=""font-size:60px;"">+</div>","null","fixation","","","","","","","","","","","","","45","","",""
"revaluation","184","947136","0.0-4.0-2.0-0.23","pilot_wm_v1","66572731cb06ce43c72bdf8a","4","null","null","true","","false","","","","","[790.0999999998603,303]","./assets/img/canyon/memory/1.jpg","[""ArrowUp"",""ArrowLeft""]","value training","canyon","26","{""ArrowUp,ArrowLeft"":26,""ArrowUp,ArrowRight"":10,""ArrowDown,ArrowLeft"":5,""ArrowDown,ArrowRight"":17}","true","ArrowUp,ArrowLeft","false","","","","","","","46","revaluation","1",""
"html-keyboard-response","185","947638","0.0-4.0-2.0-1.23","pilot_wm_v1","66572731cb06ce43c72bdf8a","4","null","null","true","","","","","","","null","<div style=""font-size:60px;"">+</div>","null","fixation","","","","","","","","","","","","","47","","",""
"revaluation","186","953647","0.0-4.0-2.0-0.24","pilot_wm_v1","66572731cb06ce43c72bdf8a","4","null","null","true","","false","","","","","[714.5,484.80000000004657]","./assets/img/canyon/memory/30.jpg","[""ArrowUp"",""ArrowLeft""]","value training","canyon","26","{""ArrowUp,ArrowLeft"":26,""ArrowUp,ArrowRight"":10,""ArrowDown,ArrowLeft"":5,""ArrowDown,ArrowRight"":17}","true","ArrowUp,ArrowLeft","false","","","","","","","48","revaluation","1",""
"html-keyboard-response","187","954150","0.0-4.0-2.0-1.24","pilot_wm_v1","66572731cb06ce43c72bdf8a","4","null","null","true","","","","","","","null","<div style=""font-size:60px;"">+</div>","null","fixation","","","","","","","","","","","","","49","","",""
"revaluation","188","960159","0.0-4.0-2.0-0.25","pilot_wm_v1","66572731cb06ce43c72bdf8a","4","null","null","true","","false","","","","","[619.9000000001397,396.69999999995343]","./assets/img/canyon/memory/34.jpg","[""ArrowUp"",""ArrowLeft""]","value training","canyon","26","{""ArrowUp,ArrowLeft"":26,""ArrowUp,ArrowRight"":10,""ArrowDown,ArrowLeft"":5,""ArrowDown,ArrowRight"":17}","true","ArrowUp,ArrowLeft","false","","","","","","","50","revaluation","1",""
"html-keyboard-response","189","960661","0.0-4.0-2.0-1.25","pilot_wm_v1","66572731cb06ce43c72bdf8a","4","null","null","true","","","","","","","null","<div style=""font-size:60px;"">+</div>","null","fixation","","","","","","","","","","","","","51","","",""
"revaluation","190","966670","0.0-4.0-2.0-0.26","pilot_wm_v1","66572731cb06ce43c72bdf8a","4","null","null","true","","false","","","","","[680.6999999999534,415.9000000001397]","./assets/img/canyon/memory/8.jpg","[""ArrowUp"",""ArrowLeft""]","value training","canyon","26","{""ArrowUp,ArrowLeft"":26,""ArrowUp,ArrowRight"":10,""ArrowDown,ArrowLeft"":5,""ArrowDown,ArrowRight"":17}","true","ArrowUp,ArrowLeft","false","","","","","","","52","revaluation","1",""
"html-keyboard-response","191","967172","0.0-4.0-2.0-1.26","pilot_wm_v1","66572731cb06ce43c72bdf8a","4","null","null","true","","","","","","","null","<div style=""font-size:60px;"">+</div>","null","fixation","","","","","","","","","","","","","53","","",""
"revaluation","192","973180","0.0-4.0-2.0-0.27","pilot_wm_v1","66572731cb06ce43c72bdf8a","4","null","null","true","","false","","","","","[581,516.3999999999069]","./assets/img/canyon/memory/19.jpg","[""ArrowUp"",""ArrowLeft""]","value training","canyon","26","{""ArrowUp,ArrowLeft"":26,""ArrowUp,ArrowRight"":10,""ArrowDown,ArrowLeft"":5,""ArrowDown,ArrowRight"":17}","true","ArrowUp,ArrowLeft","false","","","","","","","54","revaluation","1",""
"html-keyboard-response","193","973683","0.0-4.0-2.0-1.27","pilot_wm_v1","66572731cb06ce43c72bdf8a","4","null","null","true","","","","","","","null","<div style=""font-size:60px;"">+</div>","null","fixation","","","","","","","","","","","","","55","","",""
"revaluation","194","979692","0.0-4.0-2.0-0.28","pilot_wm_v1","66572731cb06ce43c72bdf8a","4","null","null","true","","false","","","","","[552.6000000000931,312.69999999995343]","./assets/img/canyon/memory/32.jpg","[""ArrowUp"",""ArrowLeft""]","value training","canyon","26","{""ArrowUp,ArrowLeft"":26,""ArrowUp,ArrowRight"":10,""ArrowDown,ArrowLeft"":5,""ArrowDown,ArrowRight"":17}","true","ArrowUp,ArrowLeft","false","","","","","","","56","revaluation","1",""
"html-keyboard-response","195","980195","0.0-4.0-2.0-1.28","pilot_wm_v1","66572731cb06ce43c72bdf8a","4","null","null","true","","","","","","","null","<div style=""font-size:60px;"">+</div>","null","fixation","","","","","","","","","","","","","57","","",""
"revaluation","196","984201","0.0-4.0-2.0-0.29","pilot_wm_v1","66572731cb06ce43c72bdf8a","4","null","null","true","","false","","","","","[627.2000000001863]","./assets/img/canyon/catch/6.jpg","[""spaceBar""]","value training","canyon","0","{""ArrowUp,ArrowLeft"":26,""ArrowUp,ArrowRight"":10,""ArrowDown,ArrowLeft"":5,""ArrowDown,ArrowRight"":17}","true","spaceBar","true","","","","","","","58","revaluation","1",""
"html-keyboard-response","197","984704","0.0-4.0-2.0-1.29","pilot_wm_v1","66572731cb06ce43c72bdf8a","4","null","null","true","","","","","","","null","<div style=""font-size:60px;"">+</div>","null","fixation","","","","","","","","","","","","","59","","",""
"revaluation","198","988711","0.0-4.0-2.0-0.30","pilot_wm_v1","66572731cb06ce43c72bdf8a","4","null","null","true","","false","","","","","[624.8000000000466]","./assets/img/canyon/catch/4.jpg","[""spaceBar""]","value training","canyon","0","{""ArrowUp,ArrowLeft"":26,""ArrowUp,ArrowRight"":10,""ArrowDown,ArrowLeft"":5,""ArrowDown,ArrowRight"":17}","true","spaceBar","true","","","","","","","60","revaluation","1",""
"html-keyboard-response","199","989214","0.0-4.0-2.0-1.30","pilot_wm_v1","66572731cb06ce43c72bdf8a","4","null","null","true","","","","","","","null","<div style=""font-size:60px;"">+</div>","null","fixation","","","","","","","","","","","","","61","","",""
"revaluation","200","995222","0.0-4.0-2.0-0.31","pilot_wm_v1","66572731cb06ce43c72bdf8a","4","null","null","true","","false","","","","","[595.8000000000466,378]","./assets/img/canyon/memory/22.jpg","[""ArrowUp"",""ArrowLeft""]","value training","canyon","26","{""ArrowUp,ArrowLeft"":26,""ArrowUp,ArrowRight"":10,""ArrowDown,ArrowLeft"":5,""ArrowDown,ArrowRight"":17}","true","ArrowUp,ArrowLeft","false","","","","","","","62","revaluation","1",""
"html-keyboard-response","201","995725","0.0-4.0-2.0-1.31","pilot_wm_v1","66572731cb06ce43c72bdf8a","4","null","null","true","","","","","","","null","<div style=""font-size:60px;"">+</div>","null","fixation","","","","","","","","","","","","","63","","",""
"revaluation","202","1001734","0.0-4.0-2.0-0.32","pilot_wm_v1","66572731cb06ce43c72bdf8a","4","null","null","true","","false","","","","","[545.3000000000466,323]","./assets/img/canyon/memory/19.jpg","[""ArrowUp"",""ArrowLeft""]","value training","canyon","26","{""ArrowUp,ArrowLeft"":26,""ArrowUp,ArrowRight"":10,""ArrowDown,ArrowLeft"":5,""ArrowDown,ArrowRight"":17}","true","ArrowUp,ArrowLeft","false","","","","","","","64","revaluation","1",""
"html-keyboard-response","203","1002237","0.0-4.0-2.0-1.32","pilot_wm_v1","66572731cb06ce43c72bdf8a","4","null","null","true","","","","","","","null","<div style=""font-size:60px;"">+</div>","null","fixation","","","","","","","","","","","","","65","","",""
"revaluation","204","1008245","0.0-4.0-2.0-0.33","pilot_wm_v1","66572731cb06ce43c72bdf8a","4","null","null","true","","false","","","","","[615.8000000000466,349.80000000004657]","./assets/img/canyon/memory/32.jpg","[""ArrowUp"",""ArrowRight""]","value training","canyon","10","{""ArrowUp,ArrowLeft"":26,""ArrowUp,ArrowRight"":10,""ArrowDown,ArrowLeft"":5,""ArrowDown,ArrowRight"":17}","false","ArrowUp,ArrowRight","false","","","","","","","66","revaluation","1",""
"html-keyboard-response","205","1008748","0.0-4.0-2.0-1.33","pilot_wm_v1","66572731cb06ce43c72bdf8a","4","null","null","true","","","","","","","null","<div style=""font-size:60px;"">+</div>","null","fixation","","","","","","","","","","","","","67","","",""
"revaluation","206","1014755","0.0-4.0-2.0-0.34","pilot_wm_v1","66572731cb06ce43c72bdf8a","4","null","null","true","","false","","","","","[532.5999999998603,333.69999999995343]","./assets/img/canyon/memory/1.jpg","[""ArrowUp"",""ArrowLeft""]","value training","canyon","26","{""ArrowUp,ArrowLeft"":26,""ArrowUp,ArrowRight"":10,""ArrowDown,ArrowLeft"":5,""ArrowDown,ArrowRight"":17}","true","ArrowUp,ArrowLeft","false","","","","","","","68","revaluation","1",""
"html-keyboard-response","207","1015258","0.0-4.0-2.0-1.34","pilot_wm_v1","66572731cb06ce43c72bdf8a","4","null","null","true","","","","","","","null","<div style=""font-size:60px;"">+</div>","null","fixation","","","","","","","","","","","","","69","","",""
"revaluation","208","1021267","0.0-4.0-2.0-0.35","pilot_wm_v1","66572731cb06ce43c72bdf8a","4","null","null","true","","false","","","","","[792.1999999999534,710]","./assets/img/canyon/memory/18.jpg","[""ArrowUp"",""ArrowLeft""]","value training","canyon","26","{""ArrowUp,ArrowLeft"":26,""ArrowUp,ArrowRight"":10,""ArrowDown,ArrowLeft"":5,""ArrowDown,ArrowRight"":17}","true","ArrowUp,ArrowLeft","false","","","","","","","70","revaluation","1",""
"html-keyboard-response","209","1021769","0.0-4.0-2.0-1.35","pilot_wm_v1","66572731cb06ce43c72bdf8a","4","null","null","true","","","","","","","null","<div style=""font-size:60px;"">+</div>","null","fixation","","","","","","","","","","","","","71","","",""
"revaluation","210","1027778","0.0-4.0-2.0-0.36","pilot_wm_v1","66572731cb06ce43c72bdf8a","4","null","null","true","","false","","","","","[574.1000000000931,528.8999999999069]","./assets/img/canyon/memory/34.jpg","[""ArrowUp"",""ArrowLeft""]","value training","canyon","26","{""ArrowUp,ArrowLeft"":26,""ArrowUp,ArrowRight"":10,""ArrowDown,ArrowLeft"":5,""ArrowDown,ArrowRight"":17}","true","ArrowUp,ArrowLeft","false","","","","","","","72","revaluation","1",""
"html-keyboard-response","211","1028280","0.0-4.0-2.0-1.36","pilot_wm_v1","66572731cb06ce43c72bdf8a","4","null","null","true","","","","","","","null","<div style=""font-size:60px;"">+</div>","null","fixation","","","","","","","","","","","","","73","","",""
"revaluation","212","1034287","0.0-4.0-2.0-0.37","pilot_wm_v1","66572731cb06ce43c72bdf8a","4","null","null","true","","false","","","","","[541.5,313.5]","./assets/img/canyon/memory/29.jpg","[""ArrowUp"",""ArrowLeft""]","value training","canyon","26","{""ArrowUp,ArrowLeft"":26,""ArrowUp,ArrowRight"":10,""ArrowDown,ArrowLeft"":5,""ArrowDown,ArrowRight"":17}","true","ArrowUp,ArrowLeft","false","","","","","","","74","revaluation","1",""
"html-keyboard-response","213","1034790","0.0-4.0-2.0-1.37","pilot_wm_v1","66572731cb06ce43c72bdf8a","4","null","null","true","","","","","","","null","<div style=""font-size:60px;"">+</div>","null","fixation","","","","","","","","","","","","","75","","",""
"revaluation","214","1040799","0.0-4.0-2.0-0.38","pilot_wm_v1","66572731cb06ce43c72bdf8a","4","null","null","true","","false","","","","","[498.29999999981374,334.69999999995343]","./assets/img/canyon/memory/18.jpg","[""ArrowUp"",""ArrowLeft""]","value training","canyon","26","{""ArrowUp,ArrowLeft"":26,""ArrowUp,ArrowRight"":10,""ArrowDown,ArrowLeft"":5,""ArrowDown,ArrowRight"":17}","true","ArrowUp,ArrowLeft","false","","","","","","","76","revaluation","1",""
"html-keyboard-response","215","1041302","0.0-4.0-2.0-1.38","pilot_wm_v1","66572731cb06ce43c72bdf8a","4","null","null","true","","","","","","","null","<div style=""font-size:60px;"">+</div>","null","fixation","","","","","","","","","","","","","77","","",""
"revaluation","216","1045309","0.0-4.0-2.0-0.39","pilot_wm_v1","66572731cb06ce43c72bdf8a","4","null","null","true","","false","","","","","[571.5]","./assets/img/canyon/catch/5.jpg","[""spaceBar""]","value training","canyon","0","{""ArrowUp,ArrowLeft"":26,""ArrowUp,ArrowRight"":10,""ArrowDown,ArrowLeft"":5,""ArrowDown,ArrowRight"":17}","true","spaceBar","true","","","","","","","78","revaluation","1",""
"html-keyboard-response","217","1045811","0.0-4.0-2.0-1.39","pilot_wm_v1","66572731cb06ce43c72bdf8a","4","null","null","true","","","","","","","null","<div style=""font-size:60px;"">+</div>","null","fixation","","","","","","","","","","","","","79","","",""
"revaluation","218","1051819","0.0-4.0-2.0-0.40","pilot_wm_v1","66572731cb06ce43c72bdf8a","4","null","null","true","","false","","","","","[563.8000000000466,360.19999999995343]","./assets/img/canyon/memory/10.jpg","[""ArrowUp"",""ArrowLeft""]","value training","canyon","26","{""ArrowUp,ArrowLeft"":26,""ArrowUp,ArrowRight"":10,""ArrowDown,ArrowLeft"":5,""ArrowDown,ArrowRight"":17}","true","ArrowUp,ArrowLeft","false","","","","","","","80","revaluation","1",""
"html-keyboard-response","219","1052322","0.0-4.0-2.0-1.40","pilot_wm_v1","66572731cb06ce43c72bdf8a","4","null","null","true","","","","","","","null","<div style=""font-size:60px;"">+</div>","null","fixation","","","","","","","","","","","","","81","","",""
"revaluation","220","1058330","0.0-4.0-2.0-0.41","pilot_wm_v1","66572731cb06ce43c72bdf8a","4","null","null","true","","false","","","","","[652.6999999999534,305.5999999998603]","./assets/img/canyon/memory/21.jpg","[""ArrowUp"",""ArrowLeft""]","value training","canyon","26","{""ArrowUp,ArrowLeft"":26,""ArrowUp,ArrowRight"":10,""ArrowDown,ArrowLeft"":5,""ArrowDown,ArrowRight"":17}","true","ArrowUp,ArrowLeft","false","","","","","","","82","revaluation","1",""
"html-keyboard-response","221","1058832","0.0-4.0-2.0-1.41","pilot_wm_v1","66572731cb06ce43c72bdf8a","4","null","null","true","","","","","","","null","<div style=""font-size:60px;"">+</div>","null","fixation","","","","","","","","","","","","","83","","",""
"revaluation","222","1064840","0.0-4.0-2.0-0.42","pilot_wm_v1","66572731cb06ce43c72bdf8a","4","null","null","true","","false","","","","","[504,325.4000000001397]","./assets/img/canyon/memory/22.jpg","[""ArrowUp"",""ArrowLeft""]","value training","canyon","26","{""ArrowUp,ArrowLeft"":26,""ArrowUp,ArrowRight"":10,""ArrowDown,ArrowLeft"":5,""ArrowDown,ArrowRight"":17}","true","ArrowUp,ArrowLeft","false","","","","","","","84","revaluation","1",""
"html-keyboard-response","223","1065344","0.0-4.0-2.0-1.42","pilot_wm_v1","66572731cb06ce43c72bdf8a","4","null","null","true","","","","","","","null","<div style=""font-size:60px;"">+</div>","null","fixation","","","","","","","","","","","","","85","","",""
"revaluation","224","1071352","0.0-4.0-2.0-0.43","pilot_wm_v1","66572731cb06ce43c72bdf8a","4","null","null","true","","false","","","","","[483.80000000004657,267.89999999990687]","./assets/img/canyon/memory/7.jpg","[""ArrowUp"",""ArrowLeft""]","value training","canyon","26","{""ArrowUp,ArrowLeft"":26,""ArrowUp,ArrowRight"":10,""ArrowDown,ArrowLeft"":5,""ArrowDown,ArrowRight"":17}","true","ArrowUp,ArrowLeft","false","","","","","","","86","revaluation","1",""
"html-keyboard-response","225","1071854","0.0-4.0-2.0-1.43","pilot_wm_v1","66572731cb06ce43c72bdf8a","4","null","null","true","","","","","","","null","<div style=""font-size:60px;"">+</div>","null","fixation","","","","","","","","","","","","","87","","",""
"revaluation","226","1077863","0.0-4.0-2.0-0.44","pilot_wm_v1","66572731cb06ce43c72bdf8a","4","null","null","true","","false","","","","","[580.3999999999069,295.5999999998603]","./assets/img/canyon/memory/40.jpg","[""ArrowUp"",""ArrowLeft""]","value training","canyon","26","{""ArrowUp,ArrowLeft"":26,""ArrowUp,ArrowRight"":10,""ArrowDown,ArrowLeft"":5,""ArrowDown,ArrowRight"":17}","true","ArrowUp,ArrowLeft","false","","","","","","","88","revaluation","1",""
"html-keyboard-response","227","1078366","0.0-4.0-2.0-1.44","pilot_wm_v1","66572731cb06ce43c72bdf8a","4","null","null","true","","","","","","","null","<div style=""font-size:60px;"">+</div>","null","fixation","","","","","","","","","","","","","89","","",""
"revaluation","228","1084374","0.0-4.0-2.0-0.45","pilot_wm_v1","66572731cb06ce43c72bdf8a","4","null","null","true","","false","","","","","[559.6999999999534,472.80000000004657]","./assets/img/canyon/memory/27.jpg","[""ArrowUp"",""ArrowLeft""]","value training","canyon","26","{""ArrowUp,ArrowLeft"":26,""ArrowUp,ArrowRight"":10,""ArrowDown,ArrowLeft"":5,""ArrowDown,ArrowRight"":17}","true","ArrowUp,ArrowLeft","false","","","","","","","90","revaluation","1",""
"html-keyboard-response","229","1084877","0.0-4.0-2.0-1.45","pilot_wm_v1","66572731cb06ce43c72bdf8a","4","null","null","true","","","","","","","null","<div style=""font-size:60px;"">+</div>","null","fixation","","","","","","","","","","","","","91","","",""
"revaluation","230","1088884","0.0-4.0-2.0-0.46","pilot_wm_v1","66572731cb06ce43c72bdf8a","4","null","null","true","","false","","","","","[488.69999999995343]","./assets/img/canyon/catch/0.jpg","[""spaceBar""]","value training","canyon","0","{""ArrowUp,ArrowLeft"":26,""ArrowUp,ArrowRight"":10,""ArrowDown,ArrowLeft"":5,""ArrowDown,ArrowRight"":17}","true","spaceBar","true","","","","","","","92","revaluation","1",""
"html-keyboard-response","231","1089387","0.0-4.0-2.0-1.46","pilot_wm_v1","66572731cb06ce43c72bdf8a","4","null","null","true","","","","","","","null","<div style=""font-size:60px;"">+</div>","null","fixation","","","","","","","","","","","","","93","","",""
"revaluation","232","1095395","0.0-4.0-2.0-0.47","pilot_wm_v1","66572731cb06ce43c72bdf8a","4","null","null","true","","false","","","","","[652.6999999999534,276.0999999998603]","./assets/img/canyon/memory/8.jpg","[""ArrowUp"",""ArrowLeft""]","value training","canyon","26","{""ArrowUp,ArrowLeft"":26,""ArrowUp,ArrowRight"":10,""ArrowDown,ArrowLeft"":5,""ArrowDown,ArrowRight"":17}","true","ArrowUp,ArrowLeft","false","","","","","","","94","revaluation","1",""
"html-keyboard-response","233","1095898","0.0-4.0-2.0-1.47","pilot_wm_v1","66572731cb06ce43c72bdf8a","4","null","null","true","","","","","","","null","<div style=""font-size:60px;"">+</div>","null","fixation","","","","","","","","","","","","","95","","",""
"revaluation","234","1101905","0.0-4.0-2.0-0.48","pilot_wm_v1","66572731cb06ce43c72bdf8a","4","null","null","true","","false","","","","","[574.8999999999069,333.10000000009313]","./assets/img/canyon/memory/28.jpg","[""ArrowUp"",""ArrowLeft""]","value training","canyon","26","{""ArrowUp,ArrowLeft"":26,""ArrowUp,ArrowRight"":10,""ArrowDown,ArrowLeft"":5,""ArrowDown,ArrowRight"":17}","true","ArrowUp,ArrowLeft","false","","","","","","","96","revaluation","1",""
"html-keyboard-response","235","1102408","0.0-4.0-2.0-1.48","pilot_wm_v1","66572731cb06ce43c72bdf8a","4","null","null","true","","","","","","","null","<div style=""font-size:60px;"">+</div>","null","fixation","","","","","","","","","","","","","97","","",""
"revaluation","236","1108415","0.0-4.0-2.0-0.49","pilot_wm_v1","66572731cb06ce43c72bdf8a","4","null","null","true","","false","","","","","[629.8000000000466,317.39999999990687]","./assets/img/canyon/memory/28.jpg","[""ArrowUp"",""ArrowLeft""]","value training","canyon","26","{""ArrowUp,ArrowLeft"":26,""ArrowUp,ArrowRight"":10,""ArrowDown,ArrowLeft"":5,""ArrowDown,ArrowRight"":17}","true","ArrowUp,ArrowLeft","false","","","","","","","98","revaluation","1",""
"html-keyboard-response","237","1108917","0.0-4.0-2.0-1.49","pilot_wm_v1","66572731cb06ce43c72bdf8a","4","null","null","true","","","","","","","null","<div style=""font-size:60px;"">+</div>","null","fixation","","","","","","","","","","","","","99","","",""
"learning-instructions","238","1124235","0.0-4.0-3.0-0.0","pilot_wm_v1","66572731cb06ce43c72bdf8a","4","null","null","true","","","","","","","2401.5999999998603","<p> Now, you will travel with a friend who will choose whether you go up or down first. </p>
            <p> On these turns, you will just see the animal that they found. You will still get to choose which chest to search for treasure.</p>","","instructions","","","","","","","","","","","","","","","",""
"learning-instructions","239","1136685","0.0-4.0-3.0-0.1","pilot_wm_v1","66572731cb06ce43c72bdf8a","4","null","null","true","","","","","","","845.8999999999069","<p> In this part, you will also hear beeps from your friend and see special treasure chests that need a password. </p>
            <p> Do your best to count the high beeps <b>and</b> choose between each animals' chests at the same time.</p>
            <img src='./assets/img/instructions/beep_chest.jpg' class='instructions-image'>","","instructions","","","","","","","","","","","","","","","",""
"revaluation","240","1140691","0.0-4.0-4.0-0.0","pilot_wm_v1","66572731cb06ce43c72bdf8a","4","null","null","true","","false","","","","","[680.2999999998137]","./assets/img/canyon/animals/lion.jpg","[""ArrowRight""]","revaluation","canyon","11","{""ArrowUp,ArrowLeft"":2,""ArrowUp,ArrowRight"":11,""ArrowDown,ArrowLeft"":8,""ArrowDown,ArrowRight"":27}","true","ArrowUp,ArrowRight","","3_0","","","","","","0","revaluation","1",""
"html-keyboard-response","241","1141197","0.0-4.0-4.0-1.0","pilot_wm_v1","66572731cb06ce43c72bdf8a","4","null","null","true","","","","","","","null","<div style=""font-size:60px;"">+</div>","null","fixation","","","","","","","","","","","","","","","",""
"revaluation","242","1145206","0.0-4.0-4.0-0.1","pilot_wm_v1","66572731cb06ce43c72bdf8a","4","null","null","true","","false","","","","","[492.69999999995343]","./assets/img/canyon/animals/lion.jpg","[""ArrowLeft""]","revaluation","canyon","2","{""ArrowUp,ArrowLeft"":2,""ArrowUp,ArrowRight"":11,""ArrowDown,ArrowLeft"":8,""ArrowDown,ArrowRight"":27}","false","ArrowUp,ArrowLeft","","6_3","","","","","","1","revaluation","1",""
"html-keyboard-response","243","1145709","0.0-4.0-4.0-1.1","pilot_wm_v1","66572731cb06ce43c72bdf8a","4","null","null","true","","","","","","","null","<div style=""font-size:60px;"">+</div>","null","fixation","","","","","","","","","","","","","","","",""
"revaluation","244","1149715","0.0-4.0-4.0-0.2","pilot_wm_v1","66572731cb06ce43c72bdf8a","4","null","null","true","","false","","","","","[816.8999999999069]","./assets/img/canyon/animals/lion.jpg","[""ArrowRight""]","revaluation","canyon","11","{""ArrowUp,ArrowLeft"":2,""ArrowUp,ArrowRight"":11,""ArrowDown,ArrowLeft"":8,""ArrowDown,ArrowRight"":27}","true","ArrowUp,ArrowRight","","8_2","","","","","","2","revaluation","1",""
"html-keyboard-response","245","1150218","0.0-4.0-4.0-1.2","pilot_wm_v1","66572731cb06ce43c72bdf8a","4","null","null","true","","","","","","","null","<div style=""font-size:60px;"">+</div>","null","fixation","","","","","","","","","","","","","","","",""
"revaluation","246","1154225","0.0-4.0-4.0-0.3","pilot_wm_v1","66572731cb06ce43c72bdf8a","4","null","null","true","","false","","","","","[797.6000000000931]","./assets/img/canyon/animals/giraffe.jpg","[""ArrowRight""]","revaluation","canyon","27","{""ArrowUp,ArrowLeft"":2,""ArrowUp,ArrowRight"":11,""ArrowDown,ArrowLeft"":8,""ArrowDown,ArrowRight"":27}","true","ArrowDown,ArrowRight","","15_0","","","","","","3","revaluation","1",""
"html-keyboard-response","247","1154729","0.0-4.0-4.0-1.3","pilot_wm_v1","66572731cb06ce43c72bdf8a","4","null","null","true","","","","","","","null","<div style=""font-size:60px;"">+</div>","null","fixation","","","","","","","","","","","","","","","",""
"html-slider-response","248","1158652","0.0-4.0-4.0-2.3-0.3","pilot_wm_v1","66572731cb06ce43c72bdf8a","4","null","null","true","","","","","","","3920","<div style=""width:500px;"">
        <p>What is the password?</p>
        <img src='./assets/img/instructions/beep_chest.jpg' class='instructions-image'>","5","beep chest","","","","true","","","","50","5","0","","","","","",""
"revaluation","249","1162658","0.0-4.0-4.0-0.4","pilot_wm_v1","66572731cb06ce43c72bdf8a","4","null","null","true","","false","","","","","[981.8000000000466]","./assets/img/canyon/animals/giraffe.jpg","[""ArrowRight""]","revaluation","canyon","27","{""ArrowUp,ArrowLeft"":2,""ArrowUp,ArrowRight"":11,""ArrowDown,ArrowLeft"":8,""ArrowDown,ArrowRight"":27}","true","ArrowDown,ArrowRight","","17_1","","","","","","4","revaluation","1",""
"html-keyboard-response","250","1163161","0.0-4.0-4.0-1.4","pilot_wm_v1","66572731cb06ce43c72bdf8a","4","null","null","true","","","","","","","null","<div style=""font-size:60px;"">+</div>","null","fixation","","","","","","","","","","","","","","","",""
"revaluation","251","1167168","0.0-4.0-4.0-0.5","pilot_wm_v1","66572731cb06ce43c72bdf8a","4","null","null","true","","false","","","","","[721]","./assets/img/canyon/animals/lion.jpg","[""ArrowLeft""]","revaluation","canyon","2","{""ArrowUp,ArrowLeft"":2,""ArrowUp,ArrowRight"":11,""ArrowDown,ArrowLeft"":8,""ArrowDown,ArrowRight"":27}","false","ArrowUp,ArrowLeft","","2_1","","","","","","5","revaluation","1",""
"html-keyboard-response","252","1167671","0.0-4.0-4.0-1.5","pilot_wm_v1","66572731cb06ce43c72bdf8a","4","null","null","true","","","","","","","null","<div style=""font-size:60px;"">+</div>","null","fixation","","","","","","","","","","","","","","","",""
"revaluation","253","1171678","0.0-4.0-4.0-0.6","pilot_wm_v1","66572731cb06ce43c72bdf8a","4","null","null","true","","false","","","","","[575.0999999998603]","./assets/img/canyon/animals/giraffe.jpg","[""ArrowRight""]","revaluation","canyon","27","{""ArrowUp,ArrowLeft"":2,""ArrowUp,ArrowRight"":11,""ArrowDown,ArrowLeft"":8,""ArrowDown,ArrowRight"":27}","true","ArrowDown,ArrowRight","","18_0","","","","","","6","revaluation","1",""
"html-keyboard-response","254","1172181","0.0-4.0-4.0-1.6","pilot_wm_v1","66572731cb06ce43c72bdf8a","4","null","null","true","","","","","","","null","<div style=""font-size:60px;"">+</div>","null","fixation","","","","","","","","","","","","","","","",""
"revaluation","255","1176189","0.0-4.0-4.0-0.7","pilot_wm_v1","66572731cb06ce43c72bdf8a","4","null","null","true","","false","","","","","[512.1999999999534]","./assets/img/canyon/animals/lion.jpg","[""ArrowRight""]","revaluation","canyon","11","{""ArrowUp,ArrowLeft"":2,""ArrowUp,ArrowRight"":11,""ArrowDown,ArrowLeft"":8,""ArrowDown,ArrowRight"":27}","true","ArrowUp,ArrowRight","","4_0","","","","","","7","revaluation","1",""
"html-keyboard-response","256","1176692","0.0-4.0-4.0-1.7","pilot_wm_v1","66572731cb06ce43c72bdf8a","4","null","null","true","","","","","","","null","<div style=""font-size:60px;"">+</div>","null","fixation","","","","","","","","","","","","","","","",""
"html-slider-response","257","1179051","0.0-4.0-4.0-2.7-0.7","pilot_wm_v1","66572731cb06ce43c72bdf8a","4","null","null","true","","","","","","","2356","<div style=""width:500px;"">
        <p>What is the password?</p>
        <img src='./assets/img/instructions/beep_chest.jpg' class='instructions-image'>","2","beep chest","","","","true","","","","50","2","0","","","","","",""
"revaluation","258","1183058","0.0-4.0-4.0-0.8","pilot_wm_v1","66572731cb06ce43c72bdf8a","4","null","null","true","","false","","","","","[817.8999999999069]","./assets/img/canyon/animals/giraffe.jpg","[""ArrowRight""]","revaluation","canyon","27","{""ArrowUp,ArrowLeft"":2,""ArrowUp,ArrowRight"":11,""ArrowDown,ArrowLeft"":8,""ArrowDown,ArrowRight"":27}","true","ArrowDown,ArrowRight","","11_4","","","","","","8","revaluation","1",""
"html-keyboard-response","259","1183561","0.0-4.0-4.0-1.8","pilot_wm_v1","66572731cb06ce43c72bdf8a","4","null","null","true","","","","","","","null","<div style=""font-size:60px;"">+</div>","null","fixation","","","","","","","","","","","","","","","",""
"revaluation","260","1187566","0.0-4.0-4.0-0.9","pilot_wm_v1","66572731cb06ce43c72bdf8a","4","null","null","true","","false","","","","","[1125.8000000000466]","./assets/img/canyon/animals/lion.jpg","[""ArrowRight""]","revaluation","canyon","11","{""ArrowUp,ArrowLeft"":2,""ArrowUp,ArrowRight"":11,""ArrowDown,ArrowLeft"":8,""ArrowDown,ArrowRight"":27}","true","ArrowUp,ArrowRight","","5_4","","","","","","9","revaluation","1",""
"html-keyboard-response","261","1188069","0.0-4.0-4.0-1.9","pilot_wm_v1","66572731cb06ce43c72bdf8a","4","null","null","true","","","","","","","null","<div style=""font-size:60px;"">+</div>","null","fixation","","","","","","","","","","","","","","","",""
"revaluation","262","1192075","0.0-4.0-4.0-0.10","pilot_wm_v1","66572731cb06ce43c72bdf8a","4","null","null","true","","false","","","","","[1699.1000000000931]","./assets/img/canyon/animals/lion.jpg","[""ArrowRight""]","revaluation","canyon","11","{""ArrowUp,ArrowLeft"":2,""ArrowUp,ArrowRight"":11,""ArrowDown,ArrowLeft"":8,""ArrowDown,ArrowRight"":27}","true","ArrowUp,ArrowRight","","1_4","","","","","","10","revaluation","1",""
"html-keyboard-response","263","1192578","0.0-4.0-4.0-1.10","pilot_wm_v1","66572731cb06ce43c72bdf8a","4","null","null","true","","","","","","","null","<div style=""font-size:60px;"">+</div>","null","fixation","","","","","","","","","","","","","","","",""
"revaluation","264","1196586","0.0-4.0-4.0-0.11","pilot_wm_v1","66572731cb06ce43c72bdf8a","4","null","null","true","","false","","","","","[823.3000000000466]","./assets/img/canyon/animals/lion.jpg","[""ArrowRight""]","revaluation","canyon","11","{""ArrowUp,ArrowLeft"":2,""ArrowUp,ArrowRight"":11,""ArrowDown,ArrowLeft"":8,""ArrowDown,ArrowRight"":27}","true","ArrowUp,ArrowRight","","7_4","","","","","","11","revaluation","1",""
"html-keyboard-response","265","1197088","0.0-4.0-4.0-1.11","pilot_wm_v1","66572731cb06ce43c72bdf8a","4","null","null","true","","","","","","","null","<div style=""font-size:60px;"">+</div>","null","fixation","","","","","","","","","","","","","","","",""
"html-slider-response","266","1204651","0.0-4.0-4.0-2.11-0.11","pilot_wm_v1","66572731cb06ce43c72bdf8a","4","null","null","true","","","","","","","7560","<div style=""width:500px;"">
        <p>What is the password?</p>
        <img src='./assets/img/instructions/beep_chest.jpg' class='instructions-image'>","13","beep chest","","","","false","","","","50","16","3","","","","","",""
"revaluation","267","1208656","0.0-4.0-4.0-0.12","pilot_wm_v1","66572731cb06ce43c72bdf8a","4","null","null","true","","false","","","","","[893.5999999998603]","./assets/img/canyon/animals/giraffe.jpg","[""ArrowRight""]","revaluation","canyon","27","{""ArrowUp,ArrowLeft"":2,""ArrowUp,ArrowRight"":11,""ArrowDown,ArrowLeft"":8,""ArrowDown,ArrowRight"":27}","true","ArrowDown,ArrowRight","","13_2","","","","","","12","revaluation","1",""
"html-keyboard-response","268","1209159","0.0-4.0-4.0-1.12","pilot_wm_v1","66572731cb06ce43c72bdf8a","4","null","null","true","","","","","","","null","<div style=""font-size:60px;"">+</div>","null","fixation","","","","","","","","","","","","","","","",""
"revaluation","269","1213166","0.0-4.0-4.0-0.13","pilot_wm_v1","66572731cb06ce43c72bdf8a","4","null","null","true","","false","","","","","[960.3000000000466]","./assets/img/canyon/animals/giraffe.jpg","[""ArrowRight""]","revaluation","canyon","27","{""ArrowUp,ArrowLeft"":2,""ArrowUp,ArrowRight"":11,""ArrowDown,ArrowLeft"":8,""ArrowDown,ArrowRight"":27}","true","ArrowDown,ArrowRight","","12_2","","","","","","13","revaluation","1",""
"html-keyboard-response","270","1213669","0.0-4.0-4.0-1.13","pilot_wm_v1","66572731cb06ce43c72bdf8a","4","null","null","true","","","","","","","null","<div style=""font-size:60px;"">+</div>","null","fixation","","","","","","","","","","","","","","","",""
"revaluation","271","1217676","0.0-4.0-4.0-0.14","pilot_wm_v1","66572731cb06ce43c72bdf8a","4","null","null","true","","true","","","","","[]","./assets/img/canyon/animals/lion.jpg","[]","revaluation","canyon","-5","{""ArrowUp,ArrowLeft"":2,""ArrowUp,ArrowRight"":11,""ArrowDown,ArrowLeft"":8,""ArrowDown,ArrowRight"":27}","false","ArrowUp","","9_2","","","","","","14","revaluation","1",""
"html-keyboard-response","272","1218178","0.0-4.0-4.0-1.14","pilot_wm_v1","66572731cb06ce43c72bdf8a","4","null","null","true","","","","","","","null","<div style=""font-size:60px;"">+</div>","null","fixation","","","","","","","","","","","","","","","",""
"revaluation","273","1222186","0.0-4.0-4.0-0.15","pilot_wm_v1","66572731cb06ce43c72bdf8a","4","null","null","true","","false","","","","","[400.30000000004657]","./assets/img/canyon/animals/giraffe.jpg","[""ArrowLeft""]","revaluation","canyon","8","{""ArrowUp,ArrowLeft"":2,""ArrowUp,ArrowRight"":11,""ArrowDown,ArrowLeft"":8,""ArrowDown,ArrowRight"":27}","false","ArrowDown,ArrowLeft","","14_4","","","","","","15","revaluation","1",""
"html-keyboard-response","274","1222688","0.0-4.0-4.0-1.15","pilot_wm_v1","66572731cb06ce43c72bdf8a","4","null","null","true","","","","","","","null","<div style=""font-size:60px;"">+</div>","null","fixation","","","","","","","","","","","","","","","",""
"html-slider-response","275","1232567","0.0-4.0-4.0-2.15-0.15","pilot_wm_v1","66572731cb06ce43c72bdf8a","4","null","null","true","","","","","","","9877","<div style=""width:500px;"">
        <p>What is the password?</p>
        <img src='./assets/img/instructions/beep_chest.jpg' class='instructions-image'>","9","beep chest","","","","false","","","","50","10","1","","","","","",""
"revaluation","276","1236574","0.0-4.0-4.0-0.16","pilot_wm_v1","66572731cb06ce43c72bdf8a","4","null","null","true","","false","","","","","[756.5999999998603]","./assets/img/canyon/animals/giraffe.jpg","[""ArrowRight""]","revaluation","canyon","27","{""ArrowUp,ArrowLeft"":2,""ArrowUp,ArrowRight"":11,""ArrowDown,ArrowLeft"":8,""ArrowDown,ArrowRight"":27}","true","ArrowDown,ArrowRight","","10_3","","","","","","16","revaluation","1",""
"html-keyboard-response","277","1237077","0.0-4.0-4.0-1.16","pilot_wm_v1","66572731cb06ce43c72bdf8a","4","null","null","true","","","","","","","null","<div style=""font-size:60px;"">+</div>","null","fixation","","","","","","","","","","","","","","","",""
"revaluation","278","1241085","0.0-4.0-4.0-0.17","pilot_wm_v1","66572731cb06ce43c72bdf8a","4","null","null","true","","false","","","","","[1650.5]","./assets/img/canyon/animals/giraffe.jpg","[""ArrowLeft""]","revaluation","canyon","8","{""ArrowUp,ArrowLeft"":2,""ArrowUp,ArrowRight"":11,""ArrowDown,ArrowLeft"":8,""ArrowDown,ArrowRight"":27}","false","ArrowDown,ArrowLeft","","16_0","","","","","","17","revaluation","1",""
