"trial_type","trial_index","time_elapsed","internal_node_id","task_version","subject_id","assigned_condition","age","gender","rest","success","timeout","failed_images","failed_audio","failed_video","browser_interaction","rt","stimulus","response","task_part","environment","score","rewardMap","correct","fullState","isCatch","audioStim","slider_start","answer","error","trial_num","condition","order","bonus"
"pavlovia","0","1258","0.0-0.0","pilot_wm_v1","null","7","null","null","false","","","","","","","","","","","","","","","","","","","","","","","",""
"preload","1","25084","0.0-1.0","pilot_wm_v1","null","7","null","null","false","true","false","[]","[]","[]","[{""event"":""fullscreenenter"",""trial"":2,""time"":108502}]","","","","","","","","","","","","","","","","","",""
"fullscreen","2","109499","0.0-2.0","pilot_wm_v1","null","7","null","null","false","true","","","","","","","","","","","","","","","","","","","","","","",""
"audio-button-response","3","143767","0.0-3.0-0.0-0.0","pilot_wm_v1","null","7","null","null","false","","","","","","","34235","./assets/audio/audiotest/turtle.mp3","2","audio_test","","","","","","","","","","","","","",""
"learning-instructions","4","155547","0.0-3.0-1.0-0.0","pilot_wm_v1","null","7","null","null","false","","","","","","","4785","<p> Welcome! Please remember to stay in fullscreen mode and don't click away from the experiment. </p>","","instructions","","","","","","","","","","","","","",""
"learning-instructions","5","170709","0.0-3.0-1.0-0.1","pilot_wm_v1","null","7","null","null","false","","","","","","","6767.600000023842","<p> Today you will be playing a game to earn treasure. </p>
            <p> At the end of the experiment, you will earn a bonus based on how much treasure you find. </p>
            <img src='./assets/img/instructions/treasure.jpg' class='instructions-image'>","","instructions","","","","","","","","","","","","","",""
"learning-instructions","6","181250","0.0-3.0-1.0-0.2","pilot_wm_v1","null","7","null","null","false","","","","","","","2295.100000023842","<p> Animals have hidden treasure in treasure chests. </p>
            <p> You need to first find an animal and then choose which of their treasure chests to search. </p>
            <img src='./assets/img/space/animals/cat.jpg' class='instructions-image'>","","instructions","","","","","","","","","","","","","",""
"learning-instructions","7","198316","0.0-3.0-1.0-0.3","pilot_wm_v1","null","7","null","null","false","","","","","","","3936.800000011921","<p> In each round, you will search for treasure in a different place. In the real game, there will be two rounds. </p>
            <p> You will begin with a separate, practice round where you will search for treasure in outer space. </p>
            <img src='./assets/img/space/0.jpg' class='instructions-image'>","","instructions","","","","","","","","","","","","","",""
"learning-instructions","8","215561","0.0-3.0-1.0-0.4","pilot_wm_v1","null","7","null","null","false","","","","","","","5848.5","<p> On every turn, you will see a picture of the place that you are in, but the specific image may be different each time. </p>
            <p> For example, both of these images mean you are in outer space. </p>
            <img src='./assets/img/instructions/outerspace.jpg' class='instructions-image'>","","instructions","","","","","","","","","","","","","",""
"learning-instructions","9","229088","0.0-3.0-1.0-0.5","pilot_wm_v1","null","7","null","null","false","","","","","","","5711","<p> You need to decide which direction to travel in. </p>
            <p> You can choose between going <b>up or down</b> by using the arrow keys. </p>
            <img src='./assets/img/instructions/updown.jpg' class='instructions-image'>","","instructions","","","","","","","","","","","","","",""
"learning-instructions","10","238737","0.0-3.0-1.0-0.6","pilot_wm_v1","null","7","null","null","false","","","","","","","852.8000000119209","<p> You will have <b>2 seconds</b> to make your choice. </p>
            <p> If you do not make a choice within 2 seconds, you will not find an animal or earn treasure. </p>
            <img src='./assets/img/instructions/2seconds.jpg' class='instructions-image'>","","instructions","","","","","","","","","","","","","",""
"learning-instructions","11","246528","0.0-3.0-1.0-0.7","pilot_wm_v1","null","7","null","null","false","","","","","","","771.3999999761581","<p> Let’s try practicing that now! </p>
            <p> When you see a picture of the place you are in, press the <b>up</b> key to travel up. </p>
            <img src='./assets/img/instructions/pressUp.jpg' class='instructions-image'>","","instructions","","","","","","","","","","","","","",""
"revaluation","12","250542","0.0-3.0-2.0-0.0","pilot_wm_v1","null","7","null","null","false","","false","","","","","[710.8000000119209]","./assets/img/space/0.jpg","[""ArrowUp""]","first stage practice","space","0","null","null","ArrowUp","false","","","","","","","",""
"html-keyboard-response","13","251045","0.0-3.0-2.0-1.0","pilot_wm_v1","null","7","null","null","false","","","","","","","null","<div style=""font-size:60px;"">+</div>","null","fixation","","","","","","","","","","","","","",""
"revaluation","14","255052","0.0-3.0-2.0-0.1","pilot_wm_v1","null","7","null","null","false","","false","","","","","[1381.5]","./assets/img/space/1.jpg","[""ArrowUp""]","first stage practice","space","0","null","null","ArrowUp","false","","","","","","","",""
"html-keyboard-response","15","255555","0.0-3.0-2.0-1.1","pilot_wm_v1","null","7","null","null","false","","","","","","","null","<div style=""font-size:60px;"">+</div>","null","fixation","","","","","","","","","","","","","",""
"revaluation","16","259563","0.0-3.0-2.0-0.2","pilot_wm_v1","null","7","null","null","false","","false","","","","","[696.8000000119209]","./assets/img/space/2.jpg","[""ArrowUp""]","first stage practice","space","0","null","null","ArrowUp","false","","","","","","","",""
"html-keyboard-response","17","260066","0.0-3.0-2.0-1.2","pilot_wm_v1","null","7","null","null","false","","","","","","","null","<div style=""font-size:60px;"">+</div>","null","fixation","","","","","","","","","","","","","",""
"learning-instructions","18","265937","0.0-3.0-3.0-0.0","pilot_wm_v1","null","7","null","null","false","","","","","","","1178.699999988079","<p> Great job! Now try pressing the <b>down</b> key to travel down. </p>
            <img src='./assets/img/instructions/pressDown.jpg' class='instructions-image'>","","instructions","","","","","","","","","","","","","",""
"revaluation","19","269945","0.0-3.0-4.0-0.0","pilot_wm_v1","null","7","null","null","false","","false","","","","","[543.3000000119209]","./assets/img/space/3.jpg","[""ArrowDown""]","first stage practice","space","0","null","null","ArrowDown","false","","","","","","","",""
"html-keyboard-response","20","270448","0.0-3.0-4.0-1.0","pilot_wm_v1","null","7","null","null","false","","","","","","","null","<div style=""font-size:60px;"">+</div>","null","fixation","","","","","","","","","","","","","",""
"revaluation","21","274455","0.0-3.0-4.0-0.1","pilot_wm_v1","null","7","null","null","false","","false","","","","","[954]","./assets/img/space/4.jpg","[""ArrowDown""]","first stage practice","space","0","null","null","ArrowDown","false","","","","","","","",""
"html-keyboard-response","22","274957","0.0-3.0-4.0-1.1","pilot_wm_v1","null","7","null","null","false","","","","","","","null","<div style=""font-size:60px;"">+</div>","null","fixation","","","","","","","","","","","","","",""
"revaluation","23","278964","0.0-3.0-4.0-0.2","pilot_wm_v1","null","7","null","null","false","","false","","","","","[962.5]","./assets/img/space/5.jpg","[""ArrowDown""]","first stage practice","space","0","null","null","ArrowDown","false","","","","","","","",""
"html-keyboard-response","24","279466","0.0-3.0-4.0-1.2","pilot_wm_v1","null","7","null","null","false","","","","","","","null","<div style=""font-size:60px;"">+</div>","null","fixation","","","","","","","","","","","","","",""
"learning-instructions","25","312177","0.0-3.0-5.0-0.0","pilot_wm_v1","null","7","null","null","false","","","","","","","22874.30000001192","<p> The animals don’t move, so the animal in the upper part of a place will stay in the upper part of a place, and the animal in the lower part of a place will stay in the lower part of a place. </p>","","instructions","","","","","","","","","","","","","",""
"learning-instructions","26","323058","0.0-3.0-5.0-0.1","pilot_wm_v1","null","7","null","null","false","","","","","","","1766.199999988079","<p> Each animal has two treasure chests for you to choose from. </p>
            <p> The amount of treasure in each chest can range from <b> 0 to 40 pieces.</b></p>","","instructions","","","","","","","","","","","","","",""
"learning-instructions","27","338987","0.0-3.0-5.0-0.2","pilot_wm_v1","null","7","null","null","false","","","","","","","4761.100000023842","<p> You should decide which chest to search for treasure by using the <b>left</b> and <b>right</b> arrow keys. </p>
            <p><b> Pay attention to which animal is on the screen, as the animals have different treasure chests. </b></p>
            <img src='./assets/img/instructions/leftright.jpg' class='instructions-image'>","","instructions","","","","","","","","","","","","","",""
"learning-instructions","28","347581","0.0-3.0-5.0-0.3","pilot_wm_v1","null","7","null","null","false","","","","","","","2245.800000011921","<p> Let’s try practicing that now. </p>
            <p> When you see an animal, choose which chest to search for treasure. </p>
            <img src='./assets/img/instructions/chooseChest.jpg' class='instructions-image'>","","instructions","","","","","","","","","","","","","",""
"revaluation","29","351589","0.0-3.0-6.0-0.0","pilot_wm_v1","null","7","null","null","false","","false","","","","","[1177.5999999642372]","./assets/img/space/animals/rabbit.jpg","[""ArrowLeft""]","second stage practice","space","15","{""ArrowUp,ArrowLeft"":3,""ArrowUp,ArrowRight"":36,""ArrowDown,ArrowLeft"":15,""ArrowDown,ArrowRight"":23}","false","ArrowDown,ArrowLeft","","","","","","","","",""
"html-keyboard-response","30","352092","0.0-3.0-6.0-1.0","pilot_wm_v1","null","7","null","null","false","","","","","","","null","<div style=""font-size:60px;"">+</div>","null","fixation","","","","","","","","","","","","","",""
"revaluation","31","356100","0.0-3.0-6.0-0.1","pilot_wm_v1","null","7","null","null","false","","false","","","","","[507.5]","./assets/img/space/animals/rabbit.jpg","[""ArrowRight""]","second stage practice","space","23","{""ArrowUp,ArrowLeft"":3,""ArrowUp,ArrowRight"":36,""ArrowDown,ArrowLeft"":15,""ArrowDown,ArrowRight"":23}","true","ArrowDown,ArrowRight","","","","","","","","",""
"html-keyboard-response","32","356602","0.0-3.0-6.0-1.1","pilot_wm_v1","null","7","null","null","false","","","","","","","null","<div style=""font-size:60px;"">+</div>","null","fixation","","","","","","","","","","","","","",""
"revaluation","33","360610","0.0-3.0-6.0-0.2","pilot_wm_v1","null","7","null","null","false","","false","","","","","[949.8999999761581]","./assets/img/space/animals/cat.jpg","[""ArrowLeft""]","second stage practice","space","3","{""ArrowUp,ArrowLeft"":3,""ArrowUp,ArrowRight"":36,""ArrowDown,ArrowLeft"":15,""ArrowDown,ArrowRight"":23}","false","ArrowUp,ArrowLeft","","","","","","","","",""
"html-keyboard-response","34","361113","0.0-3.0-6.0-1.2","pilot_wm_v1","null","7","null","null","false","","","","","","","null","<div style=""font-size:60px;"">+</div>","null","fixation","","","","","","","","","","","","","",""
"revaluation","35","365120","0.0-3.0-6.0-0.3","pilot_wm_v1","null","7","null","null","false","","false","","","","","[423.30000001192093]","./assets/img/space/animals/cat.jpg","[""ArrowRight""]","second stage practice","space","36","{""ArrowUp,ArrowLeft"":3,""ArrowUp,ArrowRight"":36,""ArrowDown,ArrowLeft"":15,""ArrowDown,ArrowRight"":23}","true","ArrowUp,ArrowRight","","","","","","","","",""
"html-keyboard-response","36","365623","0.0-3.0-6.0-1.3","pilot_wm_v1","null","7","null","null","false","","","","","","","null","<div style=""font-size:60px;"">+</div>","null","fixation","","","","","","","","","","","","","",""
"learning-instructions","37","388080","0.0-3.0-7.0-0.0","pilot_wm_v1","null","7","null","null","false","","","","","","","5667.600000023842","<p> Great job. Now let’s try putting it together. </p>
            <p> On each turn, you will first see a picture to remind you of the place you are in, and you need to choose whether to go up or down. </p>
            <p> Then you will see an animal and choose which of its chests to search for treasure. </p>","","instructions","","","","","","","","","","","","","",""
"learning-instructions","38","396699","0.0-3.0-7.0-0.1","pilot_wm_v1","null","7","null","null","false","","","","","","","371.5999999642372","<p> When you choose whether to go up or down, try to go to the animal with the chest with the most treasure. </p>
            <p> Try practicing that now! </p>","","instructions","","","","","","","","","","","","","",""
"revaluation","39","402706","0.0-3.0-8.0-0.0","pilot_wm_v1","null","7","null","null","false","","false","","","","","[971.6000000238419,455.5999999642372]","./assets/img/space/6.jpg","[""ArrowUp"",""ArrowRight""]","full practice","space","36","{""ArrowUp,ArrowLeft"":3,""ArrowUp,ArrowRight"":36,""ArrowDown,ArrowLeft"":15,""ArrowDown,ArrowRight"":23}","true","ArrowUp,ArrowRight","false","","","","","","","",""
"html-keyboard-response","40","403210","0.0-3.0-8.0-1.0","pilot_wm_v1","null","7","null","null","false","","","","","","","null","<div style=""font-size:60px;"">+</div>","null","fixation","","","","","","","","","","","","","",""
"revaluation","41","409218","0.0-3.0-8.0-0.1","pilot_wm_v1","null","7","null","null","false","","false","","","","","[637.1999999880791,701.2999999523163]","./assets/img/space/7.jpg","[""ArrowDown"",""ArrowRight""]","full practice","space","23","{""ArrowUp,ArrowLeft"":3,""ArrowUp,ArrowRight"":36,""ArrowDown,ArrowLeft"":15,""ArrowDown,ArrowRight"":23}","false","ArrowDown,ArrowRight","false","","","","","","","",""
"html-keyboard-response","42","409720","0.0-3.0-8.0-1.1","pilot_wm_v1","null","7","null","null","false","","","","","","","null","<div style=""font-size:60px;"">+</div>","null","fixation","","","","","","","","","","","","","",""
"revaluation","43","415728","0.0-3.0-8.0-0.2","pilot_wm_v1","null","7","null","null","false","","false","","","","","[380.5999999642372,343.89999997615814]","./assets/img/space/8.jpg","[""ArrowUp"",""ArrowRight""]","full practice","space","36","{""ArrowUp,ArrowLeft"":3,""ArrowUp,ArrowRight"":36,""ArrowDown,ArrowLeft"":15,""ArrowDown,ArrowRight"":23}","true","ArrowUp,ArrowRight","false","","","","","","","",""
"html-keyboard-response","44","416231","0.0-3.0-8.0-1.2","pilot_wm_v1","null","7","null","null","false","","","","","","","null","<div style=""font-size:60px;"">+</div>","null","fixation","","","","","","","","","","","","","",""
"revaluation","45","422238","0.0-3.0-8.0-0.3","pilot_wm_v1","null","7","null","null","false","","false","","","","","[595.5,242.9000000357628]","./assets/img/space/9.jpg","[""ArrowUp"",""ArrowRight""]","full practice","space","36","{""ArrowUp,ArrowLeft"":3,""ArrowUp,ArrowRight"":36,""ArrowDown,ArrowLeft"":15,""ArrowDown,ArrowRight"":23}","true","ArrowUp,ArrowRight","false","","","","","","","",""
"html-keyboard-response","46","422741","0.0-3.0-8.0-1.3","pilot_wm_v1","null","7","null","null","false","","","","","","","null","<div style=""font-size:60px;"">+</div>","null","fixation","","","","","","","","","","","","","",""
"revaluation","47","428749","0.0-3.0-8.0-0.4","pilot_wm_v1","null","7","null","null","false","","false","","","","","[513.5,507.19999998807907]","./assets/img/space/10.jpg","[""ArrowUp"",""ArrowRight""]","full practice","space","36","{""ArrowUp,ArrowLeft"":3,""ArrowUp,ArrowRight"":36,""ArrowDown,ArrowLeft"":15,""ArrowDown,ArrowRight"":23}","true","ArrowUp,ArrowRight","false","","","","","","","",""
"html-keyboard-response","48","429251","0.0-3.0-8.0-1.4","pilot_wm_v1","null","7","null","null","false","","","","","","","null","<div style=""font-size:60px;"">+</div>","null","fixation","","","","","","","","","","","","","",""
"learning-instructions","49","440172","0.0-3.0-9.0-0.0","pilot_wm_v1","null","7","null","null","false","","","","","","","599.2999999523163","<p> One last thing: sometimes, you will see a robber. The robber can be anywhere in the picture. </p>
            <p> If you do not stop them, you will lose treasure. </p>
            <img src='./assets/img/instructions/robber.jpg' class='instructions-image'>","","instructions","","","","","","","","","","","","","",""
"learning-instructions","50","560224","0.0-3.0-9.0-0.1","pilot_wm_v1","null","7","null","null","false","","","","","","","112901.89999997616","<p> If you see the robber, you should <b>press the space bar</b> rather than using the arrow keys. </p>
            <p> Try practicing that now! </p>","","instructions","","","","","","","","","","","","","",""
"revaluation","51","564230","0.0-3.0-10.0-0.0","pilot_wm_v1","null","7","null","null","false","","false","","","","","[1792.4000000357628]","./assets/img/space/catch/0.jpg","[""spaceBar""]","catch practice","space","0","{""ArrowUp,ArrowLeft"":3,""ArrowUp,ArrowRight"":36,""ArrowDown,ArrowLeft"":15,""ArrowDown,ArrowRight"":23}","true","spaceBar","true","","","","","","","",""
"html-keyboard-response","52","564733","0.0-3.0-10.0-1.0","pilot_wm_v1","null","7","null","null","false","","","","","","","null","<div style=""font-size:60px;"">+</div>","null","fixation","","","","","","","","","","","","","",""
"revaluation","53","568740","0.0-3.0-10.0-0.1","pilot_wm_v1","null","7","null","null","false","","false","","","","","[1056.3999999761581]","./assets/img/space/catch/1.jpg","[""spaceBar""]","catch practice","space","0","{""ArrowUp,ArrowLeft"":3,""ArrowUp,ArrowRight"":36,""ArrowDown,ArrowLeft"":15,""ArrowDown,ArrowRight"":23}","true","spaceBar","true","","","","","","","",""
"html-keyboard-response","54","569243","0.0-3.0-10.0-1.1","pilot_wm_v1","null","7","null","null","false","","","","","","","null","<div style=""font-size:60px;"">+</div>","null","fixation","","","","","","","","","","","","","",""
"revaluation","55","573249","0.0-3.0-10.0-0.2","pilot_wm_v1","null","7","null","null","false","","false","","","","","[836.1999999880791]","./assets/img/space/catch/2.jpg","[""spaceBar""]","catch practice","space","0","{""ArrowUp,ArrowLeft"":3,""ArrowUp,ArrowRight"":36,""ArrowDown,ArrowLeft"":15,""ArrowDown,ArrowRight"":23}","true","spaceBar","true","","","","","","","",""
"html-keyboard-response","56","573752","0.0-3.0-10.0-1.2","pilot_wm_v1","null","7","null","null","false","","","","","","","null","<div style=""font-size:60px;"">+</div>","null","fixation","","","","","","","","","","","","","",""
"learning-instructions","57","580434","0.0-3.0-11.0-0.0","pilot_wm_v1","null","7","null","null","false","","","","","","","984.1999999880791","<p> Sometimes, you will come across a special kind of treasure chest that requires a password. </p>
            <img src='./assets/img/instructions/beep_chest.jpg' class='instructions-image'>","","instructions","","","","","","","","","","","","","",""
"learning-instructions","58","604018","0.0-3.0-11.0-0.1","pilot_wm_v1","null","7","null","null","false","","","","","","","1842.300000011921","<p> Your friend will send you the password using a series of beeps so that you can open the chest and earn treasure. </p>
            <p> You will hear two kinds of beeps, a high beep and a low beep. </p>
            <p> You should report the number of high beeps that you heard before seeing the chest. </p>
            <img src='./assets/img/instructions/listen.jpg' class='instructions-image'>","","instructions","","","","","","","","","","","","","",""
"learning-instructions","59","634382","0.0-3.0-11.0-0.2","pilot_wm_v1","null","7","null","null","false","","","","","","","7950.300000011921","<p> For example, if you hear this series of beeps, you should report 4 as the password using the slider. </p>
            <p> After reporting a password for a chest, you should count the high beeps again starting from 0. </p>
            <p> Let's try practicing that now. </p>","","instructions","","","","","","","","","","","","","",""
"audio-button-response","60","642565","0.0-3.0-12.0-0.0-0.0","pilot_wm_v1","null","7","null","null","false","","","","","","","null","./assets/audio/beeps/practice_6.wav","null","","","","","","","","","","","","","","",""
"html-slider-response","61","646605","0.0-3.0-12.0-0.0-1.0","pilot_wm_v1","null","7","null","null","false","","","","","","","4035","<div style=""width:500px;"">
        <p>What is the password?</p>
        <img src='./assets/img/instructions/beep_chest.jpg' class='instructions-image'>","6","","","","","false","","","","50","0","6","","","",""
"comp-q","62","659336","0.0-3.0-12.0-0.0-2.0","pilot_wm_v1","null","7","null","null","false","","","","","","","8388.699999988079","<p>Correct! There were 6 high pitched beeps before you saw the chest. </p>","0","beep_answer","","","","","","","","","","","","","",""
"audio-button-response","63","667514","0.0-3.0-12.0-0.1-0.1","pilot_wm_v1","null","7","null","null","false","","","","","","","null","./assets/audio/beeps/practice_4.wav","null","","","","","","","","","","","","","","",""
"html-slider-response","64","670164","0.0-3.0-12.0-0.1-1.1","pilot_wm_v1","null","7","null","null","false","","","","","","","2646","<div style=""width:500px;"">
        <p>What is the password?</p>
        <img src='./assets/img/instructions/beep_chest.jpg' class='instructions-image'>","4","","","","","false","","","","50","0","4","","","",""
"comp-q","65","675600","0.0-3.0-12.0-0.1-2.1","pilot_wm_v1","null","7","null","null","false","","","","","","","1108.8999999761581","<p>Correct! There were 4 high pitched beeps before you saw the chest. </p>","0","beep_answer","","","","","","","","","","","","","",""
"learning-instructions","66","687827","0.0-3.0-13.0-0.0","pilot_wm_v1","null","7","null","null","false","","","","","","","1778.9000000357628","<p> Good job! In the real game we will not tell you if you entered the right password. </p>
            <p> Do your best, the treasure you earn from these chests will also give you extra bonus money. </p>","","instructions","","","","","","","","","","","","","",""
"learning-instructions","67","693920","0.0-3.0-15.0-0.0-0.0","pilot_wm_v1","null","7","null","null","false","","","","","","","836.5999999642372","<p> Now, you will practice a shortened version of the game to get a sense of how it all fits together. </p>","","instructions","","","","","","","","","","","","","",""
"learning-instructions","68","697944","0.0-3.0-15.0-0.0-0.1","pilot_wm_v1","null","7","null","null","false","","","","","","","845.3000000119209","<p>This time you are searching for treasure in outer space.</p>","","instructions","","","","","","","","","","","","","",""
"learning-instructions","69","714050","0.0-3.0-15.0-1.0-0.0","pilot_wm_v1","null","7","null","null","false","","","","","","","1362.1000000238419","<p> Remember, when you see a picture of the place, use the up and down keys to <b>find an animal</b>.</p>
            <p> When you encounter an animal, you should use the left and right keys to <b>select a treasure chest</b>.</p>
            <p> Don't forget to look out for the robber! </p>","","instructions","","","","","","","","","","","","","",""
"revaluation","70","720058","0.0-3.0-15.0-2.0-0.0","pilot_wm_v1","null","7","null","null","false","","false","","","","","[1539.5,652.1999999880791]","./assets/img/space/11.jpg","[""ArrowUp"",""ArrowRight""]","practice block","space","36","{""ArrowUp,ArrowLeft"":3,""ArrowUp,ArrowRight"":36,""ArrowDown,ArrowLeft"":15,""ArrowDown,ArrowRight"":23}","true","ArrowUp,ArrowRight","false","","","","","","","",""
"html-keyboard-response","71","720562","0.0-3.0-15.0-2.0-1.0","pilot_wm_v1","null","7","null","null","false","","","","","","","null","<div style=""font-size:60px;"">+</div>","null","fixation","","","","","","","","","","","","","",""
"revaluation","72","726570","0.0-3.0-15.0-2.0-0.1","pilot_wm_v1","null","7","null","null","false","","false","","","","","[1061.5999999642372,473.5999999642372]","./assets/img/space/12.jpg","[""ArrowUp"",""ArrowRight""]","practice block","space","36","{""ArrowUp,ArrowLeft"":3,""ArrowUp,ArrowRight"":36,""ArrowDown,ArrowLeft"":15,""ArrowDown,ArrowRight"":23}","true","ArrowUp,ArrowRight","false","","","","","","","",""
"html-keyboard-response","73","727073","0.0-3.0-15.0-2.0-1.1","pilot_wm_v1","null","7","null","null","false","","","","","","","null","<div style=""font-size:60px;"">+</div>","null","fixation","","","","","","","","","","","","","",""
"revaluation","74","733082","0.0-3.0-15.0-2.0-0.2","pilot_wm_v1","null","7","null","null","false","","false","","","","","[1282.800000011921,421.2999999523163]","./assets/img/space/13.jpg","[""ArrowUp"",""ArrowRight""]","practice block","space","36","{""ArrowUp,ArrowLeft"":3,""ArrowUp,ArrowRight"":36,""ArrowDown,ArrowLeft"":15,""ArrowDown,ArrowRight"":23}","true","ArrowUp,ArrowRight","false","","","","","","","",""
"html-keyboard-response","75","733585","0.0-3.0-15.0-2.0-1.2","pilot_wm_v1","null","7","null","null","false","","","","","","","null","<div style=""font-size:60px;"">+</div>","null","fixation","","","","","","","","","","","","","",""
"revaluation","76","739594","0.0-3.0-15.0-2.0-0.3","pilot_wm_v1","null","7","null","null","false","","false","","","","","[1277.199999988079,230]","./assets/img/space/14.jpg","[""ArrowUp"",""ArrowRight""]","practice block","space","36","{""ArrowUp,ArrowLeft"":3,""ArrowUp,ArrowRight"":36,""ArrowDown,ArrowLeft"":15,""ArrowDown,ArrowRight"":23}","true","ArrowUp,ArrowRight","false","","","","","","","",""
"html-keyboard-response","77","740097","0.0-3.0-15.0-2.0-1.3","pilot_wm_v1","null","7","null","null","false","","","","","","","null","<div style=""font-size:60px;"">+</div>","null","fixation","","","","","","","","","","","","","",""
"revaluation","78","746106","0.0-3.0-15.0-2.0-0.4","pilot_wm_v1","null","7","null","null","false","","false","","","","","[1756.300000011921,375.9000000357628]","./assets/img/space/11.jpg","[""ArrowUp"",""ArrowRight""]","practice block","space","36","{""ArrowUp,ArrowLeft"":3,""ArrowUp,ArrowRight"":36,""ArrowDown,ArrowLeft"":15,""ArrowDown,ArrowRight"":23}","true","ArrowUp,ArrowRight","false","","","","","","","",""
"html-keyboard-response","79","746608","0.0-3.0-15.0-2.0-1.4","pilot_wm_v1","null","7","null","null","false","","","","","","","null","<div style=""font-size:60px;"">+</div>","null","fixation","","","","","","","","","","","","","",""
"revaluation","80","752617","0.0-3.0-15.0-2.0-0.5","pilot_wm_v1","null","7","null","null","false","","false","","","","","[1122.8999999761581,308.7999999523163]","./assets/img/space/12.jpg","[""ArrowUp"",""ArrowRight""]","practice block","space","36","{""ArrowUp,ArrowLeft"":3,""ArrowUp,ArrowRight"":36,""ArrowDown,ArrowLeft"":15,""ArrowDown,ArrowRight"":23}","true","ArrowUp,ArrowRight","false","","","","","","","",""
"html-keyboard-response","81","753120","0.0-3.0-15.0-2.0-1.5","pilot_wm_v1","null","7","null","null","false","","","","","","","null","<div style=""font-size:60px;"">+</div>","null","fixation","","","","","","","","","","","","","",""
"revaluation","82","759129","0.0-3.0-15.0-2.0-0.6","pilot_wm_v1","null","7","null","null","false","","false","","","","","[1154.1000000238419,283]","./assets/img/space/13.jpg","[""ArrowUp"",""ArrowRight""]","practice block","space","36","{""ArrowUp,ArrowLeft"":3,""ArrowUp,ArrowRight"":36,""ArrowDown,ArrowLeft"":15,""ArrowDown,ArrowRight"":23}","true","ArrowUp,ArrowRight","false","","","","","","","",""
"html-keyboard-response","83","759632","0.0-3.0-15.0-2.0-1.6","pilot_wm_v1","null","7","null","null","false","","","","","","","null","<div style=""font-size:60px;"">+</div>","null","fixation","","","","","","","","","","","","","",""
"revaluation","84","765642","0.0-3.0-15.0-2.0-0.7","pilot_wm_v1","null","7","null","null","false","","false","","","","","[1034.5999999642372,447.0999999642372]","./assets/img/space/14.jpg","[""ArrowUp"",""ArrowRight""]","practice block","space","36","{""ArrowUp,ArrowLeft"":3,""ArrowUp,ArrowRight"":36,""ArrowDown,ArrowLeft"":15,""ArrowDown,ArrowRight"":23}","true","ArrowUp,ArrowRight","false","","","","","","","",""
"html-keyboard-response","85","766144","0.0-3.0-15.0-2.0-1.7","pilot_wm_v1","null","7","null","null","false","","","","","","","null","<div style=""font-size:60px;"">+</div>","null","fixation","","","","","","","","","","","","","",""
"revaluation","86","770151","0.0-3.0-15.0-2.0-0.8","pilot_wm_v1","null","7","null","null","false","","false","","","","","[770.6000000238419]","./assets/img/space/catch/3.jpg","[""spaceBar""]","practice block","space","0","{""ArrowUp,ArrowLeft"":3,""ArrowUp,ArrowRight"":36,""ArrowDown,ArrowLeft"":15,""ArrowDown,ArrowRight"":23}","true","spaceBar","true","","","","","","","",""
"html-keyboard-response","87","770654","0.0-3.0-15.0-2.0-1.8","pilot_wm_v1","null","7","null","null","false","","","","","","","null","<div style=""font-size:60px;"">+</div>","null","fixation","","","","","","","","","","","","","",""
"learning-instructions","88","789211","0.0-3.0-15.0-3.0-0.0","pilot_wm_v1","null","7","null","null","false","","","","","","","5633.300000011921","<p> Now, you will travel with a friend who will choose whether you go up or down first. </p>
            <p> On these turns, you will just see the animal that they found. You will still get to choose which chest to search for treasure.</p>","","instructions","","","","","","","","","","","","","",""
"learning-instructions","89","801708","0.0-3.0-15.0-3.0-0.1","pilot_wm_v1","null","7","null","null","false","","","","","","","743.1000000238419","<p> In this part, you will also hear beeps from your friend and see special treasure chests that need a password. </p>
            <p> Do your best to count the high beeps <b>and</b> choose between each animals' chests at the same time.</p>
            <img src='./assets/img/instructions/beep_chest.jpg' class='instructions-image'>","","instructions","","","","","","","","","","","","","",""
"revaluation","90","805714","0.0-3.0-15.0-4.0-0.0","pilot_wm_v1","null","7","null","null","false","","false","","","","","[1320.1000000238419]","./assets/img/space/animals/cat.jpg","[""ArrowRight""]","practice block","space","36","{""ArrowUp,ArrowLeft"":3,""ArrowUp,ArrowRight"":36,""ArrowDown,ArrowLeft"":15,""ArrowDown,ArrowRight"":23}","true","ArrowUp,ArrowRight","","[""19_0""]","","","","0","","",""
"html-keyboard-response","91","806219","0.0-3.0-15.0-4.0-1.0","pilot_wm_v1","null","7","null","null","false","","","","","","","null","<div style=""font-size:60px;"">+</div>","null","fixation","","","","","","","","","","","","","",""
"revaluation","92","810226","0.0-3.0-15.0-4.0-0.1","pilot_wm_v1","null","7","null","null","false","","false","","","","","[1022.1999999880791]","./assets/img/space/animals/rabbit.jpg","[""ArrowRight""]","practice block","space","23","{""ArrowUp,ArrowLeft"":3,""ArrowUp,ArrowRight"":36,""ArrowDown,ArrowLeft"":15,""ArrowDown,ArrowRight"":23}","true","ArrowDown,ArrowRight","","[""21_1""]","","","","1","","",""
"html-keyboard-response","93","810729","0.0-3.0-15.0-4.0-1.1","pilot_wm_v1","null","7","null","null","false","","","","","","","null","<div style=""font-size:60px;"">+</div>","null","fixation","","","","","","","","","","","","","",""
"revaluation","94","814736","0.0-3.0-15.0-4.0-0.2","pilot_wm_v1","null","7","null","null","false","","false","","","","","[989.6000000238419]","./assets/img/space/animals/cat.jpg","[""ArrowRight""]","practice block","space","36","{""ArrowUp,ArrowLeft"":3,""ArrowUp,ArrowRight"":36,""ArrowDown,ArrowLeft"":15,""ArrowDown,ArrowRight"":23}","true","ArrowUp,ArrowRight","","[""20_0""]","","","","2","","",""
"html-keyboard-response","95","815239","0.0-3.0-15.0-4.0-1.2","pilot_wm_v1","null","7","null","null","false","","","","","","","null","<div style=""font-size:60px;"">+</div>","null","fixation","","","","","","","","","","","","","",""
"revaluation","96","819245","0.0-3.0-15.0-4.0-0.3","pilot_wm_v1","null","7","null","null","false","","false","","","","","[748.6999999880791]","./assets/img/space/animals/rabbit.jpg","[""ArrowRight""]","practice block","space","23","{""ArrowUp,ArrowLeft"":3,""ArrowUp,ArrowRight"":36,""ArrowDown,ArrowLeft"":15,""ArrowDown,ArrowRight"":23}","true","ArrowDown,ArrowRight","","[""22_3""]","","","","3","","",""
"html-keyboard-response","97","819748","0.0-3.0-15.0-4.0-1.3","pilot_wm_v1","null","7","null","null","false","","","","","","","null","<div style=""font-size:60px;"">+</div>","null","fixation","","","","","","","","","","","","","",""
"html-slider-response","98","822645","0.0-3.0-15.0-4.0-2.3-0.3","pilot_wm_v1","null","7","null","null","false","","","","","","","2895","<div style=""width:500px;"">
        <p>What is the password?</p>
        <img src='./assets/img/instructions/beep_chest.jpg' class='instructions-image'>","4","","","","","false","","","","50","82","78","","","",""
"learning-instructions","99","830764","0.0-3.0-15.0-6.0-0.0","pilot_wm_v1","null","7","null","null","false","","","","","","","null","<p> You have almost finished this part of the game! </p>
            <p> We are going to ask you to make a few more choices. </p>","","instructions","","","","","","","","","","","","","",""
"learning-instructions","100","846753","0.0-3.0-15.0-6.0-0.1","pilot_wm_v1","null","7","null","null","false","","","","","","","null","<p> First, you need to decide whether to go up or down. When you see each picture, use the arrow keys to make your choice. </p>
            <p><b>You will not see which animal you found, but try to get to the one that will give you the most treasure.</b></p>","","instructions","","","","","","","","","","","","","",""
"html-keyboard-response","101","847756","0.0-3.0-15.0-7.0-0.0","pilot_wm_v1","null","7","null","null","false","","","","","","","null","<div style=""font-size:100px;color:red;"">Starting in...</div>","null","","","","","","","","","","","","","","",""
"html-keyboard-response","102","848759","0.0-3.0-15.0-7.0-1.0","pilot_wm_v1","null","7","null","null","false","","","","","","","null","<div style=""font-size:200px;color:red;"">3</div>","null","","","","","","","","","","","","","","",""
"html-keyboard-response","103","849762","0.0-3.0-15.0-7.0-2.0","pilot_wm_v1","null","7","null","null","false","","","","","","","null","<div style=""font-size:200px;color:red;"">2</div>","null","","","","","","","","","","","","","","",""
"html-keyboard-response","104","850765","0.0-3.0-15.0-7.0-3.0","pilot_wm_v1","null","7","null","null","false","","","","","","","null","<div style=""font-size:200px;color:red;"">1</div>","null","","","","","","","","","","","","","","",""
"revaluation","105","851339","0.0-3.0-15.0-8.0","pilot_wm_v1","null","7","null","null","false","","false","","","","","[570.5]","./assets/img/space/15.jpg","[""ArrowUp""]","practice block","space","0","{""ArrowUp,ArrowLeft"":3,""ArrowUp,ArrowRight"":36,""ArrowDown,ArrowLeft"":15,""ArrowDown,ArrowRight"":23}","true","ArrowUp","false","","","","","","","",""
"html-keyboard-response","106","851840","0.0-3.0-15.0-9.0","pilot_wm_v1","null","7","null","null","false","","","","","","","null","<div style=""font-size:60px;"">+</div>","null","fixation","","","","","","","","","","","","","",""
"learning-instructions","107","865201","0.0-3.0-15.0-10.0-0.0","pilot_wm_v1","null","7","null","null","false","","","","","","","null","<p> Now you will see the animals again and can search their chests for treasure. </p>
            <p> This time, you will not see how much treasure you earned, but you will earn more bonus money for making better choices. </p>","","instructions","","","","","","","","","","","","","",""
"html-keyboard-response","108","866204","0.0-3.0-15.0-11.0-0.0","pilot_wm_v1","null","7","null","null","false","","","","","","","null","<div style=""font-size:100px;color:red;"">Starting in...</div>","null","","","","","","","","","","","","","","",""
"html-keyboard-response","109","867206","0.0-3.0-15.0-11.0-1.0","pilot_wm_v1","null","7","null","null","false","","","","","","","null","<div style=""font-size:200px;color:red;"">3</div>","null","","","","","","","","","","","","","","",""
"html-keyboard-response","110","868209","0.0-3.0-15.0-11.0-2.0","pilot_wm_v1","null","7","null","null","false","","","","","","","null","<div style=""font-size:200px;color:red;"">2</div>","null","","","","","","","","","","","","","","",""
"html-keyboard-response","111","869211","0.0-3.0-15.0-11.0-3.0","pilot_wm_v1","null","7","null","null","false","","","","","","","null","<div style=""font-size:200px;color:red;"">1</div>","null","","","","","","","","","","","","","","",""
"revaluation","112","869681","0.0-3.0-15.0-12.0-0.0","pilot_wm_v1","null","7","null","null","false","","false","","","","","[466.10000002384186]","./assets/img/space/animals/cat.jpg","[""ArrowRight""]","practice block","space","0","{""ArrowUp,ArrowLeft"":3,""ArrowUp,ArrowRight"":36,""ArrowDown,ArrowLeft"":15,""ArrowDown,ArrowRight"":23}","true","ArrowUp,ArrowRight","","","","","","","","",""
"html-keyboard-response","113","870182","0.0-3.0-15.0-12.0-1.0","pilot_wm_v1","null","7","null","null","false","","","","","","","null","<div style=""font-size:60px;"">+</div>","null","fixation","","","","","","","","","","","","","",""
"revaluation","114","870654","0.0-3.0-15.0-12.0-0.1","pilot_wm_v1","null","7","null","null","false","","false","","","","","[467.2000000476837]","./assets/img/space/animals/rabbit.jpg","[""ArrowRight""]","practice block","space","0","{""ArrowUp,ArrowLeft"":3,""ArrowUp,ArrowRight"":36,""ArrowDown,ArrowLeft"":15,""ArrowDown,ArrowRight"":23}","true","ArrowDown,ArrowRight","","","","","","","","",""
"html-keyboard-response","115","871155","0.0-3.0-15.0-12.0-1.1","pilot_wm_v1","null","7","null","null","false","","","","","","","null","<div style=""font-size:60px;"">+</div>","null","fixation","","","","","","","","","","","","","",""
"learning-instructions","116","876933","0.0-3.0-16.0-0.0","pilot_wm_v1","null","7","null","null","false","","","","","","","1209.9000000357628","<p> Before you start, we're going to ask you a few questions about how the game works. </p>","","instructions","","","","","","","","","","","","","",""
"comp-q","117","884443","0.0-3.0-17.0-0.0-0.0","pilot_wm_v1","null","7","null","null","false","","","","","","","1935.7999999523163","<p> <b> True or False? </b> </p>
            <p> There can be 50 pieces of treasure in a given animal's chest. </p>","1","comp_question","","","","true","","","","","","","","","",""
"comp-q","118","892492","0.0-3.0-17.0-0.0-1.0","pilot_wm_v1","null","7","null","null","false","","","","","","","1403.1000000238419","<p> <b> That's right! </b> The amount of treasure in each chest can range from 0 to 40 pieces. </p>","0","comp_answer","","","","","","","","","","","","","",""
"comp-q","119","900374","0.0-3.0-17.0-0.1-0.1","pilot_wm_v1","null","7","null","null","false","","","","","","","779.0999999642372","<p> <b> True or False? </b> </p><p> In this game, all animals have the same amount of treasure in their left and right chests. </p>","1","comp_question","","","","true","","","","","","","","","",""
"comp-q","120","906536","0.0-3.0-17.0-0.1-1.1","pilot_wm_v1","null","7","null","null","false","","","","","","","940.5","<p> <b> That's right! </b> Animals have different amounts of treasure in their treasure chests. </p>","0","comp_answer","","","","","","","","","","","","","",""
"comp-q","121","913198","0.0-3.0-17.0-0.2-0.2","pilot_wm_v1","null","7","null","null","false","","","","","","","829.5999999642372","<p> <b> True or False? </b> </p><p> The same animal will always be there if you go up in the same place. </p>","0","comp_question","","","","true","","","","","","","","","",""
"comp-q","122","920935","0.0-3.0-17.0-0.2-1.2","pilot_wm_v1","null","7","null","null","false","","","","","","","1307.3999999761581","<p> <b> That's right! </b> One animal lives in the upper part and one lives in the lower part of every place. </p>","0","comp_answer","","","","","","","","","","","","","",""
"comp-q","123","929695","0.0-3.0-17.0-0.3-0.3","pilot_wm_v1","null","7","null","null","false","","","","","","","3246","<p> <b> True or False? </b> </p><p> If you see a different picture, it means you are in a new place. </p>","1","comp_question","","","","true","","","","","","","","","",""
"comp-q","124","951907","0.0-3.0-17.0-0.3-1.3","pilot_wm_v1","null","7","null","null","false","","","","","","","11004.899999976158","<p> <b> That's right! </b> Lots of different images may show the same place. For example,  you may see three different images that all remind you that you are in outer space. </p>","0","comp_answer","","","","","","","","","","","","","",""
"learning-instructions","125","963771","0.0-3.0-18.0-0.0","pilot_wm_v1","null","7","null","null","false","","","","","","","2026.300000011921","<p> Good job. Remember to do your best because the amount of treasure you earn will be converted into bonus money. </p>
            <p> It’s time to start the real game! </p>","","instructions","","","","","","","","","","","","","",""
"learning-instructions","126","967320","0.0-4.0-0.0-0.0","pilot_wm_v1","null","7","null","null","false","","","","","","","849.8000000119209","<p> This time you are searching for treasure in the <b>ocean</b>.</p>","","instructions","","","","","","","","","","","","","",""
"learning-instructions","127","985609","0.0-4.0-0.0-0.1","pilot_wm_v1","null","7","null","null","false","","","","","","","1015.8000000119209","<p><b>New</b> animals with <b>new</b> treasure chests live here. You need to explore to discover where the animal with the best treasure chest is.</p>
                    <p> Like before, once you figure out which animal has the chest with the most treasure, you should try to get to that animal and select that chest! </p>","","instructions","","","","","","","","","","","","","",""
"learning-instructions","128","1001536","0.0-4.0-1.0-0.0","pilot_wm_v1","null","7","null","null","false","","","","","","","1198.800000011921","<p> Remember, when you see a picture of the place, use the up and down keys to <b>find an animal</b>.</p>
            <p> When you encounter an animal, you should use the left and right keys to <b>select a treasure chest</b>.</p>
            <p> Don't forget to look out for the robber! </p>","","instructions","","","","","","","","","","","","","",""
"revaluation","129","1007544","0.0-4.0-2.0-0.0","pilot_wm_v1","null","7","null","null","false","","false","","","","","[1284.4000000357628,680.6999999880791]","./assets/img/ocean/memory/16.jpg","[""ArrowUp"",""ArrowRight""]","value training","ocean","10","{""ArrowUp,ArrowLeft"":23,""ArrowUp,ArrowRight"":10,""ArrowDown,ArrowLeft"":8,""ArrowDown,ArrowRight"":30}","false","ArrowUp,ArrowRight","false","","","","","0","original","1",""
"html-keyboard-response","130","1008050","0.0-4.0-2.0-1.0","pilot_wm_v1","null","7","null","null","false","","","","","","","null","<div style=""font-size:60px;"">+</div>","null","fixation","","","","","","","","","","","1","","",""
"revaluation","131","1014057","0.0-4.0-2.0-0.1","pilot_wm_v1","null","7","null","null","false","","false","","","","","[813.2999999523163,250.19999998807907]","./assets/img/ocean/memory/22.jpg","[""ArrowUp"",""ArrowLeft""]","value training","ocean","23","{""ArrowUp,ArrowLeft"":23,""ArrowUp,ArrowRight"":10,""ArrowDown,ArrowLeft"":8,""ArrowDown,ArrowRight"":30}","false","ArrowUp,ArrowLeft","false","","","","","2","original","1",""
"html-keyboard-response","132","1014560","0.0-4.0-2.0-1.1","pilot_wm_v1","null","7","null","null","false","","","","","","","null","<div style=""font-size:60px;"">+</div>","null","fixation","","","","","","","","","","","3","","",""
"revaluation","133","1020570","0.0-4.0-2.0-0.2","pilot_wm_v1","null","7","null","null","false","","false","","","","","[722.1000000238419,482.2000000476837]","./assets/img/ocean/memory/35.jpg","[""ArrowDown"",""ArrowLeft""]","value training","ocean","8","{""ArrowUp,ArrowLeft"":23,""ArrowUp,ArrowRight"":10,""ArrowDown,ArrowLeft"":8,""ArrowDown,ArrowRight"":30}","false","ArrowDown,ArrowLeft","false","","","","","4","original","1",""
"html-keyboard-response","134","1021074","0.0-4.0-2.0-1.2","pilot_wm_v1","null","7","null","null","false","","","","","","","null","<div style=""font-size:60px;"">+</div>","null","fixation","","","","","","","","","","","5","","",""
"revaluation","135","1027083","0.0-4.0-2.0-0.3","pilot_wm_v1","null","7","null","null","false","","false","","","","","[358.39999997615814,272.19999998807907]","./assets/img/ocean/memory/10.jpg","[""ArrowDown"",""ArrowRight""]","value training","ocean","30","{""ArrowUp,ArrowLeft"":23,""ArrowUp,ArrowRight"":10,""ArrowDown,ArrowLeft"":8,""ArrowDown,ArrowRight"":30}","true","ArrowDown,ArrowRight","false","","","","","6","original","1",""
"html-keyboard-response","136","1027585","0.0-4.0-2.0-1.3","pilot_wm_v1","null","7","null","null","false","","","","","","","null","<div style=""font-size:60px;"">+</div>","null","fixation","","","","","","","","","","","7","","",""
"revaluation","137","1031592","0.0-4.0-2.0-0.4","pilot_wm_v1","null","7","null","null","false","","false","","","","","[708.3999999761581]","./assets/img/ocean/catch/4.jpg","[""ArrowDown""]","value training","ocean","-10","{""ArrowUp,ArrowLeft"":23,""ArrowUp,ArrowRight"":10,""ArrowDown,ArrowLeft"":8,""ArrowDown,ArrowRight"":30}","false","ArrowDown","true","","","","","8","original","1",""
"html-keyboard-response","138","1032094","0.0-4.0-2.0-1.4","pilot_wm_v1","null","7","null","null","false","","","","","","","null","<div style=""font-size:60px;"">+</div>","null","fixation","","","","","","","","","","","9","","",""
"revaluation","139","1038103","0.0-4.0-2.0-0.5","pilot_wm_v1","null","7","null","null","false","","false","","","","","[885.1000000238419,377.30000001192093]","./assets/img/ocean/memory/14.jpg","[""ArrowDown"",""ArrowRight""]","value training","ocean","30","{""ArrowUp,ArrowLeft"":23,""ArrowUp,ArrowRight"":10,""ArrowDown,ArrowLeft"":8,""ArrowDown,ArrowRight"":30}","true","ArrowDown,ArrowRight","false","","","","","10","original","1",""
"html-keyboard-response","140","1038605","0.0-4.0-2.0-1.5","pilot_wm_v1","null","7","null","null","false","","","","","","","null","<div style=""font-size:60px;"">+</div>","null","fixation","","","","","","","","","","","11","","",""
"revaluation","141","1044614","0.0-4.0-2.0-0.6","pilot_wm_v1","null","7","null","null","false","","false","","","","","[607.6000000238419,311.7000000476837]","./assets/img/ocean/memory/29.jpg","[""ArrowDown"",""ArrowRight""]","value training","ocean","30","{""ArrowUp,ArrowLeft"":23,""ArrowUp,ArrowRight"":10,""ArrowDown,ArrowLeft"":8,""ArrowDown,ArrowRight"":30}","true","ArrowDown,ArrowRight","false","","","","","12","original","1",""
"html-keyboard-response","142","1045115","0.0-4.0-2.0-1.6","pilot_wm_v1","null","7","null","null","false","","","","","","","null","<div style=""font-size:60px;"">+</div>","null","fixation","","","","","","","","","","","13","","",""
"revaluation","143","1051124","0.0-4.0-2.0-0.7","pilot_wm_v1","null","7","null","null","false","","false","","","","","[796.1999999880791,382.30000001192093]","./assets/img/ocean/memory/36.jpg","[""ArrowDown"",""ArrowRight""]","value training","ocean","30","{""ArrowUp,ArrowLeft"":23,""ArrowUp,ArrowRight"":10,""ArrowDown,ArrowLeft"":8,""ArrowDown,ArrowRight"":30}","true","ArrowDown,ArrowRight","false","","","","","14","original","1",""
"html-keyboard-response","144","1051626","0.0-4.0-2.0-1.7","pilot_wm_v1","null","7","null","null","false","","","","","","","null","<div style=""font-size:60px;"">+</div>","null","fixation","","","","","","","","","","","15","","",""
"revaluation","145","1057634","0.0-4.0-2.0-0.8","pilot_wm_v1","null","7","null","null","false","","false","","","","","[1827.3999999761581,390.0999999642372]","./assets/img/ocean/memory/14.jpg","[""ArrowDown"",""ArrowRight""]","value training","ocean","30","{""ArrowUp,ArrowLeft"":23,""ArrowUp,ArrowRight"":10,""ArrowDown,ArrowLeft"":8,""ArrowDown,ArrowRight"":30}","true","ArrowDown,ArrowRight","false","","","","","16","original","1",""
"html-keyboard-response","146","1058136","0.0-4.0-2.0-1.8","pilot_wm_v1","null","7","null","null","false","","","","","","","null","<div style=""font-size:60px;"">+</div>","null","fixation","","","","","","","","","","","17","","",""
"revaluation","147","1064143","0.0-4.0-2.0-0.9","pilot_wm_v1","null","7","null","null","false","","false","","","","","[705.5,443.5]","./assets/img/ocean/memory/26.jpg","[""ArrowDown"",""ArrowRight""]","value training","ocean","30","{""ArrowUp,ArrowLeft"":23,""ArrowUp,ArrowRight"":10,""ArrowDown,ArrowLeft"":8,""ArrowDown,ArrowRight"":30}","true","ArrowDown,ArrowRight","false","","","","","18","original","1",""
"html-keyboard-response","148","1064646","0.0-4.0-2.0-1.9","pilot_wm_v1","null","7","null","null","false","","","","","","","null","<div style=""font-size:60px;"">+</div>","null","fixation","","","","","","","","","","","19","","",""
"revaluation","149","1070654","0.0-4.0-2.0-0.10","pilot_wm_v1","null","7","null","null","false","","false","","","","","[962.5999999642372,296.10000002384186]","./assets/img/ocean/memory/22.jpg","[""ArrowDown"",""ArrowRight""]","value training","ocean","30","{""ArrowUp,ArrowLeft"":23,""ArrowUp,ArrowRight"":10,""ArrowDown,ArrowLeft"":8,""ArrowDown,ArrowRight"":30}","true","ArrowDown,ArrowRight","false","","","","","20","original","1",""
"html-keyboard-response","150","1071157","0.0-4.0-2.0-1.10","pilot_wm_v1","null","7","null","null","false","","","","","","","null","<div style=""font-size:60px;"">+</div>","null","fixation","","","","","","","","","","","21","","",""
"revaluation","151","1077165","0.0-4.0-2.0-0.11","pilot_wm_v1","null","7","null","null","false","","false","","","","","[811.9000000357628,294.7000000476837]","./assets/img/ocean/memory/34.jpg","[""ArrowDown"",""ArrowRight""]","value training","ocean","30","{""ArrowUp,ArrowLeft"":23,""ArrowUp,ArrowRight"":10,""ArrowDown,ArrowLeft"":8,""ArrowDown,ArrowRight"":30}","true","ArrowDown,ArrowRight","false","","","","","22","original","1",""
"html-keyboard-response","152","1077668","0.0-4.0-2.0-1.11","pilot_wm_v1","null","7","null","null","false","","","","","","","null","<div style=""font-size:60px;"">+</div>","null","fixation","","","","","","","","","","","23","","",""
"revaluation","153","1083678","0.0-4.0-2.0-0.12","pilot_wm_v1","null","7","null","null","false","","false","","","","","[688.8000000119209,485.89999997615814]","./assets/img/ocean/memory/23.jpg","[""ArrowDown"",""ArrowRight""]","value training","ocean","30","{""ArrowUp,ArrowLeft"":23,""ArrowUp,ArrowRight"":10,""ArrowDown,ArrowLeft"":8,""ArrowDown,ArrowRight"":30}","true","ArrowDown,ArrowRight","false","","","","","24","original","1",""
"html-keyboard-response","154","1084181","0.0-4.0-2.0-1.12","pilot_wm_v1","null","7","null","null","false","","","","","","","null","<div style=""font-size:60px;"">+</div>","null","fixation","","","","","","","","","","","25","","",""
"revaluation","155","1088187","0.0-4.0-2.0-0.13","pilot_wm_v1","null","7","null","null","false","","false","","","","","[765.1999999880791]","./assets/img/ocean/catch/2.jpg","[""spaceBar""]","value training","ocean","0","{""ArrowUp,ArrowLeft"":23,""ArrowUp,ArrowRight"":10,""ArrowDown,ArrowLeft"":8,""ArrowDown,ArrowRight"":30}","true","spaceBar","true","","","","","26","original","1",""
"html-keyboard-response","156","1088690","0.0-4.0-2.0-1.13","pilot_wm_v1","null","7","null","null","false","","","","","","","null","<div style=""font-size:60px;"">+</div>","null","fixation","","","","","","","","","","","27","","",""
"revaluation","157","1094699","0.0-4.0-2.0-0.14","pilot_wm_v1","null","7","null","null","false","","false","","","","","[823.1000000238419,303.7999999523163]","./assets/img/ocean/memory/10.jpg","[""ArrowDown"",""ArrowRight""]","value training","ocean","30","{""ArrowUp,ArrowLeft"":23,""ArrowUp,ArrowRight"":10,""ArrowDown,ArrowLeft"":8,""ArrowDown,ArrowRight"":30}","true","ArrowDown,ArrowRight","false","","","","","28","original","1",""
"html-keyboard-response","158","1095201","0.0-4.0-2.0-1.14","pilot_wm_v1","null","7","null","null","false","","","","","","","null","<div style=""font-size:60px;"">+</div>","null","fixation","","","","","","","","","","","29","","",""
"revaluation","159","1099208","0.0-4.0-2.0-0.15","pilot_wm_v1","null","7","null","null","false","","false","","","","","[1382]","./assets/img/ocean/catch/7.jpg","[""spaceBar""]","value training","ocean","0","{""ArrowUp,ArrowLeft"":23,""ArrowUp,ArrowRight"":10,""ArrowDown,ArrowLeft"":8,""ArrowDown,ArrowRight"":30}","true","spaceBar","true","","","","","30","original","1",""
"html-keyboard-response","160","1099712","0.0-4.0-2.0-1.15","pilot_wm_v1","null","7","null","null","false","","","","","","","null","<div style=""font-size:60px;"">+</div>","null","fixation","","","","","","","","","","","31","","",""
"revaluation","161","1105719","0.0-4.0-2.0-0.16","pilot_wm_v1","null","7","null","null","false","","false","","","","","[1014.0999999642372,334]","./assets/img/ocean/memory/9.jpg","[""ArrowDown"",""ArrowRight""]","value training","ocean","30","{""ArrowUp,ArrowLeft"":23,""ArrowUp,ArrowRight"":10,""ArrowDown,ArrowLeft"":8,""ArrowDown,ArrowRight"":30}","true","ArrowDown,ArrowRight","false","","","","","32","original","1",""
"html-keyboard-response","162","1106222","0.0-4.0-2.0-1.16","pilot_wm_v1","null","7","null","null","false","","","","","","","null","<div style=""font-size:60px;"">+</div>","null","fixation","","","","","","","","","","","33","","",""
"revaluation","163","1112230","0.0-4.0-2.0-0.17","pilot_wm_v1","null","7","null","null","false","","false","","","","","[793.3000000119209,265.0999999642372]","./assets/img/ocean/memory/1.jpg","[""ArrowDown"",""ArrowRight""]","value training","ocean","30","{""ArrowUp,ArrowLeft"":23,""ArrowUp,ArrowRight"":10,""ArrowDown,ArrowLeft"":8,""ArrowDown,ArrowRight"":30}","true","ArrowDown,ArrowRight","false","","","","","34","original","1",""
"html-keyboard-response","164","1112732","0.0-4.0-2.0-1.17","pilot_wm_v1","null","7","null","null","false","","","","","","","null","<div style=""font-size:60px;"">+</div>","null","fixation","","","","","","","","","","","35","","",""
"revaluation","165","1118740","0.0-4.0-2.0-0.18","pilot_wm_v1","null","7","null","null","false","","false","","","","","[708.1999999880791,426.89999997615814]","./assets/img/ocean/memory/26.jpg","[""ArrowDown"",""ArrowRight""]","value training","ocean","30","{""ArrowUp,ArrowLeft"":23,""ArrowUp,ArrowRight"":10,""ArrowDown,ArrowLeft"":8,""ArrowDown,ArrowRight"":30}","true","ArrowDown,ArrowRight","false","","","","","36","original","1",""
"html-keyboard-response","166","1119242","0.0-4.0-2.0-1.18","pilot_wm_v1","null","7","null","null","false","","","","","","","null","<div style=""font-size:60px;"">+</div>","null","fixation","","","","","","","","","","","37","","",""
"revaluation","167","1123250","0.0-4.0-2.0-0.19","pilot_wm_v1","null","7","null","null","false","","false","","","","","[529.6999999880791]","./assets/img/ocean/catch/0.jpg","[""spaceBar""]","value training","ocean","0","{""ArrowUp,ArrowLeft"":23,""ArrowUp,ArrowRight"":10,""ArrowDown,ArrowLeft"":8,""ArrowDown,ArrowRight"":30}","true","spaceBar","true","","","","","38","original","1",""
"html-keyboard-response","168","1123753","0.0-4.0-2.0-1.19","pilot_wm_v1","null","7","null","null","false","","","","","","","null","<div style=""font-size:60px;"">+</div>","null","fixation","","","","","","","","","","","39","","",""
"revaluation","169","1129762","0.0-4.0-2.0-0.20","pilot_wm_v1","null","7","null","null","false","","false","","","","","[683.3000000119209,296.9000000357628]","./assets/img/ocean/memory/41.jpg","[""ArrowDown"",""ArrowRight""]","value training","ocean","30","{""ArrowUp,ArrowLeft"":23,""ArrowUp,ArrowRight"":10,""ArrowDown,ArrowLeft"":8,""ArrowDown,ArrowRight"":30}","true","ArrowDown,ArrowRight","false","","","","","40","original","1",""
"html-keyboard-response","170","1130265","0.0-4.0-2.0-1.20","pilot_wm_v1","null","7","null","null","false","","","","","","","null","<div style=""font-size:60px;"">+</div>","null","fixation","","","","","","","","","","","41","","",""
"revaluation","171","1136274","0.0-4.0-2.0-0.21","pilot_wm_v1","null","7","null","null","false","","false","","","","","[581,266.19999998807907]","./assets/img/ocean/memory/9.jpg","[""ArrowDown"",""ArrowRight""]","value training","ocean","30","{""ArrowUp,ArrowLeft"":23,""ArrowUp,ArrowRight"":10,""ArrowDown,ArrowLeft"":8,""ArrowDown,ArrowRight"":30}","true","ArrowDown,ArrowRight","false","","","","","42","original","1",""
"html-keyboard-response","172","1136777","0.0-4.0-2.0-1.21","pilot_wm_v1","null","7","null","null","false","","","","","","","null","<div style=""font-size:60px;"">+</div>","null","fixation","","","","","","","","","","","43","","",""
"revaluation","173","1140783","0.0-4.0-2.0-0.22","pilot_wm_v1","null","7","null","null","false","","false","","","","","[715.8999999761581]","./assets/img/ocean/catch/1.jpg","[""spaceBar""]","value training","ocean","0","{""ArrowUp,ArrowLeft"":23,""ArrowUp,ArrowRight"":10,""ArrowDown,ArrowLeft"":8,""ArrowDown,ArrowRight"":30}","true","spaceBar","true","","","","","44","original","1",""
"html-keyboard-response","174","1141286","0.0-4.0-2.0-1.22","pilot_wm_v1","null","7","null","null","false","","","","","","","null","<div style=""font-size:60px;"">+</div>","null","fixation","","","","","","","","","","","45","","",""
"revaluation","175","1147294","0.0-4.0-2.0-0.23","pilot_wm_v1","null","7","null","null","false","","false","","","","","[1022.6999999880791,260.60000002384186]","./assets/img/ocean/memory/20.jpg","[""ArrowDown"",""ArrowRight""]","value training","ocean","30","{""ArrowUp,ArrowLeft"":23,""ArrowUp,ArrowRight"":10,""ArrowDown,ArrowLeft"":8,""ArrowDown,ArrowRight"":30}","true","ArrowDown,ArrowRight","false","","","","","46","original","1",""
"html-keyboard-response","176","1147797","0.0-4.0-2.0-1.23","pilot_wm_v1","null","7","null","null","false","","","","","","","null","<div style=""font-size:60px;"">+</div>","null","fixation","","","","","","","","","","","47","","",""
"revaluation","177","1151803","0.0-4.0-2.0-0.24","pilot_wm_v1","null","7","null","null","false","","false","","","","","[640.5]","./assets/img/ocean/catch/3.jpg","[""spaceBar""]","value training","ocean","0","{""ArrowUp,ArrowLeft"":23,""ArrowUp,ArrowRight"":10,""ArrowDown,ArrowLeft"":8,""ArrowDown,ArrowRight"":30}","true","spaceBar","true","","","","","48","original","1",""
"html-keyboard-response","178","1152306","0.0-4.0-2.0-1.24","pilot_wm_v1","null","7","null","null","false","","","","","","","null","<div style=""font-size:60px;"">+</div>","null","fixation","","","","","","","","","","","49","","",""
"revaluation","179","1158313","0.0-4.0-2.0-0.25","pilot_wm_v1","null","7","null","null","false","","false","","","","","[612.8000000119209,239.4000000357628]","./assets/img/ocean/memory/29.jpg","[""ArrowDown"",""ArrowRight""]","value training","ocean","30","{""ArrowUp,ArrowLeft"":23,""ArrowUp,ArrowRight"":10,""ArrowDown,ArrowLeft"":8,""ArrowDown,ArrowRight"":30}","true","ArrowDown,ArrowRight","false","","","","","50","original","1",""
"html-keyboard-response","180","1158816","0.0-4.0-2.0-1.25","pilot_wm_v1","null","7","null","null","false","","","","","","","null","<div style=""font-size:60px;"">+</div>","null","fixation","","","","","","","","","","","51","","",""
"revaluation","181","1164824","0.0-4.0-2.0-0.26","pilot_wm_v1","null","7","null","null","false","","false","","","","","[646.1000000238419,232.39999997615814]","./assets/img/ocean/memory/20.jpg","[""ArrowDown"",""ArrowRight""]","value training","ocean","30","{""ArrowUp,ArrowLeft"":23,""ArrowUp,ArrowRight"":10,""ArrowDown,ArrowLeft"":8,""ArrowDown,ArrowRight"":30}","true","ArrowDown,ArrowRight","false","","","","","52","original","1",""
"html-keyboard-response","182","1165327","0.0-4.0-2.0-1.26","pilot_wm_v1","null","7","null","null","false","","","","","","","null","<div style=""font-size:60px;"">+</div>","null","fixation","","","","","","","","","","","53","","",""
"revaluation","183","1171337","0.0-4.0-2.0-0.27","pilot_wm_v1","null","7","null","null","false","","false","","","","","[759.3999999761581,350.80000001192093]","./assets/img/ocean/memory/15.jpg","[""ArrowDown"",""ArrowRight""]","value training","ocean","30","{""ArrowUp,ArrowLeft"":23,""ArrowUp,ArrowRight"":10,""ArrowDown,ArrowLeft"":8,""ArrowDown,ArrowRight"":30}","true","ArrowDown,ArrowRight","false","","","","","54","original","1",""
"html-keyboard-response","184","1171839","0.0-4.0-2.0-1.27","pilot_wm_v1","null","7","null","null","false","","","","","","","null","<div style=""font-size:60px;"">+</div>","null","fixation","","","","","","","","","","","55","","",""
"revaluation","185","1177848","0.0-4.0-2.0-0.28","pilot_wm_v1","null","7","null","null","false","","false","","","","","[507,398.4000000357628]","./assets/img/ocean/memory/33.jpg","[""ArrowDown"",""ArrowRight""]","value training","ocean","30","{""ArrowUp,ArrowLeft"":23,""ArrowUp,ArrowRight"":10,""ArrowDown,ArrowLeft"":8,""ArrowDown,ArrowRight"":30}","true","ArrowDown,ArrowRight","false","","","","","56","original","1",""
"html-keyboard-response","186","1178350","0.0-4.0-2.0-1.28","pilot_wm_v1","null","7","null","null","false","","","","","","","null","<div style=""font-size:60px;"">+</div>","null","fixation","","","","","","","","","","","57","","",""
"revaluation","187","1184359","0.0-4.0-2.0-0.29","pilot_wm_v1","null","7","null","null","false","","false","","","","","[1181.800000011921,251.30000001192093]","./assets/img/ocean/memory/0.jpg","[""ArrowDown"",""ArrowRight""]","value training","ocean","30","{""ArrowUp,ArrowLeft"":23,""ArrowUp,ArrowRight"":10,""ArrowDown,ArrowLeft"":8,""ArrowDown,ArrowRight"":30}","true","ArrowDown,ArrowRight","false","","","","","58","original","1",""
"html-keyboard-response","188","1184862","0.0-4.0-2.0-1.29","pilot_wm_v1","null","7","null","null","false","","","","","","","null","<div style=""font-size:60px;"">+</div>","null","fixation","","","","","","","","","","","59","","",""
"revaluation","189","1190870","0.0-4.0-2.0-0.30","pilot_wm_v1","null","7","null","null","false","","false","","","","","[454.60000002384186,393.89999997615814]","./assets/img/ocean/memory/16.jpg","[""ArrowDown"",""ArrowRight""]","value training","ocean","30","{""ArrowUp,ArrowLeft"":23,""ArrowUp,ArrowRight"":10,""ArrowDown,ArrowLeft"":8,""ArrowDown,ArrowRight"":30}","true","ArrowDown,ArrowRight","false","","","","","60","original","1",""
"html-keyboard-response","190","1191373","0.0-4.0-2.0-1.30","pilot_wm_v1","null","7","null","null","false","","","","","","","null","<div style=""font-size:60px;"">+</div>","null","fixation","","","","","","","","","","","61","","",""
"revaluation","191","1195379","0.0-4.0-2.0-0.31","pilot_wm_v1","null","7","null","null","false","","false","","","","","[1111.199999988079]","./assets/img/ocean/catch/5.jpg","[""spaceBar""]","value training","ocean","0","{""ArrowUp,ArrowLeft"":23,""ArrowUp,ArrowRight"":10,""ArrowDown,ArrowLeft"":8,""ArrowDown,ArrowRight"":30}","true","spaceBar","true","","","","","62","original","1",""
"html-keyboard-response","192","1195882","0.0-4.0-2.0-1.31","pilot_wm_v1","null","7","null","null","false","","","","","","","null","<div style=""font-size:60px;"">+</div>","null","fixation","","","","","","","","","","","63","","",""
"revaluation","193","1201892","0.0-4.0-2.0-0.32","pilot_wm_v1","null","7","null","null","false","","false","","","","","[621,329.69999998807907]","./assets/img/ocean/memory/6.jpg","[""ArrowDown"",""ArrowRight""]","value training","ocean","30","{""ArrowUp,ArrowLeft"":23,""ArrowUp,ArrowRight"":10,""ArrowDown,ArrowLeft"":8,""ArrowDown,ArrowRight"":30}","true","ArrowDown,ArrowRight","false","","","","","64","original","1",""
"html-keyboard-response","194","1202394","0.0-4.0-2.0-1.32","pilot_wm_v1","null","7","null","null","false","","","","","","","null","<div style=""font-size:60px;"">+</div>","null","fixation","","","","","","","","","","","65","","",""
"revaluation","195","1208404","0.0-4.0-2.0-0.33","pilot_wm_v1","null","7","null","null","false","","false","","","","","[1023.1000000238419,873.1999999880791]","./assets/img/ocean/memory/0.jpg","[""ArrowDown"",""ArrowRight""]","value training","ocean","30","{""ArrowUp,ArrowLeft"":23,""ArrowUp,ArrowRight"":10,""ArrowDown,ArrowLeft"":8,""ArrowDown,ArrowRight"":30}","true","ArrowDown,ArrowRight","false","","","","","66","original","1",""
"html-keyboard-response","196","1208906","0.0-4.0-2.0-1.33","pilot_wm_v1","null","7","null","null","false","","","","","","","null","<div style=""font-size:60px;"">+</div>","null","fixation","","","","","","","","","","","67","","",""
"revaluation","197","1214915","0.0-4.0-2.0-0.34","pilot_wm_v1","null","7","null","null","false","","false","","","","","[481,100.79999995231628]","./assets/img/ocean/memory/34.jpg","[""ArrowDown"",""ArrowRight""]","value training","ocean","30","{""ArrowUp,ArrowLeft"":23,""ArrowUp,ArrowRight"":10,""ArrowDown,ArrowLeft"":8,""ArrowDown,ArrowRight"":30}","true","ArrowDown,ArrowRight","false","","","","","68","original","1",""
"html-keyboard-response","198","1215418","0.0-4.0-2.0-1.34","pilot_wm_v1","null","7","null","null","false","","","","","","","null","<div style=""font-size:60px;"">+</div>","null","fixation","","","","","","","","","","","69","","",""
"revaluation","199","1221426","0.0-4.0-2.0-0.35","pilot_wm_v1","null","7","null","null","false","","false","","","","","[1498.7999999523163,312.7999999523163]","./assets/img/ocean/memory/24.jpg","[""ArrowDown"",""ArrowRight""]","value training","ocean","30","{""ArrowUp,ArrowLeft"":23,""ArrowUp,ArrowRight"":10,""ArrowDown,ArrowLeft"":8,""ArrowDown,ArrowRight"":30}","true","ArrowDown,ArrowRight","false","","","","","70","original","1",""
"html-keyboard-response","200","1221929","0.0-4.0-2.0-1.35","pilot_wm_v1","null","7","null","null","false","","","","","","","null","<div style=""font-size:60px;"">+</div>","null","fixation","","","","","","","","","","","71","","",""
"revaluation","201","1227938","0.0-4.0-2.0-0.36","pilot_wm_v1","null","7","null","null","false","","false","","","","","[506,276.39999997615814]","./assets/img/ocean/memory/36.jpg","[""ArrowDown"",""ArrowRight""]","value training","ocean","30","{""ArrowUp,ArrowLeft"":23,""ArrowUp,ArrowRight"":10,""ArrowDown,ArrowLeft"":8,""ArrowDown,ArrowRight"":30}","true","ArrowDown,ArrowRight","false","","","","","72","original","1",""
"html-keyboard-response","202","1228440","0.0-4.0-2.0-1.36","pilot_wm_v1","null","7","null","null","false","","","","","","","null","<div style=""font-size:60px;"">+</div>","null","fixation","","","","","","","","","","","73","","",""
"revaluation","203","1234448","0.0-4.0-2.0-0.37","pilot_wm_v1","null","7","null","null","false","","false","","","","","[1224.800000011921,632.8000000119209]","./assets/img/ocean/memory/25.jpg","[""ArrowDown"",""ArrowRight""]","value training","ocean","30","{""ArrowUp,ArrowLeft"":23,""ArrowUp,ArrowRight"":10,""ArrowDown,ArrowLeft"":8,""ArrowDown,ArrowRight"":30}","true","ArrowDown,ArrowRight","false","","","","","74","original","1",""
"html-keyboard-response","204","1234951","0.0-4.0-2.0-1.37","pilot_wm_v1","null","7","null","null","false","","","","","","","null","<div style=""font-size:60px;"">+</div>","null","fixation","","","","","","","","","","","75","","",""
"revaluation","205","1240958","0.0-4.0-2.0-0.38","pilot_wm_v1","null","7","null","null","false","","false","","","","","[436.0999999642372,323.69999998807907]","./assets/img/ocean/memory/13.jpg","[""ArrowDown"",""ArrowRight""]","value training","ocean","30","{""ArrowUp,ArrowLeft"":23,""ArrowUp,ArrowRight"":10,""ArrowDown,ArrowLeft"":8,""ArrowDown,ArrowRight"":30}","true","ArrowDown,ArrowRight","false","","","","","76","original","1",""
"html-keyboard-response","206","1241461","0.0-4.0-2.0-1.38","pilot_wm_v1","null","7","null","null","false","","","","","","","null","<div style=""font-size:60px;"">+</div>","null","fixation","","","","","","","","","","","77","","",""
"revaluation","207","1247470","0.0-4.0-2.0-0.39","pilot_wm_v1","null","7","null","null","false","","false","","","","","[469.9000000357628,294.80000001192093]","./assets/img/ocean/memory/41.jpg","[""ArrowDown"",""ArrowRight""]","value training","ocean","30","{""ArrowUp,ArrowLeft"":23,""ArrowUp,ArrowRight"":10,""ArrowDown,ArrowLeft"":8,""ArrowDown,ArrowRight"":30}","true","ArrowDown,ArrowRight","false","","","","","78","original","1",""
"html-keyboard-response","208","1247973","0.0-4.0-2.0-1.39","pilot_wm_v1","null","7","null","null","false","","","","","","","null","<div style=""font-size:60px;"">+</div>","null","fixation","","","","","","","","","","","79","","",""
"revaluation","209","1253982","0.0-4.0-2.0-0.40","pilot_wm_v1","null","7","null","null","false","","false","","","","","[455.10000002384186,259.5]","./assets/img/ocean/memory/6.jpg","[""ArrowDown"",""ArrowRight""]","value training","ocean","30","{""ArrowUp,ArrowLeft"":23,""ArrowUp,ArrowRight"":10,""ArrowDown,ArrowLeft"":8,""ArrowDown,ArrowRight"":30}","true","ArrowDown,ArrowRight","false","","","","","80","original","1",""
"html-keyboard-response","210","1254485","0.0-4.0-2.0-1.40","pilot_wm_v1","null","7","null","null","false","","","","","","","null","<div style=""font-size:60px;"">+</div>","null","fixation","","","","","","","","","","","81","","",""
"revaluation","211","1260494","0.0-4.0-2.0-0.41","pilot_wm_v1","null","7","null","null","false","","false","","","","","[444.19999998807907,258]","./assets/img/ocean/memory/1.jpg","[""ArrowDown"",""ArrowRight""]","value training","ocean","30","{""ArrowUp,ArrowLeft"":23,""ArrowUp,ArrowRight"":10,""ArrowDown,ArrowLeft"":8,""ArrowDown,ArrowRight"":30}","true","ArrowDown,ArrowRight","false","","","","","82","original","1",""
"html-keyboard-response","212","1260997","0.0-4.0-2.0-1.41","pilot_wm_v1","null","7","null","null","false","","","","","","","null","<div style=""font-size:60px;"">+</div>","null","fixation","","","","","","","","","","","83","","",""
"revaluation","213","1267005","0.0-4.0-2.0-0.42","pilot_wm_v1","null","7","null","null","false","","false","","","","","[686.6000000238419,243.39999997615814]","./assets/img/ocean/memory/13.jpg","[""ArrowDown"",""ArrowRight""]","value training","ocean","30","{""ArrowUp,ArrowLeft"":23,""ArrowUp,ArrowRight"":10,""ArrowDown,ArrowLeft"":8,""ArrowDown,ArrowRight"":30}","true","ArrowDown,ArrowRight","false","","","","","84","original","1",""
"html-keyboard-response","214","1267508","0.0-4.0-2.0-1.42","pilot_wm_v1","null","7","null","null","false","","","","","","","null","<div style=""font-size:60px;"">+</div>","null","fixation","","","","","","","","","","","85","","",""
"revaluation","215","1273517","0.0-4.0-2.0-0.43","pilot_wm_v1","null","7","null","null","false","","false","","","","","[684.9000000357628,238.19999998807907]","./assets/img/ocean/memory/25.jpg","[""ArrowDown"",""ArrowRight""]","value training","ocean","30","{""ArrowUp,ArrowLeft"":23,""ArrowUp,ArrowRight"":10,""ArrowDown,ArrowLeft"":8,""ArrowDown,ArrowRight"":30}","true","ArrowDown,ArrowRight","false","","","","","86","original","1",""
"html-keyboard-response","216","1274020","0.0-4.0-2.0-1.43","pilot_wm_v1","null","7","null","null","false","","","","","","","null","<div style=""font-size:60px;"">+</div>","null","fixation","","","","","","","","","","","87","","",""
"revaluation","217","1280028","0.0-4.0-2.0-0.44","pilot_wm_v1","null","7","null","null","false","","false","","","","","[1166.3999999761581,358]","./assets/img/ocean/memory/35.jpg","[""ArrowDown"",""ArrowRight""]","value training","ocean","30","{""ArrowUp,ArrowLeft"":23,""ArrowUp,ArrowRight"":10,""ArrowDown,ArrowLeft"":8,""ArrowDown,ArrowRight"":30}","true","ArrowDown,ArrowRight","false","","","","","88","original","1",""
"html-keyboard-response","218","1280532","0.0-4.0-2.0-1.44","pilot_wm_v1","null","7","null","null","false","","","","","","","null","<div style=""font-size:60px;"">+</div>","null","fixation","","","","","","","","","","","89","","",""
"revaluation","219","1286539","0.0-4.0-2.0-0.45","pilot_wm_v1","null","7","null","null","false","","false","","","","","[1004.7999999523163,357.39999997615814]","./assets/img/ocean/memory/23.jpg","[""ArrowDown"",""ArrowRight""]","value training","ocean","30","{""ArrowUp,ArrowLeft"":23,""ArrowUp,ArrowRight"":10,""ArrowDown,ArrowLeft"":8,""ArrowDown,ArrowRight"":30}","true","ArrowDown,ArrowRight","false","","","","","90","original","1",""
"html-keyboard-response","220","1287042","0.0-4.0-2.0-1.45","pilot_wm_v1","null","7","null","null","false","","","","","","","null","<div style=""font-size:60px;"">+</div>","null","fixation","","","","","","","","","","","91","","",""
"revaluation","221","1293051","0.0-4.0-2.0-0.46","pilot_wm_v1","null","7","null","null","false","","false","","","","","[746.8999999761581,549.1999999880791]","./assets/img/ocean/memory/15.jpg","[""ArrowDown"",""ArrowRight""]","value training","ocean","30","{""ArrowUp,ArrowLeft"":23,""ArrowUp,ArrowRight"":10,""ArrowDown,ArrowLeft"":8,""ArrowDown,ArrowRight"":30}","true","ArrowDown,ArrowRight","false","","","","","92","original","1",""
"html-keyboard-response","222","1293552","0.0-4.0-2.0-1.46","pilot_wm_v1","null","7","null","null","false","","","","","","","null","<div style=""font-size:60px;"">+</div>","null","fixation","","","","","","","","","","","93","","",""
"revaluation","223","1299561","0.0-4.0-2.0-0.47","pilot_wm_v1","null","7","null","null","false","","false","","","","","[768.5,263.10000002384186]","./assets/img/ocean/memory/33.jpg","[""ArrowDown"",""ArrowRight""]","value training","ocean","30","{""ArrowUp,ArrowLeft"":23,""ArrowUp,ArrowRight"":10,""ArrowDown,ArrowLeft"":8,""ArrowDown,ArrowRight"":30}","true","ArrowDown,ArrowRight","false","","","","","94","original","1",""
"html-keyboard-response","224","1300064","0.0-4.0-2.0-1.47","pilot_wm_v1","null","7","null","null","false","","","","","","","null","<div style=""font-size:60px;"">+</div>","null","fixation","","","","","","","","","","","95","","",""
"revaluation","225","1306072","0.0-4.0-2.0-0.48","pilot_wm_v1","null","7","null","null","false","","false","","","","","[971.9000000357628,691.1999999880791]","./assets/img/ocean/memory/24.jpg","[""ArrowDown"",""ArrowRight""]","value training","ocean","30","{""ArrowUp,ArrowLeft"":23,""ArrowUp,ArrowRight"":10,""ArrowDown,ArrowLeft"":8,""ArrowDown,ArrowRight"":30}","true","ArrowDown,ArrowRight","false","","","","","96","original","1",""
"html-keyboard-response","226","1306576","0.0-4.0-2.0-1.48","pilot_wm_v1","null","7","null","null","false","","","","","","","null","<div style=""font-size:60px;"">+</div>","null","fixation","","","","","","","","","","","97","","",""
"revaluation","227","1310582","0.0-4.0-2.0-0.49","pilot_wm_v1","null","7","null","null","false","","false","","","","","[890.3999999761581]","./assets/img/ocean/catch/6.jpg","[""spaceBar""]","value training","ocean","0","{""ArrowUp,ArrowLeft"":23,""ArrowUp,ArrowRight"":10,""ArrowDown,ArrowLeft"":8,""ArrowDown,ArrowRight"":30}","true","spaceBar","true","","","","","98","original","1",""
"html-keyboard-response","228","1311086","0.0-4.0-2.0-1.49","pilot_wm_v1","null","7","null","null","false","","","","","","","null","<div style=""font-size:60px;"">+</div>","null","fixation","","","","","","","","","","","99","","",""
"learning-instructions","229","1324713","0.0-4.0-3.0-0.0","pilot_wm_v1","null","7","null","null","false","","","","","","","713.6000000238419","<p> Now, you will travel with a friend who will choose whether you go up or down first. </p>
            <p> On these turns, you will just see the animal that they found. You will still get to choose which chest to search for treasure.</p>","","instructions","","","","","","","","","","","","","",""
"learning-instructions","230","1344497","0.0-4.0-3.0-0.1","pilot_wm_v1","null","7","null","null","false","","","","","","","8177.099999964237","<p> In this part, you will also hear beeps from your friend and see special treasure chests that need a password. </p>
            <p> Do your best to count the high beeps <b>and</b> choose between each animals' chests at the same time.</p>
            <img src='./assets/img/instructions/beep_chest.jpg' class='instructions-image'>","","instructions","","","","","","","","","","","","","",""
"revaluation","231","1348503","0.0-4.0-4.0-0.0","pilot_wm_v1","null","7","null","null","false","","false","","","","","[702.2000000476837]","./assets/img/ocean/animals/octopus.jpg","[""ArrowRight""]","revaluation","ocean","30","{""ArrowUp,ArrowLeft"":23,""ArrowUp,ArrowRight"":10,""ArrowDown,ArrowLeft"":8,""ArrowDown,ArrowRight"":30}","true","ArrowDown,ArrowRight","","18_0","","","","0","original","1",""
"html-keyboard-response","232","1349009","0.0-4.0-4.0-1.0","pilot_wm_v1","null","7","null","null","false","","","","","","","null","<div style=""font-size:60px;"">+</div>","null","fixation","","","","","","","","","","","","","",""
"revaluation","233","1353016","0.0-4.0-4.0-0.1","pilot_wm_v1","null","7","null","null","false","","false","","","","","[1010.2000000476837]","./assets/img/ocean/animals/seahorse.jpg","[""ArrowLeft""]","revaluation","ocean","23","{""ArrowUp,ArrowLeft"":23,""ArrowUp,ArrowRight"":10,""ArrowDown,ArrowLeft"":8,""ArrowDown,ArrowRight"":30}","true","ArrowUp,ArrowLeft","","8_2","","","","1","original","1",""
"html-keyboard-response","234","1353518","0.0-4.0-4.0-1.1","pilot_wm_v1","null","7","null","null","false","","","","","","","null","<div style=""font-size:60px;"">+</div>","null","fixation","","","","","","","","","","","","","",""
"revaluation","235","1357525","0.0-4.0-4.0-0.2","pilot_wm_v1","null","7","null","null","false","","false","","","","","[687.5999999642372]","./assets/img/ocean/animals/octopus.jpg","[""ArrowRight""]","revaluation","ocean","30","{""ArrowUp,ArrowLeft"":23,""ArrowUp,ArrowRight"":10,""ArrowDown,ArrowLeft"":8,""ArrowDown,ArrowRight"":30}","true","ArrowDown,ArrowRight","","10_3","","","","2","original","1",""
"html-keyboard-response","236","1358028","0.0-4.0-4.0-1.2","pilot_wm_v1","null","7","null","null","false","","","","","","","null","<div style=""font-size:60px;"">+</div>","null","fixation","","","","","","","","","","","","","",""
"revaluation","237","1362035","0.0-4.0-4.0-0.3","pilot_wm_v1","null","7","null","null","false","","false","","","","","[807.5]","./assets/img/ocean/animals/seahorse.jpg","[""ArrowLeft""]","revaluation","ocean","23","{""ArrowUp,ArrowLeft"":23,""ArrowUp,ArrowRight"":10,""ArrowDown,ArrowLeft"":8,""ArrowDown,ArrowRight"":30}","true","ArrowUp,ArrowLeft","","5_4","","","","3","original","1",""
"html-keyboard-response","238","1362538","0.0-4.0-4.0-1.3","pilot_wm_v1","null","7","null","null","false","","","","","","","null","<div style=""font-size:60px;"">+</div>","null","fixation","","","","","","","","","","","","","",""
"html-slider-response","239","1365727","0.0-4.0-4.0-2.3-0.3","pilot_wm_v1","null","7","null","null","false","","","","","","","3187","<div style=""width:500px;"">
        <p>What is the password?</p>
        <img src='./assets/img/instructions/beep_chest.jpg' class='instructions-image'>","9","","","","","true","","","","50","9","0","","","",""
"revaluation","240","1369734","0.0-4.0-4.0-0.4","pilot_wm_v1","null","7","null","null","false","","false","","","","","[1510.800000011921]","./assets/img/ocean/animals/seahorse.jpg","[""ArrowLeft""]","revaluation","ocean","23","{""ArrowUp,ArrowLeft"":23,""ArrowUp,ArrowRight"":10,""ArrowDown,ArrowLeft"":8,""ArrowDown,ArrowRight"":30}","true","ArrowUp,ArrowLeft","","7_4","","","","4","original","1",""
"html-keyboard-response","241","1370237","0.0-4.0-4.0-1.4","pilot_wm_v1","null","7","null","null","false","","","","","","","null","<div style=""font-size:60px;"">+</div>","null","fixation","","","","","","","","","","","","","",""
"revaluation","242","1374245","0.0-4.0-4.0-0.5","pilot_wm_v1","null","7","null","null","false","","false","","","","","[539.8999999761581]","./assets/img/ocean/animals/octopus.jpg","[""ArrowRight""]","revaluation","ocean","30","{""ArrowUp,ArrowLeft"":23,""ArrowUp,ArrowRight"":10,""ArrowDown,ArrowLeft"":8,""ArrowDown,ArrowRight"":30}","true","ArrowDown,ArrowRight","","17_1","","","","5","original","1",""
"html-keyboard-response","243","1374747","0.0-4.0-4.0-1.5","pilot_wm_v1","null","7","null","null","false","","","","","","","null","<div style=""font-size:60px;"">+</div>","null","fixation","","","","","","","","","","","","","",""
"revaluation","244","1378754","0.0-4.0-4.0-0.6","pilot_wm_v1","null","7","null","null","false","","false","","","","","[789.8000000119209]","./assets/img/ocean/animals/octopus.jpg","[""ArrowRight""]","revaluation","ocean","30","{""ArrowUp,ArrowLeft"":23,""ArrowUp,ArrowRight"":10,""ArrowDown,ArrowLeft"":8,""ArrowDown,ArrowRight"":30}","true","ArrowDown,ArrowRight","","11_4","","","","6","original","1",""
"html-keyboard-response","245","1379257","0.0-4.0-4.0-1.6","pilot_wm_v1","null","7","null","null","false","","","","","","","null","<div style=""font-size:60px;"">+</div>","null","fixation","","","","","","","","","","","","","",""
"revaluation","246","1383264","0.0-4.0-4.0-0.7","pilot_wm_v1","null","7","null","null","false","","false","","","","","[525.1000000238419]","./assets/img/ocean/animals/octopus.jpg","[""ArrowRight""]","revaluation","ocean","30","{""ArrowUp,ArrowLeft"":23,""ArrowUp,ArrowRight"":10,""ArrowDown,ArrowLeft"":8,""ArrowDown,ArrowRight"":30}","true","ArrowDown,ArrowRight","","15_0","","","","7","original","1",""
"html-keyboard-response","247","1383766","0.0-4.0-4.0-1.7","pilot_wm_v1","null","7","null","null","false","","","","","","","null","<div style=""font-size:60px;"">+</div>","null","fixation","","","","","","","","","","","","","",""
"html-slider-response","248","1391547","0.0-4.0-4.0-2.7-0.7","pilot_wm_v1","null","7","null","null","false","","","","","","","7778","<div style=""width:500px;"">
        <p>What is the password?</p>
        <img src='./assets/img/instructions/beep_chest.jpg' class='instructions-image'>","9","","","","","true","","","","50","9","0","","","",""
"revaluation","249","1395552","0.0-4.0-4.0-0.8","pilot_wm_v1","null","7","null","null","false","","false","","","","","[764]","./assets/img/ocean/animals/octopus.jpg","[""ArrowRight""]","revaluation","ocean","30","{""ArrowUp,ArrowLeft"":23,""ArrowUp,ArrowRight"":10,""ArrowDown,ArrowLeft"":8,""ArrowDown,ArrowRight"":30}","true","ArrowDown,ArrowRight","","14_4","","","","8","original","1",""
"html-keyboard-response","250","1396054","0.0-4.0-4.0-1.8","pilot_wm_v1","null","7","null","null","false","","","","","","","null","<div style=""font-size:60px;"">+</div>","null","fixation","","","","","","","","","","","","","",""
"revaluation","251","1400061","0.0-4.0-4.0-0.9","pilot_wm_v1","null","7","null","null","false","","false","","","","","[667.6999999880791]","./assets/img/ocean/animals/seahorse.jpg","[""ArrowLeft""]","revaluation","ocean","23","{""ArrowUp,ArrowLeft"":23,""ArrowUp,ArrowRight"":10,""ArrowDown,ArrowLeft"":8,""ArrowDown,ArrowRight"":30}","true","ArrowUp,ArrowLeft","","3_0","","","","9","original","1",""
"html-keyboard-response","252","1400563","0.0-4.0-4.0-1.9","pilot_wm_v1","null","7","null","null","false","","","","","","","null","<div style=""font-size:60px;"">+</div>","null","fixation","","","","","","","","","","","","","",""
"revaluation","253","1404571","0.0-4.0-4.0-0.10","pilot_wm_v1","null","7","null","null","false","","false","","","","","[797.8999999761581]","./assets/img/ocean/animals/octopus.jpg","[""ArrowRight""]","revaluation","ocean","30","{""ArrowUp,ArrowLeft"":23,""ArrowUp,ArrowRight"":10,""ArrowDown,ArrowLeft"":8,""ArrowDown,ArrowRight"":30}","true","ArrowDown,ArrowRight","","12_2","","","","10","original","1",""
"html-keyboard-response","254","1405073","0.0-4.0-4.0-1.10","pilot_wm_v1","null","7","null","null","false","","","","","","","null","<div style=""font-size:60px;"">+</div>","null","fixation","","","","","","","","","","","","","",""
"revaluation","255","1409080","0.0-4.0-4.0-0.11","pilot_wm_v1","null","7","null","null","false","","false","","","","","[675.9000000357628]","./assets/img/ocean/animals/seahorse.jpg","[""ArrowLeft""]","revaluation","ocean","23","{""ArrowUp,ArrowLeft"":23,""ArrowUp,ArrowRight"":10,""ArrowDown,ArrowLeft"":8,""ArrowDown,ArrowRight"":30}","true","ArrowUp,ArrowLeft","","2_1","","","","11","original","1",""
"html-keyboard-response","256","1409583","0.0-4.0-4.0-1.11","pilot_wm_v1","null","7","null","null","false","","","","","","","null","<div style=""font-size:60px;"">+</div>","null","fixation","","","","","","","","","","","","","",""
"html-slider-response","257","1411588","0.0-4.0-4.0-2.11-0.11","pilot_wm_v1","null","7","null","null","false","","","","","","","2002","<div style=""width:500px;"">
        <p>What is the password?</p>
        <img src='./assets/img/instructions/beep_chest.jpg' class='instructions-image'>","7","","","","","true","","","","50","7","0","","","",""
"revaluation","258","1415594","0.0-4.0-4.0-0.12","pilot_wm_v1","null","7","null","null","false","","false","","","","","[1096.8999999761581]","./assets/img/ocean/animals/octopus.jpg","[""ArrowRight""]","revaluation","ocean","30","{""ArrowUp,ArrowLeft"":23,""ArrowUp,ArrowRight"":10,""ArrowDown,ArrowLeft"":8,""ArrowDown,ArrowRight"":30}","true","ArrowDown,ArrowRight","","16_0","","","","12","original","1",""
"html-keyboard-response","259","1416097","0.0-4.0-4.0-1.12","pilot_wm_v1","null","7","null","null","false","","","","","","","null","<div style=""font-size:60px;"">+</div>","null","fixation","","","","","","","","","","","","","",""
"revaluation","260","1420104","0.0-4.0-4.0-0.13","pilot_wm_v1","null","7","null","null","false","","false","","","","","[1016.5]","./assets/img/ocean/animals/octopus.jpg","[""ArrowRight""]","revaluation","ocean","30","{""ArrowUp,ArrowLeft"":23,""ArrowUp,ArrowRight"":10,""ArrowDown,ArrowLeft"":8,""ArrowDown,ArrowRight"":30}","true","ArrowDown,ArrowRight","","13_2","","","","13","original","1",""
"html-keyboard-response","261","1420607","0.0-4.0-4.0-1.13","pilot_wm_v1","null","7","null","null","false","","","","","","","null","<div style=""font-size:60px;"">+</div>","null","fixation","","","","","","","","","","","","","",""
"revaluation","262","1424614","0.0-4.0-4.0-0.14","pilot_wm_v1","null","7","null","null","false","","false","","","","","[615.0999999642372]","./assets/img/ocean/animals/seahorse.jpg","[""ArrowLeft""]","revaluation","ocean","23","{""ArrowUp,ArrowLeft"":23,""ArrowUp,ArrowRight"":10,""ArrowDown,ArrowLeft"":8,""ArrowDown,ArrowRight"":30}","true","ArrowUp,ArrowLeft","","4_0","","","","14","original","1",""
"html-keyboard-response","263","1425117","0.0-4.0-4.0-1.14","pilot_wm_v1","null","7","null","null","false","","","","","","","null","<div style=""font-size:60px;"">+</div>","null","fixation","","","","","","","","","","","","","",""
"revaluation","264","1429125","0.0-4.0-4.0-0.15","pilot_wm_v1","null","7","null","null","false","","false","","","","","[1030.3999999761581]","./assets/img/ocean/animals/seahorse.jpg","[""ArrowLeft""]","revaluation","ocean","23","{""ArrowUp,ArrowLeft"":23,""ArrowUp,ArrowRight"":10,""ArrowDown,ArrowLeft"":8,""ArrowDown,ArrowRight"":30}","true","ArrowUp,ArrowLeft","","6_3","","","","15","original","1",""
"html-keyboard-response","265","1429628","0.0-4.0-4.0-1.15","pilot_wm_v1","null","7","null","null","false","","","","","","","null","<div style=""font-size:60px;"">+</div>","null","fixation","","","","","","","","","","","","","",""
"html-slider-response","266","1431532","0.0-4.0-4.0-2.15-0.15","pilot_wm_v1","null","7","null","null","false","","","","","","","1901","<div style=""width:500px;"">
        <p>What is the password?</p>
        <img src='./assets/img/instructions/beep_chest.jpg' class='instructions-image'>","5","","","","","true","","","","50","5","0","","","",""
"revaluation","267","1435537","0.0-4.0-4.0-0.16","pilot_wm_v1","null","7","null","null","false","","false","","","","","[1929.800000011921]","./assets/img/ocean/animals/seahorse.jpg","[""ArrowLeft""]","revaluation","ocean","23","{""ArrowUp,ArrowLeft"":23,""ArrowUp,ArrowRight"":10,""ArrowDown,ArrowLeft"":8,""ArrowDown,ArrowRight"":30}","true","ArrowUp,ArrowLeft","","1_4","","","","16","original","1",""
"html-keyboard-response","268","1436039","0.0-4.0-4.0-1.16","pilot_wm_v1","null","7","null","null","false","","","","","","","null","<div style=""font-size:60px;"">+</div>","null","fixation","","","","","","","","","","","","","",""
"revaluation","269","1440047","0.0-4.0-4.0-0.17","pilot_wm_v1","null","7","null","null","false","","false","","","","","[543.6999999880791]","./assets/img/ocean/animals/seahorse.jpg","[""ArrowLeft""]","revaluation","ocean","23","{""ArrowUp,ArrowLeft"":23,""ArrowUp,ArrowRight"":10,""ArrowDown,ArrowLeft"":8,""ArrowDown,ArrowRight"":30}","true","ArrowUp,ArrowLeft","","9_2","","","","17","original","1",""
"html-keyboard-response","270","1440550","0.0-4.0-4.0-1.17","pilot_wm_v1","null","7","null","null","false","","","","","","","null","<div style=""font-size:60px;"">+</div>","null","fixation","","","","","","","","","","","","","",""
"learning-instructions","271","1448657","0.0-4.0-6.0-0.0","pilot_wm_v1","null","7","null","null","false","","","","","","","null","<p> You have almost finished this part of the game! </p>
            <p> We are going to ask you to make a few more choices. </p>","","instructions","","","","","","","","","","","","","",""
"learning-instructions","272","1464630","0.0-4.0-6.0-0.1","pilot_wm_v1","null","7","null","null","false","","","","","","","null","<p> First, you need to decide whether to go up or down. When you see each picture, use the arrow keys to make your choice. </p>
            <p><b>You will not see which animal you found, but try to get to the one that will give you the most treasure.</b></p>","","instructions","","","","","","","","","","","","","",""
"html-keyboard-response","273","1465633","0.0-4.0-7.0-0.0","pilot_wm_v1","null","7","null","null","false","","","","","","","null","<div style=""font-size:100px;color:red;"">Starting in...</div>","null","","","","","","","","","","","","","","",""
"html-keyboard-response","274","1466636","0.0-4.0-7.0-1.0","pilot_wm_v1","null","7","null","null","false","","","","","","","null","<div style=""font-size:200px;color:red;"">3</div>","null","","","","","","","","","","","","","","",""
"html-keyboard-response","275","1467639","0.0-4.0-7.0-2.0","pilot_wm_v1","null","7","null","null","false","","","","","","","null","<div style=""font-size:200px;color:red;"">2</div>","null","","","","","","","","","","","","","","",""
"html-keyboard-response","276","1468640","0.0-4.0-7.0-3.0","pilot_wm_v1","null","7","null","null","false","","","","","","","null","<div style=""font-size:200px;color:red;"">1</div>","null","","","","","","","","","","","","","","",""
"revaluation","277","1473165","0.0-4.0-8.0-0.0","pilot_wm_v1","null","7","null","null","false","","false","","","","","[4521]","./assets/img/ocean/test/3.jpg","[""ArrowUp""]","first stage test","ocean","0","{""ArrowUp,ArrowLeft"":23,""ArrowUp,ArrowRight"":10,""ArrowDown,ArrowLeft"":8,""ArrowDown,ArrowRight"":30}","false","ArrowUp","false","","","","","","original","1",""
"html-keyboard-response","278","1473667","0.0-4.0-8.0-1.0","pilot_wm_v1","null","7","null","null","false","","","","","","","null","<div style=""font-size:60px;"">+</div>","null","fixation","","","","","","","","","","","","","",""
"revaluation","279","1476045","0.0-4.0-8.0-0.1","pilot_wm_v1","null","7","null","null","false","","false","","","","","[2373.5]","./assets/img/ocean/test/0.jpg","[""ArrowDown""]","first stage test","ocean","0","{""ArrowUp,ArrowLeft"":23,""ArrowUp,ArrowRight"":10,""ArrowDown,ArrowLeft"":8,""ArrowDown,ArrowRight"":30}","true","ArrowDown","false","","","","","","original","1",""
"html-keyboard-response","280","1476546","0.0-4.0-8.0-1.1","pilot_wm_v1","null","7","null","null","false","","","","","","","null","<div style=""font-size:60px;"">+</div>","null","fixation","","","","","","","","","","","","","",""
"revaluation","281","1477033","0.0-4.0-8.0-0.2","pilot_wm_v1","null","7","null","null","false","","false","","","","","[484]","./assets/img/ocean/test/1.jpg","[""ArrowDown""]","first stage test","ocean","0","{""ArrowUp,ArrowLeft"":23,""ArrowUp,ArrowRight"":10,""ArrowDown,ArrowLeft"":8,""ArrowDown,ArrowRight"":30}","true","ArrowDown","false","","","","","","original","1",""
"html-keyboard-response","282","1477535","0.0-4.0-8.0-1.2","pilot_wm_v1","null","7","null","null","false","","","","","","","null","<div style=""font-size:60px;"">+</div>","null","fixation","","","","","","","","","","","","","",""
"revaluation","283","1477912","0.0-4.0-8.0-0.3","pilot_wm_v1","null","7","null","null","false","","false","","","","","[373.30000001192093]","./assets/img/ocean/test/2.jpg","[""ArrowDown""]","first stage test","ocean","0","{""ArrowUp,ArrowLeft"":23,""ArrowUp,ArrowRight"":10,""ArrowDown,ArrowLeft"":8,""ArrowDown,ArrowRight"":30}","true","ArrowDown","false","","","","","","original","1",""
"html-keyboard-response","284","1478413","0.0-4.0-8.0-1.3","pilot_wm_v1","null","7","null","null","false","","","","","","","null","<div style=""font-size:60px;"">+</div>","null","fixation","","","","","","","","","","","","","",""
"learning-instructions","285","1491756","0.0-4.0-9.0-0.0","pilot_wm_v1","null","7","null","null","false","","","","","","","null","<p> Now you will see the animals again and can search their chests for treasure. </p>
            <p> This time, you will not see how much treasure you earned, but you will earn more bonus money for making better choices. </p>","","instructions","","","","","","","","","","","","","",""
"html-keyboard-response","286","1492759","0.0-4.0-10.0-0.0","pilot_wm_v1","null","7","null","null","false","","","","","","","null","<div style=""font-size:100px;color:red;"">Starting in...</div>","null","","","","","","","","","","","","","","",""
"html-keyboard-response","287","1493762","0.0-4.0-10.0-1.0","pilot_wm_v1","null","7","null","null","false","","","","","","","null","<div style=""font-size:200px;color:red;"">3</div>","null","","","","","","","","","","","","","","",""
"html-keyboard-response","288","1494765","0.0-4.0-10.0-2.0","pilot_wm_v1","null","7","null","null","false","","","","","","","null","<div style=""font-size:200px;color:red;"">2</div>","null","","","","","","","","","","","","","","",""
"html-keyboard-response","289","1495768","0.0-4.0-10.0-3.0","pilot_wm_v1","null","7","null","null","false","","","","","","","null","<div style=""font-size:200px;color:red;"">1</div>","null","","","","","","","","","","","","","","",""
"revaluation","290","1496758","0.0-4.0-11.0-0.0","pilot_wm_v1","null","7","null","null","false","","false","","","","","[986]","./assets/img/ocean/animals/seahorse.jpg","[""ArrowLeft""]","second stage test","ocean","0","{""ArrowUp,ArrowLeft"":23,""ArrowUp,ArrowRight"":10,""ArrowDown,ArrowLeft"":8,""ArrowDown,ArrowRight"":30}","true","ArrowUp,ArrowLeft","","","","","","","original","1",""
"html-keyboard-response","291","1497259","0.0-4.0-11.0-1.0","pilot_wm_v1","null","7","null","null","false","","","","","","","null","<div style=""font-size:60px;"">+</div>","null","fixation","","","","","","","","","","","","","",""
"revaluation","292","1497736","0.0-4.0-11.0-0.1","pilot_wm_v1","null","7","null","null","false","","false","","","","","[473]","./assets/img/ocean/animals/seahorse.jpg","[""ArrowLeft""]","second stage test","ocean","0","{""ArrowUp,ArrowLeft"":23,""ArrowUp,ArrowRight"":10,""ArrowDown,ArrowLeft"":8,""ArrowDown,ArrowRight"":30}","true","ArrowUp,ArrowLeft","","","","","","","original","1",""
"html-keyboard-response","293","1498238","0.0-4.0-11.0-1.1","pilot_wm_v1","null","7","null","null","false","","","","","","","null","<div style=""font-size:60px;"">+</div>","null","fixation","","","","","","","","","","","","","",""
"revaluation","294","1498724","0.0-4.0-11.0-0.2","pilot_wm_v1","null","7","null","null","false","","false","","","","","[482]","./assets/img/ocean/animals/seahorse.jpg","[""ArrowLeft""]","second stage test","ocean","0","{""ArrowUp,ArrowLeft"":23,""ArrowUp,ArrowRight"":10,""ArrowDown,ArrowLeft"":8,""ArrowDown,ArrowRight"":30}","true","ArrowUp,ArrowLeft","","","","","","","original","1",""
"html-keyboard-response","295","1499225","0.0-4.0-11.0-1.2","pilot_wm_v1","null","7","null","null","false","","","","","","","null","<div style=""font-size:60px;"">+</div>","null","fixation","","","","","","","","","","","","","",""
"revaluation","296","1499678","0.0-4.0-11.0-0.3","pilot_wm_v1","null","7","null","null","false","","false","","","","","[448.5]","./assets/img/ocean/animals/seahorse.jpg","[""ArrowLeft""]","second stage test","ocean","0","{""ArrowUp,ArrowLeft"":23,""ArrowUp,ArrowRight"":10,""ArrowDown,ArrowLeft"":8,""ArrowDown,ArrowRight"":30}","true","ArrowUp,ArrowLeft","","","","","","","original","1",""
"html-keyboard-response","297","1500180","0.0-4.0-11.0-1.3","pilot_wm_v1","null","7","null","null","false","","","","","","","null","<div style=""font-size:60px;"">+</div>","null","fixation","","","","","","","","","","","","","",""
"revaluation","298","1500646","0.0-4.0-11.0-0.4","pilot_wm_v1","null","7","null","null","false","","false","","","","","[461.89999997615814]","./assets/img/ocean/animals/octopus.jpg","[""ArrowRight""]","second stage test","ocean","0","{""ArrowUp,ArrowLeft"":23,""ArrowUp,ArrowRight"":10,""ArrowDown,ArrowLeft"":8,""ArrowDown,ArrowRight"":30}","true","ArrowDown,ArrowRight","","","","","","","original","1",""
"html-keyboard-response","299","1501147","0.0-4.0-11.0-1.4","pilot_wm_v1","null","7","null","null","false","","","","","","","null","<div style=""font-size:60px;"">+</div>","null","fixation","","","","","","","","","","","","","",""
"revaluation","300","1501504","0.0-4.0-11.0-0.5","pilot_wm_v1","null","7","null","null","false","","false","","","","","[352.39999997615814]","./assets/img/ocean/animals/octopus.jpg","[""ArrowRight""]","second stage test","ocean","0","{""ArrowUp,ArrowLeft"":23,""ArrowUp,ArrowRight"":10,""ArrowDown,ArrowLeft"":8,""ArrowDown,ArrowRight"":30}","true","ArrowDown,ArrowRight","","","","","","","original","1",""
"html-keyboard-response","301","1502005","0.0-4.0-11.0-1.5","pilot_wm_v1","null","7","null","null","false","","","","","","","null","<div style=""font-size:60px;"">+</div>","null","fixation","","","","","","","","","","","","","",""
"revaluation","302","1502337","0.0-4.0-11.0-0.6","pilot_wm_v1","null","7","null","null","false","","false","","","","","[328.30000001192093]","./assets/img/ocean/animals/octopus.jpg","[""ArrowRight""]","second stage test","ocean","0","{""ArrowUp,ArrowLeft"":23,""ArrowUp,ArrowRight"":10,""ArrowDown,ArrowLeft"":8,""ArrowDown,ArrowRight"":30}","true","ArrowDown,ArrowRight","","","","","","","original","1",""
