"trial_type","trial_index","time_elapsed","internal_node_id","task_version","subject_id","assigned_condition","age","gender","rest","browser_interaction","success","timeout","failed_images","failed_audio","failed_video","rt","stimulus","response","task_part","environment","score","rewardMap","correct","fullState","isCatch","audioStim","slider_start","answer","error","numberMissed","duration","trial_num","condition","order","bonus"
"pavlovia","0","2120","0.0-0.0","pilot_wm_v1","65a4333efc75f965e7fc0cb5","2","null","null","true","[{""event"":""focus"",""trial"":1,""time"":10104},{""event"":""blur"",""trial"":1,""time"":12504},{""event"":""focus"",""trial"":1,""time"":15993},{""event"":""blur"",""trial"":1,""time"":35815},{""event"":""focus"",""trial"":1,""time"":45499},{""event"":""fullscreenenter"",""trial"":2,""time"":50855}]","","","","","","","","","","","","","","","","","","","","","","","","",""
"preload","1","48930","0.0-1.0","pilot_wm_v1","65a4333efc75f965e7fc0cb5","2","null","null","true","[{""event"":""focus"",""trial"":1,""time"":10104},{""event"":""blur"",""trial"":1,""time"":12504},{""event"":""focus"",""trial"":1,""time"":15993},{""event"":""blur"",""trial"":1,""time"":35815},{""event"":""focus"",""trial"":1,""time"":45499},{""event"":""fullscreenenter"",""trial"":2,""time"":50855}]","true","false","[]","[]","[]","","","","","","","","","","","","","","","","","","","",""
"fullscreen","2","51844","0.0-2.0","pilot_wm_v1","65a4333efc75f965e7fc0cb5","2","null","null","true","","true","","","","","","","","","","","","","","","","","","","","","","","",""
"audio-button-response","3","53930","0.0-3.0-0.0-0.0","pilot_wm_v1","65a4333efc75f965e7fc0cb5","2","null","null","true","","","","","","","2061","./assets/audio/audiotest/turtle.mp3","2","audio_test","","","","","","","","","","","","","","","",""
"learning-instructions","4","62699","0.0-3.0-1.0-0.0","pilot_wm_v1","65a4333efc75f965e7fc0cb5","2","null","null","true","","","","","","","1773.5","<p> Welcome! Please remember to stay in fullscreen mode and don't click away from the experiment. </p>","","instructions","","","","","","","","","","","","","","","",""
"learning-instructions","5","71774","0.0-3.0-1.0-0.1","pilot_wm_v1","65a4333efc75f965e7fc0cb5","2","null","null","true","","","","","","","669.3999999761581","<p> Today you will be playing a game to earn treasure. </p>
            <p> At the end of the experiment, you will earn a bonus based on how much treasure you find. </p>
            <img src='./assets/img/instructions/treasure.jpg' class='instructions-image'>","","instructions","","","","","","","","","","","","","","","",""
"learning-instructions","6","80706","0.0-3.0-1.0-0.2","pilot_wm_v1","65a4333efc75f965e7fc0cb5","2","null","null","true","","","","","","","681.6999999880791","<p> Animals have hidden treasure in treasure chests. </p>
            <p> You need to first find an animal and then choose which of their treasure chests to search. </p>
            <img src='./assets/img/space/animals/cat.jpg' class='instructions-image'>","","instructions","","","","","","","","","","","","","","","",""
"learning-instructions","7","94742","0.0-3.0-1.0-0.3","pilot_wm_v1","65a4333efc75f965e7fc0cb5","2","null","null","true","","","","","","","898.1000000238419","<p> In each round, you will search for treasure in a different place. In the real game, there will be two rounds. </p>
            <p> You will begin with a separate, practice round where you will search for treasure in outer space. </p>
            <img src='./assets/img/space/0.jpg' class='instructions-image'>","","instructions","","","","","","","","","","","","","","","",""
"learning-instructions","8","106661","0.0-3.0-1.0-0.4","pilot_wm_v1","65a4333efc75f965e7fc0cb5","2","null","null","true","","","","","","","507.30000001192093","<p> On every turn, you will see a picture of the place that you are in, but the specific image may be different each time. </p>
            <p> For example, both of these images mean you are in outer space. </p>
            <img src='./assets/img/instructions/outerspace.jpg' class='instructions-image'>","","instructions","","","","","","","","","","","","","","","",""
"learning-instructions","9","114879","0.0-3.0-1.0-0.5","pilot_wm_v1","65a4333efc75f965e7fc0cb5","2","null","null","true","","","","","","","405.39999997615814","<p> You need to decide which direction to travel in. </p>
            <p> You can choose between going <b>up or down</b> by using the arrow keys. </p>
            <img src='./assets/img/instructions/updown.jpg' class='instructions-image'>","","instructions","","","","","","","","","","","","","","","",""
"learning-instructions","10","124155","0.0-3.0-1.0-0.6","pilot_wm_v1","65a4333efc75f965e7fc0cb5","2","null","null","true","","","","","","","481.89999997615814","<p> You will have <b>2 seconds</b> to make your choice. </p>
            <p> If you do not make a choice within 2 seconds, you will not find an animal or earn treasure. </p>
            <img src='./assets/img/instructions/2seconds.jpg' class='instructions-image'>","","instructions","","","","","","","","","","","","","","","",""
"learning-instructions","11","131716","0.0-3.0-1.0-0.7","pilot_wm_v1","65a4333efc75f965e7fc0cb5","2","null","null","true","","","","","","","531.5999999642372","<p> Let’s try practicing that now! </p>
            <p> When you see a picture of the place you are in, press the <b>up</b> key to travel up. </p>
            <img src='./assets/img/instructions/pressUp.jpg' class='instructions-image'>","","instructions","","","","","","","","","","","","","","","",""
"revaluation","12","135741","0.0-3.0-2.0-0.0","pilot_wm_v1","65a4333efc75f965e7fc0cb5","2","null","null","true","","","false","","","","[1165.3999999761581]","./assets/img/space/0.jpg","[""ArrowUp""]","first stage practice","space","0","null","null","ArrowUp","false","","","","","","","","","",""
"html-keyboard-response","13","136255","0.0-3.0-2.0-1.0","pilot_wm_v1","65a4333efc75f965e7fc0cb5","2","null","null","true","","","","","","","null","<div style=""font-size:60px;"">+</div>","null","fixation","","","","","","","","","","","","","","","",""
"revaluation","14","140282","0.0-3.0-2.0-0.1","pilot_wm_v1","65a4333efc75f965e7fc0cb5","2","null","null","true","","","false","","","","[918.6000000238419]","./assets/img/space/1.jpg","[""ArrowUp""]","first stage practice","space","0","null","null","ArrowUp","false","","","","","","","","","",""
"html-keyboard-response","15","140798","0.0-3.0-2.0-1.1","pilot_wm_v1","65a4333efc75f965e7fc0cb5","2","null","null","true","","","","","","","null","<div style=""font-size:60px;"">+</div>","null","fixation","","","","","","","","","","","","","","","",""
"revaluation","16","144811","0.0-3.0-2.0-0.2","pilot_wm_v1","65a4333efc75f965e7fc0cb5","2","null","null","true","","","false","","","","[1487.6000000238419]","./assets/img/space/2.jpg","[""ArrowUp""]","first stage practice","space","0","null","null","ArrowUp","false","","","","","","","","","",""
"html-keyboard-response","17","145326","0.0-3.0-2.0-1.2","pilot_wm_v1","65a4333efc75f965e7fc0cb5","2","null","null","true","","","","","","","null","<div style=""font-size:60px;"">+</div>","null","fixation","","","","","","","","","","","","","","","",""
"learning-instructions","18","150333","0.0-3.0-3.0-0.0","pilot_wm_v1","65a4333efc75f965e7fc0cb5","2","null","null","true","","","","","","","320.19999998807907","<p> Great job! Now try pressing the <b>down</b> key to travel down. </p>
            <img src='./assets/img/instructions/pressDown.jpg' class='instructions-image'>","","instructions","","","","","","","","","","","","","","","",""
"revaluation","19","154363","0.0-3.0-4.0-0.0","pilot_wm_v1","65a4333efc75f965e7fc0cb5","2","null","null","true","","","false","","","","[1040.800000011921]","./assets/img/space/3.jpg","[""ArrowDown""]","first stage practice","space","0","null","null","ArrowDown","false","","","","","","","","","",""
"html-keyboard-response","20","154876","0.0-3.0-4.0-1.0","pilot_wm_v1","65a4333efc75f965e7fc0cb5","2","null","null","true","","","","","","","null","<div style=""font-size:60px;"">+</div>","null","fixation","","","","","","","","","","","","","","","",""
"revaluation","21","158895","0.0-3.0-4.0-0.1","pilot_wm_v1","65a4333efc75f965e7fc0cb5","2","null","null","true","","","false","","","","[195.5]","./assets/img/space/4.jpg","[""ArrowDown""]","first stage practice","space","0","null","null","ArrowDown","false","","","","","","","","","",""
"html-keyboard-response","22","159410","0.0-3.0-4.0-1.1","pilot_wm_v1","65a4333efc75f965e7fc0cb5","2","null","null","true","","","","","","","null","<div style=""font-size:60px;"">+</div>","null","fixation","","","","","","","","","","","","","","","",""
"revaluation","23","163432","0.0-3.0-4.0-0.2","pilot_wm_v1","65a4333efc75f965e7fc0cb5","2","null","null","true","","","false","","","","[413.89999997615814]","./assets/img/space/5.jpg","[""ArrowDown""]","first stage practice","space","0","null","null","ArrowDown","false","","","","","","","","","",""
"html-keyboard-response","24","163945","0.0-3.0-4.0-1.2","pilot_wm_v1","65a4333efc75f965e7fc0cb5","2","null","null","true","","","","","","","null","<div style=""font-size:60px;"">+</div>","null","fixation","","","","","","","","","","","","","","","",""
"learning-instructions","25","174164","0.0-3.0-5.0-0.0","pilot_wm_v1","65a4333efc75f965e7fc0cb5","2","null","null","true","","","","","","","370.69999998807907","<p> The animals don’t move, so the animal in the upper part of a place will stay in the upper part of a place, and the animal in the lower part of a place will stay in the lower part of a place. </p>","","instructions","","","","","","","","","","","","","","","",""
"learning-instructions","26","183764","0.0-3.0-5.0-0.1","pilot_wm_v1","65a4333efc75f965e7fc0cb5","2","null","null","true","","","","","","","480.4000000357628","<p> Each animal has two treasure chests for you to choose from. </p>
            <p> The amount of treasure in each chest can range from <b> 0 to 40 pieces.</b></p>","","instructions","","","","","","","","","","","","","","","",""
"learning-instructions","27","195413","0.0-3.0-5.0-0.2","pilot_wm_v1","65a4333efc75f965e7fc0cb5","2","null","null","true","","","","","","","469.69999998807907","<p> You should decide which chest to search for treasure by using the <b>left</b> and <b>right</b> arrow keys. </p>
            <p><b> Pay attention to which animal is on the screen, as the animals have different treasure chests. </b></p>
            <img src='./assets/img/instructions/leftright.jpg' class='instructions-image'>","","instructions","","","","","","","","","","","","","","","",""
"learning-instructions","28","202516","0.0-3.0-5.0-0.3","pilot_wm_v1","65a4333efc75f965e7fc0cb5","2","null","null","true","","","","","","","752.0999999642372","<p> Let’s try practicing that now. </p>
            <p> When you see an animal, choose which chest to search for treasure. </p>
            <img src='./assets/img/instructions/chooseChest.jpg' class='instructions-image'>","","instructions","","","","","","","","","","","","","","","",""
"revaluation","29","206539","0.0-3.0-6.0-0.0","pilot_wm_v1","65a4333efc75f965e7fc0cb5","2","null","null","true","","","false","","","","[1572.1000000238419]","./assets/img/space/animals/cat.jpg","[""ArrowRight""]","second stage practice","space","36","{""ArrowUp,ArrowLeft"":3,""ArrowUp,ArrowRight"":36,""ArrowDown,ArrowLeft"":15,""ArrowDown,ArrowRight"":23}","true","ArrowUp,ArrowRight","","","","","","","","","","",""
"html-keyboard-response","30","207042","0.0-3.0-6.0-1.0","pilot_wm_v1","65a4333efc75f965e7fc0cb5","2","null","null","true","","","","","","","null","<div style=""font-size:60px;"">+</div>","null","fixation","","","","","","","","","","","","","","","",""
"revaluation","31","211060","0.0-3.0-6.0-0.1","pilot_wm_v1","65a4333efc75f965e7fc0cb5","2","null","null","true","","","false","","","","[990.9000000357628]","./assets/img/space/animals/rabbit.jpg","[""ArrowRight""]","second stage practice","space","23","{""ArrowUp,ArrowLeft"":3,""ArrowUp,ArrowRight"":36,""ArrowDown,ArrowLeft"":15,""ArrowDown,ArrowRight"":23}","true","ArrowDown,ArrowRight","","","","","","","","","","",""
"html-keyboard-response","32","211576","0.0-3.0-6.0-1.1","pilot_wm_v1","65a4333efc75f965e7fc0cb5","2","null","null","true","","","","","","","null","<div style=""font-size:60px;"">+</div>","null","fixation","","","","","","","","","","","","","","","",""
"revaluation","33","215603","0.0-3.0-6.0-0.2","pilot_wm_v1","65a4333efc75f965e7fc0cb5","2","null","null","true","","","false","","","","[574.5]","./assets/img/space/animals/cat.jpg","[""ArrowLeft""]","second stage practice","space","3","{""ArrowUp,ArrowLeft"":3,""ArrowUp,ArrowRight"":36,""ArrowDown,ArrowLeft"":15,""ArrowDown,ArrowRight"":23}","false","ArrowUp,ArrowLeft","","","","","","","","","","",""
"html-keyboard-response","34","216118","0.0-3.0-6.0-1.2","pilot_wm_v1","65a4333efc75f965e7fc0cb5","2","null","null","true","","","","","","","null","<div style=""font-size:60px;"">+</div>","null","fixation","","","","","","","","","","","","","","","",""
"revaluation","35","220151","0.0-3.0-6.0-0.3","pilot_wm_v1","65a4333efc75f965e7fc0cb5","2","null","null","true","","","false","","","","[477.80000001192093]","./assets/img/space/animals/rabbit.jpg","[""ArrowRight""]","second stage practice","space","23","{""ArrowUp,ArrowLeft"":3,""ArrowUp,ArrowRight"":36,""ArrowDown,ArrowLeft"":15,""ArrowDown,ArrowRight"":23}","true","ArrowDown,ArrowRight","","","","","","","","","","",""
"html-keyboard-response","36","220664","0.0-3.0-6.0-1.3","pilot_wm_v1","65a4333efc75f965e7fc0cb5","2","null","null","true","","","","","","","null","<div style=""font-size:60px;"">+</div>","null","fixation","","","","","","","","","","","","","","","",""
"learning-instructions","37","238154","0.0-3.0-7.0-0.0","pilot_wm_v1","65a4333efc75f965e7fc0cb5","2","null","null","true","","","","","","","680.1000000238419","<p> Great job. Now let’s try putting it together. </p>
            <p> On each turn, you will first see a picture to remind you of the place you are in, and you need to choose whether to go up or down. </p>
            <p> Then you will see an animal and choose which of its chests to search for treasure. </p>","","instructions","","","","","","","","","","","","","","","",""
"learning-instructions","38","246828","0.0-3.0-7.0-0.1","pilot_wm_v1","65a4333efc75f965e7fc0cb5","2","null","null","true","","","","","","","424.30000001192093","<p> When you choose whether to go up or down, try to go to the animal with the chest with the most treasure. </p>
            <p> Try practicing that now! </p>","","instructions","","","","","","","","","","","","","","","",""
"revaluation","39","252860","0.0-3.0-8.0-0.0","pilot_wm_v1","65a4333efc75f965e7fc0cb5","2","null","null","true","","","false","","","","[1036.800000011921,745.8999999761581]","./assets/img/space/6.jpg","[""ArrowDown"",""ArrowRight""]","full practice","space","23","{""ArrowUp,ArrowLeft"":3,""ArrowUp,ArrowRight"":36,""ArrowDown,ArrowLeft"":15,""ArrowDown,ArrowRight"":23}","false","ArrowDown,ArrowRight","false","","","","","","","","","",""
"html-keyboard-response","40","253374","0.0-3.0-8.0-1.0","pilot_wm_v1","65a4333efc75f965e7fc0cb5","2","null","null","true","","","","","","","null","<div style=""font-size:60px;"">+</div>","null","fixation","","","","","","","","","","","","","","","",""
"revaluation","41","259409","0.0-3.0-8.0-0.1","pilot_wm_v1","65a4333efc75f965e7fc0cb5","2","null","null","true","","","false","","","","[487.60000002384186,1014.6999999880791]","./assets/img/space/7.jpg","[""ArrowDown"",""ArrowRight""]","full practice","space","23","{""ArrowUp,ArrowLeft"":3,""ArrowUp,ArrowRight"":36,""ArrowDown,ArrowLeft"":15,""ArrowDown,ArrowRight"":23}","false","ArrowDown,ArrowRight","false","","","","","","","","","",""
"html-keyboard-response","42","259922","0.0-3.0-8.0-1.1","pilot_wm_v1","65a4333efc75f965e7fc0cb5","2","null","null","true","","","","","","","null","<div style=""font-size:60px;"">+</div>","null","fixation","","","","","","","","","","","","","","","",""
"revaluation","43","265948","0.0-3.0-8.0-0.2","pilot_wm_v1","65a4333efc75f965e7fc0cb5","2","null","null","true","","","false","","","","[283.9000000357628,585.6000000238419]","./assets/img/space/8.jpg","[""ArrowDown"",""ArrowLeft""]","full practice","space","15","{""ArrowUp,ArrowLeft"":3,""ArrowUp,ArrowRight"":36,""ArrowDown,ArrowLeft"":15,""ArrowDown,ArrowRight"":23}","false","ArrowDown,ArrowLeft","false","","","","","","","","","",""
"html-keyboard-response","44","266461","0.0-3.0-8.0-1.2","pilot_wm_v1","65a4333efc75f965e7fc0cb5","2","null","null","true","","","","","","","null","<div style=""font-size:60px;"">+</div>","null","fixation","","","","","","","","","","","","","","","",""
"revaluation","45","272493","0.0-3.0-8.0-0.3","pilot_wm_v1","65a4333efc75f965e7fc0cb5","2","null","null","true","","","false","","","","[873.3999999761581,497.5]","./assets/img/space/9.jpg","[""ArrowDown"",""ArrowRight""]","full practice","space","23","{""ArrowUp,ArrowLeft"":3,""ArrowUp,ArrowRight"":36,""ArrowDown,ArrowLeft"":15,""ArrowDown,ArrowRight"":23}","false","ArrowDown,ArrowRight","false","","","","","","","","","",""
"html-keyboard-response","46","272994","0.0-3.0-8.0-1.3","pilot_wm_v1","65a4333efc75f965e7fc0cb5","2","null","null","true","","","","","","","null","<div style=""font-size:60px;"">+</div>","null","fixation","","","","","","","","","","","","","","","",""
"revaluation","47","279012","0.0-3.0-8.0-0.4","pilot_wm_v1","65a4333efc75f965e7fc0cb5","2","null","null","true","","","false","","","","[633.5,405.80000001192093]","./assets/img/space/10.jpg","[""ArrowDown"",""ArrowRight""]","full practice","space","23","{""ArrowUp,ArrowLeft"":3,""ArrowUp,ArrowRight"":36,""ArrowDown,ArrowLeft"":15,""ArrowDown,ArrowRight"":23}","false","ArrowDown,ArrowRight","false","","","","","","","","","",""
"html-keyboard-response","48","279513","0.0-3.0-8.0-1.4","pilot_wm_v1","65a4333efc75f965e7fc0cb5","2","null","null","true","","","","","","","null","<div style=""font-size:60px;"">+</div>","null","fixation","","","","","","","","","","","","","","","",""
"learning-instructions","49","290524","0.0-3.0-9.0-0.0","pilot_wm_v1","65a4333efc75f965e7fc0cb5","2","null","null","true","","","","","","","719.1999999880791","<p> One last thing: sometimes, you will see a robber. The robber can be anywhere in the picture. </p>
            <p> If you do not stop them, you will lose treasure. </p>
            <img src='./assets/img/instructions/robber.jpg' class='instructions-image'>","","instructions","","","","","","","","","","","","","","","",""
"learning-instructions","50","298037","0.0-3.0-9.0-0.1","pilot_wm_v1","65a4333efc75f965e7fc0cb5","2","null","null","true","","","","","","","354.30000001192093","<p> If you see the robber, you should <b>press the space bar</b> rather than using the arrow keys. </p>
            <p> Try practicing that now! </p>","","instructions","","","","","","","","","","","","","","","",""
"revaluation","51","302056","0.0-3.0-10.0-0.0","pilot_wm_v1","65a4333efc75f965e7fc0cb5","2","null","null","true","","","false","","","","[1288.5]","./assets/img/space/catch/0.jpg","[""spaceBar""]","catch practice","space","0","{""ArrowUp,ArrowLeft"":3,""ArrowUp,ArrowRight"":36,""ArrowDown,ArrowLeft"":15,""ArrowDown,ArrowRight"":23}","true","spaceBar","true","","","","","","","","","",""
"html-keyboard-response","52","302570","0.0-3.0-10.0-1.0","pilot_wm_v1","65a4333efc75f965e7fc0cb5","2","null","null","true","","","","","","","null","<div style=""font-size:60px;"">+</div>","null","fixation","","","","","","","","","","","","","","","",""
"revaluation","53","306593","0.0-3.0-10.0-0.1","pilot_wm_v1","65a4333efc75f965e7fc0cb5","2","null","null","true","","","false","","","","[467.7000000476837]","./assets/img/space/catch/1.jpg","[""spaceBar""]","catch practice","space","0","{""ArrowUp,ArrowLeft"":3,""ArrowUp,ArrowRight"":36,""ArrowDown,ArrowLeft"":15,""ArrowDown,ArrowRight"":23}","true","spaceBar","true","","","","","","","","","",""
"html-keyboard-response","54","307110","0.0-3.0-10.0-1.1","pilot_wm_v1","65a4333efc75f965e7fc0cb5","2","null","null","true","","","","","","","null","<div style=""font-size:60px;"">+</div>","null","fixation","","","","","","","","","","","","","","","",""
"revaluation","55","311145","0.0-3.0-10.0-0.2","pilot_wm_v1","65a4333efc75f965e7fc0cb5","2","null","null","true","","","false","","","","[430.2000000476837]","./assets/img/space/catch/2.jpg","[""spaceBar""]","catch practice","space","0","{""ArrowUp,ArrowLeft"":3,""ArrowUp,ArrowRight"":36,""ArrowDown,ArrowLeft"":15,""ArrowDown,ArrowRight"":23}","true","spaceBar","true","","","","","","","","","",""
"html-keyboard-response","56","311658","0.0-3.0-10.0-1.2","pilot_wm_v1","65a4333efc75f965e7fc0cb5","2","null","null","true","","","","","","","null","<div style=""font-size:60px;"">+</div>","null","fixation","","","","","","","","","","","","","","","",""
"learning-instructions","57","317711","0.0-3.0-11.0-0.0","pilot_wm_v1","65a4333efc75f965e7fc0cb5","2","null","null","true","","","","","","","527","<p> Sometimes, you will come across a special kind of treasure chest that requires a password. </p>
            <img src='./assets/img/instructions/beep_chest.jpg' class='instructions-image'>","","instructions","","","","","","","","","","","","","","","",""
"learning-instructions","58","340025","0.0-3.0-11.0-0.1","pilot_wm_v1","65a4333efc75f965e7fc0cb5","2","null","null","true","","","","","","","711.5999999642372","<p> Your friend will send you the password using a series of beeps so that you can open the chest and earn treasure. </p>
            <p> You will hear two kinds of beeps, a high beep and a low beep. </p>
            <p> You should report the number of high beeps that you heard before seeing the chest. </p>
            <img src='./assets/img/instructions/listen.jpg' class='instructions-image'>","","instructions","","","","","","","","","","","","","","","",""
"learning-instructions","59","367025","0.0-3.0-11.0-0.2","pilot_wm_v1","65a4333efc75f965e7fc0cb5","2","null","null","true","","","","","","","4712","<p> For example, if you hear this series of beeps, you should report 4 as the password using the slider. </p>
            <p> After reporting a password for a chest, you should count the high beeps again starting from 0. </p>
            <p> Let's try practicing that now. </p>","","instructions","","","","","","","","","","","","","","","",""
"audio-button-response","60","375053","0.0-3.0-12.0-0.0-0.0","pilot_wm_v1","65a4333efc75f965e7fc0cb5","2","null","null","true","","","","","","","null","./assets/audio/beeps/practice_6.wav","null","","","","","","","","","","","","","","","","",""
"html-slider-response","61","381453","0.0-3.0-12.0-0.0-1.0","pilot_wm_v1","65a4333efc75f965e7fc0cb5","2","null","null","true","","","","","","","6394","<div style=""width:500px;"">
        <p>What is the password?</p>
        <img src='./assets/img/instructions/beep_chest.jpg' class='instructions-image'>","8","beep chest","","","","false","","","","50","0","8","","","","","",""
"comp-q","62","388343","0.0-3.0-12.0-0.0-2.0","pilot_wm_v1","65a4333efc75f965e7fc0cb5","2","null","null","true","","","","","","","1534.5","<p>Incorrect! Please try again. Remember to count the number of high pitched beeps only. </p>","0","beep answer","","","","","","","","","","","","","","","",""
"audio-button-response","63","396343","0.0-3.0-12.0-0.1-0.1","pilot_wm_v1","65a4333efc75f965e7fc0cb5","2","null","null","true","","","","","","","null","./assets/audio/beeps/practice_6.wav","null","","","","","","","","","","","","","","","","",""
"html-slider-response","64","399751","0.0-3.0-12.0-0.1-1.1","pilot_wm_v1","65a4333efc75f965e7fc0cb5","2","null","null","true","","","","","","","3405","<div style=""width:500px;"">
        <p>What is the password?</p>
        <img src='./assets/img/instructions/beep_chest.jpg' class='instructions-image'>","8","beep chest","","","","false","","","","50","0","8","","","","","",""
"comp-q","65","405823","0.0-3.0-12.0-0.1-2.1","pilot_wm_v1","65a4333efc75f965e7fc0cb5","2","null","null","true","","","","","","","739.8000000119209","<p>Incorrect! Please try again. Remember to count the number of high pitched beeps only. </p>","0","beep answer","","","","","","","","","","","","","","","",""
"audio-button-response","66","413822","0.0-3.0-12.0-0.2-0.2","pilot_wm_v1","65a4333efc75f965e7fc0cb5","2","null","null","true","","","","","","","null","./assets/audio/beeps/practice_6.wav","null","","","","","","","","","","","","","","","","",""
"html-slider-response","67","415586","0.0-3.0-12.0-0.2-1.2","pilot_wm_v1","65a4333efc75f965e7fc0cb5","2","null","null","true","","","","","","","1762","<div style=""width:500px;"">
        <p>What is the password?</p>
        <img src='./assets/img/instructions/beep_chest.jpg' class='instructions-image'>","6","beep chest","","","","false","","","","50","0","6","","","","","",""
"comp-q","68","420577","0.0-3.0-12.0-0.2-2.2","pilot_wm_v1","65a4333efc75f965e7fc0cb5","2","null","null","true","","","","","","","784","<p>Correct! There were 6 high pitched beeps before you saw the chest. </p>","0","beep answer","","","","","","","","","","","","","","","",""
"audio-button-response","69","428613","0.0-3.0-12.0-0.3-0.3","pilot_wm_v1","65a4333efc75f965e7fc0cb5","2","null","null","true","","","","","","","null","./assets/audio/beeps/practice_4.wav","null","","","","","","","","","","","","","","","","",""
"html-slider-response","70","431072","0.0-3.0-12.0-0.3-1.3","pilot_wm_v1","65a4333efc75f965e7fc0cb5","2","null","null","true","","","","","","","2456","<div style=""width:500px;"">
        <p>What is the password?</p>
        <img src='./assets/img/instructions/beep_chest.jpg' class='instructions-image'>","4","beep chest","","","","false","","","","50","0","4","","","","","",""
"comp-q","71","436133","0.0-3.0-12.0-0.3-2.3","pilot_wm_v1","65a4333efc75f965e7fc0cb5","2","null","null","true","","","","","","","880.1999999880791","<p>Correct! There were 4 high pitched beeps before you saw the chest. </p>","0","beep answer","","","","","","","","","","","","","","","",""
"learning-instructions","72","447123","0.0-3.0-13.0-0.0","pilot_wm_v1","65a4333efc75f965e7fc0cb5","2","null","null","true","","","","","","","680.5","<p> Good job! In the real game we will not tell you if you entered the right password. </p>
            <p> Do your best, the treasure you earn from these chests will also give you extra bonus money. </p>","","instructions","","","","","","","","","","","","","","","",""
"learning-instructions","73","461345","0.0-3.0-14.0-0.0-0.0","pilot_wm_v1","65a4333efc75f965e7fc0cb5","2","null","null","true","","","","","","","641.8000000119209","<p> After you explore a place to find treasure, it will be time to play a different game. </p>
            <p> During this game, red dots will appear on the screen and fall down slowly. </p>
            <p><b> You must click on them before they reach the bottom. </b></p>
            <img src='./assets/img/instructions/dotGame.jpg' class='instructions-image'>","","instructions","","","","","","","","","","","","","","","",""
"learning-instructions","74","467437","0.0-3.0-14.0-0.0-0.1","pilot_wm_v1","65a4333efc75f965e7fc0cb5","2","null","null","true","","","","","","","433.60000002384186","<p> For every dot you click, you will earn additional treasure. </p>
            <p> Let’s try practicing that now. </p>","","instructions","","","","","","","","","","","","","","","",""
"revaluation","75","482449","0.0-3.0-14.0-1.0-0.0","pilot_wm_v1","65a4333efc75f965e7fc0cb5","2","null","null","true","","","","","","","[64]","","","rest practice","","10","","","","","","","","","0","15000","","","",""
"learning-instructions","76","488221","0.0-3.0-15.0-0.0-0.0","pilot_wm_v1","65a4333efc75f965e7fc0cb5","2","null","null","true","","","","","","","528.5","<p> Now, you will practice a shortened version of the game to get a sense of how it all fits together. </p>","","instructions","","","","","","","","","","","","","","","",""
"learning-instructions","77","491745","0.0-3.0-15.0-0.0-0.1","pilot_wm_v1","65a4333efc75f965e7fc0cb5","2","null","null","true","","","","","","","342.4000000357628","<p>This time you are searching for treasure in outer space.</p>","","instructions","","","","","","","","","","","","","","","",""
"learning-instructions","78","507301","0.0-3.0-15.0-1.0-0.0","pilot_wm_v1","65a4333efc75f965e7fc0cb5","2","null","null","true","","","","","","","808.1000000238419","<p> Remember, when you see a picture of the place, use the up and down keys to <b>find an animal</b>.</p>
            <p> When you encounter an animal, you should use the left and right keys to <b>select a treasure chest</b>.</p>
            <p> Don't forget to look out for the robber! </p>","","instructions","","","","","","","","","","","","","","","",""
"revaluation","79","513337","0.0-3.0-15.0-2.0-0.0","pilot_wm_v1","65a4333efc75f965e7fc0cb5","2","null","null","true","","","false","","","","[1320,948.1000000238419]","./assets/img/space/11.jpg","[""ArrowUp"",""ArrowRight""]","practice block","space","36","{""ArrowUp,ArrowLeft"":3,""ArrowUp,ArrowRight"":36,""ArrowDown,ArrowLeft"":15,""ArrowDown,ArrowRight"":23}","true","ArrowUp,ArrowRight","false","","","","","","","","","",""
"html-keyboard-response","80","513852","0.0-3.0-15.0-2.0-1.0","pilot_wm_v1","65a4333efc75f965e7fc0cb5","2","null","null","true","","","","","","","null","<div style=""font-size:60px;"">+</div>","null","fixation","","","","","","","","","","","","","","","",""
"revaluation","81","519888","0.0-3.0-15.0-2.0-0.1","pilot_wm_v1","65a4333efc75f965e7fc0cb5","2","null","null","true","","","false","","","","[705.1000000238419,323.10000002384186]","./assets/img/space/12.jpg","[""ArrowUp"",""ArrowLeft""]","practice block","space","3","{""ArrowUp,ArrowLeft"":3,""ArrowUp,ArrowRight"":36,""ArrowDown,ArrowLeft"":15,""ArrowDown,ArrowRight"":23}","false","ArrowUp,ArrowLeft","false","","","","","","","","","",""
"html-keyboard-response","82","520402","0.0-3.0-15.0-2.0-1.1","pilot_wm_v1","65a4333efc75f965e7fc0cb5","2","null","null","true","","","","","","","null","<div style=""font-size:60px;"">+</div>","null","fixation","","","","","","","","","","","","","","","",""
"revaluation","83","526440","0.0-3.0-15.0-2.0-0.2","pilot_wm_v1","65a4333efc75f965e7fc0cb5","2","null","null","true","","","false","","","","[804.5,340.69999998807907]","./assets/img/space/13.jpg","[""ArrowUp"",""ArrowRight""]","practice block","space","36","{""ArrowUp,ArrowLeft"":3,""ArrowUp,ArrowRight"":36,""ArrowDown,ArrowLeft"":15,""ArrowDown,ArrowRight"":23}","true","ArrowUp,ArrowRight","false","","","","","","","","","",""
"html-keyboard-response","84","526951","0.0-3.0-15.0-2.0-1.2","pilot_wm_v1","65a4333efc75f965e7fc0cb5","2","null","null","true","","","","","","","null","<div style=""font-size:60px;"">+</div>","null","fixation","","","","","","","","","","","","","","","",""
"revaluation","85","532969","0.0-3.0-15.0-2.0-0.3","pilot_wm_v1","65a4333efc75f965e7fc0cb5","2","null","null","true","","","false","","","","[504,328]","./assets/img/space/14.jpg","[""ArrowUp"",""ArrowRight""]","practice block","space","36","{""ArrowUp,ArrowLeft"":3,""ArrowUp,ArrowRight"":36,""ArrowDown,ArrowLeft"":15,""ArrowDown,ArrowRight"":23}","true","ArrowUp,ArrowRight","false","","","","","","","","","",""
"html-keyboard-response","86","533481","0.0-3.0-15.0-2.0-1.3","pilot_wm_v1","65a4333efc75f965e7fc0cb5","2","null","null","true","","","","","","","null","<div style=""font-size:60px;"">+</div>","null","fixation","","","","","","","","","","","","","","","",""
"revaluation","87","539498","0.0-3.0-15.0-2.0-0.4","pilot_wm_v1","65a4333efc75f965e7fc0cb5","2","null","null","true","","","false","","","","[812.1000000238419,327.0999999642372]","./assets/img/space/11.jpg","[""ArrowUp"",""ArrowRight""]","practice block","space","36","{""ArrowUp,ArrowLeft"":3,""ArrowUp,ArrowRight"":36,""ArrowDown,ArrowLeft"":15,""ArrowDown,ArrowRight"":23}","true","ArrowUp,ArrowRight","false","","","","","","","","","",""
"html-keyboard-response","88","540000","0.0-3.0-15.0-2.0-1.4","pilot_wm_v1","65a4333efc75f965e7fc0cb5","2","null","null","true","","","","","","","null","<div style=""font-size:60px;"">+</div>","null","fixation","","","","","","","","","","","","","","","",""
"revaluation","89","546005","0.0-3.0-15.0-2.0-0.5","pilot_wm_v1","65a4333efc75f965e7fc0cb5","2","null","null","true","","","false","","","","[846.1999999880791,325.19999998807907]","./assets/img/space/12.jpg","[""ArrowUp"",""ArrowRight""]","practice block","space","36","{""ArrowUp,ArrowLeft"":3,""ArrowUp,ArrowRight"":36,""ArrowDown,ArrowLeft"":15,""ArrowDown,ArrowRight"":23}","true","ArrowUp,ArrowRight","false","","","","","","","","","",""
"html-keyboard-response","90","546508","0.0-3.0-15.0-2.0-1.5","pilot_wm_v1","65a4333efc75f965e7fc0cb5","2","null","null","true","","","","","","","null","<div style=""font-size:60px;"">+</div>","null","fixation","","","","","","","","","","","","","","","",""
"revaluation","91","552515","0.0-3.0-15.0-2.0-0.6","pilot_wm_v1","65a4333efc75f965e7fc0cb5","2","null","null","true","","","false","","","","[499,329.5]","./assets/img/space/13.jpg","[""ArrowUp"",""ArrowRight""]","practice block","space","36","{""ArrowUp,ArrowLeft"":3,""ArrowUp,ArrowRight"":36,""ArrowDown,ArrowLeft"":15,""ArrowDown,ArrowRight"":23}","true","ArrowUp,ArrowRight","false","","","","","","","","","",""
"html-keyboard-response","92","553016","0.0-3.0-15.0-2.0-1.6","pilot_wm_v1","65a4333efc75f965e7fc0cb5","2","null","null","true","","","","","","","null","<div style=""font-size:60px;"">+</div>","null","fixation","","","","","","","","","","","","","","","",""
"revaluation","93","559023","0.0-3.0-15.0-2.0-0.7","pilot_wm_v1","65a4333efc75f965e7fc0cb5","2","null","null","true","","","false","","","","[450.5,314.69999998807907]","./assets/img/space/14.jpg","[""ArrowUp"",""ArrowRight""]","practice block","space","36","{""ArrowUp,ArrowLeft"":3,""ArrowUp,ArrowRight"":36,""ArrowDown,ArrowLeft"":15,""ArrowDown,ArrowRight"":23}","true","ArrowUp,ArrowRight","false","","","","","","","","","",""
"html-keyboard-response","94","559525","0.0-3.0-15.0-2.0-1.7","pilot_wm_v1","65a4333efc75f965e7fc0cb5","2","null","null","true","","","","","","","null","<div style=""font-size:60px;"">+</div>","null","fixation","","","","","","","","","","","","","","","",""
"revaluation","95","563531","0.0-3.0-15.0-2.0-0.8","pilot_wm_v1","65a4333efc75f965e7fc0cb5","2","null","null","true","","","false","","","","[352.5]","./assets/img/space/catch/3.jpg","[""ArrowUp""]","practice block","space","-10","{""ArrowUp,ArrowLeft"":3,""ArrowUp,ArrowRight"":36,""ArrowDown,ArrowLeft"":15,""ArrowDown,ArrowRight"":23}","false","ArrowUp","true","","","","","","","","","",""
"html-keyboard-response","96","564033","0.0-3.0-15.0-2.0-1.8","pilot_wm_v1","65a4333efc75f965e7fc0cb5","2","null","null","true","","","","","","","null","<div style=""font-size:60px;"">+</div>","null","fixation","","","","","","","","","","","","","","","",""
"learning-instructions","97","577526","0.0-3.0-15.0-3.0-0.0","pilot_wm_v1","65a4333efc75f965e7fc0cb5","2","null","null","true","","","","","","","584.1000000238419","<p> Now, you will travel with a friend who will choose whether you go up or down first. </p>
            <p> On these turns, you will just see the animal that they found. You will still get to choose which chest to search for treasure.</p>","","instructions","","","","","","","","","","","","","","","",""
"learning-instructions","98","589549","0.0-3.0-15.0-3.0-0.1","pilot_wm_v1","65a4333efc75f965e7fc0cb5","2","null","null","true","","","","","","","407.39999997615814","<p> In this part, you will also hear beeps from your friend and see special treasure chests that need a password. </p>
            <p> Do your best to count the high beeps <b>and</b> choose between each animals' chests at the same time.</p>
            <img src='./assets/img/instructions/beep_chest.jpg' class='instructions-image'>","","instructions","","","","","","","","","","","","","","","",""
"revaluation","99","593572","0.0-3.0-15.0-4.0-0.0","pilot_wm_v1","65a4333efc75f965e7fc0cb5","2","null","null","true","","","true","","","","[]","./assets/img/space/animals/cat.jpg","[]","practice block","space","-5","{""ArrowUp,ArrowLeft"":3,""ArrowUp,ArrowRight"":36,""ArrowDown,ArrowLeft"":15,""ArrowDown,ArrowRight"":23}","false","ArrowUp","","[""20_0""]","","","","","","0","","",""
"html-keyboard-response","100","594087","0.0-3.0-15.0-4.0-1.0","pilot_wm_v1","65a4333efc75f965e7fc0cb5","2","null","null","true","","","","","","","null","<div style=""font-size:60px;"">+</div>","null","fixation","","","","","","","","","","","","","","","",""
"revaluation","101","598098","0.0-3.0-15.0-4.0-0.1","pilot_wm_v1","65a4333efc75f965e7fc0cb5","2","null","null","true","","","false","","","","[551.3999999761581]","./assets/img/space/animals/rabbit.jpg","[""ArrowRight""]","practice block","space","23","{""ArrowUp,ArrowLeft"":3,""ArrowUp,ArrowRight"":36,""ArrowDown,ArrowLeft"":15,""ArrowDown,ArrowRight"":23}","true","ArrowDown,ArrowRight","","[""21_1""]","","","","","","1","","",""
"html-keyboard-response","102","598610","0.0-3.0-15.0-4.0-1.1","pilot_wm_v1","65a4333efc75f965e7fc0cb5","2","null","null","true","","","","","","","null","<div style=""font-size:60px;"">+</div>","null","fixation","","","","","","","","","","","","","","","",""
"revaluation","103","602633","0.0-3.0-15.0-4.0-0.2","pilot_wm_v1","65a4333efc75f965e7fc0cb5","2","null","null","true","","","false","","","","[1049.5]","./assets/img/space/animals/cat.jpg","[""ArrowRight""]","practice block","space","36","{""ArrowUp,ArrowLeft"":3,""ArrowUp,ArrowRight"":36,""ArrowDown,ArrowLeft"":15,""ArrowDown,ArrowRight"":23}","true","ArrowUp,ArrowRight","","[""19_0""]","","","","","","2","","",""
"html-keyboard-response","104","603147","0.0-3.0-15.0-4.0-1.2","pilot_wm_v1","65a4333efc75f965e7fc0cb5","2","null","null","true","","","","","","","null","<div style=""font-size:60px;"">+</div>","null","fixation","","","","","","","","","","","","","","","",""
"revaluation","105","607155","0.0-3.0-15.0-4.0-0.3","pilot_wm_v1","65a4333efc75f965e7fc0cb5","2","null","null","true","","","false","","","","[770.3999999761581]","./assets/img/space/animals/rabbit.jpg","[""ArrowLeft""]","practice block","space","15","{""ArrowUp,ArrowLeft"":3,""ArrowUp,ArrowRight"":36,""ArrowDown,ArrowLeft"":15,""ArrowDown,ArrowRight"":23}","false","ArrowDown,ArrowLeft","","[""22_3""]","","","","","","3","","",""
"html-keyboard-response","106","607670","0.0-3.0-15.0-4.0-1.3","pilot_wm_v1","65a4333efc75f965e7fc0cb5","2","null","null","true","","","","","","","null","<div style=""font-size:60px;"">+</div>","null","fixation","","","","","","","","","","","","","","","",""
"html-slider-response","107","609746","0.0-3.0-15.0-4.0-2.3-0.3","pilot_wm_v1","65a4333efc75f965e7fc0cb5","2","null","null","true","","","","","","","2073","<div style=""width:500px;"">
        <p>What is the password?</p>
        <img src='./assets/img/instructions/beep_chest.jpg' class='instructions-image'>","4","beep chest","","","","false","","","","50","82","78","","","","","",""
"learning-instructions","108","620018","0.0-3.0-15.0-5.0-0.0-0.0","pilot_wm_v1","65a4333efc75f965e7fc0cb5","2","null","null","true","","","","","","","2916.699999988079","<p> Time to play the dot game! </p>
            <p> For 15 seconds, click the red dots on the following screen as they appear. </p>","","instructions","","","","","","","","","","","","","","","",""
"revaluation","109","635019","0.0-3.0-15.0-5.0-1.0-0.0","pilot_wm_v1","65a4333efc75f965e7fc0cb5","2","null","null","true","","","","","","","[132,86]","","","rest practice","","20","","","","","","","","","0","15000","","","",""
"learning-instructions","110","643142","0.0-3.0-15.0-6.0-0.0","pilot_wm_v1","65a4333efc75f965e7fc0cb5","2","null","null","true","","","","","","","null","<p> You have almost finished this part of the game! </p>
            <p> We are going to ask you to make a few more choices. </p>","","instructions","","","","","","","","","","","","","","","",""
"learning-instructions","111","659135","0.0-3.0-15.0-6.0-0.1","pilot_wm_v1","65a4333efc75f965e7fc0cb5","2","null","null","true","","","","","","","null","<p> First, you need to decide whether to go up or down. When you see each picture, use the arrow keys to make your choice. </p>
            <p><b>You will not see which animal you found, but try to get to the one that will give you the most treasure.</b></p>","","instructions","","","","","","","","","","","","","","","",""
"html-keyboard-response","112","660137","0.0-3.0-15.0-7.0-0.0","pilot_wm_v1","65a4333efc75f965e7fc0cb5","2","null","null","true","","","","","","","null","<div style=""font-size:100px;color:red;"">Starting in...</div>","null","","","","","","","","","","","","","","","","",""
"html-keyboard-response","113","661149","0.0-3.0-15.0-7.0-1.0","pilot_wm_v1","65a4333efc75f965e7fc0cb5","2","null","null","true","","","","","","","null","<div style=""font-size:200px;color:red;"">3</div>","null","","","","","","","","","","","","","","","","",""
"html-keyboard-response","114","662165","0.0-3.0-15.0-7.0-2.0","pilot_wm_v1","65a4333efc75f965e7fc0cb5","2","null","null","true","","","","","","","null","<div style=""font-size:200px;color:red;"">2</div>","null","","","","","","","","","","","","","","","","",""
"html-keyboard-response","115","663180","0.0-3.0-15.0-7.0-3.0","pilot_wm_v1","65a4333efc75f965e7fc0cb5","2","null","null","true","","","","","","","null","<div style=""font-size:200px;color:red;"">1</div>","null","","","","","","","","","","","","","","","","",""
"revaluation","116","663721","0.0-3.0-15.0-8.0","pilot_wm_v1","65a4333efc75f965e7fc0cb5","2","null","null","true","","","false","","","","[536.1000000238419]","./assets/img/space/15.jpg","[""ArrowUp""]","practice block","space","0","{""ArrowUp,ArrowLeft"":3,""ArrowUp,ArrowRight"":36,""ArrowDown,ArrowLeft"":15,""ArrowDown,ArrowRight"":23}","true","ArrowUp","false","","","","","","","","","",""
"html-keyboard-response","117","664228","0.0-3.0-15.0-9.0","pilot_wm_v1","65a4333efc75f965e7fc0cb5","2","null","null","true","","","","","","","null","<div style=""font-size:60px;"">+</div>","null","fixation","","","","","","","","","","","","","","","",""
"learning-instructions","118","677582","0.0-3.0-15.0-10.0-0.0","pilot_wm_v1","65a4333efc75f965e7fc0cb5","2","null","null","true","","","","","","","null","<p> Now you will see the animals again and can search their chests for treasure. </p>
            <p> This time, you will not see how much treasure you earned, but you will earn more bonus money for making better choices. </p>","","instructions","","","","","","","","","","","","","","","",""
"html-keyboard-response","119","678583","0.0-3.0-15.0-11.0-0.0","pilot_wm_v1","65a4333efc75f965e7fc0cb5","2","null","null","true","","","","","","","null","<div style=""font-size:100px;color:red;"">Starting in...</div>","null","","","","","","","","","","","","","","","","",""
"html-keyboard-response","120","679590","0.0-3.0-15.0-11.0-1.0","pilot_wm_v1","65a4333efc75f965e7fc0cb5","2","null","null","true","","","","","","","null","<div style=""font-size:200px;color:red;"">3</div>","null","","","","","","","","","","","","","","","","",""
"html-keyboard-response","121","680601","0.0-3.0-15.0-11.0-2.0","pilot_wm_v1","65a4333efc75f965e7fc0cb5","2","null","null","true","","","","","","","null","<div style=""font-size:200px;color:red;"">2</div>","null","","","","","","","","","","","","","","","","",""
"html-keyboard-response","122","681613","0.0-3.0-15.0-11.0-3.0","pilot_wm_v1","65a4333efc75f965e7fc0cb5","2","null","null","true","","","","","","","null","<div style=""font-size:200px;color:red;"">1</div>","null","","","","","","","","","","","","","","","","",""
"revaluation","123","682537","0.0-3.0-15.0-12.0-0.0","pilot_wm_v1","65a4333efc75f965e7fc0cb5","2","null","null","true","","","false","","","","[919.2999999523163]","./assets/img/space/animals/cat.jpg","[""ArrowRight""]","practice block","space","0","{""ArrowUp,ArrowLeft"":3,""ArrowUp,ArrowRight"":36,""ArrowDown,ArrowLeft"":15,""ArrowDown,ArrowRight"":23}","true","ArrowUp,ArrowRight","","","","","","","","","","",""
"html-keyboard-response","124","683048","0.0-3.0-15.0-12.0-1.0","pilot_wm_v1","65a4333efc75f965e7fc0cb5","2","null","null","true","","","","","","","null","<div style=""font-size:60px;"">+</div>","null","fixation","","","","","","","","","","","","","","","",""
"revaluation","125","683912","0.0-3.0-15.0-12.0-0.1","pilot_wm_v1","65a4333efc75f965e7fc0cb5","2","null","null","true","","","false","","","","[861.8999999761581]","./assets/img/space/animals/rabbit.jpg","[""ArrowRight""]","practice block","space","0","{""ArrowUp,ArrowLeft"":3,""ArrowUp,ArrowRight"":36,""ArrowDown,ArrowLeft"":15,""ArrowDown,ArrowRight"":23}","true","ArrowDown,ArrowRight","","","","","","","","","","",""
"html-keyboard-response","126","684424","0.0-3.0-15.0-12.0-1.1","pilot_wm_v1","65a4333efc75f965e7fc0cb5","2","null","null","true","","","","","","","null","<div style=""font-size:60px;"">+</div>","null","fixation","","","","","","","","","","","","","","","",""
"learning-instructions","127","689882","0.0-3.0-16.0-0.0","pilot_wm_v1","65a4333efc75f965e7fc0cb5","2","null","null","true","","","","","","","890.3000000119209","<p> Before you start, we're going to ask you a few questions about how the game works. </p>","","instructions","","","","","","","","","","","","","","","",""
"comp-q","128","697392","0.0-3.0-17.0-0.0-0.0","pilot_wm_v1","65a4333efc75f965e7fc0cb5","2","null","null","true","","","","","","","1940.199999988079","<p> <b> True or False? </b> </p>
            <p> There can be 50 pieces of treasure in a given animal's chest. </p>","1","comp_question","","","","true","","","","","","","","","","","",""
"comp-q","129","705114","0.0-3.0-17.0-0.0-1.0","pilot_wm_v1","65a4333efc75f965e7fc0cb5","2","null","null","true","","","","","","","1073","<p> <b> That's right! </b> The amount of treasure in each chest can range from 0 to 40 pieces. </p>","0","comp_answer","","","","","","","","","","","","","","","",""
"comp-q","130","712757","0.0-3.0-17.0-0.1-0.1","pilot_wm_v1","65a4333efc75f965e7fc0cb5","2","null","null","true","","","","","","","534.6999999880791","<p> <b> True or False? </b> </p><p> In this game, all animals have the same amount of treasure in their left and right chests. </p>","1","comp_question","","","","true","","","","","","","","","","","",""
"comp-q","131","719002","0.0-3.0-17.0-0.1-1.1","pilot_wm_v1","65a4333efc75f965e7fc0cb5","2","null","null","true","","","","","","","1020.5","<p> <b> That's right! </b> Animals have different amounts of treasure in their treasure chests. </p>","0","comp_answer","","","","","","","","","","","","","","","",""
"comp-q","132","725862","0.0-3.0-17.0-0.2-0.2","pilot_wm_v1","65a4333efc75f965e7fc0cb5","2","null","null","true","","","","","","","1020.7999999523163","<p> <b> True or False? </b> </p><p> The same animal will always be there if you go up in the same place. </p>","0","comp_question","","","","true","","","","","","","","","","","",""
"comp-q","133","733308","0.0-3.0-17.0-0.2-1.2","pilot_wm_v1","65a4333efc75f965e7fc0cb5","2","null","null","true","","","","","","","1016.5","<p> <b> That's right! </b> One animal lives in the upper part and one lives in the lower part of every place. </p>","0","comp_answer","","","","","","","","","","","","","","","",""
"comp-q","134","743410","0.0-3.0-17.0-0.3-0.3","pilot_wm_v1","65a4333efc75f965e7fc0cb5","2","null","null","true","","","","","","","4589","<p> <b> True or False? </b> </p><p> If you see a different picture, it means you are in a new place. </p>","0","comp_question","","","","false","","","","","","","","","","","",""
"comp-q","135","755338","0.0-3.0-17.0-0.3-1.3","pilot_wm_v1","65a4333efc75f965e7fc0cb5","2","null","null","true","","","","","","","847","<p> <b>Incorrect.</b> Lots of different images may show the same place. For example,  you may see three different images that all remind you that you are in outer space. </p>","0","comp_answer","","","","","","","","","","","","","","","",""
"comp-q","136","761272","0.0-3.0-17.0-0.4-0.4","pilot_wm_v1","65a4333efc75f965e7fc0cb5","2","null","null","true","","","","","","","430.39999997615814","<p> <b> True or False? </b> </p><p> If you see a different picture, it means you are in a new place. </p>","1","comp_question","","","","true","","","","","","","","","","","",""
"comp-q","137","773290","0.0-3.0-17.0-0.4-1.4","pilot_wm_v1","65a4333efc75f965e7fc0cb5","2","null","null","true","","","","","","","799.6000000238419","<p> <b> That's right! </b> Lots of different images may show the same place. For example,  you may see three different images that all remind you that you are in outer space. </p>","0","comp_answer","","","","","","","","","","","","","","","",""
"learning-instructions","138","783858","0.0-3.0-18.0-0.0","pilot_wm_v1","65a4333efc75f965e7fc0cb5","2","null","null","true","","","","","","","726.7999999523163","<p> Good job. Remember to do your best because the amount of treasure you earn will be converted into bonus money. </p>
            <p> It’s time to start the real game! </p>","","instructions","","","","","","","","","","","","","","","",""
"learning-instructions","139","787092","0.0-4.0-0.0-0.0","pilot_wm_v1","65a4333efc75f965e7fc0cb5","2","null","null","true","","","","","","","531.1999999880791","<p> This time you are searching for treasure in the <b>ocean</b>.</p>","","instructions","","","","","","","","","","","","","","","",""
"learning-instructions","140","804716","0.0-4.0-0.0-0.1","pilot_wm_v1","65a4333efc75f965e7fc0cb5","2","null","null","true","","","","","","","354.89999997615814","<p><b>New</b> animals with <b>new</b> treasure chests live here. You need to explore to discover where the animal with the best treasure chest is.</p>
                    <p> Like before, once you figure out which animal has the chest with the most treasure, you should try to get to that animal and select that chest! </p>","","instructions","","","","","","","","","","","","","","","",""
"learning-instructions","141","820091","0.0-4.0-1.0-0.0","pilot_wm_v1","65a4333efc75f965e7fc0cb5","2","null","null","true","","","","","","","650","<p> Remember, when you see a picture of the place, use the up and down keys to <b>find an animal</b>.</p>
            <p> When you encounter an animal, you should use the left and right keys to <b>select a treasure chest</b>.</p>
            <p> Don't forget to look out for the robber! </p>","","instructions","","","","","","","","","","","","","","","",""
"revaluation","142","826117","0.0-4.0-2.0-0.0","pilot_wm_v1","65a4333efc75f965e7fc0cb5","2","null","null","true","","","false","","","","[1322,857.2999999523163]","./assets/img/ocean/memory/39.jpg","[""ArrowDown"",""ArrowLeft""]","value training","ocean","8","{""ArrowUp,ArrowLeft"":23,""ArrowUp,ArrowRight"":10,""ArrowDown,ArrowLeft"":8,""ArrowDown,ArrowRight"":30}","false","ArrowDown,ArrowLeft","false","","","","","","","0","revaluation","1",""
"html-keyboard-response","143","826631","0.0-4.0-2.0-1.0","pilot_wm_v1","65a4333efc75f965e7fc0cb5","2","null","null","true","","","","","","","null","<div style=""font-size:60px;"">+</div>","null","fixation","","","","","","","","","","","","","1","","",""
"revaluation","144","830647","0.0-4.0-2.0-0.1","pilot_wm_v1","65a4333efc75f965e7fc0cb5","2","null","null","true","","","false","","","","[1005.3999999761581]","./assets/img/ocean/catch/7.jpg","[""spaceBar""]","value training","ocean","0","{""ArrowUp,ArrowLeft"":23,""ArrowUp,ArrowRight"":10,""ArrowDown,ArrowLeft"":8,""ArrowDown,ArrowRight"":30}","true","spaceBar","true","","","","","","","2","revaluation","1",""
"html-keyboard-response","145","831162","0.0-4.0-2.0-1.1","pilot_wm_v1","65a4333efc75f965e7fc0cb5","2","null","null","true","","","","","","","null","<div style=""font-size:60px;"">+</div>","null","fixation","","","","","","","","","","","","","3","","",""
"revaluation","146","837205","0.0-4.0-2.0-0.2","pilot_wm_v1","65a4333efc75f965e7fc0cb5","2","null","null","true","","","false","","","","[546.3000000119209,377.5]","./assets/img/ocean/memory/19.jpg","[""ArrowDown"",""ArrowRight""]","value training","ocean","30","{""ArrowUp,ArrowLeft"":23,""ArrowUp,ArrowRight"":10,""ArrowDown,ArrowLeft"":8,""ArrowDown,ArrowRight"":30}","true","ArrowDown,ArrowRight","false","","","","","","","4","revaluation","1",""
"html-keyboard-response","147","837719","0.0-4.0-2.0-1.2","pilot_wm_v1","65a4333efc75f965e7fc0cb5","2","null","null","true","","","","","","","null","<div style=""font-size:60px;"">+</div>","null","fixation","","","","","","","","","","","","","5","","",""
"revaluation","148","843762","0.0-4.0-2.0-0.3","pilot_wm_v1","65a4333efc75f965e7fc0cb5","2","null","null","true","","","false","","","","[596.1999999880791,497.80000001192093]","./assets/img/ocean/memory/26.jpg","[""ArrowUp"",""ArrowRight""]","value training","ocean","10","{""ArrowUp,ArrowLeft"":23,""ArrowUp,ArrowRight"":10,""ArrowDown,ArrowLeft"":8,""ArrowDown,ArrowRight"":30}","false","ArrowUp,ArrowRight","false","","","","","","","6","revaluation","1",""
"html-keyboard-response","149","844277","0.0-4.0-2.0-1.3","pilot_wm_v1","65a4333efc75f965e7fc0cb5","2","null","null","true","","","","","","","null","<div style=""font-size:60px;"">+</div>","null","fixation","","","","","","","","","","","","","7","","",""
"revaluation","150","850291","0.0-4.0-2.0-0.4","pilot_wm_v1","65a4333efc75f965e7fc0cb5","2","null","null","true","","","false","","","","[687.7000000476837,592.6999999880791]","./assets/img/ocean/memory/26.jpg","[""ArrowUp"",""ArrowLeft""]","value training","ocean","23","{""ArrowUp,ArrowLeft"":23,""ArrowUp,ArrowRight"":10,""ArrowDown,ArrowLeft"":8,""ArrowDown,ArrowRight"":30}","false","ArrowUp,ArrowLeft","false","","","","","","","8","revaluation","1",""
"html-keyboard-response","151","850793","0.0-4.0-2.0-1.4","pilot_wm_v1","65a4333efc75f965e7fc0cb5","2","null","null","true","","","","","","","null","<div style=""font-size:60px;"">+</div>","null","fixation","","","","","","","","","","","","","9","","",""
"revaluation","152","856799","0.0-4.0-2.0-0.5","pilot_wm_v1","65a4333efc75f965e7fc0cb5","2","null","null","true","","","false","","","","[779.2999999523163,426.5]","./assets/img/ocean/memory/39.jpg","[""ArrowDown"",""ArrowRight""]","value training","ocean","30","{""ArrowUp,ArrowLeft"":23,""ArrowUp,ArrowRight"":10,""ArrowDown,ArrowLeft"":8,""ArrowDown,ArrowRight"":30}","true","ArrowDown,ArrowRight","false","","","","","","","10","revaluation","1",""
"html-keyboard-response","153","857302","0.0-4.0-2.0-1.5","pilot_wm_v1","65a4333efc75f965e7fc0cb5","2","null","null","true","","","","","","","null","<div style=""font-size:60px;"">+</div>","null","fixation","","","","","","","","","","","","","11","","",""
"revaluation","154","863309","0.0-4.0-2.0-0.6","pilot_wm_v1","65a4333efc75f965e7fc0cb5","2","null","null","true","","","false","","","","[1166.3999999761581,332.69999998807907]","./assets/img/ocean/memory/14.jpg","[""ArrowDown"",""ArrowRight""]","value training","ocean","30","{""ArrowUp,ArrowLeft"":23,""ArrowUp,ArrowRight"":10,""ArrowDown,ArrowLeft"":8,""ArrowDown,ArrowRight"":30}","true","ArrowDown,ArrowRight","false","","","","","","","12","revaluation","1",""
"html-keyboard-response","155","863812","0.0-4.0-2.0-1.6","pilot_wm_v1","65a4333efc75f965e7fc0cb5","2","null","null","true","","","","","","","null","<div style=""font-size:60px;"">+</div>","null","fixation","","","","","","","","","","","","","13","","",""
"revaluation","156","869821","0.0-4.0-2.0-0.7","pilot_wm_v1","65a4333efc75f965e7fc0cb5","2","null","null","true","","","false","","","","[525.6000000238419,406.19999998807907]","./assets/img/ocean/memory/18.jpg","[""ArrowDown"",""ArrowRight""]","value training","ocean","30","{""ArrowUp,ArrowLeft"":23,""ArrowUp,ArrowRight"":10,""ArrowDown,ArrowLeft"":8,""ArrowDown,ArrowRight"":30}","true","ArrowDown,ArrowRight","false","","","","","","","14","revaluation","1",""
"html-keyboard-response","157","870322","0.0-4.0-2.0-1.7","pilot_wm_v1","65a4333efc75f965e7fc0cb5","2","null","null","true","","","","","","","null","<div style=""font-size:60px;"">+</div>","null","fixation","","","","","","","","","","","","","15","","",""
"revaluation","158","876329","0.0-4.0-2.0-0.8","pilot_wm_v1","65a4333efc75f965e7fc0cb5","2","null","null","true","","","false","","","","[674.4000000357628,353.7999999523163]","./assets/img/ocean/memory/10.jpg","[""ArrowDown"",""ArrowRight""]","value training","ocean","30","{""ArrowUp,ArrowLeft"":23,""ArrowUp,ArrowRight"":10,""ArrowDown,ArrowLeft"":8,""ArrowDown,ArrowRight"":30}","true","ArrowDown,ArrowRight","false","","","","","","","16","revaluation","1",""
"html-keyboard-response","159","876832","0.0-4.0-2.0-1.8","pilot_wm_v1","65a4333efc75f965e7fc0cb5","2","null","null","true","","","","","","","null","<div style=""font-size:60px;"">+</div>","null","fixation","","","","","","","","","","","","","17","","",""
"revaluation","160","882848","0.0-4.0-2.0-0.9","pilot_wm_v1","65a4333efc75f965e7fc0cb5","2","null","null","true","","","false","","","","[1178.3999999761581,601.8000000119209]","./assets/img/ocean/memory/24.jpg","[""ArrowDown"",""ArrowRight""]","value training","ocean","30","{""ArrowUp,ArrowLeft"":23,""ArrowUp,ArrowRight"":10,""ArrowDown,ArrowLeft"":8,""ArrowDown,ArrowRight"":30}","true","ArrowDown,ArrowRight","false","","","","","","","18","revaluation","1",""
"html-keyboard-response","161","883350","0.0-4.0-2.0-1.9","pilot_wm_v1","65a4333efc75f965e7fc0cb5","2","null","null","true","","","","","","","null","<div style=""font-size:60px;"">+</div>","null","fixation","","","","","","","","","","","","","19","","",""
"revaluation","162","889368","0.0-4.0-2.0-0.10","pilot_wm_v1","65a4333efc75f965e7fc0cb5","2","null","null","true","","","false","","","","[567,578.1000000238419]","./assets/img/ocean/memory/5.jpg","[""ArrowDown"",""ArrowRight""]","value training","ocean","30","{""ArrowUp,ArrowLeft"":23,""ArrowUp,ArrowRight"":10,""ArrowDown,ArrowLeft"":8,""ArrowDown,ArrowRight"":30}","true","ArrowDown,ArrowRight","false","","","","","","","20","revaluation","1",""
"html-keyboard-response","163","889870","0.0-4.0-2.0-1.10","pilot_wm_v1","65a4333efc75f965e7fc0cb5","2","null","null","true","","","","","","","null","<div style=""font-size:60px;"">+</div>","null","fixation","","","","","","","","","","","","","21","","",""
"revaluation","164","895879","0.0-4.0-2.0-0.11","pilot_wm_v1","65a4333efc75f965e7fc0cb5","2","null","null","true","","","false","","","","[576.2000000476837,489.80000001192093]","./assets/img/ocean/memory/23.jpg","[""ArrowDown"",""ArrowRight""]","value training","ocean","30","{""ArrowUp,ArrowLeft"":23,""ArrowUp,ArrowRight"":10,""ArrowDown,ArrowLeft"":8,""ArrowDown,ArrowRight"":30}","true","ArrowDown,ArrowRight","false","","","","","","","22","revaluation","1",""
"html-keyboard-response","165","896381","0.0-4.0-2.0-1.11","pilot_wm_v1","65a4333efc75f965e7fc0cb5","2","null","null","true","","","","","","","null","<div style=""font-size:60px;"">+</div>","null","fixation","","","","","","","","","","","","","23","","",""
"revaluation","166","902392","0.0-4.0-2.0-0.12","pilot_wm_v1","65a4333efc75f965e7fc0cb5","2","null","null","true","","","false","","","","[1095.6000000238419,430.0999999642372]","./assets/img/ocean/memory/16.jpg","[""ArrowDown"",""ArrowRight""]","value training","ocean","30","{""ArrowUp,ArrowLeft"":23,""ArrowUp,ArrowRight"":10,""ArrowDown,ArrowLeft"":8,""ArrowDown,ArrowRight"":30}","true","ArrowDown,ArrowRight","false","","","","","","","24","revaluation","1",""
"html-keyboard-response","167","902895","0.0-4.0-2.0-1.12","pilot_wm_v1","65a4333efc75f965e7fc0cb5","2","null","null","true","","","","","","","null","<div style=""font-size:60px;"">+</div>","null","fixation","","","","","","","","","","","","","25","","",""
"revaluation","168","908902","0.0-4.0-2.0-0.13","pilot_wm_v1","65a4333efc75f965e7fc0cb5","2","null","null","true","","","false","","","","[589,409.69999998807907]","./assets/img/ocean/memory/36.jpg","[""ArrowDown"",""ArrowRight""]","value training","ocean","30","{""ArrowUp,ArrowLeft"":23,""ArrowUp,ArrowRight"":10,""ArrowDown,ArrowLeft"":8,""ArrowDown,ArrowRight"":30}","true","ArrowDown,ArrowRight","false","","","","","","","26","revaluation","1",""
"html-keyboard-response","169","909403","0.0-4.0-2.0-1.13","pilot_wm_v1","65a4333efc75f965e7fc0cb5","2","null","null","true","","","","","","","null","<div style=""font-size:60px;"">+</div>","null","fixation","","","","","","","","","","","","","27","","",""
"revaluation","170","915425","0.0-4.0-2.0-0.14","pilot_wm_v1","65a4333efc75f965e7fc0cb5","2","null","null","true","","","false","","","","[470.4000000357628,340.9000000357628]","./assets/img/ocean/memory/16.jpg","[""ArrowDown"",""ArrowRight""]","value training","ocean","30","{""ArrowUp,ArrowLeft"":23,""ArrowUp,ArrowRight"":10,""ArrowDown,ArrowLeft"":8,""ArrowDown,ArrowRight"":30}","true","ArrowDown,ArrowRight","false","","","","","","","28","revaluation","1",""
"html-keyboard-response","171","915927","0.0-4.0-2.0-1.14","pilot_wm_v1","65a4333efc75f965e7fc0cb5","2","null","null","true","","","","","","","null","<div style=""font-size:60px;"">+</div>","null","fixation","","","","","","","","","","","","","29","","",""
"revaluation","172","921938","0.0-4.0-2.0-0.15","pilot_wm_v1","65a4333efc75f965e7fc0cb5","2","null","null","true","","","false","","","","[451.5,397.0999999642372]","./assets/img/ocean/memory/25.jpg","[""ArrowDown"",""ArrowRight""]","value training","ocean","30","{""ArrowUp,ArrowLeft"":23,""ArrowUp,ArrowRight"":10,""ArrowDown,ArrowLeft"":8,""ArrowDown,ArrowRight"":30}","true","ArrowDown,ArrowRight","false","","","","","","","30","revaluation","1",""
"html-keyboard-response","173","922450","0.0-4.0-2.0-1.15","pilot_wm_v1","65a4333efc75f965e7fc0cb5","2","null","null","true","","","","","","","null","<div style=""font-size:60px;"">+</div>","null","fixation","","","","","","","","","","","","","31","","",""
"revaluation","174","928455","0.0-4.0-2.0-0.16","pilot_wm_v1","65a4333efc75f965e7fc0cb5","2","null","null","true","","","false","","","","[891.8000000119209,290.5]","./assets/img/ocean/memory/14.jpg","[""ArrowDown"",""ArrowRight""]","value training","ocean","30","{""ArrowUp,ArrowLeft"":23,""ArrowUp,ArrowRight"":10,""ArrowDown,ArrowLeft"":8,""ArrowDown,ArrowRight"":30}","true","ArrowDown,ArrowRight","false","","","","","","","32","revaluation","1",""
"html-keyboard-response","175","928956","0.0-4.0-2.0-1.16","pilot_wm_v1","65a4333efc75f965e7fc0cb5","2","null","null","true","","","","","","","null","<div style=""font-size:60px;"">+</div>","null","fixation","","","","","","","","","","","","","33","","",""
"revaluation","176","934962","0.0-4.0-2.0-0.17","pilot_wm_v1","65a4333efc75f965e7fc0cb5","2","null","null","true","","","false","","","","[535.2000000476837,350.69999998807907]","./assets/img/ocean/memory/33.jpg","[""ArrowDown"",""ArrowRight""]","value training","ocean","30","{""ArrowUp,ArrowLeft"":23,""ArrowUp,ArrowRight"":10,""ArrowDown,ArrowLeft"":8,""ArrowDown,ArrowRight"":30}","true","ArrowDown,ArrowRight","false","","","","","","","34","revaluation","1",""
"html-keyboard-response","177","935463","0.0-4.0-2.0-1.17","pilot_wm_v1","65a4333efc75f965e7fc0cb5","2","null","null","true","","","","","","","null","<div style=""font-size:60px;"">+</div>","null","fixation","","","","","","","","","","","","","35","","",""
"revaluation","178","941471","0.0-4.0-2.0-0.18","pilot_wm_v1","65a4333efc75f965e7fc0cb5","2","null","null","true","","","false","","","","[700.5,292.39999997615814]","./assets/img/ocean/memory/1.jpg","[""ArrowDown"",""ArrowRight""]","value training","ocean","30","{""ArrowUp,ArrowLeft"":23,""ArrowUp,ArrowRight"":10,""ArrowDown,ArrowLeft"":8,""ArrowDown,ArrowRight"":30}","true","ArrowDown,ArrowRight","false","","","","","","","36","revaluation","1",""
"html-keyboard-response","179","941973","0.0-4.0-2.0-1.18","pilot_wm_v1","65a4333efc75f965e7fc0cb5","2","null","null","true","","","","","","","null","<div style=""font-size:60px;"">+</div>","null","fixation","","","","","","","","","","","","","37","","",""
"revaluation","180","947978","0.0-4.0-2.0-0.19","pilot_wm_v1","65a4333efc75f965e7fc0cb5","2","null","null","true","","","false","","","","[757.8000000119209,335.5]","./assets/img/ocean/memory/11.jpg","[""ArrowDown"",""ArrowRight""]","value training","ocean","30","{""ArrowUp,ArrowLeft"":23,""ArrowUp,ArrowRight"":10,""ArrowDown,ArrowLeft"":8,""ArrowDown,ArrowRight"":30}","true","ArrowDown,ArrowRight","false","","","","","","","38","revaluation","1",""
"html-keyboard-response","181","948480","0.0-4.0-2.0-1.19","pilot_wm_v1","65a4333efc75f965e7fc0cb5","2","null","null","true","","","","","","","null","<div style=""font-size:60px;"">+</div>","null","fixation","","","","","","","","","","","","","39","","",""
"revaluation","182","954488","0.0-4.0-2.0-0.20","pilot_wm_v1","65a4333efc75f965e7fc0cb5","2","null","null","true","","","false","","","","[700.1999999880791,318.39999997615814]","./assets/img/ocean/memory/18.jpg","[""ArrowDown"",""ArrowRight""]","value training","ocean","30","{""ArrowUp,ArrowLeft"":23,""ArrowUp,ArrowRight"":10,""ArrowDown,ArrowLeft"":8,""ArrowDown,ArrowRight"":30}","true","ArrowDown,ArrowRight","false","","","","","","","40","revaluation","1",""
"html-keyboard-response","183","954989","0.0-4.0-2.0-1.20","pilot_wm_v1","65a4333efc75f965e7fc0cb5","2","null","null","true","","","","","","","null","<div style=""font-size:60px;"">+</div>","null","fixation","","","","","","","","","","","","","41","","",""
"revaluation","184","960996","0.0-4.0-2.0-0.21","pilot_wm_v1","65a4333efc75f965e7fc0cb5","2","null","null","true","","","false","","","","[630,318.89999997615814]","./assets/img/ocean/memory/8.jpg","[""ArrowDown"",""ArrowRight""]","value training","ocean","30","{""ArrowUp,ArrowLeft"":23,""ArrowUp,ArrowRight"":10,""ArrowDown,ArrowLeft"":8,""ArrowDown,ArrowRight"":30}","true","ArrowDown,ArrowRight","false","","","","","","","42","revaluation","1",""
"html-keyboard-response","185","961497","0.0-4.0-2.0-1.21","pilot_wm_v1","65a4333efc75f965e7fc0cb5","2","null","null","true","","","","","","","null","<div style=""font-size:60px;"">+</div>","null","fixation","","","","","","","","","","","","","43","","",""
"revaluation","186","967504","0.0-4.0-2.0-0.22","pilot_wm_v1","65a4333efc75f965e7fc0cb5","2","null","null","true","","","false","","","","[474.39999997615814,281]","./assets/img/ocean/memory/12.jpg","[""ArrowDown"",""ArrowRight""]","value training","ocean","30","{""ArrowUp,ArrowLeft"":23,""ArrowUp,ArrowRight"":10,""ArrowDown,ArrowLeft"":8,""ArrowDown,ArrowRight"":30}","true","ArrowDown,ArrowRight","false","","","","","","","44","revaluation","1",""
"html-keyboard-response","187","968006","0.0-4.0-2.0-1.22","pilot_wm_v1","65a4333efc75f965e7fc0cb5","2","null","null","true","","","","","","","null","<div style=""font-size:60px;"">+</div>","null","fixation","","","","","","","","","","","","","45","","",""
"revaluation","188","972011","0.0-4.0-2.0-0.23","pilot_wm_v1","65a4333efc75f965e7fc0cb5","2","null","null","true","","","false","","","","[869.1999999880791]","./assets/img/ocean/catch/4.jpg","[""spaceBar""]","value training","ocean","0","{""ArrowUp,ArrowLeft"":23,""ArrowUp,ArrowRight"":10,""ArrowDown,ArrowLeft"":8,""ArrowDown,ArrowRight"":30}","true","spaceBar","true","","","","","","","46","revaluation","1",""
"html-keyboard-response","189","972512","0.0-4.0-2.0-1.23","pilot_wm_v1","65a4333efc75f965e7fc0cb5","2","null","null","true","","","","","","","null","<div style=""font-size:60px;"">+</div>","null","fixation","","","","","","","","","","","","","47","","",""
"revaluation","190","978528","0.0-4.0-2.0-0.24","pilot_wm_v1","65a4333efc75f965e7fc0cb5","2","null","null","true","","","false","","","","[605.6000000238419,356.4000000357628]","./assets/img/ocean/memory/6.jpg","[""ArrowDown"",""ArrowRight""]","value training","ocean","30","{""ArrowUp,ArrowLeft"":23,""ArrowUp,ArrowRight"":10,""ArrowDown,ArrowLeft"":8,""ArrowDown,ArrowRight"":30}","true","ArrowDown,ArrowRight","false","","","","","","","48","revaluation","1",""
"html-keyboard-response","191","979030","0.0-4.0-2.0-1.24","pilot_wm_v1","65a4333efc75f965e7fc0cb5","2","null","null","true","","","","","","","null","<div style=""font-size:60px;"">+</div>","null","fixation","","","","","","","","","","","","","49","","",""
"revaluation","192","985045","0.0-4.0-2.0-0.25","pilot_wm_v1","65a4333efc75f965e7fc0cb5","2","null","null","true","","","false","","","","[518.5,387.80000001192093]","./assets/img/ocean/memory/11.jpg","[""ArrowDown"",""ArrowRight""]","value training","ocean","30","{""ArrowUp,ArrowLeft"":23,""ArrowUp,ArrowRight"":10,""ArrowDown,ArrowLeft"":8,""ArrowDown,ArrowRight"":30}","true","ArrowDown,ArrowRight","false","","","","","","","50","revaluation","1",""
"html-keyboard-response","193","985547","0.0-4.0-2.0-1.25","pilot_wm_v1","65a4333efc75f965e7fc0cb5","2","null","null","true","","","","","","","null","<div style=""font-size:60px;"">+</div>","null","fixation","","","","","","","","","","","","","51","","",""
"revaluation","194","989553","0.0-4.0-2.0-0.26","pilot_wm_v1","65a4333efc75f965e7fc0cb5","2","null","null","true","","","false","","","","[1169.4000000357628]","./assets/img/ocean/catch/6.jpg","[""spaceBar""]","value training","ocean","0","{""ArrowUp,ArrowLeft"":23,""ArrowUp,ArrowRight"":10,""ArrowDown,ArrowLeft"":8,""ArrowDown,ArrowRight"":30}","true","spaceBar","true","","","","","","","52","revaluation","1",""
"html-keyboard-response","195","990055","0.0-4.0-2.0-1.26","pilot_wm_v1","65a4333efc75f965e7fc0cb5","2","null","null","true","","","","","","","null","<div style=""font-size:60px;"">+</div>","null","fixation","","","","","","","","","","","","","53","","",""
"revaluation","196","996060","0.0-4.0-2.0-0.27","pilot_wm_v1","65a4333efc75f965e7fc0cb5","2","null","null","true","","","false","","","","[886.7999999523163,496.10000002384186]","./assets/img/ocean/memory/27.jpg","[""ArrowDown"",""ArrowRight""]","value training","ocean","30","{""ArrowUp,ArrowLeft"":23,""ArrowUp,ArrowRight"":10,""ArrowDown,ArrowLeft"":8,""ArrowDown,ArrowRight"":30}","true","ArrowDown,ArrowRight","false","","","","","","","54","revaluation","1",""
"html-keyboard-response","197","996562","0.0-4.0-2.0-1.27","pilot_wm_v1","65a4333efc75f965e7fc0cb5","2","null","null","true","","","","","","","null","<div style=""font-size:60px;"">+</div>","null","fixation","","","","","","","","","","","","","55","","",""
"revaluation","198","1002574","0.0-4.0-2.0-0.28","pilot_wm_v1","65a4333efc75f965e7fc0cb5","2","null","null","true","","","false","","","","[714.6000000238419,355.89999997615814]","./assets/img/ocean/memory/23.jpg","[""ArrowDown"",""ArrowRight""]","value training","ocean","30","{""ArrowUp,ArrowLeft"":23,""ArrowUp,ArrowRight"":10,""ArrowDown,ArrowLeft"":8,""ArrowDown,ArrowRight"":30}","true","ArrowDown,ArrowRight","false","","","","","","","56","revaluation","1",""
"html-keyboard-response","199","1003081","0.0-4.0-2.0-1.28","pilot_wm_v1","65a4333efc75f965e7fc0cb5","2","null","null","true","","","","","","","null","<div style=""font-size:60px;"">+</div>","null","fixation","","","","","","","","","","","","","57","","",""
"revaluation","200","1009089","0.0-4.0-2.0-0.29","pilot_wm_v1","65a4333efc75f965e7fc0cb5","2","null","null","true","","","false","","","","[994.6999999880791,593.1999999880791]","./assets/img/ocean/memory/5.jpg","[""ArrowDown"",""ArrowRight""]","value training","ocean","30","{""ArrowUp,ArrowLeft"":23,""ArrowUp,ArrowRight"":10,""ArrowDown,ArrowLeft"":8,""ArrowDown,ArrowRight"":30}","true","ArrowDown,ArrowRight","false","","","","","","","58","revaluation","1",""
"html-keyboard-response","201","1009601","0.0-4.0-2.0-1.29","pilot_wm_v1","65a4333efc75f965e7fc0cb5","2","null","null","true","","","","","","","null","<div style=""font-size:60px;"">+</div>","null","fixation","","","","","","","","","","","","","59","","",""
"revaluation","202","1015606","0.0-4.0-2.0-0.30","pilot_wm_v1","65a4333efc75f965e7fc0cb5","2","null","null","true","","","false","","","","[448.5999999642372,465.9000000357628]","./assets/img/ocean/memory/37.jpg","[""ArrowDown"",""ArrowRight""]","value training","ocean","30","{""ArrowUp,ArrowLeft"":23,""ArrowUp,ArrowRight"":10,""ArrowDown,ArrowLeft"":8,""ArrowDown,ArrowRight"":30}","true","ArrowDown,ArrowRight","false","","","","","","","60","revaluation","1",""
"html-keyboard-response","203","1016108","0.0-4.0-2.0-1.30","pilot_wm_v1","65a4333efc75f965e7fc0cb5","2","null","null","true","","","","","","","null","<div style=""font-size:60px;"">+</div>","null","fixation","","","","","","","","","","","","","61","","",""
"revaluation","204","1020115","0.0-4.0-2.0-0.31","pilot_wm_v1","65a4333efc75f965e7fc0cb5","2","null","null","true","","","false","","","","[983.2999999523163]","./assets/img/ocean/catch/5.jpg","[""spaceBar""]","value training","ocean","0","{""ArrowUp,ArrowLeft"":23,""ArrowUp,ArrowRight"":10,""ArrowDown,ArrowLeft"":8,""ArrowDown,ArrowRight"":30}","true","spaceBar","true","","","","","","","62","revaluation","1",""
"html-keyboard-response","205","1020617","0.0-4.0-2.0-1.31","pilot_wm_v1","65a4333efc75f965e7fc0cb5","2","null","null","true","","","","","","","null","<div style=""font-size:60px;"">+</div>","null","fixation","","","","","","","","","","","","","63","","",""
"revaluation","206","1026623","0.0-4.0-2.0-0.32","pilot_wm_v1","65a4333efc75f965e7fc0cb5","2","null","null","true","","","false","","","","[899.3000000119209,290.5]","./assets/img/ocean/memory/27.jpg","[""ArrowDown"",""ArrowRight""]","value training","ocean","30","{""ArrowUp,ArrowLeft"":23,""ArrowUp,ArrowRight"":10,""ArrowDown,ArrowLeft"":8,""ArrowDown,ArrowRight"":30}","true","ArrowDown,ArrowRight","false","","","","","","","64","revaluation","1",""
"html-keyboard-response","207","1027125","0.0-4.0-2.0-1.32","pilot_wm_v1","65a4333efc75f965e7fc0cb5","2","null","null","true","","","","","","","null","<div style=""font-size:60px;"">+</div>","null","fixation","","","","","","","","","","","","","65","","",""
"revaluation","208","1033131","0.0-4.0-2.0-0.33","pilot_wm_v1","65a4333efc75f965e7fc0cb5","2","null","null","true","","","false","","","","[900.8999999761581,550.1999999880791]","./assets/img/ocean/memory/36.jpg","[""ArrowDown"",""ArrowRight""]","value training","ocean","30","{""ArrowUp,ArrowLeft"":23,""ArrowUp,ArrowRight"":10,""ArrowDown,ArrowLeft"":8,""ArrowDown,ArrowRight"":30}","true","ArrowDown,ArrowRight","false","","","","","","","66","revaluation","1",""
"html-keyboard-response","209","1033633","0.0-4.0-2.0-1.33","pilot_wm_v1","65a4333efc75f965e7fc0cb5","2","null","null","true","","","","","","","null","<div style=""font-size:60px;"">+</div>","null","fixation","","","","","","","","","","","","","67","","",""
"revaluation","210","1039640","0.0-4.0-2.0-0.34","pilot_wm_v1","65a4333efc75f965e7fc0cb5","2","null","null","true","","","false","","","","[475.39999997615814,330.30000001192093]","./assets/img/ocean/memory/6.jpg","[""ArrowDown"",""ArrowRight""]","value training","ocean","30","{""ArrowUp,ArrowLeft"":23,""ArrowUp,ArrowRight"":10,""ArrowDown,ArrowLeft"":8,""ArrowDown,ArrowRight"":30}","true","ArrowDown,ArrowRight","false","","","","","","","68","revaluation","1",""
"html-keyboard-response","211","1040142","0.0-4.0-2.0-1.34","pilot_wm_v1","65a4333efc75f965e7fc0cb5","2","null","null","true","","","","","","","null","<div style=""font-size:60px;"">+</div>","null","fixation","","","","","","","","","","","","","69","","",""
"revaluation","212","1044145","0.0-4.0-2.0-0.35","pilot_wm_v1","65a4333efc75f965e7fc0cb5","2","null","null","true","","","false","","","","[743.5999999642372]","./assets/img/ocean/catch/2.jpg","[""spaceBar""]","value training","ocean","0","{""ArrowUp,ArrowLeft"":23,""ArrowUp,ArrowRight"":10,""ArrowDown,ArrowLeft"":8,""ArrowDown,ArrowRight"":30}","true","spaceBar","true","","","","","","","70","revaluation","1",""
"html-keyboard-response","213","1044648","0.0-4.0-2.0-1.35","pilot_wm_v1","65a4333efc75f965e7fc0cb5","2","null","null","true","","","","","","","null","<div style=""font-size:60px;"">+</div>","null","fixation","","","","","","","","","","","","","71","","",""
"revaluation","214","1048654","0.0-4.0-2.0-0.36","pilot_wm_v1","65a4333efc75f965e7fc0cb5","2","null","null","true","","","false","","","","[561.7000000476837]","./assets/img/ocean/catch/3.jpg","[""spaceBar""]","value training","ocean","0","{""ArrowUp,ArrowLeft"":23,""ArrowUp,ArrowRight"":10,""ArrowDown,ArrowLeft"":8,""ArrowDown,ArrowRight"":30}","true","spaceBar","true","","","","","","","72","revaluation","1",""
"html-keyboard-response","215","1049156","0.0-4.0-2.0-1.36","pilot_wm_v1","65a4333efc75f965e7fc0cb5","2","null","null","true","","","","","","","null","<div style=""font-size:60px;"">+</div>","null","fixation","","","","","","","","","","","","","73","","",""
"revaluation","216","1055163","0.0-4.0-2.0-0.37","pilot_wm_v1","65a4333efc75f965e7fc0cb5","2","null","null","true","","","false","","","","[446.7999999523163,318.5]","./assets/img/ocean/memory/8.jpg","[""ArrowDown"",""ArrowRight""]","value training","ocean","30","{""ArrowUp,ArrowLeft"":23,""ArrowUp,ArrowRight"":10,""ArrowDown,ArrowLeft"":8,""ArrowDown,ArrowRight"":30}","true","ArrowDown,ArrowRight","false","","","","","","","74","revaluation","1",""
"html-keyboard-response","217","1055673","0.0-4.0-2.0-1.37","pilot_wm_v1","65a4333efc75f965e7fc0cb5","2","null","null","true","","","","","","","null","<div style=""font-size:60px;"">+</div>","null","fixation","","","","","","","","","","","","","75","","",""
"revaluation","218","1061679","0.0-4.0-2.0-0.38","pilot_wm_v1","65a4333efc75f965e7fc0cb5","2","null","null","true","","","false","","","","[1011.1000000238419,402]","./assets/img/ocean/memory/12.jpg","[""ArrowDown"",""ArrowRight""]","value training","ocean","30","{""ArrowUp,ArrowLeft"":23,""ArrowUp,ArrowRight"":10,""ArrowDown,ArrowLeft"":8,""ArrowDown,ArrowRight"":30}","true","ArrowDown,ArrowRight","false","","","","","","","76","revaluation","1",""
"html-keyboard-response","219","1062182","0.0-4.0-2.0-1.38","pilot_wm_v1","65a4333efc75f965e7fc0cb5","2","null","null","true","","","","","","","null","<div style=""font-size:60px;"">+</div>","null","fixation","","","","","","","","","","","","","77","","",""
"revaluation","220","1068185","0.0-4.0-2.0-0.39","pilot_wm_v1","65a4333efc75f965e7fc0cb5","2","null","null","true","","","false","","","","[630.9000000357628,327.60000002384186]","./assets/img/ocean/memory/19.jpg","[""ArrowDown"",""ArrowRight""]","value training","ocean","30","{""ArrowUp,ArrowLeft"":23,""ArrowUp,ArrowRight"":10,""ArrowDown,ArrowLeft"":8,""ArrowDown,ArrowRight"":30}","true","ArrowDown,ArrowRight","false","","","","","","","78","revaluation","1",""
"html-keyboard-response","221","1068686","0.0-4.0-2.0-1.39","pilot_wm_v1","65a4333efc75f965e7fc0cb5","2","null","null","true","","","","","","","null","<div style=""font-size:60px;"">+</div>","null","fixation","","","","","","","","","","","","","79","","",""
"revaluation","222","1074694","0.0-4.0-2.0-0.40","pilot_wm_v1","65a4333efc75f965e7fc0cb5","2","null","null","true","","","false","","","","[685.6999999880791,291.80000001192093]","./assets/img/ocean/memory/1.jpg","[""ArrowDown"",""ArrowRight""]","value training","ocean","30","{""ArrowUp,ArrowLeft"":23,""ArrowUp,ArrowRight"":10,""ArrowDown,ArrowLeft"":8,""ArrowDown,ArrowRight"":30}","true","ArrowDown,ArrowRight","false","","","","","","","80","revaluation","1",""
"html-keyboard-response","223","1075196","0.0-4.0-2.0-1.40","pilot_wm_v1","65a4333efc75f965e7fc0cb5","2","null","null","true","","","","","","","null","<div style=""font-size:60px;"">+</div>","null","fixation","","","","","","","","","","","","","81","","",""
"revaluation","224","1081203","0.0-4.0-2.0-0.41","pilot_wm_v1","65a4333efc75f965e7fc0cb5","2","null","null","true","","","false","","","","[461,389.0999999642372]","./assets/img/ocean/memory/33.jpg","[""ArrowDown"",""ArrowRight""]","value training","ocean","30","{""ArrowUp,ArrowLeft"":23,""ArrowUp,ArrowRight"":10,""ArrowDown,ArrowLeft"":8,""ArrowDown,ArrowRight"":30}","true","ArrowDown,ArrowRight","false","","","","","","","82","revaluation","1",""
"html-keyboard-response","225","1081704","0.0-4.0-2.0-1.41","pilot_wm_v1","65a4333efc75f965e7fc0cb5","2","null","null","true","","","","","","","null","<div style=""font-size:60px;"">+</div>","null","fixation","","","","","","","","","","","","","83","","",""
"revaluation","226","1087710","0.0-4.0-2.0-0.42","pilot_wm_v1","65a4333efc75f965e7fc0cb5","2","null","null","true","","","false","","","","[412.19999998807907,339]","./assets/img/ocean/memory/29.jpg","[""ArrowDown"",""ArrowRight""]","value training","ocean","30","{""ArrowUp,ArrowLeft"":23,""ArrowUp,ArrowRight"":10,""ArrowDown,ArrowLeft"":8,""ArrowDown,ArrowRight"":30}","true","ArrowDown,ArrowRight","false","","","","","","","84","revaluation","1",""
"html-keyboard-response","227","1088212","0.0-4.0-2.0-1.42","pilot_wm_v1","65a4333efc75f965e7fc0cb5","2","null","null","true","","","","","","","null","<div style=""font-size:60px;"">+</div>","null","fixation","","","","","","","","","","","","","85","","",""
"revaluation","228","1092219","0.0-4.0-2.0-0.43","pilot_wm_v1","65a4333efc75f965e7fc0cb5","2","null","null","true","","","false","","","","[622.1000000238419]","./assets/img/ocean/catch/1.jpg","[""spaceBar""]","value training","ocean","0","{""ArrowUp,ArrowLeft"":23,""ArrowUp,ArrowRight"":10,""ArrowDown,ArrowLeft"":8,""ArrowDown,ArrowRight"":30}","true","spaceBar","true","","","","","","","86","revaluation","1",""
"html-keyboard-response","229","1092736","0.0-4.0-2.0-1.43","pilot_wm_v1","65a4333efc75f965e7fc0cb5","2","null","null","true","","","","","","","null","<div style=""font-size:60px;"">+</div>","null","fixation","","","","","","","","","","","","","87","","",""
"revaluation","230","1098749","0.0-4.0-2.0-0.44","pilot_wm_v1","65a4333efc75f965e7fc0cb5","2","null","null","true","","","false","","","","[290.19999998807907,315.80000001192093]","./assets/img/ocean/memory/29.jpg","[""ArrowDown"",""ArrowRight""]","value training","ocean","30","{""ArrowUp,ArrowLeft"":23,""ArrowUp,ArrowRight"":10,""ArrowDown,ArrowLeft"":8,""ArrowDown,ArrowRight"":30}","true","ArrowDown,ArrowRight","false","","","","","","","88","revaluation","1",""
"html-keyboard-response","231","1099251","0.0-4.0-2.0-1.44","pilot_wm_v1","65a4333efc75f965e7fc0cb5","2","null","null","true","","","","","","","null","<div style=""font-size:60px;"">+</div>","null","fixation","","","","","","","","","","","","","89","","",""
"revaluation","232","1105256","0.0-4.0-2.0-0.45","pilot_wm_v1","65a4333efc75f965e7fc0cb5","2","null","null","true","","","false","","","","[370,311.39999997615814]","./assets/img/ocean/memory/10.jpg","[""ArrowDown"",""ArrowRight""]","value training","ocean","30","{""ArrowUp,ArrowLeft"":23,""ArrowUp,ArrowRight"":10,""ArrowDown,ArrowLeft"":8,""ArrowDown,ArrowRight"":30}","true","ArrowDown,ArrowRight","false","","","","","","","90","revaluation","1",""
"html-keyboard-response","233","1105759","0.0-4.0-2.0-1.45","pilot_wm_v1","65a4333efc75f965e7fc0cb5","2","null","null","true","","","","","","","null","<div style=""font-size:60px;"">+</div>","null","fixation","","","","","","","","","","","","","91","","",""
"revaluation","234","1111766","0.0-4.0-2.0-0.46","pilot_wm_v1","65a4333efc75f965e7fc0cb5","2","null","null","true","","","false","","","","[460.60000002384186,459.5]","./assets/img/ocean/memory/24.jpg","[""ArrowDown"",""ArrowRight""]","value training","ocean","30","{""ArrowUp,ArrowLeft"":23,""ArrowUp,ArrowRight"":10,""ArrowDown,ArrowLeft"":8,""ArrowDown,ArrowRight"":30}","true","ArrowDown,ArrowRight","false","","","","","","","92","revaluation","1",""
"html-keyboard-response","235","1112276","0.0-4.0-2.0-1.46","pilot_wm_v1","65a4333efc75f965e7fc0cb5","2","null","null","true","","","","","","","null","<div style=""font-size:60px;"">+</div>","null","fixation","","","","","","","","","","","","","93","","",""
"revaluation","236","1118282","0.0-4.0-2.0-0.47","pilot_wm_v1","65a4333efc75f965e7fc0cb5","2","null","null","true","","","false","","","","[407.39999997615814,271]","./assets/img/ocean/memory/25.jpg","[""ArrowDown"",""ArrowRight""]","value training","ocean","30","{""ArrowUp,ArrowLeft"":23,""ArrowUp,ArrowRight"":10,""ArrowDown,ArrowLeft"":8,""ArrowDown,ArrowRight"":30}","true","ArrowDown,ArrowRight","false","","","","","","","94","revaluation","1",""
"html-keyboard-response","237","1118783","0.0-4.0-2.0-1.47","pilot_wm_v1","65a4333efc75f965e7fc0cb5","2","null","null","true","","","","","","","null","<div style=""font-size:60px;"">+</div>","null","fixation","","","","","","","","","","","","","95","","",""
"revaluation","238","1122787","0.0-4.0-2.0-0.48","pilot_wm_v1","65a4333efc75f965e7fc0cb5","2","null","null","true","","","false","","","","[733.1000000238419]","./assets/img/ocean/catch/0.jpg","[""spaceBar""]","value training","ocean","0","{""ArrowUp,ArrowLeft"":23,""ArrowUp,ArrowRight"":10,""ArrowDown,ArrowLeft"":8,""ArrowDown,ArrowRight"":30}","true","spaceBar","true","","","","","","","96","revaluation","1",""
"html-keyboard-response","239","1123289","0.0-4.0-2.0-1.48","pilot_wm_v1","65a4333efc75f965e7fc0cb5","2","null","null","true","","","","","","","null","<div style=""font-size:60px;"">+</div>","null","fixation","","","","","","","","","","","","","97","","",""
"revaluation","240","1129296","0.0-4.0-2.0-0.49","pilot_wm_v1","65a4333efc75f965e7fc0cb5","2","null","null","true","","","false","","","","[377.89999997615814,470.9000000357628]","./assets/img/ocean/memory/37.jpg","[""ArrowDown"",""ArrowRight""]","value training","ocean","30","{""ArrowUp,ArrowLeft"":23,""ArrowUp,ArrowRight"":10,""ArrowDown,ArrowLeft"":8,""ArrowDown,ArrowRight"":30}","true","ArrowDown,ArrowRight","false","","","","","","","98","revaluation","1",""
"html-keyboard-response","241","1129798","0.0-4.0-2.0-1.49","pilot_wm_v1","65a4333efc75f965e7fc0cb5","2","null","null","true","","","","","","","null","<div style=""font-size:60px;"">+</div>","null","fixation","","","","","","","","","","","","","99","","",""
"learning-instructions","242","1145285","0.0-4.0-3.0-0.0","pilot_wm_v1","65a4333efc75f965e7fc0cb5","2","null","null","true","","","","","","","2589.900000035763","<p> Now, you will travel with a friend who will choose whether you go up or down first. </p>
            <p> On these turns, you will just see the animal that they found. You will still get to choose which chest to search for treasure.</p>","","instructions","","","","","","","","","","","","","","","",""
"learning-instructions","243","1157977","0.0-4.0-3.0-0.1","pilot_wm_v1","65a4333efc75f965e7fc0cb5","2","null","null","true","","","","","","","1082","<p> In this part, you will also hear beeps from your friend and see special treasure chests that need a password. </p>
            <p> Do your best to count the high beeps <b>and</b> choose between each animals' chests at the same time.</p>
            <img src='./assets/img/instructions/beep_chest.jpg' class='instructions-image'>","","instructions","","","","","","","","","","","","","","","",""
"revaluation","244","1162003","0.0-4.0-4.0-0.0","pilot_wm_v1","65a4333efc75f965e7fc0cb5","2","null","null","true","","","false","","","","[1365.1000000238419]","./assets/img/ocean/animals/seahorse.jpg","[""ArrowRight""]","revaluation","ocean","7","{""ArrowUp,ArrowLeft"":27,""ArrowUp,ArrowRight"":15,""ArrowDown,ArrowLeft"":21,""ArrowDown,ArrowRight"":7}","false","ArrowDown,ArrowRight","","13_2","","","","","","0","revaluation","1",""
"html-keyboard-response","245","1162516","0.0-4.0-4.0-1.0","pilot_wm_v1","65a4333efc75f965e7fc0cb5","2","null","null","true","","","","","","","null","<div style=""font-size:60px;"">+</div>","null","fixation","","","","","","","","","","","","","","","",""
"revaluation","246","1166535","0.0-4.0-4.0-0.1","pilot_wm_v1","65a4333efc75f965e7fc0cb5","2","null","null","true","","","false","","","","[910.4000000357628]","./assets/img/ocean/animals/octopus.jpg","[""ArrowLeft""]","revaluation","ocean","27","{""ArrowUp,ArrowLeft"":27,""ArrowUp,ArrowRight"":15,""ArrowDown,ArrowLeft"":21,""ArrowDown,ArrowRight"":7}","true","ArrowUp,ArrowLeft","","4_0","","","","","","1","revaluation","1",""
"html-keyboard-response","247","1167050","0.0-4.0-4.0-1.1","pilot_wm_v1","65a4333efc75f965e7fc0cb5","2","null","null","true","","","","","","","null","<div style=""font-size:60px;"">+</div>","null","fixation","","","","","","","","","","","","","","","",""
"revaluation","248","1171074","0.0-4.0-4.0-0.2","pilot_wm_v1","65a4333efc75f965e7fc0cb5","2","null","null","true","","","false","","","","[696.8000000119209]","./assets/img/ocean/animals/octopus.jpg","[""ArrowLeft""]","revaluation","ocean","27","{""ArrowUp,ArrowLeft"":27,""ArrowUp,ArrowRight"":15,""ArrowDown,ArrowLeft"":21,""ArrowDown,ArrowRight"":7}","true","ArrowUp,ArrowLeft","","6_3","","","","","","2","revaluation","1",""
"html-keyboard-response","249","1171591","0.0-4.0-4.0-1.2","pilot_wm_v1","65a4333efc75f965e7fc0cb5","2","null","null","true","","","","","","","null","<div style=""font-size:60px;"">+</div>","null","fixation","","","","","","","","","","","","","","","",""
"revaluation","250","1175614","0.0-4.0-4.0-0.3","pilot_wm_v1","65a4333efc75f965e7fc0cb5","2","null","null","true","","","false","","","","[761.8000000119209]","./assets/img/ocean/animals/seahorse.jpg","[""ArrowLeft""]","revaluation","ocean","21","{""ArrowUp,ArrowLeft"":27,""ArrowUp,ArrowRight"":15,""ArrowDown,ArrowLeft"":21,""ArrowDown,ArrowRight"":7}","true","ArrowDown,ArrowLeft","","12_2","","","","","","3","revaluation","1",""
"html-keyboard-response","251","1176128","0.0-4.0-4.0-1.3","pilot_wm_v1","65a4333efc75f965e7fc0cb5","2","null","null","true","","","","","","","null","<div style=""font-size:60px;"">+</div>","null","fixation","","","","","","","","","","","","","","","",""
"html-slider-response","252","1178091","0.0-4.0-4.0-2.3-0.3","pilot_wm_v1","65a4333efc75f965e7fc0cb5","2","null","null","true","","","","","","","1961","<div style=""width:500px;"">
        <p>What is the password?</p>
        <img src='./assets/img/instructions/beep_chest.jpg' class='instructions-image'>","2","beep chest","","","","false","","","","50","7","5","","","","","",""
"revaluation","253","1182101","0.0-4.0-4.0-0.4","pilot_wm_v1","65a4333efc75f965e7fc0cb5","2","null","null","true","","","false","","","","[1322.0999999642372]","./assets/img/ocean/animals/octopus.jpg","[""ArrowLeft""]","revaluation","ocean","27","{""ArrowUp,ArrowLeft"":27,""ArrowUp,ArrowRight"":15,""ArrowDown,ArrowLeft"":21,""ArrowDown,ArrowRight"":7}","true","ArrowUp,ArrowLeft","","8_2","","","","","","4","revaluation","1",""
"html-keyboard-response","254","1182616","0.0-4.0-4.0-1.4","pilot_wm_v1","65a4333efc75f965e7fc0cb5","2","null","null","true","","","","","","","null","<div style=""font-size:60px;"">+</div>","null","fixation","","","","","","","","","","","","","","","",""
"revaluation","255","1186643","0.0-4.0-4.0-0.5","pilot_wm_v1","65a4333efc75f965e7fc0cb5","2","null","null","true","","","false","","","","[529.1000000238419]","./assets/img/ocean/animals/octopus.jpg","[""ArrowRight""]","revaluation","ocean","15","{""ArrowUp,ArrowLeft"":27,""ArrowUp,ArrowRight"":15,""ArrowDown,ArrowLeft"":21,""ArrowDown,ArrowRight"":7}","false","ArrowUp,ArrowRight","","5_4","","","","","","5","revaluation","1",""
"html-keyboard-response","256","1187146","0.0-4.0-4.0-1.5","pilot_wm_v1","65a4333efc75f965e7fc0cb5","2","null","null","true","","","","","","","null","<div style=""font-size:60px;"">+</div>","null","fixation","","","","","","","","","","","","","","","",""
"revaluation","257","1191153","0.0-4.0-4.0-0.6","pilot_wm_v1","65a4333efc75f965e7fc0cb5","2","null","null","true","","","false","","","","[615.8000000119209]","./assets/img/ocean/animals/octopus.jpg","[""ArrowLeft""]","revaluation","ocean","27","{""ArrowUp,ArrowLeft"":27,""ArrowUp,ArrowRight"":15,""ArrowDown,ArrowLeft"":21,""ArrowDown,ArrowRight"":7}","true","ArrowUp,ArrowLeft","","2_1","","","","","","6","revaluation","1",""
"html-keyboard-response","258","1191655","0.0-4.0-4.0-1.6","pilot_wm_v1","65a4333efc75f965e7fc0cb5","2","null","null","true","","","","","","","null","<div style=""font-size:60px;"">+</div>","null","fixation","","","","","","","","","","","","","","","",""
"revaluation","259","1195660","0.0-4.0-4.0-0.7","pilot_wm_v1","65a4333efc75f965e7fc0cb5","2","null","null","true","","","false","","","","[659.5999999642372]","./assets/img/ocean/animals/octopus.jpg","[""ArrowLeft""]","revaluation","ocean","27","{""ArrowUp,ArrowLeft"":27,""ArrowUp,ArrowRight"":15,""ArrowDown,ArrowLeft"":21,""ArrowDown,ArrowRight"":7}","true","ArrowUp,ArrowLeft","","1_4","","","","","","7","revaluation","1",""
"html-keyboard-response","260","1196161","0.0-4.0-4.0-1.7","pilot_wm_v1","65a4333efc75f965e7fc0cb5","2","null","null","true","","","","","","","null","<div style=""font-size:60px;"">+</div>","null","fixation","","","","","","","","","","","","","","","",""
"html-slider-response","261","1198366","0.0-4.0-4.0-2.7-0.7","pilot_wm_v1","65a4333efc75f965e7fc0cb5","2","null","null","true","","","","","","","2203","<div style=""width:500px;"">
        <p>What is the password?</p>
        <img src='./assets/img/instructions/beep_chest.jpg' class='instructions-image'>","4","beep chest","","","","false","","","","50","11","7","","","","","",""
"revaluation","262","1202370","0.0-4.0-4.0-0.8","pilot_wm_v1","65a4333efc75f965e7fc0cb5","2","null","null","true","","","false","","","","[1775.5]","./assets/img/ocean/animals/seahorse.jpg","[""ArrowLeft""]","revaluation","ocean","21","{""ArrowUp,ArrowLeft"":27,""ArrowUp,ArrowRight"":15,""ArrowDown,ArrowLeft"":21,""ArrowDown,ArrowRight"":7}","true","ArrowDown,ArrowLeft","","15_0","","","","","","8","revaluation","1",""
"html-keyboard-response","263","1202885","0.0-4.0-4.0-1.8","pilot_wm_v1","65a4333efc75f965e7fc0cb5","2","null","null","true","","","","","","","null","<div style=""font-size:60px;"">+</div>","null","fixation","","","","","","","","","","","","","","","",""
"revaluation","264","1206891","0.0-4.0-4.0-0.9","pilot_wm_v1","65a4333efc75f965e7fc0cb5","2","null","null","true","","","false","","","","[772.2999999523163]","./assets/img/ocean/animals/octopus.jpg","[""ArrowLeft""]","revaluation","ocean","27","{""ArrowUp,ArrowLeft"":27,""ArrowUp,ArrowRight"":15,""ArrowDown,ArrowLeft"":21,""ArrowDown,ArrowRight"":7}","true","ArrowUp,ArrowLeft","","9_2","","","","","","9","revaluation","1",""
"html-keyboard-response","265","1207394","0.0-4.0-4.0-1.9","pilot_wm_v1","65a4333efc75f965e7fc0cb5","2","null","null","true","","","","","","","null","<div style=""font-size:60px;"">+</div>","null","fixation","","","","","","","","","","","","","","","",""
"revaluation","266","1211400","0.0-4.0-4.0-0.10","pilot_wm_v1","65a4333efc75f965e7fc0cb5","2","null","null","true","","","false","","","","[672.3000000119209]","./assets/img/ocean/animals/seahorse.jpg","[""ArrowRight""]","revaluation","ocean","7","{""ArrowUp,ArrowLeft"":27,""ArrowUp,ArrowRight"":15,""ArrowDown,ArrowLeft"":21,""ArrowDown,ArrowRight"":7}","false","ArrowDown,ArrowRight","","16_0","","","","","","10","revaluation","1",""
"html-keyboard-response","267","1211902","0.0-4.0-4.0-1.10","pilot_wm_v1","65a4333efc75f965e7fc0cb5","2","null","null","true","","","","","","","null","<div style=""font-size:60px;"">+</div>","null","fixation","","","","","","","","","","","","","","","",""
"revaluation","268","1215906","0.0-4.0-4.0-0.11","pilot_wm_v1","65a4333efc75f965e7fc0cb5","2","null","null","true","","","false","","","","[486.5]","./assets/img/ocean/animals/seahorse.jpg","[""ArrowLeft""]","revaluation","ocean","21","{""ArrowUp,ArrowLeft"":27,""ArrowUp,ArrowRight"":15,""ArrowDown,ArrowLeft"":21,""ArrowDown,ArrowRight"":7}","true","ArrowDown,ArrowLeft","","10_3","","","","","","11","revaluation","1",""
"html-keyboard-response","269","1216409","0.0-4.0-4.0-1.11","pilot_wm_v1","65a4333efc75f965e7fc0cb5","2","null","null","true","","","","","","","null","<div style=""font-size:60px;"">+</div>","null","fixation","","","","","","","","","","","","","","","",""
"html-slider-response","270","1220856","0.0-4.0-4.0-2.11-0.11","pilot_wm_v1","65a4333efc75f965e7fc0cb5","2","null","null","true","","","","","","","4445","<div style=""width:500px;"">
        <p>What is the password?</p>
        <img src='./assets/img/instructions/beep_chest.jpg' class='instructions-image'>","2","beep chest","","","","false","","","","50","5","3","","","","","",""
"revaluation","271","1224874","0.0-4.0-4.0-0.12","pilot_wm_v1","65a4333efc75f965e7fc0cb5","2","null","null","true","","","true","","","","[]","./assets/img/ocean/animals/seahorse.jpg","[]","revaluation","ocean","-5","{""ArrowUp,ArrowLeft"":27,""ArrowUp,ArrowRight"":15,""ArrowDown,ArrowLeft"":21,""ArrowDown,ArrowRight"":7}","false","ArrowDown","","18_0","","","","","","12","revaluation","1",""
"html-keyboard-response","272","1225375","0.0-4.0-4.0-1.12","pilot_wm_v1","65a4333efc75f965e7fc0cb5","2","null","null","true","","","","","","","null","<div style=""font-size:60px;"">+</div>","null","fixation","","","","","","","","","","","","","","","",""
"revaluation","273","1229381","0.0-4.0-4.0-0.13","pilot_wm_v1","65a4333efc75f965e7fc0cb5","2","null","null","true","","","false","","","","[565.1000000238419]","./assets/img/ocean/animals/octopus.jpg","[""ArrowLeft""]","revaluation","ocean","27","{""ArrowUp,ArrowLeft"":27,""ArrowUp,ArrowRight"":15,""ArrowDown,ArrowLeft"":21,""ArrowDown,ArrowRight"":7}","true","ArrowUp,ArrowLeft","","7_4","","","","","","13","revaluation","1",""
"html-keyboard-response","274","1229883","0.0-4.0-4.0-1.13","pilot_wm_v1","65a4333efc75f965e7fc0cb5","2","null","null","true","","","","","","","null","<div style=""font-size:60px;"">+</div>","null","fixation","","","","","","","","","","","","","","","",""
"revaluation","275","1233889","0.0-4.0-4.0-0.14","pilot_wm_v1","65a4333efc75f965e7fc0cb5","2","null","null","true","","","false","","","","[333.4000000357628]","./assets/img/ocean/animals/octopus.jpg","[""ArrowLeft""]","revaluation","ocean","27","{""ArrowUp,ArrowLeft"":27,""ArrowUp,ArrowRight"":15,""ArrowDown,ArrowLeft"":21,""ArrowDown,ArrowRight"":7}","true","ArrowUp,ArrowLeft","","3_0","","","","","","14","revaluation","1",""
"html-keyboard-response","276","1234392","0.0-4.0-4.0-1.14","pilot_wm_v1","65a4333efc75f965e7fc0cb5","2","null","null","true","","","","","","","null","<div style=""font-size:60px;"">+</div>","null","fixation","","","","","","","","","","","","","","","",""
"revaluation","277","1238398","0.0-4.0-4.0-0.15","pilot_wm_v1","65a4333efc75f965e7fc0cb5","2","null","null","true","","","false","","","","[322.0999999642372]","./assets/img/ocean/animals/seahorse.jpg","[""ArrowLeft""]","revaluation","ocean","21","{""ArrowUp,ArrowLeft"":27,""ArrowUp,ArrowRight"":15,""ArrowDown,ArrowLeft"":21,""ArrowDown,ArrowRight"":7}","true","ArrowDown,ArrowLeft","","11_4","","","","","","15","revaluation","1",""
