"trial_type","trial_index","time_elapsed","internal_node_id","task_version","subject_id","assigned_condition","age","gender","rest","success","timeout","failed_images","failed_audio","failed_video","browser_interaction","rt","stimulus","response","task_part","environment","score","rewardMap","correct","fullState","isCatch","audioStim","slider_start","answer","error","trial_num","condition","order","bonus"
"pavlovia","0","973","0.0-0.0","pilot_wm_v1","58d834cec207720001e2e750","8","null","null","false","","","","","","","","","","","","","","","","","","","","","","","",""
"preload","1","16065","0.0-1.0","pilot_wm_v1","58d834cec207720001e2e750","8","null","null","false","true","false","[]","[]","[]","[{""event"":""fullscreenenter"",""trial"":2,""time"":20932}]","","","","","","","","","","","","","","","","","",""
"fullscreen","2","21922","0.0-2.0","pilot_wm_v1","58d834cec207720001e2e750","8","null","null","false","true","","","","","","","","","","","","","","","","","","","","","","",""
"audio-button-response","3","24060","0.0-3.0-0.0-0.0","pilot_wm_v1","58d834cec207720001e2e750","8","null","null","false","","","","","","","2109","./assets/audio/audiotest/turtle.mp3","2","audio_test","","","","","","","","","","","","","",""
"learning-instructions","4","33469","0.0-3.0-1.0-0.0","pilot_wm_v1","58d834cec207720001e2e750","8","null","null","false","","","","","","","2434.5999999940395","<p> Welcome! Please remember to stay in fullscreen mode and don't click away from the experiment. </p>","","instructions","","","","","","","","","","","","","",""
"learning-instructions","5","44910","0.0-3.0-1.0-0.1","pilot_wm_v1","58d834cec207720001e2e750","8","null","null","false","","","","","","","3045.5999999940395","<p> Today you will be playing a game to earn treasure. </p>
            <p> At the end of the experiment, you will earn a bonus based on how much treasure you find. </p>
            <img src='./assets/img/instructions/treasure.jpg' class='instructions-image'>","","instructions","","","","","","","","","","","","","",""
"learning-instructions","6","54762","0.0-3.0-1.0-0.2","pilot_wm_v1","58d834cec207720001e2e750","8","null","null","false","","","","","","","1607.5","<p> Animals have hidden treasure in treasure chests. </p>
            <p> You need to first find an animal and then choose which of their treasure chests to search. </p>
            <img src='./assets/img/space/animals/cat.jpg' class='instructions-image'>","","instructions","","","","","","","","","","","","","",""
"learning-instructions","7","76158","0.0-3.0-1.0-0.3","pilot_wm_v1","58d834cec207720001e2e750","8","null","null","false","","","","","","","8273.5","<p> In each round, you will search for treasure in a different place. In the real game, there will be two rounds. </p>
            <p> You will begin with a separate, practice round where you will search for treasure in outer space. </p>
            <img src='./assets/img/space/0.jpg' class='instructions-image'>","","instructions","","","","","","","","","","","","","",""
"learning-instructions","8","89849","0.0-3.0-1.0-0.4","pilot_wm_v1","58d834cec207720001e2e750","8","null","null","false","","","","","","","2294.5999999940395","<p> On every turn, you will see a picture of the place that you are in, but the specific image may be different each time. </p>
            <p> For example, both of these images mean you are in outer space. </p>
            <img src='./assets/img/instructions/outerspace.jpg' class='instructions-image'>","","instructions","","","","","","","","","","","","","",""
"learning-instructions","9","98954","0.0-3.0-1.0-0.5","pilot_wm_v1","58d834cec207720001e2e750","8","null","null","false","","","","","","","1300.300000011921","<p> You need to decide which direction to travel in. </p>
            <p> You can choose between going <b>up or down</b> by using the arrow keys. </p>
            <img src='./assets/img/instructions/updown.jpg' class='instructions-image'>","","instructions","","","","","","","","","","","","","",""
"learning-instructions","10","115836","0.0-3.0-1.0-0.6","pilot_wm_v1","58d834cec207720001e2e750","8","null","null","false","","","","","","","8091.800000011921","<p> You will have <b>2 seconds</b> to make your choice. </p>
            <p> If you do not make a choice within 2 seconds, you will not find an animal or earn treasure. </p>
            <img src='./assets/img/instructions/2seconds.jpg' class='instructions-image'>","","instructions","","","","","","","","","","","","","",""
"learning-instructions","11","123663","0.0-3.0-1.0-0.7","pilot_wm_v1","58d834cec207720001e2e750","8","null","null","false","","","","","","","818.9000000059605","<p> Let’s try practicing that now! </p>
            <p> When you see a picture of the place you are in, press the <b>up</b> key to travel up. </p>
            <img src='./assets/img/instructions/pressUp.jpg' class='instructions-image'>","","instructions","","","","","","","","","","","","","",""
"revaluation","12","127685","0.0-3.0-2.0-0.0","pilot_wm_v1","58d834cec207720001e2e750","8","null","null","false","","false","","","","","[955.5999999940395]","./assets/img/space/0.jpg","[""ArrowUp""]","first stage practice","space","0","null","null","ArrowUp","false","","","","","","","",""
"html-keyboard-response","13","128197","0.0-3.0-2.0-1.0","pilot_wm_v1","58d834cec207720001e2e750","8","null","null","false","","","","","","","null","<div style=""font-size:60px;"">+</div>","null","fixation","","","","","","","","","","","","","",""
"revaluation","14","132221","0.0-3.0-2.0-0.1","pilot_wm_v1","58d834cec207720001e2e750","8","null","null","false","","false","","","","","[783.5999999940395]","./assets/img/space/1.jpg","[""ArrowUp""]","first stage practice","space","0","null","null","ArrowUp","false","","","","","","","",""
"html-keyboard-response","15","132739","0.0-3.0-2.0-1.1","pilot_wm_v1","58d834cec207720001e2e750","8","null","null","false","","","","","","","null","<div style=""font-size:60px;"">+</div>","null","fixation","","","","","","","","","","","","","",""
"revaluation","16","136759","0.0-3.0-2.0-0.2","pilot_wm_v1","58d834cec207720001e2e750","8","null","null","false","","false","","","","","[410.19999998807907]","./assets/img/space/2.jpg","[""ArrowUp""]","first stage practice","space","0","null","null","ArrowUp","false","","","","","","","",""
"html-keyboard-response","17","137273","0.0-3.0-2.0-1.2","pilot_wm_v1","58d834cec207720001e2e750","8","null","null","false","","","","","","","null","<div style=""font-size:60px;"">+</div>","null","fixation","","","","","","","","","","","","","",""
"learning-instructions","18","146799","0.0-3.0-3.0-0.0","pilot_wm_v1","58d834cec207720001e2e750","8","null","null","false","","","","","","","4844.5999999940395","<p> Great job! Now try pressing the <b>down</b> key to travel down. </p>
            <img src='./assets/img/instructions/pressDown.jpg' class='instructions-image'>","","instructions","","","","","","","","","","","","","",""
"revaluation","19","150816","0.0-3.0-4.0-0.0","pilot_wm_v1","58d834cec207720001e2e750","8","null","null","false","","false","","","","","[848.0999999940395]","./assets/img/space/3.jpg","[""ArrowDown""]","first stage practice","space","0","null","null","ArrowDown","false","","","","","","","",""
"html-keyboard-response","20","151328","0.0-3.0-4.0-1.0","pilot_wm_v1","58d834cec207720001e2e750","8","null","null","false","","","","","","","null","<div style=""font-size:60px;"">+</div>","null","fixation","","","","","","","","","","","","","",""
"revaluation","21","155349","0.0-3.0-4.0-0.1","pilot_wm_v1","58d834cec207720001e2e750","8","null","null","false","","false","","","","","[402.7999999821186]","./assets/img/space/4.jpg","[""ArrowDown""]","first stage practice","space","0","null","null","ArrowDown","false","","","","","","","",""
"html-keyboard-response","22","155853","0.0-3.0-4.0-1.1","pilot_wm_v1","58d834cec207720001e2e750","8","null","null","false","","","","","","","null","<div style=""font-size:60px;"">+</div>","null","fixation","","","","","","","","","","","","","",""
"revaluation","23","159876","0.0-3.0-4.0-0.2","pilot_wm_v1","58d834cec207720001e2e750","8","null","null","false","","false","","","","","[316.69999998807907]","./assets/img/space/5.jpg","[""ArrowDown""]","first stage practice","space","0","null","null","ArrowDown","false","","","","","","","",""
"html-keyboard-response","24","160390","0.0-3.0-4.0-1.2","pilot_wm_v1","58d834cec207720001e2e750","8","null","null","false","","","","","","","null","<div style=""font-size:60px;"">+</div>","null","fixation","","","","","","","","","","","","","",""
"learning-instructions","25","181211","0.0-3.0-5.0-0.0","pilot_wm_v1","58d834cec207720001e2e750","8","null","null","false","","","","","","","10987.59999999404","<p> The animals don’t move, so the animal in the upper part of a place will stay in the upper part of a place, and the animal in the lower part of a place will stay in the lower part of a place. </p>","","instructions","","","","","","","","","","","","","",""
"learning-instructions","26","201531","0.0-3.0-5.0-0.1","pilot_wm_v1","58d834cec207720001e2e750","8","null","null","false","","","","","","","11216.59999999404","<p> Each animal has two treasure chests for you to choose from. </p>
            <p> The amount of treasure in each chest can range from <b> 0 to 40 pieces.</b></p>","","instructions","","","","","","","","","","","","","",""
"learning-instructions","27","230356","0.0-3.0-5.0-0.2","pilot_wm_v1","58d834cec207720001e2e750","8","null","null","false","","","","","","","17671.59999999404","<p> You should decide which chest to search for treasure by using the <b>left</b> and <b>right</b> arrow keys. </p>
            <p><b> Pay attention to which animal is on the screen, as the animals have different treasure chests. </b></p>
            <img src='./assets/img/instructions/leftright.jpg' class='instructions-image'>","","instructions","","","","","","","","","","","","","",""
"learning-instructions","28","237427","0.0-3.0-5.0-0.3","pilot_wm_v1","58d834cec207720001e2e750","8","null","null","false","","","","","","","722.5999999940395","<p> Let’s try practicing that now. </p>
            <p> When you see an animal, choose which chest to search for treasure. </p>
            <img src='./assets/img/instructions/chooseChest.jpg' class='instructions-image'>","","instructions","","","","","","","","","","","","","",""
"revaluation","29","241449","0.0-3.0-6.0-0.0","pilot_wm_v1","58d834cec207720001e2e750","8","null","null","false","","false","","","","","[1535.2000000178814]","./assets/img/space/animals/cat.jpg","[""ArrowRight""]","second stage practice","space","36","{""ArrowUp,ArrowLeft"":3,""ArrowUp,ArrowRight"":36,""ArrowDown,ArrowLeft"":15,""ArrowDown,ArrowRight"":23}","true","ArrowUp,ArrowRight","","","","","","","","",""
"html-keyboard-response","30","241961","0.0-3.0-6.0-1.0","pilot_wm_v1","58d834cec207720001e2e750","8","null","null","false","","","","","","","null","<div style=""font-size:60px;"">+</div>","null","fixation","","","","","","","","","","","","","",""
"revaluation","31","245990","0.0-3.0-6.0-0.1","pilot_wm_v1","58d834cec207720001e2e750","8","null","null","false","","false","","","","","[358.40000000596046]","./assets/img/space/animals/cat.jpg","[""ArrowLeft""]","second stage practice","space","3","{""ArrowUp,ArrowLeft"":3,""ArrowUp,ArrowRight"":36,""ArrowDown,ArrowLeft"":15,""ArrowDown,ArrowRight"":23}","false","ArrowUp,ArrowLeft","","","","","","","","",""
"html-keyboard-response","32","246503","0.0-3.0-6.0-1.1","pilot_wm_v1","58d834cec207720001e2e750","8","null","null","false","","","","","","","null","<div style=""font-size:60px;"">+</div>","null","fixation","","","","","","","","","","","","","",""
"revaluation","33","250529","0.0-3.0-6.0-0.2","pilot_wm_v1","58d834cec207720001e2e750","8","null","null","false","","false","","","","","[660.4000000059605]","./assets/img/space/animals/rabbit.jpg","[""ArrowLeft""]","second stage practice","space","15","{""ArrowUp,ArrowLeft"":3,""ArrowUp,ArrowRight"":36,""ArrowDown,ArrowLeft"":15,""ArrowDown,ArrowRight"":23}","false","ArrowDown,ArrowLeft","","","","","","","","",""
"html-keyboard-response","34","251029","0.0-3.0-6.0-1.2","pilot_wm_v1","58d834cec207720001e2e750","8","null","null","false","","","","","","","null","<div style=""font-size:60px;"">+</div>","null","fixation","","","","","","","","","","","","","",""
"revaluation","35","255053","0.0-3.0-6.0-0.3","pilot_wm_v1","58d834cec207720001e2e750","8","null","null","false","","false","","","","","[399.2999999821186]","./assets/img/space/animals/rabbit.jpg","[""ArrowLeft""]","second stage practice","space","15","{""ArrowUp,ArrowLeft"":3,""ArrowUp,ArrowRight"":36,""ArrowDown,ArrowLeft"":15,""ArrowDown,ArrowRight"":23}","false","ArrowDown,ArrowLeft","","","","","","","","",""
"html-keyboard-response","36","255569","0.0-3.0-6.0-1.3","pilot_wm_v1","58d834cec207720001e2e750","8","null","null","false","","","","","","","null","<div style=""font-size:60px;"">+</div>","null","fixation","","","","","","","","","","","","","",""
"learning-instructions","37","350405","0.0-3.0-7.0-0.0","pilot_wm_v1","58d834cec207720001e2e750","8","null","null","false","","","","","","","78051.69999998808","<p> Great job. Now let’s try putting it together. </p>
            <p> On each turn, you will first see a picture to remind you of the place you are in, and you need to choose whether to go up or down. </p>
            <p> Then you will see an animal and choose which of its chests to search for treasure. </p>","","instructions","","","","","","","","","","","","","",""
"learning-instructions","38","361906","0.0-3.0-7.0-0.1","pilot_wm_v1","58d834cec207720001e2e750","8","null","null","false","","","","","","","3262.7000000178814","<p> When you choose whether to go up or down, try to go to the animal with the chest with the most treasure. </p>
            <p> Try practicing that now! </p>","","instructions","","","","","","","","","","","","","",""
"revaluation","39","367932","0.0-3.0-8.0-0.0","pilot_wm_v1","58d834cec207720001e2e750","8","null","null","false","","false","","","","","[1597.300000011921,707.4000000059605]","./assets/img/space/6.jpg","[""ArrowUp"",""ArrowRight""]","full practice","space","36","{""ArrowUp,ArrowLeft"":3,""ArrowUp,ArrowRight"":36,""ArrowDown,ArrowLeft"":15,""ArrowDown,ArrowRight"":23}","true","ArrowUp,ArrowRight","false","","","","","","","",""
"html-keyboard-response","40","368433","0.0-3.0-8.0-1.0","pilot_wm_v1","58d834cec207720001e2e750","8","null","null","false","","","","","","","null","<div style=""font-size:60px;"">+</div>","null","fixation","","","","","","","","","","","","","",""
"revaluation","41","374466","0.0-3.0-8.0-0.1","pilot_wm_v1","58d834cec207720001e2e750","8","null","null","false","","false","","","","","[491.90000000596046,663.7000000178814]","./assets/img/space/7.jpg","[""ArrowUp"",""ArrowRight""]","full practice","space","36","{""ArrowUp,ArrowLeft"":3,""ArrowUp,ArrowRight"":36,""ArrowDown,ArrowLeft"":15,""ArrowDown,ArrowRight"":23}","true","ArrowUp,ArrowRight","false","","","","","","","",""
"html-keyboard-response","42","374981","0.0-3.0-8.0-1.1","pilot_wm_v1","58d834cec207720001e2e750","8","null","null","false","","","","","","","null","<div style=""font-size:60px;"">+</div>","null","fixation","","","","","","","","","","","","","",""
"revaluation","43","381018","0.0-3.0-8.0-0.2","pilot_wm_v1","58d834cec207720001e2e750","8","null","null","false","","false","","","","","[383.40000000596046,548.5999999940395]","./assets/img/space/8.jpg","[""ArrowUp"",""ArrowRight""]","full practice","space","36","{""ArrowUp,ArrowLeft"":3,""ArrowUp,ArrowRight"":36,""ArrowDown,ArrowLeft"":15,""ArrowDown,ArrowRight"":23}","true","ArrowUp,ArrowRight","false","","","","","","","",""
"html-keyboard-response","44","381531","0.0-3.0-8.0-1.2","pilot_wm_v1","58d834cec207720001e2e750","8","null","null","false","","","","","","","null","<div style=""font-size:60px;"">+</div>","null","fixation","","","","","","","","","","","","","",""
"revaluation","45","387569","0.0-3.0-8.0-0.3","pilot_wm_v1","58d834cec207720001e2e750","8","null","null","false","","false","","","","","[545,1202.7000000178814]","./assets/img/space/9.jpg","[""ArrowUp"",""ArrowRight""]","full practice","space","36","{""ArrowUp,ArrowLeft"":3,""ArrowUp,ArrowRight"":36,""ArrowDown,ArrowLeft"":15,""ArrowDown,ArrowRight"":23}","true","ArrowUp,ArrowRight","false","","","","","","","",""
"html-keyboard-response","46","388084","0.0-3.0-8.0-1.3","pilot_wm_v1","58d834cec207720001e2e750","8","null","null","false","","","","","","","null","<div style=""font-size:60px;"">+</div>","null","fixation","","","","","","","","","","","","","",""
"revaluation","47","394088","0.0-3.0-8.0-0.4","pilot_wm_v1","58d834cec207720001e2e750","8","null","null","false","","false","","","","","[715.9000000059605,540.7000000178814]","./assets/img/space/10.jpg","[""ArrowDown"",""ArrowRight""]","full practice","space","23","{""ArrowUp,ArrowLeft"":3,""ArrowUp,ArrowRight"":36,""ArrowDown,ArrowLeft"":15,""ArrowDown,ArrowRight"":23}","false","ArrowDown,ArrowRight","false","","","","","","","",""
"html-keyboard-response","48","394589","0.0-3.0-8.0-1.4","pilot_wm_v1","58d834cec207720001e2e750","8","null","null","false","","","","","","","null","<div style=""font-size:60px;"">+</div>","null","fixation","","","","","","","","","","","","","",""
"learning-instructions","49","461430","0.0-3.0-9.0-0.0","pilot_wm_v1","58d834cec207720001e2e750","8","null","null","false","","","","","","","56545.5","<p> One last thing: sometimes, you will see a robber. The robber can be anywhere in the picture. </p>
            <p> If you do not stop them, you will lose treasure. </p>
            <img src='./assets/img/instructions/robber.jpg' class='instructions-image'>","","instructions","","","","","","","","","","","","","",""
"learning-instructions","50","469787","0.0-3.0-9.0-0.1","pilot_wm_v1","58d834cec207720001e2e750","8","null","null","false","","","","","","","1193.2000000178814","<p> If you see the robber, you should <b>press the space bar</b> rather than using the arrow keys. </p>
            <p> Try practicing that now! </p>","","instructions","","","","","","","","","","","","","",""
"revaluation","51","473800","0.0-3.0-10.0-0.0","pilot_wm_v1","58d834cec207720001e2e750","8","null","null","false","","false","","","","","[1459.9000000059605]","./assets/img/space/catch/0.jpg","[""spaceBar""]","catch practice","space","0","{""ArrowUp,ArrowLeft"":3,""ArrowUp,ArrowRight"":36,""ArrowDown,ArrowLeft"":15,""ArrowDown,ArrowRight"":23}","true","spaceBar","true","","","","","","","",""
"html-keyboard-response","52","474313","0.0-3.0-10.0-1.0","pilot_wm_v1","58d834cec207720001e2e750","8","null","null","false","","","","","","","null","<div style=""font-size:60px;"">+</div>","null","fixation","","","","","","","","","","","","","",""
"revaluation","53","478329","0.0-3.0-10.0-0.1","pilot_wm_v1","58d834cec207720001e2e750","8","null","null","false","","false","","","","","[632.7999999821186]","./assets/img/space/catch/1.jpg","[""spaceBar""]","catch practice","space","0","{""ArrowUp,ArrowLeft"":3,""ArrowUp,ArrowRight"":36,""ArrowDown,ArrowLeft"":15,""ArrowDown,ArrowRight"":23}","true","spaceBar","true","","","","","","","",""
"html-keyboard-response","54","478844","0.0-3.0-10.0-1.1","pilot_wm_v1","58d834cec207720001e2e750","8","null","null","false","","","","","","","null","<div style=""font-size:60px;"">+</div>","null","fixation","","","","","","","","","","","","","",""
"revaluation","55","482865","0.0-3.0-10.0-0.2","pilot_wm_v1","58d834cec207720001e2e750","8","null","null","false","","false","","","","","[437.2000000178814]","./assets/img/space/catch/2.jpg","[""spaceBar""]","catch practice","space","0","{""ArrowUp,ArrowLeft"":3,""ArrowUp,ArrowRight"":36,""ArrowDown,ArrowLeft"":15,""ArrowDown,ArrowRight"":23}","true","spaceBar","true","","","","","","","",""
"html-keyboard-response","56","483377","0.0-3.0-10.0-1.2","pilot_wm_v1","58d834cec207720001e2e750","8","null","null","false","","","","","","","null","<div style=""font-size:60px;"">+</div>","null","fixation","","","","","","","","","","","","","",""
"learning-instructions","57","534375","0.0-3.0-11.0-0.0","pilot_wm_v1","58d834cec207720001e2e750","8","null","null","false","","","","","","","45490.89999997616","<p> Sometimes, you will come across a special kind of treasure chest that requires a password. </p>
            <img src='./assets/img/instructions/beep_chest.jpg' class='instructions-image'>","","instructions","","","","","","","","","","","","","",""
"learning-instructions","58","607715","0.0-3.0-11.0-0.1","pilot_wm_v1","58d834cec207720001e2e750","8","null","null","false","","","","","","","51731.59999999404","<p> Your friend will send you the password using a series of beeps so that you can open the chest and earn treasure. </p>
            <p> You will hear two kinds of beeps, a high beep and a low beep. </p>
            <p> You should report the number of high beeps that you heard before seeing the chest. </p>
            <img src='./assets/img/instructions/listen.jpg' class='instructions-image'>","","instructions","","","","","","","","","","","","","",""
"learning-instructions","59","631726","0.0-3.0-11.0-0.2","pilot_wm_v1","58d834cec207720001e2e750","8","null","null","false","","","","","","","1721.800000011921","<p> For example, if you hear this series of beeps, you should report 4 as the password using the slider. </p>
            <p> After reporting a password for a chest, you should count the high beeps again starting from 0. </p>
            <p> Let's try practicing that now. </p>","","instructions","","","","","","","","","","","","","",""
"audio-button-response","60","639735","0.0-3.0-12.0-0.0-0.0","pilot_wm_v1","58d834cec207720001e2e750","8","null","null","false","","","","","","","null","./assets/audio/beeps/practice_6.wav","null","","","","","","","","","","","","","","",""
"html-slider-response","61","641943","0.0-3.0-12.0-0.0-1.0","pilot_wm_v1","58d834cec207720001e2e750","8","null","null","false","","","","","","","2208","<div style=""width:500px;"">
        <p>What is the password?</p>
        <img src='./assets/img/instructions/beep_chest.jpg' class='instructions-image'>","6","beep chest","","","","false","","","","50","0","6","","","",""
"comp-q","62","647149","0.0-3.0-12.0-0.0-2.0","pilot_wm_v1","58d834cec207720001e2e750","8","null","null","false","","","","","","","1004","<p>Correct! There were 6 high pitched beeps before you saw the chest. </p>","0","beep answer","","","","","","","","","","","","","",""
"audio-button-response","63","655163","0.0-3.0-12.0-0.1-0.1","pilot_wm_v1","58d834cec207720001e2e750","8","null","null","false","","","","","","","null","./assets/audio/beeps/practice_4.wav","null","","","","","","","","","","","","","","",""
"html-slider-response","64","657354","0.0-3.0-12.0-0.1-1.1","pilot_wm_v1","58d834cec207720001e2e750","8","null","null","false","","","","","","","2190","<div style=""width:500px;"">
        <p>What is the password?</p>
        <img src='./assets/img/instructions/beep_chest.jpg' class='instructions-image'>","4","beep chest","","","","false","","","","50","0","4","","","",""
"comp-q","65","662167","0.0-3.0-12.0-0.1-2.1","pilot_wm_v1","58d834cec207720001e2e750","8","null","null","false","","","","","","","633.0999999940395","<p>Correct! There were 4 high pitched beeps before you saw the chest. </p>","0","beep answer","","","","","","","","","","","","","",""
"learning-instructions","66","680680","0.0-3.0-13.0-0.0","pilot_wm_v1","58d834cec207720001e2e750","8","null","null","false","","","","","","","8216.600000023842","<p> Good job! In the real game we will not tell you if you entered the right password. </p>
            <p> Do your best, the treasure you earn from these chests will also give you extra bonus money. </p>","","instructions","","","","","","","","","","","","","",""
"learning-instructions","67","690889","0.0-3.0-15.0-0.0-0.0","pilot_wm_v1","58d834cec207720001e2e750","8","null","null","false","","","","","","","4975.300000011921","<p> Now, you will practice a shortened version of the game to get a sense of how it all fits together. </p>","","instructions","","","","","","","","","","","","","",""
"learning-instructions","68","694784","0.0-3.0-15.0-0.0-0.1","pilot_wm_v1","58d834cec207720001e2e750","8","null","null","false","","","","","","","720.5999999940395","<p>This time you are searching for treasure in outer space.</p>","","instructions","","","","","","","","","","","","","",""
"learning-instructions","69","710316","0.0-3.0-15.0-1.0-0.0","pilot_wm_v1","58d834cec207720001e2e750","8","null","null","false","","","","","","","792.5","<p> Remember, when you see a picture of the place, use the up and down keys to <b>find an animal</b>.</p>
            <p> When you encounter an animal, you should use the left and right keys to <b>select a treasure chest</b>.</p>
            <p> Don't forget to look out for the robber! </p>","","instructions","","","","","","","","","","","","","",""
"revaluation","70","716347","0.0-3.0-15.0-2.0-0.0","pilot_wm_v1","58d834cec207720001e2e750","8","null","null","false","","false","","","","","[1518.199999988079,614.4000000059605]","./assets/img/space/11.jpg","[""ArrowUp"",""ArrowRight""]","practice block","space","36","{""ArrowUp,ArrowLeft"":3,""ArrowUp,ArrowRight"":36,""ArrowDown,ArrowLeft"":15,""ArrowDown,ArrowRight"":23}","true","ArrowUp,ArrowRight","false","","","","","","","",""
"html-keyboard-response","71","716848","0.0-3.0-15.0-2.0-1.0","pilot_wm_v1","58d834cec207720001e2e750","8","null","null","false","","","","","","","null","<div style=""font-size:60px;"">+</div>","null","fixation","","","","","","","","","","","","","",""
"revaluation","72","722883","0.0-3.0-15.0-2.0-0.1","pilot_wm_v1","58d834cec207720001e2e750","8","null","null","false","","false","","","","","[649,424.90000000596046]","./assets/img/space/12.jpg","[""ArrowUp"",""ArrowRight""]","practice block","space","36","{""ArrowUp,ArrowLeft"":3,""ArrowUp,ArrowRight"":36,""ArrowDown,ArrowLeft"":15,""ArrowDown,ArrowRight"":23}","true","ArrowUp,ArrowRight","false","","","","","","","",""
"html-keyboard-response","73","723396","0.0-3.0-15.0-2.0-1.1","pilot_wm_v1","58d834cec207720001e2e750","8","null","null","false","","","","","","","null","<div style=""font-size:60px;"">+</div>","null","fixation","","","","","","","","","","","","","",""
"revaluation","74","729423","0.0-3.0-15.0-2.0-0.2","pilot_wm_v1","58d834cec207720001e2e750","8","null","null","false","","false","","","","","[563.4000000059605,475.09999999403954]","./assets/img/space/13.jpg","[""ArrowUp"",""ArrowRight""]","practice block","space","36","{""ArrowUp,ArrowLeft"":3,""ArrowUp,ArrowRight"":36,""ArrowDown,ArrowLeft"":15,""ArrowDown,ArrowRight"":23}","true","ArrowUp,ArrowRight","false","","","","","","","",""
"html-keyboard-response","75","729936","0.0-3.0-15.0-2.0-1.2","pilot_wm_v1","58d834cec207720001e2e750","8","null","null","false","","","","","","","null","<div style=""font-size:60px;"">+</div>","null","fixation","","","","","","","","","","","","","",""
"revaluation","76","735966","0.0-3.0-15.0-2.0-0.3","pilot_wm_v1","58d834cec207720001e2e750","8","null","null","false","","false","","","","","[549.7999999821186,456.90000000596046]","./assets/img/space/14.jpg","[""ArrowUp"",""ArrowRight""]","practice block","space","36","{""ArrowUp,ArrowLeft"":3,""ArrowUp,ArrowRight"":36,""ArrowDown,ArrowLeft"":15,""ArrowDown,ArrowRight"":23}","true","ArrowUp,ArrowRight","false","","","","","","","",""
"html-keyboard-response","77","736482","0.0-3.0-15.0-2.0-1.3","pilot_wm_v1","58d834cec207720001e2e750","8","null","null","false","","","","","","","null","<div style=""font-size:60px;"">+</div>","null","fixation","","","","","","","","","","","","","",""
"revaluation","78","742496","0.0-3.0-15.0-2.0-0.4","pilot_wm_v1","58d834cec207720001e2e750","8","null","null","false","","false","","","","","[657.0999999940395,488]","./assets/img/space/11.jpg","[""ArrowDown"",""ArrowRight""]","practice block","space","23","{""ArrowUp,ArrowLeft"":3,""ArrowUp,ArrowRight"":36,""ArrowDown,ArrowLeft"":15,""ArrowDown,ArrowRight"":23}","false","ArrowDown,ArrowRight","false","","","","","","","",""
"html-keyboard-response","79","742997","0.0-3.0-15.0-2.0-1.4","pilot_wm_v1","58d834cec207720001e2e750","8","null","null","false","","","","","","","null","<div style=""font-size:60px;"">+</div>","null","fixation","","","","","","","","","","","","","",""
"revaluation","80","749000","0.0-3.0-15.0-2.0-0.5","pilot_wm_v1","58d834cec207720001e2e750","8","null","null","false","","false","","","","","[564.4000000059605,594.6999999880791]","./assets/img/space/12.jpg","[""ArrowUp"",""ArrowRight""]","practice block","space","36","{""ArrowUp,ArrowLeft"":3,""ArrowUp,ArrowRight"":36,""ArrowDown,ArrowLeft"":15,""ArrowDown,ArrowRight"":23}","true","ArrowUp,ArrowRight","false","","","","","","","",""
"html-keyboard-response","81","749502","0.0-3.0-15.0-2.0-1.5","pilot_wm_v1","58d834cec207720001e2e750","8","null","null","false","","","","","","","null","<div style=""font-size:60px;"">+</div>","null","fixation","","","","","","","","","","","","","",""
"revaluation","82","755505","0.0-3.0-15.0-2.0-0.6","pilot_wm_v1","58d834cec207720001e2e750","8","null","null","false","","false","","","","","[489.2000000178814,499.59999999403954]","./assets/img/space/13.jpg","[""ArrowUp"",""ArrowRight""]","practice block","space","36","{""ArrowUp,ArrowLeft"":3,""ArrowUp,ArrowRight"":36,""ArrowDown,ArrowLeft"":15,""ArrowDown,ArrowRight"":23}","true","ArrowUp,ArrowRight","false","","","","","","","",""
"html-keyboard-response","83","756006","0.0-3.0-15.0-2.0-1.6","pilot_wm_v1","58d834cec207720001e2e750","8","null","null","false","","","","","","","null","<div style=""font-size:60px;"">+</div>","null","fixation","","","","","","","","","","","","","",""
"revaluation","84","762011","0.0-3.0-15.0-2.0-0.7","pilot_wm_v1","58d834cec207720001e2e750","8","null","null","false","","false","","","","","[568,612.5]","./assets/img/space/14.jpg","[""ArrowUp"",""ArrowRight""]","practice block","space","36","{""ArrowUp,ArrowLeft"":3,""ArrowUp,ArrowRight"":36,""ArrowDown,ArrowLeft"":15,""ArrowDown,ArrowRight"":23}","true","ArrowUp,ArrowRight","false","","","","","","","",""
"html-keyboard-response","85","762512","0.0-3.0-15.0-2.0-1.7","pilot_wm_v1","58d834cec207720001e2e750","8","null","null","false","","","","","","","null","<div style=""font-size:60px;"">+</div>","null","fixation","","","","","","","","","","","","","",""
"revaluation","86","766515","0.0-3.0-15.0-2.0-0.8","pilot_wm_v1","58d834cec207720001e2e750","8","null","null","false","","false","","","","","[541.0999999940395]","./assets/img/space/catch/3.jpg","[""spaceBar""]","practice block","space","0","{""ArrowUp,ArrowLeft"":3,""ArrowUp,ArrowRight"":36,""ArrowDown,ArrowLeft"":15,""ArrowDown,ArrowRight"":23}","true","spaceBar","true","","","","","","","",""
"html-keyboard-response","87","767016","0.0-3.0-15.0-2.0-1.8","pilot_wm_v1","58d834cec207720001e2e750","8","null","null","false","","","","","","","null","<div style=""font-size:60px;"">+</div>","null","fixation","","","","","","","","","","","","","",""
"learning-instructions","88","812114","0.0-3.0-15.0-3.0-0.0","pilot_wm_v1","58d834cec207720001e2e750","8","null","null","false","","","","","","","32200.399999976158","<p> Now, you will travel with a friend who will choose whether you go up or down first. </p>
            <p> On these turns, you will just see the animal that they found. You will still get to choose which chest to search for treasure.</p>","","instructions","","","","","","","","","","","","","",""
"learning-instructions","89","824232","0.0-3.0-15.0-3.0-0.1","pilot_wm_v1","58d834cec207720001e2e750","8","null","null","false","","","","","","","507.80000001192093","<p> In this part, you will also hear beeps from your friend and see special treasure chests that need a password. </p>
            <p> Do your best to count the high beeps <b>and</b> choose between each animals' chests at the same time.</p>
            <img src='./assets/img/instructions/beep_chest.jpg' class='instructions-image'>","","instructions","","","","","","","","","","","","","",""
"revaluation","90","828246","0.0-3.0-15.0-4.0-0.0","pilot_wm_v1","58d834cec207720001e2e750","8","null","null","false","","false","","","","","[1321]","./assets/img/space/animals/cat.jpg","[""ArrowRight""]","practice block","space","36","{""ArrowUp,ArrowLeft"":3,""ArrowUp,ArrowRight"":36,""ArrowDown,ArrowLeft"":15,""ArrowDown,ArrowRight"":23}","true","ArrowUp,ArrowRight","","[""19_0""]","","","","0","","",""
"html-keyboard-response","91","828757","0.0-3.0-15.0-4.0-1.0","pilot_wm_v1","58d834cec207720001e2e750","8","null","null","false","","","","","","","null","<div style=""font-size:60px;"">+</div>","null","fixation","","","","","","","","","","","","","",""
"revaluation","92","832764","0.0-3.0-15.0-4.0-0.1","pilot_wm_v1","58d834cec207720001e2e750","8","null","null","false","","false","","","","","[1947.5999999940395]","./assets/img/space/animals/rabbit.jpg","[""ArrowRight""]","practice block","space","23","{""ArrowUp,ArrowLeft"":3,""ArrowUp,ArrowRight"":36,""ArrowDown,ArrowLeft"":15,""ArrowDown,ArrowRight"":23}","true","ArrowDown,ArrowRight","","[""22_3""]","","","","1","","",""
"html-keyboard-response","93","833278","0.0-3.0-15.0-4.0-1.1","pilot_wm_v1","58d834cec207720001e2e750","8","null","null","false","","","","","","","null","<div style=""font-size:60px;"">+</div>","null","fixation","","","","","","","","","","","","","",""
"revaluation","94","837300","0.0-3.0-15.0-4.0-0.2","pilot_wm_v1","58d834cec207720001e2e750","8","null","null","false","","false","","","","","[693.9000000059605]","./assets/img/space/animals/rabbit.jpg","[""ArrowRight""]","practice block","space","23","{""ArrowUp,ArrowLeft"":3,""ArrowUp,ArrowRight"":36,""ArrowDown,ArrowLeft"":15,""ArrowDown,ArrowRight"":23}","true","ArrowDown,ArrowRight","","[""21_1""]","","","","2","","",""
"html-keyboard-response","95","837815","0.0-3.0-15.0-4.0-1.2","pilot_wm_v1","58d834cec207720001e2e750","8","null","null","false","","","","","","","null","<div style=""font-size:60px;"">+</div>","null","fixation","","","","","","","","","","","","","",""
"revaluation","96","841840","0.0-3.0-15.0-4.0-0.3","pilot_wm_v1","58d834cec207720001e2e750","8","null","null","false","","false","","","","","[866.8000000119209]","./assets/img/space/animals/cat.jpg","[""ArrowRight""]","practice block","space","36","{""ArrowUp,ArrowLeft"":3,""ArrowUp,ArrowRight"":36,""ArrowDown,ArrowLeft"":15,""ArrowDown,ArrowRight"":23}","true","ArrowUp,ArrowRight","","[""20_0""]","","","","3","","",""
"html-keyboard-response","97","842341","0.0-3.0-15.0-4.0-1.3","pilot_wm_v1","58d834cec207720001e2e750","8","null","null","false","","","","","","","null","<div style=""font-size:60px;"">+</div>","null","fixation","","","","","","","","","","","","","",""
"html-slider-response","98","845749","0.0-3.0-15.0-4.0-2.3-0.3","pilot_wm_v1","58d834cec207720001e2e750","8","null","null","false","","","","","","","3408","<div style=""width:500px;"">
        <p>What is the password?</p>
        <img src='./assets/img/instructions/beep_chest.jpg' class='instructions-image'>","8","beep chest","","","","false","","","","50","82","74","","","",""
"learning-instructions","99","853877","0.0-3.0-15.0-6.0-0.0","pilot_wm_v1","58d834cec207720001e2e750","8","null","null","false","","","","","","","null","<p> You have almost finished this part of the game! </p>
            <p> We are going to ask you to make a few more choices. </p>","","instructions","","","","","","","","","","","","","",""
"learning-instructions","100","869865","0.0-3.0-15.0-6.0-0.1","pilot_wm_v1","58d834cec207720001e2e750","8","null","null","false","","","","","","","null","<p> First, you need to decide whether to go up or down. When you see each picture, use the arrow keys to make your choice. </p>
            <p><b>You will not see which animal you found, but try to get to the one that will give you the most treasure.</b></p>","","instructions","","","","","","","","","","","","","",""
"html-keyboard-response","101","870881","0.0-3.0-15.0-7.0-0.0","pilot_wm_v1","58d834cec207720001e2e750","8","null","null","false","","","","","","","null","<div style=""font-size:100px;color:red;"">Starting in...</div>","null","","","","","","","","","","","","","","",""
"html-keyboard-response","102","871891","0.0-3.0-15.0-7.0-1.0","pilot_wm_v1","58d834cec207720001e2e750","8","null","null","false","","","","","","","null","<div style=""font-size:200px;color:red;"">3</div>","null","","","","","","","","","","","","","","",""
"html-keyboard-response","103","872903","0.0-3.0-15.0-7.0-2.0","pilot_wm_v1","58d834cec207720001e2e750","8","null","null","false","","","","","","","null","<div style=""font-size:200px;color:red;"">2</div>","null","","","","","","","","","","","","","","",""
"html-keyboard-response","104","873918","0.0-3.0-15.0-7.0-3.0","pilot_wm_v1","58d834cec207720001e2e750","8","null","null","false","","","","","","","null","<div style=""font-size:200px;color:red;"">1</div>","null","","","","","","","","","","","","","","",""
"revaluation","105","874681","0.0-3.0-15.0-8.0","pilot_wm_v1","58d834cec207720001e2e750","8","null","null","false","","false","","","","","[762.1999999880791]","./assets/img/space/15.jpg","[""ArrowUp""]","practice block","space","0","{""ArrowUp,ArrowLeft"":3,""ArrowUp,ArrowRight"":36,""ArrowDown,ArrowLeft"":15,""ArrowDown,ArrowRight"":23}","true","ArrowUp","false","","","","","","","",""
"html-keyboard-response","106","875195","0.0-3.0-15.0-9.0","pilot_wm_v1","58d834cec207720001e2e750","8","null","null","false","","","","","","","null","<div style=""font-size:60px;"">+</div>","null","fixation","","","","","","","","","","","","","",""
"learning-instructions","107","888546","0.0-3.0-15.0-10.0-0.0","pilot_wm_v1","58d834cec207720001e2e750","8","null","null","false","","","","","","","null","<p> Now you will see the animals again and can search their chests for treasure. </p>
            <p> This time, you will not see how much treasure you earned, but you will earn more bonus money for making better choices. </p>","","instructions","","","","","","","","","","","","","",""
"html-keyboard-response","108","889559","0.0-3.0-15.0-11.0-0.0","pilot_wm_v1","58d834cec207720001e2e750","8","null","null","false","","","","","","","null","<div style=""font-size:100px;color:red;"">Starting in...</div>","null","","","","","","","","","","","","","","",""
"html-keyboard-response","109","890560","0.0-3.0-15.0-11.0-1.0","pilot_wm_v1","58d834cec207720001e2e750","8","null","null","false","","","","","","","null","<div style=""font-size:200px;color:red;"">3</div>","null","","","","","","","","","","","","","","",""
"html-keyboard-response","110","891570","0.0-3.0-15.0-11.0-2.0","pilot_wm_v1","58d834cec207720001e2e750","8","null","null","false","","","","","","","null","<div style=""font-size:200px;color:red;"">2</div>","null","","","","","","","","","","","","","","",""
"html-keyboard-response","111","892586","0.0-3.0-15.0-11.0-3.0","pilot_wm_v1","58d834cec207720001e2e750","8","null","null","false","","","","","","","null","<div style=""font-size:200px;color:red;"">1</div>","null","","","","","","","","","","","","","","",""
"revaluation","112","892963","0.0-3.0-15.0-12.0-0.0","pilot_wm_v1","58d834cec207720001e2e750","8","null","null","false","","false","","","","","[376.7999999821186]","./assets/img/space/animals/cat.jpg","[""ArrowRight""]","practice block","space","0","{""ArrowUp,ArrowLeft"":3,""ArrowUp,ArrowRight"":36,""ArrowDown,ArrowLeft"":15,""ArrowDown,ArrowRight"":23}","true","ArrowUp,ArrowRight","","","","","","","","",""
"html-keyboard-response","113","893473","0.0-3.0-15.0-12.0-1.0","pilot_wm_v1","58d834cec207720001e2e750","8","null","null","false","","","","","","","null","<div style=""font-size:60px;"">+</div>","null","fixation","","","","","","","","","","","","","",""
"revaluation","114","894248","0.0-3.0-15.0-12.0-0.1","pilot_wm_v1","58d834cec207720001e2e750","8","null","null","false","","false","","","","","[774.7999999821186]","./assets/img/space/animals/rabbit.jpg","[""ArrowRight""]","practice block","space","0","{""ArrowUp,ArrowLeft"":3,""ArrowUp,ArrowRight"":36,""ArrowDown,ArrowLeft"":15,""ArrowDown,ArrowRight"":23}","true","ArrowDown,ArrowRight","","","","","","","","",""
"html-keyboard-response","115","894751","0.0-3.0-15.0-12.0-1.1","pilot_wm_v1","58d834cec207720001e2e750","8","null","null","false","","","","","","","null","<div style=""font-size:60px;"">+</div>","null","fixation","","","","","","","","","","","","","",""
"learning-instructions","116","921141","0.0-3.0-16.0-0.0","pilot_wm_v1","58d834cec207720001e2e750","8","null","null","false","","","","","","","21827.69999998808","<p> Before you start, we're going to ask you a few questions about how the game works. </p>","","instructions","","","","","","","","","","","","","",""
"comp-q","117","927328","0.0-3.0-17.0-0.0-0.0","pilot_wm_v1","58d834cec207720001e2e750","8","null","null","false","","","","","","","624.5","<p> <b> True or False? </b> </p>
            <p> There can be 50 pieces of treasure in a given animal's chest. </p>","1","comp_question","","","","true","","","","","","","","","",""
"comp-q","118","934700","0.0-3.0-17.0-0.0-1.0","pilot_wm_v1","58d834cec207720001e2e750","8","null","null","false","","","","","","","726.4000000059605","<p> <b> That's right! </b> The amount of treasure in each chest can range from 0 to 40 pieces. </p>","0","comp_answer","","","","","","","","","","","","","",""
"comp-q","119","942605","0.0-3.0-17.0-0.1-0.1","pilot_wm_v1","58d834cec207720001e2e750","8","null","null","false","","","","","","","811.5999999940395","<p> <b> True or False? </b> </p><p> In this game, all animals have the same amount of treasure in their left and right chests. </p>","1","comp_question","","","","true","","","","","","","","","",""
"comp-q","120","977945","0.0-3.0-17.0-0.1-1.1","pilot_wm_v1","58d834cec207720001e2e750","8","null","null","false","","","","","","","30131.30000001192","<p> <b> That's right! </b> Animals have different amounts of treasure in their treasure chests. </p>","0","comp_answer","","","","","","","","","","","","","",""
"comp-q","121","984276","0.0-3.0-17.0-0.2-0.2","pilot_wm_v1","58d834cec207720001e2e750","8","null","null","false","","","","","","","502.5","<p> <b> True or False? </b> </p><p> The same animal will always be there if you go up in the same place. </p>","1","comp_question","","","","false","","","","","","","","","",""
"comp-q","122","991462","0.0-3.0-17.0-0.2-1.2","pilot_wm_v1","58d834cec207720001e2e750","8","null","null","false","","","","","","","907.9000000059605","<p> <b>Incorrect.</b> One animal lives in the upper part and one lives in the lower part of every place. </p>","0","comp_answer","","","","","","","","","","","","","",""
"comp-q","123","997771","0.0-3.0-17.0-0.3-0.3","pilot_wm_v1","58d834cec207720001e2e750","8","null","null","false","","","","","","","487.80000001192093","<p> <b> True or False? </b> </p><p> The same animal will always be there if you go up in the same place. </p>","0","comp_question","","","","true","","","","","","","","","",""
"comp-q","124","1006306","0.0-3.0-17.0-0.3-1.3","pilot_wm_v1","58d834cec207720001e2e750","8","null","null","false","","","","","","","2102.5999999940395","<p> <b> That's right! </b> One animal lives in the upper part and one lives in the lower part of every place. </p>","0","comp_answer","","","","","","","","","","","","","",""
"comp-q","125","1012301","0.0-3.0-17.0-0.4-0.4","pilot_wm_v1","58d834cec207720001e2e750","8","null","null","false","","","","","","","487.80000001192093","<p> <b> True or False? </b> </p><p> If you see a different picture, it means you are in a new place. </p>","1","comp_question","","","","true","","","","","","","","","",""
"comp-q","126","1029081","0.0-3.0-17.0-0.4-1.4","pilot_wm_v1","58d834cec207720001e2e750","8","null","null","false","","","","","","","5577.800000011921","<p> <b> That's right! </b> Lots of different images may show the same place. For example,  you may see three different images that all remind you that you are in outer space. </p>","0","comp_answer","","","","","","","","","","","","","",""
"learning-instructions","127","1054346","0.0-3.0-18.0-0.0","pilot_wm_v1","58d834cec207720001e2e750","8","null","null","false","","","","","","","15442.699999988079","<p> Good job. Remember to do your best because the amount of treasure you earn will be converted into bonus money. </p>
            <p> It’s time to start the real game! </p>","","instructions","","","","","","","","","","","","","",""
"learning-instructions","128","1058991","0.0-4.0-0.0-0.0","pilot_wm_v1","58d834cec207720001e2e750","8","null","null","false","","","","","","","1887.5","<p> This time you are searching for treasure in the <b>canyon</b>.</p>","","instructions","","","","","","","","","","","","","",""
"learning-instructions","129","1078263","0.0-4.0-0.0-0.1","pilot_wm_v1","58d834cec207720001e2e750","8","null","null","false","","","","","","","2009.800000011921","<p><b>New</b> animals with <b>new</b> treasure chests live here. You need to explore to discover where the animal with the best treasure chest is.</p>
                    <p> Like before, once you figure out which animal has the chest with the most treasure, you should try to get to that animal and select that chest! </p>","","instructions","","","","","","","","","","","","","",""
"learning-instructions","130","1103314","0.0-4.0-1.0-0.0","pilot_wm_v1","58d834cec207720001e2e750","8","null","null","false","","","","","","","10310.300000011921","<p> Remember, when you see a picture of the place, use the up and down keys to <b>find an animal</b>.</p>
            <p> When you encounter an animal, you should use the left and right keys to <b>select a treasure chest</b>.</p>
            <p> Don't forget to look out for the robber! </p>","","instructions","","","","","","","","","","","","","",""
"revaluation","131","1109354","0.0-4.0-2.0-0.0","pilot_wm_v1","58d834cec207720001e2e750","8","null","null","false","","false","","","","","[1207.4000000059605,824.3000000119209]","./assets/img/canyon/memory/18.jpg","[""ArrowUp"",""ArrowRight""]","value training","canyon","10","{""ArrowUp,ArrowLeft"":26,""ArrowUp,ArrowRight"":10,""ArrowDown,ArrowLeft"":5,""ArrowDown,ArrowRight"":17}","false","ArrowUp,ArrowRight","false","","","","","0","revaluation","1",""
"html-keyboard-response","132","1109866","0.0-4.0-2.0-1.0","pilot_wm_v1","58d834cec207720001e2e750","8","null","null","false","","","","","","","null","<div style=""font-size:60px;"">+</div>","null","fixation","","","","","","","","","","","1","","",""
"revaluation","133","1115894","0.0-4.0-2.0-0.1","pilot_wm_v1","58d834cec207720001e2e750","8","null","null","false","","false","","","","","[507.69999998807907,296.09999999403954]","./assets/img/canyon/memory/19.jpg","[""ArrowUp"",""ArrowLeft""]","value training","canyon","26","{""ArrowUp,ArrowLeft"":26,""ArrowUp,ArrowRight"":10,""ArrowDown,ArrowLeft"":5,""ArrowDown,ArrowRight"":17}","true","ArrowUp,ArrowLeft","false","","","","","2","revaluation","1",""
"html-keyboard-response","134","1116408","0.0-4.0-2.0-1.1","pilot_wm_v1","58d834cec207720001e2e750","8","null","null","false","","","","","","","null","<div style=""font-size:60px;"">+</div>","null","fixation","","","","","","","","","","","3","","",""
"revaluation","135","1122439","0.0-4.0-2.0-0.2","pilot_wm_v1","58d834cec207720001e2e750","8","null","null","false","","false","","","","","[511.69999998807907,269.59999999403954]","./assets/img/canyon/memory/2.jpg","[""ArrowDown"",""ArrowLeft""]","value training","canyon","5","{""ArrowUp,ArrowLeft"":26,""ArrowUp,ArrowRight"":10,""ArrowDown,ArrowLeft"":5,""ArrowDown,ArrowRight"":17}","false","ArrowDown,ArrowLeft","false","","","","","4","revaluation","1",""
"html-keyboard-response","136","1122953","0.0-4.0-2.0-1.2","pilot_wm_v1","58d834cec207720001e2e750","8","null","null","false","","","","","","","null","<div style=""font-size:60px;"">+</div>","null","fixation","","","","","","","","","","","5","","",""
"revaluation","137","1128957","0.0-4.0-2.0-0.3","pilot_wm_v1","58d834cec207720001e2e750","8","null","null","false","","false","","","","","[493.90000000596046,258.69999998807907]","./assets/img/canyon/memory/24.jpg","[""ArrowDown"",""ArrowRight""]","value training","canyon","17","{""ArrowUp,ArrowLeft"":26,""ArrowUp,ArrowRight"":10,""ArrowDown,ArrowLeft"":5,""ArrowDown,ArrowRight"":17}","false","ArrowDown,ArrowRight","false","","","","","6","revaluation","1",""
"html-keyboard-response","138","1129457","0.0-4.0-2.0-1.3","pilot_wm_v1","58d834cec207720001e2e750","8","null","null","false","","","","","","","null","<div style=""font-size:60px;"">+</div>","null","fixation","","","","","","","","","","","7","","",""
"revaluation","139","1135461","0.0-4.0-2.0-0.4","pilot_wm_v1","58d834cec207720001e2e750","8","null","null","false","","false","","","","","[551.2999999821186,238]","./assets/img/canyon/memory/30.jpg","[""ArrowUp"",""ArrowLeft""]","value training","canyon","26","{""ArrowUp,ArrowLeft"":26,""ArrowUp,ArrowRight"":10,""ArrowDown,ArrowLeft"":5,""ArrowDown,ArrowRight"":17}","true","ArrowUp,ArrowLeft","false","","","","","8","revaluation","1",""
"html-keyboard-response","140","1135962","0.0-4.0-2.0-1.4","pilot_wm_v1","58d834cec207720001e2e750","8","null","null","false","","","","","","","null","<div style=""font-size:60px;"">+</div>","null","fixation","","","","","","","","","","","9","","",""
"revaluation","141","1141965","0.0-4.0-2.0-0.5","pilot_wm_v1","58d834cec207720001e2e750","8","null","null","false","","false","","","","","[609,363.30000001192093]","./assets/img/canyon/memory/23.jpg","[""ArrowUp"",""ArrowLeft""]","value training","canyon","26","{""ArrowUp,ArrowLeft"":26,""ArrowUp,ArrowRight"":10,""ArrowDown,ArrowLeft"":5,""ArrowDown,ArrowRight"":17}","true","ArrowUp,ArrowLeft","false","","","","","10","revaluation","1",""
"html-keyboard-response","142","1142467","0.0-4.0-2.0-1.5","pilot_wm_v1","58d834cec207720001e2e750","8","null","null","false","","","","","","","null","<div style=""font-size:60px;"">+</div>","null","fixation","","","","","","","","","","","11","","",""
"revaluation","143","1148470","0.0-4.0-2.0-0.6","pilot_wm_v1","58d834cec207720001e2e750","8","null","null","false","","false","","","","","[418.60000002384186,281.5]","./assets/img/canyon/memory/3.jpg","[""ArrowUp"",""ArrowLeft""]","value training","canyon","26","{""ArrowUp,ArrowLeft"":26,""ArrowUp,ArrowRight"":10,""ArrowDown,ArrowLeft"":5,""ArrowDown,ArrowRight"":17}","true","ArrowUp,ArrowLeft","false","","","","","12","revaluation","1",""
"html-keyboard-response","144","1148973","0.0-4.0-2.0-1.6","pilot_wm_v1","58d834cec207720001e2e750","8","null","null","false","","","","","","","null","<div style=""font-size:60px;"">+</div>","null","fixation","","","","","","","","","","","13","","",""
"revaluation","145","1154977","0.0-4.0-2.0-0.7","pilot_wm_v1","58d834cec207720001e2e750","8","null","null","false","","false","","","","","[453.40000000596046,251.69999998807907]","./assets/img/canyon/memory/16.jpg","[""ArrowUp"",""ArrowLeft""]","value training","canyon","26","{""ArrowUp,ArrowLeft"":26,""ArrowUp,ArrowRight"":10,""ArrowDown,ArrowLeft"":5,""ArrowDown,ArrowRight"":17}","true","ArrowUp,ArrowLeft","false","","","","","14","revaluation","1",""
"html-keyboard-response","146","1155477","0.0-4.0-2.0-1.7","pilot_wm_v1","58d834cec207720001e2e750","8","null","null","false","","","","","","","null","<div style=""font-size:60px;"">+</div>","null","fixation","","","","","","","","","","","15","","",""
"revaluation","147","1161483","0.0-4.0-2.0-0.8","pilot_wm_v1","58d834cec207720001e2e750","8","null","null","false","","false","","","","","[541.0999999940395,346.2999999821186]","./assets/img/canyon/memory/29.jpg","[""ArrowUp"",""ArrowLeft""]","value training","canyon","26","{""ArrowUp,ArrowLeft"":26,""ArrowUp,ArrowRight"":10,""ArrowDown,ArrowLeft"":5,""ArrowDown,ArrowRight"":17}","true","ArrowUp,ArrowLeft","false","","","","","16","revaluation","1",""
"html-keyboard-response","148","1161984","0.0-4.0-2.0-1.8","pilot_wm_v1","58d834cec207720001e2e750","8","null","null","false","","","","","","","null","<div style=""font-size:60px;"">+</div>","null","fixation","","","","","","","","","","","17","","",""
"revaluation","149","1165986","0.0-4.0-2.0-0.9","pilot_wm_v1","58d834cec207720001e2e750","8","null","null","false","","false","","","","","[936.1000000238419]","./assets/img/canyon/catch/6.jpg","[""spaceBar""]","value training","canyon","0","{""ArrowUp,ArrowLeft"":26,""ArrowUp,ArrowRight"":10,""ArrowDown,ArrowLeft"":5,""ArrowDown,ArrowRight"":17}","true","spaceBar","true","","","","","18","revaluation","1",""
"html-keyboard-response","150","1166487","0.0-4.0-2.0-1.9","pilot_wm_v1","58d834cec207720001e2e750","8","null","null","false","","","","","","","null","<div style=""font-size:60px;"">+</div>","null","fixation","","","","","","","","","","","19","","",""
"revaluation","151","1172489","0.0-4.0-2.0-0.10","pilot_wm_v1","58d834cec207720001e2e750","8","null","null","false","","false","","","","","[457.40000000596046,637.9000000059605]","./assets/img/canyon/memory/31.jpg","[""ArrowUp"",""ArrowLeft""]","value training","canyon","26","{""ArrowUp,ArrowLeft"":26,""ArrowUp,ArrowRight"":10,""ArrowDown,ArrowLeft"":5,""ArrowDown,ArrowRight"":17}","true","ArrowUp,ArrowLeft","false","","","","","20","revaluation","1",""
"html-keyboard-response","152","1172990","0.0-4.0-2.0-1.10","pilot_wm_v1","58d834cec207720001e2e750","8","null","null","false","","","","","","","null","<div style=""font-size:60px;"">+</div>","null","fixation","","","","","","","","","","","21","","",""
"revaluation","153","1178992","0.0-4.0-2.0-0.11","pilot_wm_v1","58d834cec207720001e2e750","8","null","null","false","","false","","","","","[526.1999999880791,460.40000000596046]","./assets/img/canyon/memory/20.jpg","[""ArrowUp"",""ArrowLeft""]","value training","canyon","26","{""ArrowUp,ArrowLeft"":26,""ArrowUp,ArrowRight"":10,""ArrowDown,ArrowLeft"":5,""ArrowDown,ArrowRight"":17}","true","ArrowUp,ArrowLeft","false","","","","","22","revaluation","1",""
"html-keyboard-response","154","1179493","0.0-4.0-2.0-1.11","pilot_wm_v1","58d834cec207720001e2e750","8","null","null","false","","","","","","","null","<div style=""font-size:60px;"">+</div>","null","fixation","","","","","","","","","","","23","","",""
"revaluation","155","1183495","0.0-4.0-2.0-0.12","pilot_wm_v1","58d834cec207720001e2e750","8","null","null","false","","false","","","","","[927.7000000178814]","./assets/img/canyon/catch/2.jpg","[""spaceBar""]","value training","canyon","0","{""ArrowUp,ArrowLeft"":26,""ArrowUp,ArrowRight"":10,""ArrowDown,ArrowLeft"":5,""ArrowDown,ArrowRight"":17}","true","spaceBar","true","","","","","24","revaluation","1",""
"html-keyboard-response","156","1183996","0.0-4.0-2.0-1.12","pilot_wm_v1","58d834cec207720001e2e750","8","null","null","false","","","","","","","null","<div style=""font-size:60px;"">+</div>","null","fixation","","","","","","","","","","","25","","",""
"revaluation","157","1188000","0.0-4.0-2.0-0.13","pilot_wm_v1","58d834cec207720001e2e750","8","null","null","false","","false","","","","","[585]","./assets/img/canyon/catch/3.jpg","[""spaceBar""]","value training","canyon","0","{""ArrowUp,ArrowLeft"":26,""ArrowUp,ArrowRight"":10,""ArrowDown,ArrowLeft"":5,""ArrowDown,ArrowRight"":17}","true","spaceBar","true","","","","","26","revaluation","1",""
"html-keyboard-response","158","1188500","0.0-4.0-2.0-1.13","pilot_wm_v1","58d834cec207720001e2e750","8","null","null","false","","","","","","","null","<div style=""font-size:60px;"">+</div>","null","fixation","","","","","","","","","","","27","","",""
"revaluation","159","1194505","0.0-4.0-2.0-0.14","pilot_wm_v1","58d834cec207720001e2e750","8","null","null","false","","false","","","","","[553.5,409.30000001192093]","./assets/img/canyon/memory/32.jpg","[""ArrowUp"",""ArrowLeft""]","value training","canyon","26","{""ArrowUp,ArrowLeft"":26,""ArrowUp,ArrowRight"":10,""ArrowDown,ArrowLeft"":5,""ArrowDown,ArrowRight"":17}","true","ArrowUp,ArrowLeft","false","","","","","28","revaluation","1",""
"html-keyboard-response","160","1195007","0.0-4.0-2.0-1.14","pilot_wm_v1","58d834cec207720001e2e750","8","null","null","false","","","","","","","null","<div style=""font-size:60px;"">+</div>","null","fixation","","","","","","","","","","","29","","",""
"revaluation","161","1201023","0.0-4.0-2.0-0.15","pilot_wm_v1","58d834cec207720001e2e750","8","null","null","false","","false","","","","","[576.8000000119209,387.09999999403954]","./assets/img/canyon/memory/37.jpg","[""ArrowUp"",""ArrowLeft""]","value training","canyon","26","{""ArrowUp,ArrowLeft"":26,""ArrowUp,ArrowRight"":10,""ArrowDown,ArrowLeft"":5,""ArrowDown,ArrowRight"":17}","true","ArrowUp,ArrowLeft","false","","","","","30","revaluation","1",""
"html-keyboard-response","162","1201525","0.0-4.0-2.0-1.15","pilot_wm_v1","58d834cec207720001e2e750","8","null","null","false","","","","","","","null","<div style=""font-size:60px;"">+</div>","null","fixation","","","","","","","","","","","31","","",""
"revaluation","163","1205527","0.0-4.0-2.0-0.16","pilot_wm_v1","58d834cec207720001e2e750","8","null","null","false","","false","","","","","[577.1999999880791]","./assets/img/canyon/catch/7.jpg","[""spaceBar""]","value training","canyon","0","{""ArrowUp,ArrowLeft"":26,""ArrowUp,ArrowRight"":10,""ArrowDown,ArrowLeft"":5,""ArrowDown,ArrowRight"":17}","true","spaceBar","true","","","","","32","revaluation","1",""
"html-keyboard-response","164","1206028","0.0-4.0-2.0-1.16","pilot_wm_v1","58d834cec207720001e2e750","8","null","null","false","","","","","","","null","<div style=""font-size:60px;"">+</div>","null","fixation","","","","","","","","","","","33","","",""
"revaluation","165","1212032","0.0-4.0-2.0-0.17","pilot_wm_v1","58d834cec207720001e2e750","8","null","null","false","","false","","","","","[751.4000000059605,419.5]","./assets/img/canyon/memory/35.jpg","[""ArrowUp"",""ArrowLeft""]","value training","canyon","26","{""ArrowUp,ArrowLeft"":26,""ArrowUp,ArrowRight"":10,""ArrowDown,ArrowLeft"":5,""ArrowDown,ArrowRight"":17}","true","ArrowUp,ArrowLeft","false","","","","","34","revaluation","1",""
"html-keyboard-response","166","1212533","0.0-4.0-2.0-1.17","pilot_wm_v1","58d834cec207720001e2e750","8","null","null","false","","","","","","","null","<div style=""font-size:60px;"">+</div>","null","fixation","","","","","","","","","","","35","","",""
"revaluation","167","1218541","0.0-4.0-2.0-0.18","pilot_wm_v1","58d834cec207720001e2e750","8","null","null","false","","false","","","","","[770.0999999940395,221.90000000596046]","./assets/img/canyon/memory/20.jpg","[""ArrowUp"",""ArrowLeft""]","value training","canyon","26","{""ArrowUp,ArrowLeft"":26,""ArrowUp,ArrowRight"":10,""ArrowDown,ArrowLeft"":5,""ArrowDown,ArrowRight"":17}","true","ArrowUp,ArrowLeft","false","","","","","36","revaluation","1",""
"html-keyboard-response","168","1219042","0.0-4.0-2.0-1.18","pilot_wm_v1","58d834cec207720001e2e750","8","null","null","false","","","","","","","null","<div style=""font-size:60px;"">+</div>","null","fixation","","","","","","","","","","","37","","",""
"revaluation","169","1225045","0.0-4.0-2.0-0.19","pilot_wm_v1","58d834cec207720001e2e750","8","null","null","false","","false","","","","","[581.3000000119209,275.09999999403954]","./assets/img/canyon/memory/1.jpg","[""ArrowUp"",""ArrowLeft""]","value training","canyon","26","{""ArrowUp,ArrowLeft"":26,""ArrowUp,ArrowRight"":10,""ArrowDown,ArrowLeft"":5,""ArrowDown,ArrowRight"":17}","true","ArrowUp,ArrowLeft","false","","","","","38","revaluation","1",""
"html-keyboard-response","170","1225547","0.0-4.0-2.0-1.19","pilot_wm_v1","58d834cec207720001e2e750","8","null","null","false","","","","","","","null","<div style=""font-size:60px;"">+</div>","null","fixation","","","","","","","","","","","39","","",""
"revaluation","171","1231550","0.0-4.0-2.0-0.20","pilot_wm_v1","58d834cec207720001e2e750","8","null","null","false","","false","","","","","[998,381.5]","./assets/img/canyon/memory/19.jpg","[""ArrowUp"",""ArrowLeft""]","value training","canyon","26","{""ArrowUp,ArrowLeft"":26,""ArrowUp,ArrowRight"":10,""ArrowDown,ArrowLeft"":5,""ArrowDown,ArrowRight"":17}","true","ArrowUp,ArrowLeft","false","","","","","40","revaluation","1",""
"html-keyboard-response","172","1232050","0.0-4.0-2.0-1.20","pilot_wm_v1","58d834cec207720001e2e750","8","null","null","false","","","","","","","null","<div style=""font-size:60px;"">+</div>","null","fixation","","","","","","","","","","","41","","",""
"revaluation","173","1238055","0.0-4.0-2.0-0.21","pilot_wm_v1","58d834cec207720001e2e750","8","null","null","false","","false","","","","","[1022.5,406.80000001192093]","./assets/img/canyon/memory/4.jpg","[""ArrowUp"",""ArrowLeft""]","value training","canyon","26","{""ArrowUp,ArrowLeft"":26,""ArrowUp,ArrowRight"":10,""ArrowDown,ArrowLeft"":5,""ArrowDown,ArrowRight"":17}","true","ArrowUp,ArrowLeft","false","","","","","42","revaluation","1",""
"html-keyboard-response","174","1238557","0.0-4.0-2.0-1.21","pilot_wm_v1","58d834cec207720001e2e750","8","null","null","false","","","","","","","null","<div style=""font-size:60px;"">+</div>","null","fixation","","","","","","","","","","","43","","",""
"revaluation","175","1244560","0.0-4.0-2.0-0.22","pilot_wm_v1","58d834cec207720001e2e750","8","null","null","false","","false","","","","","[624.6999999880791,52.60000002384186]","./assets/img/canyon/memory/3.jpg","[""ArrowUp"",""ArrowLeft""]","value training","canyon","26","{""ArrowUp,ArrowLeft"":26,""ArrowUp,ArrowRight"":10,""ArrowDown,ArrowLeft"":5,""ArrowDown,ArrowRight"":17}","true","ArrowUp,ArrowLeft","false","","","","","44","revaluation","1",""
"html-keyboard-response","176","1245061","0.0-4.0-2.0-1.22","pilot_wm_v1","58d834cec207720001e2e750","8","null","null","false","","","","","","","null","<div style=""font-size:60px;"">+</div>","null","fixation","","","","","","","","","","","45","","",""
"revaluation","177","1251064","0.0-4.0-2.0-0.23","pilot_wm_v1","58d834cec207720001e2e750","8","null","null","false","","false","","","","","[1282.1000000238419,614.7999999821186]","./assets/img/canyon/memory/30.jpg","[""ArrowUp"",""ArrowRight""]","value training","canyon","10","{""ArrowUp,ArrowLeft"":26,""ArrowUp,ArrowRight"":10,""ArrowDown,ArrowLeft"":5,""ArrowDown,ArrowRight"":17}","false","ArrowUp,ArrowRight","false","","","","","46","revaluation","1",""
"html-keyboard-response","178","1251566","0.0-4.0-2.0-1.23","pilot_wm_v1","58d834cec207720001e2e750","8","null","null","false","","","","","","","null","<div style=""font-size:60px;"">+</div>","null","fixation","","","","","","","","","","","47","","",""
"revaluation","179","1257570","0.0-4.0-2.0-0.24","pilot_wm_v1","58d834cec207720001e2e750","8","null","null","false","","false","","","","","[593,378.7999999821186]","./assets/img/canyon/memory/29.jpg","[""ArrowUp"",""ArrowLeft""]","value training","canyon","26","{""ArrowUp,ArrowLeft"":26,""ArrowUp,ArrowRight"":10,""ArrowDown,ArrowLeft"":5,""ArrowDown,ArrowRight"":17}","true","ArrowUp,ArrowLeft","false","","","","","48","revaluation","1",""
"html-keyboard-response","180","1258071","0.0-4.0-2.0-1.24","pilot_wm_v1","58d834cec207720001e2e750","8","null","null","false","","","","","","","null","<div style=""font-size:60px;"">+</div>","null","fixation","","","","","","","","","","","49","","",""
"revaluation","181","1262075","0.0-4.0-2.0-0.25","pilot_wm_v1","58d834cec207720001e2e750","8","null","null","false","","false","","","","","[705.6999999880791]","./assets/img/canyon/catch/0.jpg","[""spaceBar""]","value training","canyon","0","{""ArrowUp,ArrowLeft"":26,""ArrowUp,ArrowRight"":10,""ArrowDown,ArrowLeft"":5,""ArrowDown,ArrowRight"":17}","true","spaceBar","true","","","","","50","revaluation","1",""
"html-keyboard-response","182","1262577","0.0-4.0-2.0-1.25","pilot_wm_v1","58d834cec207720001e2e750","8","null","null","false","","","","","","","null","<div style=""font-size:60px;"">+</div>","null","fixation","","","","","","","","","","","51","","",""
"revaluation","183","1268579","0.0-4.0-2.0-0.26","pilot_wm_v1","58d834cec207720001e2e750","8","null","null","false","","false","","","","","[819.5999999940395,286.40000000596046]","./assets/img/canyon/memory/32.jpg","[""ArrowUp"",""ArrowLeft""]","value training","canyon","26","{""ArrowUp,ArrowLeft"":26,""ArrowUp,ArrowRight"":10,""ArrowDown,ArrowLeft"":5,""ArrowDown,ArrowRight"":17}","true","ArrowUp,ArrowLeft","false","","","","","52","revaluation","1",""
"html-keyboard-response","184","1269081","0.0-4.0-2.0-1.26","pilot_wm_v1","58d834cec207720001e2e750","8","null","null","false","","","","","","","null","<div style=""font-size:60px;"">+</div>","null","fixation","","","","","","","","","","","53","","",""
"revaluation","185","1275084","0.0-4.0-2.0-0.27","pilot_wm_v1","58d834cec207720001e2e750","8","null","null","false","","false","","","","","[661.5,55.69999998807907]","./assets/img/canyon/memory/23.jpg","[""ArrowUp"",""ArrowLeft""]","value training","canyon","26","{""ArrowUp,ArrowLeft"":26,""ArrowUp,ArrowRight"":10,""ArrowDown,ArrowLeft"":5,""ArrowDown,ArrowRight"":17}","true","ArrowUp,ArrowLeft","false","","","","","54","revaluation","1",""
"html-keyboard-response","186","1275585","0.0-4.0-2.0-1.27","pilot_wm_v1","58d834cec207720001e2e750","8","null","null","false","","","","","","","null","<div style=""font-size:60px;"">+</div>","null","fixation","","","","","","","","","","","55","","",""
"revaluation","187","1281588","0.0-4.0-2.0-0.28","pilot_wm_v1","58d834cec207720001e2e750","8","null","null","false","","false","","","","","[1382.7999999821186,14.400000005960464]","./assets/img/canyon/memory/40.jpg","[""ArrowUp"",""ArrowLeft""]","value training","canyon","26","{""ArrowUp,ArrowLeft"":26,""ArrowUp,ArrowRight"":10,""ArrowDown,ArrowLeft"":5,""ArrowDown,ArrowRight"":17}","true","ArrowUp,ArrowLeft","false","","","","","56","revaluation","1",""
"html-keyboard-response","188","1282090","0.0-4.0-2.0-1.28","pilot_wm_v1","58d834cec207720001e2e750","8","null","null","false","","","","","","","null","<div style=""font-size:60px;"">+</div>","null","fixation","","","","","","","","","","","57","","",""
"revaluation","189","1288093","0.0-4.0-2.0-0.29","pilot_wm_v1","58d834cec207720001e2e750","8","null","null","false","","false","","","","","[681.5999999940395,29.5]","./assets/img/canyon/memory/24.jpg","[""ArrowUp"",""ArrowLeft""]","value training","canyon","26","{""ArrowUp,ArrowLeft"":26,""ArrowUp,ArrowRight"":10,""ArrowDown,ArrowLeft"":5,""ArrowDown,ArrowRight"":17}","true","ArrowUp,ArrowLeft","false","","","","","58","revaluation","1",""
"html-keyboard-response","190","1288594","0.0-4.0-2.0-1.29","pilot_wm_v1","58d834cec207720001e2e750","8","null","null","false","","","","","","","null","<div style=""font-size:60px;"">+</div>","null","fixation","","","","","","","","","","","59","","",""
"revaluation","191","1294597","0.0-4.0-2.0-0.30","pilot_wm_v1","58d834cec207720001e2e750","8","null","null","false","","false","","","","","[711.2000000178814,23.19999998807907]","./assets/img/canyon/memory/35.jpg","[""ArrowUp"",""ArrowLeft""]","value training","canyon","26","{""ArrowUp,ArrowLeft"":26,""ArrowUp,ArrowRight"":10,""ArrowDown,ArrowLeft"":5,""ArrowDown,ArrowRight"":17}","true","ArrowUp,ArrowLeft","false","","","","","60","revaluation","1",""
"html-keyboard-response","192","1295097","0.0-4.0-2.0-1.30","pilot_wm_v1","58d834cec207720001e2e750","8","null","null","false","","","","","","","null","<div style=""font-size:60px;"">+</div>","null","fixation","","","","","","","","","","","61","","",""
"revaluation","193","1299100","0.0-4.0-2.0-0.31","pilot_wm_v1","58d834cec207720001e2e750","8","null","null","false","","false","","","","","[593.9000000059605]","./assets/img/canyon/catch/1.jpg","[""spaceBar""]","value training","canyon","0","{""ArrowUp,ArrowLeft"":26,""ArrowUp,ArrowRight"":10,""ArrowDown,ArrowLeft"":5,""ArrowDown,ArrowRight"":17}","true","spaceBar","true","","","","","62","revaluation","1",""
"html-keyboard-response","194","1299607","0.0-4.0-2.0-1.31","pilot_wm_v1","58d834cec207720001e2e750","8","null","null","false","","","","","","","null","<div style=""font-size:60px;"">+</div>","null","fixation","","","","","","","","","","","63","","",""
"revaluation","195","1303609","0.0-4.0-2.0-0.32","pilot_wm_v1","58d834cec207720001e2e750","8","null","null","false","","false","","","","","[568.5999999940395]","./assets/img/canyon/catch/4.jpg","[""spaceBar""]","value training","canyon","0","{""ArrowUp,ArrowLeft"":26,""ArrowUp,ArrowRight"":10,""ArrowDown,ArrowLeft"":5,""ArrowDown,ArrowRight"":17}","true","spaceBar","true","","","","","64","revaluation","1",""
"html-keyboard-response","196","1304111","0.0-4.0-2.0-1.32","pilot_wm_v1","58d834cec207720001e2e750","8","null","null","false","","","","","","","null","<div style=""font-size:60px;"">+</div>","null","fixation","","","","","","","","","","","65","","",""
"revaluation","197","1310114","0.0-4.0-2.0-0.33","pilot_wm_v1","58d834cec207720001e2e750","8","null","null","false","","false","","","","","[958.5999999940395,186.7000000178814]","./assets/img/canyon/memory/8.jpg","[""ArrowUp"",""ArrowLeft""]","value training","canyon","26","{""ArrowUp,ArrowLeft"":26,""ArrowUp,ArrowRight"":10,""ArrowDown,ArrowLeft"":5,""ArrowDown,ArrowRight"":17}","true","ArrowUp,ArrowLeft","false","","","","","66","revaluation","1",""
"html-keyboard-response","198","1310615","0.0-4.0-2.0-1.33","pilot_wm_v1","58d834cec207720001e2e750","8","null","null","false","","","","","","","null","<div style=""font-size:60px;"">+</div>","null","fixation","","","","","","","","","","","67","","",""
"revaluation","199","1316618","0.0-4.0-2.0-0.34","pilot_wm_v1","58d834cec207720001e2e750","8","null","null","false","","false","","","","","[654.9000000059605,17.900000005960464]","./assets/img/canyon/memory/7.jpg","[""ArrowUp"",""ArrowLeft""]","value training","canyon","26","{""ArrowUp,ArrowLeft"":26,""ArrowUp,ArrowRight"":10,""ArrowDown,ArrowLeft"":5,""ArrowDown,ArrowRight"":17}","true","ArrowUp,ArrowLeft","false","","","","","68","revaluation","1",""
"html-keyboard-response","200","1317119","0.0-4.0-2.0-1.34","pilot_wm_v1","58d834cec207720001e2e750","8","null","null","false","","","","","","","null","<div style=""font-size:60px;"">+</div>","null","fixation","","","","","","","","","","","69","","",""
"revaluation","201","1323122","0.0-4.0-2.0-0.35","pilot_wm_v1","58d834cec207720001e2e750","8","null","null","false","","false","","","","","[877.4000000059605,38.30000001192093]","./assets/img/canyon/memory/8.jpg","[""ArrowUp"",""ArrowLeft""]","value training","canyon","26","{""ArrowUp,ArrowLeft"":26,""ArrowUp,ArrowRight"":10,""ArrowDown,ArrowLeft"":5,""ArrowDown,ArrowRight"":17}","true","ArrowUp,ArrowLeft","false","","","","","70","revaluation","1",""
"html-keyboard-response","202","1323623","0.0-4.0-2.0-1.35","pilot_wm_v1","58d834cec207720001e2e750","8","null","null","false","","","","","","","null","<div style=""font-size:60px;"">+</div>","null","fixation","","","","","","","","","","","71","","",""
"revaluation","203","1329626","0.0-4.0-2.0-0.36","pilot_wm_v1","58d834cec207720001e2e750","8","null","null","false","","false","","","","","[691.2999999821186,27.900000005960464]","./assets/img/canyon/memory/2.jpg","[""ArrowUp"",""ArrowLeft""]","value training","canyon","26","{""ArrowUp,ArrowLeft"":26,""ArrowUp,ArrowRight"":10,""ArrowDown,ArrowLeft"":5,""ArrowDown,ArrowRight"":17}","true","ArrowUp,ArrowLeft","false","","","","","72","revaluation","1",""
"html-keyboard-response","204","1330127","0.0-4.0-2.0-1.36","pilot_wm_v1","58d834cec207720001e2e750","8","null","null","false","","","","","","","null","<div style=""font-size:60px;"">+</div>","null","fixation","","","","","","","","","","","73","","",""
"revaluation","205","1336131","0.0-4.0-2.0-0.37","pilot_wm_v1","58d834cec207720001e2e750","8","null","null","false","","false","","","","","[958.5,21.69999998807907]","./assets/img/canyon/memory/18.jpg","[""ArrowUp"",""ArrowLeft""]","value training","canyon","26","{""ArrowUp,ArrowLeft"":26,""ArrowUp,ArrowRight"":10,""ArrowDown,ArrowLeft"":5,""ArrowDown,ArrowRight"":17}","true","ArrowUp,ArrowLeft","false","","","","","74","revaluation","1",""
"html-keyboard-response","206","1336632","0.0-4.0-2.0-1.37","pilot_wm_v1","58d834cec207720001e2e750","8","null","null","false","","","","","","","null","<div style=""font-size:60px;"">+</div>","null","fixation","","","","","","","","","","","75","","",""
"revaluation","207","1342634","0.0-4.0-2.0-0.38","pilot_wm_v1","58d834cec207720001e2e750","8","null","null","false","","false","","","","","[540,15.199999988079071]","./assets/img/canyon/memory/16.jpg","[""ArrowUp"",""ArrowLeft""]","value training","canyon","26","{""ArrowUp,ArrowLeft"":26,""ArrowUp,ArrowRight"":10,""ArrowDown,ArrowLeft"":5,""ArrowDown,ArrowRight"":17}","true","ArrowUp,ArrowLeft","false","","","","","76","revaluation","1",""
"html-keyboard-response","208","1343135","0.0-4.0-2.0-1.38","pilot_wm_v1","58d834cec207720001e2e750","8","null","null","false","","","","","","","null","<div style=""font-size:60px;"">+</div>","null","fixation","","","","","","","","","","","77","","",""
"revaluation","209","1349138","0.0-4.0-2.0-0.39","pilot_wm_v1","58d834cec207720001e2e750","8","null","null","false","","false","","","","","[711.8000000119209,8.5]","./assets/img/canyon/memory/10.jpg","[""ArrowUp"",""ArrowLeft""]","value training","canyon","26","{""ArrowUp,ArrowLeft"":26,""ArrowUp,ArrowRight"":10,""ArrowDown,ArrowLeft"":5,""ArrowDown,ArrowRight"":17}","true","ArrowUp,ArrowLeft","false","","","","","78","revaluation","1",""
"html-keyboard-response","210","1349639","0.0-4.0-2.0-1.39","pilot_wm_v1","58d834cec207720001e2e750","8","null","null","false","","","","","","","null","<div style=""font-size:60px;"">+</div>","null","fixation","","","","","","","","","","","79","","",""
"revaluation","211","1355642","0.0-4.0-2.0-0.40","pilot_wm_v1","58d834cec207720001e2e750","8","null","null","false","","false","","","","","[797.8000000119209,21.599999994039536]","./assets/img/canyon/memory/7.jpg","[""ArrowDown"",""ArrowRight""]","value training","canyon","17","{""ArrowUp,ArrowLeft"":26,""ArrowUp,ArrowRight"":10,""ArrowDown,ArrowLeft"":5,""ArrowDown,ArrowRight"":17}","false","ArrowDown,ArrowRight","false","","","","","80","revaluation","1",""
"html-keyboard-response","212","1356143","0.0-4.0-2.0-1.40","pilot_wm_v1","58d834cec207720001e2e750","8","null","null","false","","","","","","","null","<div style=""font-size:60px;"">+</div>","null","fixation","","","","","","","","","","","81","","",""
"revaluation","213","1362148","0.0-4.0-2.0-0.41","pilot_wm_v1","58d834cec207720001e2e750","8","null","null","false","","false","","","","","[1046,28.099999994039536]","./assets/img/canyon/memory/1.jpg","[""ArrowUp"",""ArrowLeft""]","value training","canyon","26","{""ArrowUp,ArrowLeft"":26,""ArrowUp,ArrowRight"":10,""ArrowDown,ArrowLeft"":5,""ArrowDown,ArrowRight"":17}","true","ArrowUp,ArrowLeft","false","","","","","82","revaluation","1",""
"html-keyboard-response","214","1362649","0.0-4.0-2.0-1.41","pilot_wm_v1","58d834cec207720001e2e750","8","null","null","false","","","","","","","null","<div style=""font-size:60px;"">+</div>","null","fixation","","","","","","","","","","","83","","",""
"revaluation","215","1368653","0.0-4.0-2.0-0.42","pilot_wm_v1","58d834cec207720001e2e750","8","null","null","false","","false","","","","","[559,33.70000001788139]","./assets/img/canyon/memory/4.jpg","[""ArrowUp"",""ArrowLeft""]","value training","canyon","26","{""ArrowUp,ArrowLeft"":26,""ArrowUp,ArrowRight"":10,""ArrowDown,ArrowLeft"":5,""ArrowDown,ArrowRight"":17}","true","ArrowUp,ArrowLeft","false","","","","","84","revaluation","1",""
"html-keyboard-response","216","1369155","0.0-4.0-2.0-1.42","pilot_wm_v1","58d834cec207720001e2e750","8","null","null","false","","","","","","","null","<div style=""font-size:60px;"">+</div>","null","fixation","","","","","","","","","","","85","","",""
"revaluation","217","1375158","0.0-4.0-2.0-0.43","pilot_wm_v1","58d834cec207720001e2e750","8","null","null","false","","false","","","","","[922.2999999821186,3]","./assets/img/canyon/memory/37.jpg","[""ArrowUp"",""ArrowLeft""]","value training","canyon","26","{""ArrowUp,ArrowLeft"":26,""ArrowUp,ArrowRight"":10,""ArrowDown,ArrowLeft"":5,""ArrowDown,ArrowRight"":17}","true","ArrowUp,ArrowLeft","false","","","","","86","revaluation","1",""
"html-keyboard-response","218","1375658","0.0-4.0-2.0-1.43","pilot_wm_v1","58d834cec207720001e2e750","8","null","null","false","","","","","","","null","<div style=""font-size:60px;"">+</div>","null","fixation","","","","","","","","","","","87","","",""
"revaluation","219","1379661","0.0-4.0-2.0-0.44","pilot_wm_v1","58d834cec207720001e2e750","8","null","null","false","","false","","","","","[1003.0999999940395]","./assets/img/canyon/catch/5.jpg","[""spaceBar""]","value training","canyon","0","{""ArrowUp,ArrowLeft"":26,""ArrowUp,ArrowRight"":10,""ArrowDown,ArrowLeft"":5,""ArrowDown,ArrowRight"":17}","true","spaceBar","true","","","","","88","revaluation","1",""
"html-keyboard-response","220","1380162","0.0-4.0-2.0-1.44","pilot_wm_v1","58d834cec207720001e2e750","8","null","null","false","","","","","","","null","<div style=""font-size:60px;"">+</div>","null","fixation","","","","","","","","","","","89","","",""
"revaluation","221","1386166","0.0-4.0-2.0-0.45","pilot_wm_v1","58d834cec207720001e2e750","8","null","null","false","","false","","","","","[781.6000000238419,3.5999999940395355]","./assets/img/canyon/memory/11.jpg","[""ArrowUp"",""ArrowLeft""]","value training","canyon","26","{""ArrowUp,ArrowLeft"":26,""ArrowUp,ArrowRight"":10,""ArrowDown,ArrowLeft"":5,""ArrowDown,ArrowRight"":17}","true","ArrowUp,ArrowLeft","false","","","","","90","revaluation","1",""
"html-keyboard-response","222","1386666","0.0-4.0-2.0-1.45","pilot_wm_v1","58d834cec207720001e2e750","8","null","null","false","","","","","","","null","<div style=""font-size:60px;"">+</div>","null","fixation","","","","","","","","","","","91","","",""
"revaluation","223","1392671","0.0-4.0-2.0-0.46","pilot_wm_v1","58d834cec207720001e2e750","8","null","null","false","","false","","","","","[624.5,16.80000001192093]","./assets/img/canyon/memory/31.jpg","[""ArrowUp"",""ArrowLeft""]","value training","canyon","26","{""ArrowUp,ArrowLeft"":26,""ArrowUp,ArrowRight"":10,""ArrowDown,ArrowLeft"":5,""ArrowDown,ArrowRight"":17}","true","ArrowUp,ArrowLeft","false","","","","","92","revaluation","1",""
"html-keyboard-response","224","1393172","0.0-4.0-2.0-1.46","pilot_wm_v1","58d834cec207720001e2e750","8","null","null","false","","","","","","","null","<div style=""font-size:60px;"">+</div>","null","fixation","","","","","","","","","","","93","","",""
"revaluation","225","1399177","0.0-4.0-2.0-0.47","pilot_wm_v1","58d834cec207720001e2e750","8","null","null","false","","false","","","","","[570.9000000059605,7.299999982118607]","./assets/img/canyon/memory/40.jpg","[""ArrowUp"",""ArrowLeft""]","value training","canyon","26","{""ArrowUp,ArrowLeft"":26,""ArrowUp,ArrowRight"":10,""ArrowDown,ArrowLeft"":5,""ArrowDown,ArrowRight"":17}","true","ArrowUp,ArrowLeft","false","","","","","94","revaluation","1",""
"html-keyboard-response","226","1399677","0.0-4.0-2.0-1.47","pilot_wm_v1","58d834cec207720001e2e750","8","null","null","false","","","","","","","null","<div style=""font-size:60px;"">+</div>","null","fixation","","","","","","","","","","","95","","",""
"revaluation","227","1405680","0.0-4.0-2.0-0.48","pilot_wm_v1","58d834cec207720001e2e750","8","null","null","false","","false","","","","","[578.5,30.5]","./assets/img/canyon/memory/10.jpg","[""ArrowUp"",""ArrowLeft""]","value training","canyon","26","{""ArrowUp,ArrowLeft"":26,""ArrowUp,ArrowRight"":10,""ArrowDown,ArrowLeft"":5,""ArrowDown,ArrowRight"":17}","true","ArrowUp,ArrowLeft","false","","","","","96","revaluation","1",""
"html-keyboard-response","228","1406181","0.0-4.0-2.0-1.48","pilot_wm_v1","58d834cec207720001e2e750","8","null","null","false","","","","","","","null","<div style=""font-size:60px;"">+</div>","null","fixation","","","","","","","","","","","97","","",""
"revaluation","229","1412185","0.0-4.0-2.0-0.49","pilot_wm_v1","58d834cec207720001e2e750","8","null","null","false","","false","","","","","[544.1999999880791,24.5]","./assets/img/canyon/memory/11.jpg","[""ArrowUp"",""ArrowLeft""]","value training","canyon","26","{""ArrowUp,ArrowLeft"":26,""ArrowUp,ArrowRight"":10,""ArrowDown,ArrowLeft"":5,""ArrowDown,ArrowRight"":17}","true","ArrowUp,ArrowLeft","false","","","","","98","revaluation","1",""
"html-keyboard-response","230","1412686","0.0-4.0-2.0-1.49","pilot_wm_v1","58d834cec207720001e2e750","8","null","null","false","","","","","","","null","<div style=""font-size:60px;"">+</div>","null","fixation","","","","","","","","","","","99","","",""
"learning-instructions","231","1433384","0.0-4.0-3.0-0.0","pilot_wm_v1","58d834cec207720001e2e750","8","null","null","false","","","","","","","7810.5999999940395","<p> Now, you will travel with a friend who will choose whether you go up or down first. </p>
            <p> On these turns, you will just see the animal that they found. You will still get to choose which chest to search for treasure.</p>","","instructions","","","","","","","","","","","","","",""
"learning-instructions","232","1445473","0.0-4.0-3.0-0.1","pilot_wm_v1","58d834cec207720001e2e750","8","null","null","false","","","","","","","479.09999999403954","<p> In this part, you will also hear beeps from your friend and see special treasure chests that need a password. </p>
            <p> Do your best to count the high beeps <b>and</b> choose between each animals' chests at the same time.</p>
            <img src='./assets/img/instructions/beep_chest.jpg' class='instructions-image'>","","instructions","","","","","","","","","","","","","",""
"revaluation","233","1449497","0.0-4.0-4.0-0.0","pilot_wm_v1","58d834cec207720001e2e750","8","null","null","false","","false","","","","","[1492.3999999761581]","./assets/img/canyon/animals/lion.jpg","[""ArrowRight""]","revaluation","canyon","27","{""ArrowUp,ArrowLeft"":2,""ArrowUp,ArrowRight"":11,""ArrowDown,ArrowLeft"":8,""ArrowDown,ArrowRight"":27}","true","ArrowDown,ArrowRight","","16_0","","","","0","revaluation","1",""
"html-keyboard-response","234","1450011","0.0-4.0-4.0-1.0","pilot_wm_v1","58d834cec207720001e2e750","8","null","null","false","","","","","","","null","<div style=""font-size:60px;"">+</div>","null","fixation","","","","","","","","","","","","","",""
"revaluation","235","1454033","0.0-4.0-4.0-0.1","pilot_wm_v1","58d834cec207720001e2e750","8","null","null","false","","false","","","","","[1309.4000000059605]","./assets/img/canyon/animals/giraffe.jpg","[""ArrowLeft""]","revaluation","canyon","2","{""ArrowUp,ArrowLeft"":2,""ArrowUp,ArrowRight"":11,""ArrowDown,ArrowLeft"":8,""ArrowDown,ArrowRight"":27}","false","ArrowUp,ArrowLeft","","6_3","","","","1","revaluation","1",""
"html-keyboard-response","236","1454545","0.0-4.0-4.0-1.1","pilot_wm_v1","58d834cec207720001e2e750","8","null","null","false","","","","","","","null","<div style=""font-size:60px;"">+</div>","null","fixation","","","","","","","","","","","","","",""
"revaluation","237","1458573","0.0-4.0-4.0-0.2","pilot_wm_v1","58d834cec207720001e2e750","8","null","null","false","","false","","","","","[660.9000000059605]","./assets/img/canyon/animals/lion.jpg","[""ArrowRight""]","revaluation","canyon","27","{""ArrowUp,ArrowLeft"":2,""ArrowUp,ArrowRight"":11,""ArrowDown,ArrowLeft"":8,""ArrowDown,ArrowRight"":27}","true","ArrowDown,ArrowRight","","13_2","","","","2","revaluation","1",""
"html-keyboard-response","238","1459074","0.0-4.0-4.0-1.2","pilot_wm_v1","58d834cec207720001e2e750","8","null","null","false","","","","","","","null","<div style=""font-size:60px;"">+</div>","null","fixation","","","","","","","","","","","","","",""
"revaluation","239","1463094","0.0-4.0-4.0-0.3","pilot_wm_v1","58d834cec207720001e2e750","8","null","null","false","","false","","","","","[939]","./assets/img/canyon/animals/lion.jpg","[""ArrowRight""]","revaluation","canyon","27","{""ArrowUp,ArrowLeft"":2,""ArrowUp,ArrowRight"":11,""ArrowDown,ArrowLeft"":8,""ArrowDown,ArrowRight"":27}","true","ArrowDown,ArrowRight","","18_0","","","","3","revaluation","1",""
"html-keyboard-response","240","1463606","0.0-4.0-4.0-1.3","pilot_wm_v1","58d834cec207720001e2e750","8","null","null","false","","","","","","","null","<div style=""font-size:60px;"">+</div>","null","fixation","","","","","","","","","","","","","",""
"html-slider-response","241","1466409","0.0-4.0-4.0-2.3-0.3","pilot_wm_v1","58d834cec207720001e2e750","8","null","null","false","","","","","","","2802","<div style=""width:500px;"">
        <p>What is the password?</p>
        <img src='./assets/img/instructions/beep_chest.jpg' class='instructions-image'>","6","beep chest","","","","false","","","","50","5","1","","","",""
"revaluation","242","1470424","0.0-4.0-4.0-0.4","pilot_wm_v1","58d834cec207720001e2e750","8","null","null","false","","false","","","","","[1253.8999999761581]","./assets/img/canyon/animals/lion.jpg","[""ArrowRight""]","revaluation","canyon","27","{""ArrowUp,ArrowLeft"":2,""ArrowUp,ArrowRight"":11,""ArrowDown,ArrowLeft"":8,""ArrowDown,ArrowRight"":27}","true","ArrowDown,ArrowRight","","11_4","","","","4","revaluation","1",""
"html-keyboard-response","243","1470925","0.0-4.0-4.0-1.4","pilot_wm_v1","58d834cec207720001e2e750","8","null","null","false","","","","","","","null","<div style=""font-size:60px;"">+</div>","null","fixation","","","","","","","","","","","","","",""
"revaluation","244","1474928","0.0-4.0-4.0-0.5","pilot_wm_v1","58d834cec207720001e2e750","8","null","null","false","","false","","","","","[599]","./assets/img/canyon/animals/lion.jpg","[""ArrowRight""]","revaluation","canyon","27","{""ArrowUp,ArrowLeft"":2,""ArrowUp,ArrowRight"":11,""ArrowDown,ArrowLeft"":8,""ArrowDown,ArrowRight"":27}","true","ArrowDown,ArrowRight","","10_3","","","","5","revaluation","1",""
"html-keyboard-response","245","1475429","0.0-4.0-4.0-1.5","pilot_wm_v1","58d834cec207720001e2e750","8","null","null","false","","","","","","","null","<div style=""font-size:60px;"">+</div>","null","fixation","","","","","","","","","","","","","",""
"revaluation","246","1479432","0.0-4.0-4.0-0.6","pilot_wm_v1","58d834cec207720001e2e750","8","null","null","false","","false","","","","","[669.1999999880791]","./assets/img/canyon/animals/giraffe.jpg","[""ArrowRight""]","revaluation","canyon","11","{""ArrowUp,ArrowLeft"":2,""ArrowUp,ArrowRight"":11,""ArrowDown,ArrowLeft"":8,""ArrowDown,ArrowRight"":27}","true","ArrowUp,ArrowRight","","5_4","","","","6","revaluation","1",""
"html-keyboard-response","247","1479933","0.0-4.0-4.0-1.6","pilot_wm_v1","58d834cec207720001e2e750","8","null","null","false","","","","","","","null","<div style=""font-size:60px;"">+</div>","null","fixation","","","","","","","","","","","","","",""
"revaluation","248","1483936","0.0-4.0-4.0-0.7","pilot_wm_v1","58d834cec207720001e2e750","8","null","null","false","","false","","","","","[522.8999999761581]","./assets/img/canyon/animals/giraffe.jpg","[""ArrowRight""]","revaluation","canyon","11","{""ArrowUp,ArrowLeft"":2,""ArrowUp,ArrowRight"":11,""ArrowDown,ArrowLeft"":8,""ArrowDown,ArrowRight"":27}","true","ArrowUp,ArrowRight","","1_4","","","","7","revaluation","1",""
"html-keyboard-response","249","1484437","0.0-4.0-4.0-1.7","pilot_wm_v1","58d834cec207720001e2e750","8","null","null","false","","","","","","","null","<div style=""font-size:60px;"">+</div>","null","fixation","","","","","","","","","","","","","",""
"html-slider-response","250","1486579","0.0-4.0-4.0-2.7-0.7","pilot_wm_v1","58d834cec207720001e2e750","8","null","null","false","","","","","","","2142","<div style=""width:500px;"">
        <p>What is the password?</p>
        <img src='./assets/img/instructions/beep_chest.jpg' class='instructions-image'>","15","beep chest","","","","true","","","","50","15","0","","","",""
"revaluation","251","1490582","0.0-4.0-4.0-0.8","pilot_wm_v1","58d834cec207720001e2e750","8","null","null","false","","false","","","","","[993.1999999880791]","./assets/img/canyon/animals/lion.jpg","[""ArrowRight""]","revaluation","canyon","27","{""ArrowUp,ArrowLeft"":2,""ArrowUp,ArrowRight"":11,""ArrowDown,ArrowLeft"":8,""ArrowDown,ArrowRight"":27}","true","ArrowDown,ArrowRight","","14_4","","","","8","revaluation","1",""
"html-keyboard-response","252","1491084","0.0-4.0-4.0-1.8","pilot_wm_v1","58d834cec207720001e2e750","8","null","null","false","","","","","","","null","<div style=""font-size:60px;"">+</div>","null","fixation","","","","","","","","","","","","","",""
"revaluation","253","1495086","0.0-4.0-4.0-0.9","pilot_wm_v1","58d834cec207720001e2e750","8","null","null","false","","false","","","","","[626.7999999821186]","./assets/img/canyon/animals/lion.jpg","[""ArrowLeft""]","revaluation","canyon","8","{""ArrowUp,ArrowLeft"":2,""ArrowUp,ArrowRight"":11,""ArrowDown,ArrowLeft"":8,""ArrowDown,ArrowRight"":27}","false","ArrowDown,ArrowLeft","","17_1","","","","9","revaluation","1",""
"html-keyboard-response","254","1495587","0.0-4.0-4.0-1.9","pilot_wm_v1","58d834cec207720001e2e750","8","null","null","false","","","","","","","null","<div style=""font-size:60px;"">+</div>","null","fixation","","","","","","","","","","","","","",""
"revaluation","255","1499589","0.0-4.0-4.0-0.10","pilot_wm_v1","58d834cec207720001e2e750","8","null","null","false","","false","","","","","[783.2999999821186]","./assets/img/canyon/animals/giraffe.jpg","[""ArrowLeft""]","revaluation","canyon","2","{""ArrowUp,ArrowLeft"":2,""ArrowUp,ArrowRight"":11,""ArrowDown,ArrowLeft"":8,""ArrowDown,ArrowRight"":27}","false","ArrowUp,ArrowLeft","","4_0","","","","10","revaluation","1",""
"html-keyboard-response","256","1500090","0.0-4.0-4.0-1.10","pilot_wm_v1","58d834cec207720001e2e750","8","null","null","false","","","","","","","null","<div style=""font-size:60px;"">+</div>","null","fixation","","","","","","","","","","","","","",""
"revaluation","257","1504105","0.0-4.0-4.0-0.11","pilot_wm_v1","58d834cec207720001e2e750","8","null","null","false","","false","","","","","[582.0999999940395]","./assets/img/canyon/animals/giraffe.jpg","[""ArrowRight""]","revaluation","canyon","11","{""ArrowUp,ArrowLeft"":2,""ArrowUp,ArrowRight"":11,""ArrowDown,ArrowLeft"":8,""ArrowDown,ArrowRight"":27}","true","ArrowUp,ArrowRight","","8_2","","","","11","revaluation","1",""
"html-keyboard-response","258","1504606","0.0-4.0-4.0-1.11","pilot_wm_v1","58d834cec207720001e2e750","8","null","null","false","","","","","","","null","<div style=""font-size:60px;"">+</div>","null","fixation","","","","","","","","","","","","","",""
"html-slider-response","259","1507335","0.0-4.0-4.0-2.11-0.11","pilot_wm_v1","58d834cec207720001e2e750","8","null","null","false","","","","","","","2729","<div style=""width:500px;"">
        <p>What is the password?</p>
        <img src='./assets/img/instructions/beep_chest.jpg' class='instructions-image'>","7","beep chest","","","","true","","","","50","7","0","","","",""
"revaluation","260","1511352","0.0-4.0-4.0-0.12","pilot_wm_v1","58d834cec207720001e2e750","8","null","null","false","","false","","","","","[983.4000000059605]","./assets/img/canyon/animals/lion.jpg","[""ArrowRight""]","revaluation","canyon","27","{""ArrowUp,ArrowLeft"":2,""ArrowUp,ArrowRight"":11,""ArrowDown,ArrowLeft"":8,""ArrowDown,ArrowRight"":27}","true","ArrowDown,ArrowRight","","12_2","","","","12","revaluation","1",""
"html-keyboard-response","261","1511855","0.0-4.0-4.0-1.12","pilot_wm_v1","58d834cec207720001e2e750","8","null","null","false","","","","","","","null","<div style=""font-size:60px;"">+</div>","null","fixation","","","","","","","","","","","","","",""
"revaluation","262","1515857","0.0-4.0-4.0-0.13","pilot_wm_v1","58d834cec207720001e2e750","8","null","null","false","","false","","","","","[856.1000000238419]","./assets/img/canyon/animals/giraffe.jpg","[""ArrowRight""]","revaluation","canyon","11","{""ArrowUp,ArrowLeft"":2,""ArrowUp,ArrowRight"":11,""ArrowDown,ArrowLeft"":8,""ArrowDown,ArrowRight"":27}","true","ArrowUp,ArrowRight","","2_1","","","","13","revaluation","1",""
"html-keyboard-response","263","1516358","0.0-4.0-4.0-1.13","pilot_wm_v1","58d834cec207720001e2e750","8","null","null","false","","","","","","","null","<div style=""font-size:60px;"">+</div>","null","fixation","","","","","","","","","","","","","",""
"revaluation","264","1520360","0.0-4.0-4.0-0.14","pilot_wm_v1","58d834cec207720001e2e750","8","null","null","false","","false","","","","","[564]","./assets/img/canyon/animals/giraffe.jpg","[""ArrowRight""]","revaluation","canyon","11","{""ArrowUp,ArrowLeft"":2,""ArrowUp,ArrowRight"":11,""ArrowDown,ArrowLeft"":8,""ArrowDown,ArrowRight"":27}","true","ArrowUp,ArrowRight","","7_4","","","","14","revaluation","1",""
"html-keyboard-response","265","1520861","0.0-4.0-4.0-1.14","pilot_wm_v1","58d834cec207720001e2e750","8","null","null","false","","","","","","","null","<div style=""font-size:60px;"">+</div>","null","fixation","","","","","","","","","","","","","",""
"revaluation","266","1524864","0.0-4.0-4.0-0.15","pilot_wm_v1","58d834cec207720001e2e750","8","null","null","false","","false","","","","","[523.4000000059605]","./assets/img/canyon/animals/giraffe.jpg","[""ArrowRight""]","revaluation","canyon","11","{""ArrowUp,ArrowLeft"":2,""ArrowUp,ArrowRight"":11,""ArrowDown,ArrowLeft"":8,""ArrowDown,ArrowRight"":27}","true","ArrowUp,ArrowRight","","3_0","","","","15","revaluation","1",""
"html-keyboard-response","267","1525365","0.0-4.0-4.0-1.15","pilot_wm_v1","58d834cec207720001e2e750","8","null","null","false","","","","","","","null","<div style=""font-size:60px;"">+</div>","null","fixation","","","","","","","","","","","","","",""
"html-slider-response","268","1527643","0.0-4.0-4.0-2.15-0.15","pilot_wm_v1","58d834cec207720001e2e750","8","null","null","false","","","","","","","2278","<div style=""width:500px;"">
        <p>What is the password?</p>
        <img src='./assets/img/instructions/beep_chest.jpg' class='instructions-image'>","6","beep chest","","","","false","","","","50","7","1","","","",""
"revaluation","269","1531646","0.0-4.0-4.0-0.16","pilot_wm_v1","58d834cec207720001e2e750","8","null","null","false","","false","","","","","[1038.7999999821186]","./assets/img/canyon/animals/giraffe.jpg","[""ArrowRight""]","revaluation","canyon","11","{""ArrowUp,ArrowLeft"":2,""ArrowUp,ArrowRight"":11,""ArrowDown,ArrowLeft"":8,""ArrowDown,ArrowRight"":27}","true","ArrowUp,ArrowRight","","9_2","","","","16","revaluation","1",""
"html-keyboard-response","270","1532147","0.0-4.0-4.0-1.16","pilot_wm_v1","58d834cec207720001e2e750","8","null","null","false","","","","","","","null","<div style=""font-size:60px;"">+</div>","null","fixation","","","","","","","","","","","","","",""
"revaluation","271","1536149","0.0-4.0-4.0-0.17","pilot_wm_v1","58d834cec207720001e2e750","8","null","null","false","","false","","","","","[525.7000000178814]","./assets/img/canyon/animals/lion.jpg","[""ArrowRight""]","revaluation","canyon","27","{""ArrowUp,ArrowLeft"":2,""ArrowUp,ArrowRight"":11,""ArrowDown,ArrowLeft"":8,""ArrowDown,ArrowRight"":27}","true","ArrowDown,ArrowRight","","15_0","","","","17","revaluation","1",""
"html-keyboard-response","272","1536651","0.0-4.0-4.0-1.17","pilot_wm_v1","58d834cec207720001e2e750","8","null","null","false","","","","","","","null","<div style=""font-size:60px;"">+</div>","null","fixation","","","","","","","","","","","","","",""
"learning-instructions","273","1544766","0.0-4.0-6.0-0.0","pilot_wm_v1","58d834cec207720001e2e750","8","null","null","false","","","","","","","null","<p> You have almost finished this part of the game! </p>
            <p> We are going to ask you to make a few more choices. </p>","","instructions","","","","","","","","","","","","","",""
"learning-instructions","274","1560735","0.0-4.0-6.0-0.1","pilot_wm_v1","58d834cec207720001e2e750","8","null","null","false","","","","","","","null","<p> First, you need to decide whether to go up or down. When you see each picture, use the arrow keys to make your choice. </p>
            <p><b>You will not see which animal you found, but try to get to the one that will give you the most treasure.</b></p>","","instructions","","","","","","","","","","","","","",""
"html-keyboard-response","275","1561740","0.0-4.0-7.0-0.0","pilot_wm_v1","58d834cec207720001e2e750","8","null","null","false","","","","","","","null","<div style=""font-size:100px;color:red;"">Starting in...</div>","null","","","","","","","","","","","","","","",""
"html-keyboard-response","276","1562743","0.0-4.0-7.0-1.0","pilot_wm_v1","58d834cec207720001e2e750","8","null","null","false","","","","","","","null","<div style=""font-size:200px;color:red;"">3</div>","null","","","","","","","","","","","","","","",""
"html-keyboard-response","277","1563754","0.0-4.0-7.0-2.0","pilot_wm_v1","58d834cec207720001e2e750","8","null","null","false","","","","","","","null","<div style=""font-size:200px;color:red;"">2</div>","null","","","","","","","","","","","","","","",""
"html-keyboard-response","278","1564766","0.0-4.0-7.0-3.0","pilot_wm_v1","58d834cec207720001e2e750","8","null","null","false","","","","","","","null","<div style=""font-size:200px;color:red;"">1</div>","null","","","","","","","","","","","","","","",""
"revaluation","279","1565141","0.0-4.0-8.0-0.0","pilot_wm_v1","58d834cec207720001e2e750","8","null","null","false","","false","","","","","[373.59999999403954]","./assets/img/canyon/test/3.jpg","[""ArrowUp""]","first stage test","canyon","0","{""ArrowUp,ArrowLeft"":2,""ArrowUp,ArrowRight"":11,""ArrowDown,ArrowLeft"":8,""ArrowDown,ArrowRight"":27}","false","ArrowUp","false","","","","","","revaluation","1",""
"html-keyboard-response","280","1565643","0.0-4.0-8.0-1.0","pilot_wm_v1","58d834cec207720001e2e750","8","null","null","false","","","","","","","null","<div style=""font-size:60px;"">+</div>","null","fixation","","","","","","","","","","","","","",""
"revaluation","281","1566254","0.0-4.0-8.0-0.1","pilot_wm_v1","58d834cec207720001e2e750","8","null","null","false","","false","","","","","[610.5]","./assets/img/canyon/test/2.jpg","[""ArrowUp""]","first stage test","canyon","0","{""ArrowUp,ArrowLeft"":2,""ArrowUp,ArrowRight"":11,""ArrowDown,ArrowLeft"":8,""ArrowDown,ArrowRight"":27}","false","ArrowUp","false","","","","","","revaluation","1",""
"html-keyboard-response","282","1566764","0.0-4.0-8.0-1.1","pilot_wm_v1","58d834cec207720001e2e750","8","null","null","false","","","","","","","null","<div style=""font-size:60px;"">+</div>","null","fixation","","","","","","","","","","","","","",""
"revaluation","283","1567256","0.0-4.0-8.0-0.2","pilot_wm_v1","58d834cec207720001e2e750","8","null","null","false","","false","","","","","[491.09999999403954]","./assets/img/canyon/test/0.jpg","[""ArrowUp""]","first stage test","canyon","0","{""ArrowUp,ArrowLeft"":2,""ArrowUp,ArrowRight"":11,""ArrowDown,ArrowLeft"":8,""ArrowDown,ArrowRight"":27}","false","ArrowUp","false","","","","","","revaluation","1",""
