"trial_type","trial_index","time_elapsed","internal_node_id","task_version","subject_id","assigned_condition","age","gender","rest","success","timeout","failed_images","failed_audio","failed_video","browser_interaction","rt","stimulus","response","task_part","environment","score","rewardMap","correct","fullState","isCatch","audioStim","slider_start","answer","error","numberMissed","duration","trial_num","condition","order","bonus"
"pavlovia","0","1533","0.0-0.0","pilot_wm_v1","null","2","null","null","true","","","","","","","","","","","","","","","","","","","","","","","","","",""
"preload","1","21711","0.0-1.0","pilot_wm_v1","null","2","null","null","true","true","false","[]","[]","[]","[{""event"":""fullscreenenter"",""trial"":2,""time"":24200}]","","","","","","","","","","","","","","","","","","","",""
"fullscreen","2","25186","0.0-2.0","pilot_wm_v1","null","2","null","null","true","true","","","","","","","","","","","","","","","","","","","","","","","","",""
"audio-button-response","3","26426","0.0-3.0-0.0-0.0","pilot_wm_v1","null","2","null","null","true","","","","","","","1221","./assets/audio/audiotest/turtle.mp3","2","audio_test","","","","","","","","","","","","","","","",""
"learning-instructions","4","36184","0.0-3.0-1.0-0.0","pilot_wm_v1","null","2","null","null","true","","","","","","","2777.2999999523163","<p> Welcome! Please remember to stay in fullscreen mode and don't click away from the experiment. </p>","","instructions","","","","","","","","","","","","","","","",""
"learning-instructions","5","46185","0.0-3.0-1.0-0.1","pilot_wm_v1","null","2","null","null","true","","","","","","","1608","<p> Today you will be playing a game to earn treasure. </p>
            <p> At the end of the experiment, you will earn a bonus based on how much treasure you find. </p>
            <img src='./assets/img/instructions/treasure.jpg' class='instructions-image'>","","instructions","","","","","","","","","","","","","","","",""
"learning-instructions","6","55730","0.0-3.0-1.0-0.2","pilot_wm_v1","null","2","null","null","true","","","","","","","1292.7000000476837","<p> Animals have hidden treasure in treasure chests. </p>
            <p> You need to first find an animal and then choose which of their treasure chests to search. </p>
            <img src='./assets/img/space/animals/cat.jpg' class='instructions-image'>","","instructions","","","","","","","","","","","","","","","",""
"learning-instructions","7","69781","0.0-3.0-1.0-0.3","pilot_wm_v1","null","2","null","null","true","","","","","","","923.7999999523163","<p> In each round, you will search for treasure in a different place. In the real game, there will be two rounds. </p>
            <p> You will begin with a separate, practice round where you will search for treasure in outer space. </p>
            <img src='./assets/img/space/0.jpg' class='instructions-image'>","","instructions","","","","","","","","","","","","","","","",""
"learning-instructions","8","82148","0.0-3.0-1.0-0.4","pilot_wm_v1","null","2","null","null","true","","","","","","","970.3000001907349","<p> On every turn, you will see a picture of the place that you are in, but the specific image may be different each time. </p>
            <p> For example, both of these images mean you are in outer space. </p>
            <img src='./assets/img/instructions/outerspace.jpg' class='instructions-image'>","","instructions","","","","","","","","","","","","","","","",""
"learning-instructions","9","91457","0.0-3.0-1.0-0.5","pilot_wm_v1","null","2","null","null","true","","","","","","","1499.5","<p> You need to decide which direction to travel in. </p>
            <p> You can choose between going <b>up or down</b> by using the arrow keys. </p>
            <img src='./assets/img/instructions/updown.jpg' class='instructions-image'>","","instructions","","","","","","","","","","","","","","","",""
"learning-instructions","10","101333","0.0-3.0-1.0-0.6","pilot_wm_v1","null","2","null","null","true","","","","","","","1085.2999999523163","<p> You will have <b>2 seconds</b> to make your choice. </p>
            <p> If you do not make a choice within 2 seconds, you will not find an animal or earn treasure. </p>
            <img src='./assets/img/instructions/2seconds.jpg' class='instructions-image'>","","instructions","","","","","","","","","","","","","","","",""
"learning-instructions","11","109478","0.0-3.0-1.0-0.7","pilot_wm_v1","null","2","null","null","true","","","","","","","1120.8999998569489","<p> Let’s try practicing that now! </p>
            <p> When you see a picture of the place you are in, press the <b>up</b> key to travel up. </p>
            <img src='./assets/img/instructions/pressUp.jpg' class='instructions-image'>","","instructions","","","","","","","","","","","","","","","",""
"revaluation","12","113491","0.0-3.0-2.0-0.0","pilot_wm_v1","null","2","null","null","true","","false","","","","","[668.7999999523163]","./assets/img/space/0.jpg","[""ArrowUp""]","first stage practice","space","0","null","null","ArrowUp","false","","","","","","","","","",""
"html-keyboard-response","13","114001","0.0-3.0-2.0-1.0","pilot_wm_v1","null","2","null","null","true","","","","","","","null","<div style=""font-size:60px;"">+</div>","null","fixation","","","","","","","","","","","","","","","",""
"revaluation","14","118007","0.0-3.0-2.0-0.1","pilot_wm_v1","null","2","null","null","true","","true","","","","","[]","./assets/img/space/1.jpg","[]","first stage practice","space","-5","null","null","","false","","","","","","","","","",""
"html-keyboard-response","15","118516","0.0-3.0-2.0-1.1","pilot_wm_v1","null","2","null","null","true","","","","","","","null","<div style=""font-size:60px;"">+</div>","null","fixation","","","","","","","","","","","","","","","",""
"revaluation","16","122533","0.0-3.0-2.0-0.2","pilot_wm_v1","null","2","null","null","true","","false","","","","","[427.2999999523163]","./assets/img/space/2.jpg","[""ArrowUp""]","first stage practice","space","0","null","null","ArrowUp","false","","","","","","","","","",""
"html-keyboard-response","17","123041","0.0-3.0-2.0-1.2","pilot_wm_v1","null","2","null","null","true","","","","","","","null","<div style=""font-size:60px;"">+</div>","null","fixation","","","","","","","","","","","","","","","",""
"learning-instructions","18","129273","0.0-3.0-3.0-0.0","pilot_wm_v1","null","2","null","null","true","","","","","","","1546.0999999046326","<p> Great job! Now try pressing the <b>down</b> key to travel down. </p>
            <img src='./assets/img/instructions/pressDown.jpg' class='instructions-image'>","","instructions","","","","","","","","","","","","","","","",""
"revaluation","19","133292","0.0-3.0-4.0-0.0","pilot_wm_v1","null","2","null","null","true","","false","","","","","[783.1000001430511]","./assets/img/space/3.jpg","[""ArrowDown""]","first stage practice","space","0","null","null","ArrowDown","false","","","","","","","","","",""
"html-keyboard-response","20","133799","0.0-3.0-4.0-1.0","pilot_wm_v1","null","2","null","null","true","","","","","","","null","<div style=""font-size:60px;"">+</div>","null","fixation","","","","","","","","","","","","","","","",""
"revaluation","21","137803","0.0-3.0-4.0-0.1","pilot_wm_v1","null","2","null","null","true","","false","","","","","[488.7999999523163]","./assets/img/space/4.jpg","[""ArrowDown""]","first stage practice","space","0","null","null","ArrowDown","false","","","","","","","","","",""
"html-keyboard-response","22","138311","0.0-3.0-4.0-1.1","pilot_wm_v1","null","2","null","null","true","","","","","","","null","<div style=""font-size:60px;"">+</div>","null","fixation","","","","","","","","","","","","","","","",""
"revaluation","23","142327","0.0-3.0-4.0-0.2","pilot_wm_v1","null","2","null","null","true","","false","","","","","[281.09999990463257]","./assets/img/space/5.jpg","[""ArrowDown""]","first stage practice","space","0","null","null","ArrowDown","false","","","","","","","","","",""
"html-keyboard-response","24","142835","0.0-3.0-4.0-1.2","pilot_wm_v1","null","2","null","null","true","","","","","","","null","<div style=""font-size:60px;"">+</div>","null","fixation","","","","","","","","","","","","","","","",""
"learning-instructions","25","154119","0.0-3.0-5.0-0.0","pilot_wm_v1","null","2","null","null","true","","","","","","","1442.1999998092651","<p> The animals don’t move, so the animal in the upper part of a place will stay in the upper part of a place, and the animal in the lower part of a place will stay in the lower part of a place. </p>","","instructions","","","","","","","","","","","","","","","",""
"learning-instructions","26","166032","0.0-3.0-5.0-0.1","pilot_wm_v1","null","2","null","null","true","","","","","","","2794.699999809265","<p> Each animal has two treasure chests for you to choose from. </p>
            <p> The amount of treasure in each chest can range from <b> 0 to 40 pieces.</b></p>","","instructions","","","","","","","","","","","","","","","",""
"learning-instructions","27","178084","0.0-3.0-5.0-0.2","pilot_wm_v1","null","2","null","null","true","","","","","","","877.4000000953674","<p> You should decide which chest to search for treasure by using the <b>left</b> and <b>right</b> arrow keys. </p>
            <p><b> Pay attention to which animal is on the screen, as the animals have different treasure chests. </b></p>
            <img src='./assets/img/instructions/leftright.jpg' class='instructions-image'>","","instructions","","","","","","","","","","","","","","","",""
"learning-instructions","28","185350","0.0-3.0-5.0-0.3","pilot_wm_v1","null","2","null","null","true","","","","","","","912.6000001430511","<p> Let’s try practicing that now. </p>
            <p> When you see an animal, choose which chest to search for treasure. </p>
            <img src='./assets/img/instructions/chooseChest.jpg' class='instructions-image'>","","instructions","","","","","","","","","","","","","","","",""
"revaluation","29","189367","0.0-3.0-6.0-0.0","pilot_wm_v1","null","2","null","null","true","","false","","","","","[722]","./assets/img/space/animals/rabbit.jpg","[""ArrowLeft""]","second stage practice","space","15","{""ArrowUp,ArrowLeft"":3,""ArrowUp,ArrowRight"":36,""ArrowDown,ArrowLeft"":15,""ArrowDown,ArrowRight"":23}","false","ArrowDown,ArrowLeft","","","","","","","","","","",""
"html-keyboard-response","30","189873","0.0-3.0-6.0-1.0","pilot_wm_v1","null","2","null","null","true","","","","","","","null","<div style=""font-size:60px;"">+</div>","null","fixation","","","","","","","","","","","","","","","",""
"revaluation","31","193891","0.0-3.0-6.0-0.1","pilot_wm_v1","null","2","null","null","true","","false","","","","","[975.1000001430511]","./assets/img/space/animals/rabbit.jpg","[""ArrowRight""]","second stage practice","space","23","{""ArrowUp,ArrowLeft"":3,""ArrowUp,ArrowRight"":36,""ArrowDown,ArrowLeft"":15,""ArrowDown,ArrowRight"":23}","true","ArrowDown,ArrowRight","","","","","","","","","","",""
"html-keyboard-response","32","194400","0.0-3.0-6.0-1.1","pilot_wm_v1","null","2","null","null","true","","","","","","","null","<div style=""font-size:60px;"">+</div>","null","fixation","","","","","","","","","","","","","","","",""
"revaluation","33","198418","0.0-3.0-6.0-0.2","pilot_wm_v1","null","2","null","null","true","","false","","","","","[1262.8999998569489]","./assets/img/space/animals/cat.jpg","[""ArrowLeft""]","second stage practice","space","3","{""ArrowUp,ArrowLeft"":3,""ArrowUp,ArrowRight"":36,""ArrowDown,ArrowLeft"":15,""ArrowDown,ArrowRight"":23}","false","ArrowUp,ArrowLeft","","","","","","","","","","",""
"html-keyboard-response","34","198925","0.0-3.0-6.0-1.2","pilot_wm_v1","null","2","null","null","true","","","","","","","null","<div style=""font-size:60px;"">+</div>","null","fixation","","","","","","","","","","","","","","","",""
"revaluation","35","202951","0.0-3.0-6.0-0.3","pilot_wm_v1","null","2","null","null","true","","false","","","","","[734.5]","./assets/img/space/animals/cat.jpg","[""ArrowRight""]","second stage practice","space","36","{""ArrowUp,ArrowLeft"":3,""ArrowUp,ArrowRight"":36,""ArrowDown,ArrowLeft"":15,""ArrowDown,ArrowRight"":23}","true","ArrowUp,ArrowRight","","","","","","","","","","",""
"html-keyboard-response","36","203457","0.0-3.0-6.0-1.3","pilot_wm_v1","null","2","null","null","true","","","","","","","null","<div style=""font-size:60px;"">+</div>","null","fixation","","","","","","","","","","","","","","","",""
"learning-instructions","37","221760","0.0-3.0-7.0-0.0","pilot_wm_v1","null","2","null","null","true","","","","","","","1513.2999999523163","<p> Great job. Now let’s try putting it together. </p>
            <p> On each turn, you will first see a picture to remind you of the place you are in, and you need to choose whether to go up or down. </p>
            <p> Then you will see an animal and choose which of its chests to search for treasure. </p>","","instructions","","","","","","","","","","","","","","","",""
"learning-instructions","38","231375","0.0-3.0-7.0-0.1","pilot_wm_v1","null","2","null","null","true","","","","","","","1367.5999999046326","<p> When you choose whether to go up or down, try to go to the animal with the chest with the most treasure. </p>
            <p> Try practicing that now! </p>","","instructions","","","","","","","","","","","","","","","",""
"revaluation","39","237397","0.0-3.0-8.0-0.0","pilot_wm_v1","null","2","null","null","true","","false","","","","","[492.7999999523163,515.3999998569489]","./assets/img/space/6.jpg","[""ArrowUp"",""ArrowRight""]","full practice","space","36","{""ArrowUp,ArrowLeft"":3,""ArrowUp,ArrowRight"":36,""ArrowDown,ArrowLeft"":15,""ArrowDown,ArrowRight"":23}","true","ArrowUp,ArrowRight","false","","","","","","","","","",""
"html-keyboard-response","40","237905","0.0-3.0-8.0-1.0","pilot_wm_v1","null","2","null","null","true","","","","","","","null","<div style=""font-size:60px;"">+</div>","null","fixation","","","","","","","","","","","","","","","",""
"revaluation","41","243925","0.0-3.0-8.0-0.1","pilot_wm_v1","null","2","null","null","true","","false","","","","","[567.1000001430511,449.2999999523163]","./assets/img/space/7.jpg","[""ArrowDown"",""ArrowRight""]","full practice","space","23","{""ArrowUp,ArrowLeft"":3,""ArrowUp,ArrowRight"":36,""ArrowDown,ArrowLeft"":15,""ArrowDown,ArrowRight"":23}","false","ArrowDown,ArrowRight","false","","","","","","","","","",""
"html-keyboard-response","42","244432","0.0-3.0-8.0-1.1","pilot_wm_v1","null","2","null","null","true","","","","","","","null","<div style=""font-size:60px;"">+</div>","null","fixation","","","","","","","","","","","","","","","",""
"revaluation","43","250449","0.0-3.0-8.0-0.2","pilot_wm_v1","null","2","null","null","true","","false","","","","","[785.2000000476837,560.5]","./assets/img/space/8.jpg","[""ArrowUp"",""ArrowRight""]","full practice","space","36","{""ArrowUp,ArrowLeft"":3,""ArrowUp,ArrowRight"":36,""ArrowDown,ArrowLeft"":15,""ArrowDown,ArrowRight"":23}","true","ArrowUp,ArrowRight","false","","","","","","","","","",""
"html-keyboard-response","44","250956","0.0-3.0-8.0-1.2","pilot_wm_v1","null","2","null","null","true","","","","","","","null","<div style=""font-size:60px;"">+</div>","null","fixation","","","","","","","","","","","","","","","",""
"revaluation","45","256964","0.0-3.0-8.0-0.3","pilot_wm_v1","null","2","null","null","true","","false","","","","","[872,664.7000000476837]","./assets/img/space/9.jpg","[""ArrowDown"",""ArrowRight""]","full practice","space","23","{""ArrowUp,ArrowLeft"":3,""ArrowUp,ArrowRight"":36,""ArrowDown,ArrowLeft"":15,""ArrowDown,ArrowRight"":23}","false","ArrowDown,ArrowRight","false","","","","","","","","","",""
"html-keyboard-response","46","257473","0.0-3.0-8.0-1.3","pilot_wm_v1","null","2","null","null","true","","","","","","","null","<div style=""font-size:60px;"">+</div>","null","fixation","","","","","","","","","","","","","","","",""
"revaluation","47","263478","0.0-3.0-8.0-0.4","pilot_wm_v1","null","2","null","null","true","","false","","","","","[525,431.5]","./assets/img/space/10.jpg","[""ArrowUp"",""ArrowRight""]","full practice","space","36","{""ArrowUp,ArrowLeft"":3,""ArrowUp,ArrowRight"":36,""ArrowDown,ArrowLeft"":15,""ArrowDown,ArrowRight"":23}","true","ArrowUp,ArrowRight","false","","","","","","","","","",""
"html-keyboard-response","48","263979","0.0-3.0-8.0-1.4","pilot_wm_v1","null","2","null","null","true","","","","","","","null","<div style=""font-size:60px;"">+</div>","null","fixation","","","","","","","","","","","","","","","",""
"learning-instructions","49","275648","0.0-3.0-9.0-0.0","pilot_wm_v1","null","2","null","null","true","","","","","","","1389.5","<p> One last thing: sometimes, you will see a robber. The robber can be anywhere in the picture. </p>
            <p> If you do not stop them, you will lose treasure. </p>
            <img src='./assets/img/instructions/robber.jpg' class='instructions-image'>","","instructions","","","","","","","","","","","","","","","",""
"learning-instructions","50","284064","0.0-3.0-9.0-0.1","pilot_wm_v1","null","2","null","null","true","","","","","","","1264.7999999523163","<p> If you see the robber, you should <b>press the space bar</b> rather than using the arrow keys. </p>
            <p> Try practicing that now! </p>","","instructions","","","","","","","","","","","","","","","",""
"revaluation","51","288069","0.0-3.0-10.0-0.0","pilot_wm_v1","null","2","null","null","true","","false","","","","","[744.9000000953674]","./assets/img/space/catch/0.jpg","[""spaceBar""]","catch practice","space","0","{""ArrowUp,ArrowLeft"":3,""ArrowUp,ArrowRight"":36,""ArrowDown,ArrowLeft"":15,""ArrowDown,ArrowRight"":23}","true","spaceBar","true","","","","","","","","","",""
"html-keyboard-response","52","288576","0.0-3.0-10.0-1.0","pilot_wm_v1","null","2","null","null","true","","","","","","","null","<div style=""font-size:60px;"">+</div>","null","fixation","","","","","","","","","","","","","","","",""
"revaluation","53","292594","0.0-3.0-10.0-0.1","pilot_wm_v1","null","2","null","null","true","","false","","","","","[708.0999999046326]","./assets/img/space/catch/1.jpg","[""spaceBar""]","catch practice","space","0","{""ArrowUp,ArrowLeft"":3,""ArrowUp,ArrowRight"":36,""ArrowDown,ArrowLeft"":15,""ArrowDown,ArrowRight"":23}","true","spaceBar","true","","","","","","","","","",""
"html-keyboard-response","54","293102","0.0-3.0-10.0-1.1","pilot_wm_v1","null","2","null","null","true","","","","","","","null","<div style=""font-size:60px;"">+</div>","null","fixation","","","","","","","","","","","","","","","",""
"revaluation","55","297131","0.0-3.0-10.0-0.2","pilot_wm_v1","null","2","null","null","true","","false","","","","","[400.7000000476837]","./assets/img/space/catch/2.jpg","[""spaceBar""]","catch practice","space","0","{""ArrowUp,ArrowLeft"":3,""ArrowUp,ArrowRight"":36,""ArrowDown,ArrowLeft"":15,""ArrowDown,ArrowRight"":23}","true","spaceBar","true","","","","","","","","","",""
"html-keyboard-response","56","297640","0.0-3.0-10.0-1.2","pilot_wm_v1","null","2","null","null","true","","","","","","","null","<div style=""font-size:60px;"">+</div>","null","fixation","","","","","","","","","","","","","","","",""
"learning-instructions","57","305186","0.0-3.0-11.0-0.0","pilot_wm_v1","null","2","null","null","true","","","","","","","2037","<p> Sometimes, you will come across a special kind of treasure chest that requires a password. </p>
            <img src='./assets/img/instructions/beep_chest.jpg' class='instructions-image'>","","instructions","","","","","","","","","","","","","","","",""
"learning-instructions","58","328629","0.0-3.0-11.0-0.1","pilot_wm_v1","null","2","null","null","true","","","","","","","1840.7000000476837","<p> Your friend will send you the password using a series of beeps so that you can open the chest and earn treasure. </p>
            <p> You will hear two kinds of beeps, a high beep and a low beep. </p>
            <p> You should report the number of high beeps that you heard before seeing the chest. </p>
            <img src='./assets/img/instructions/listen.jpg' class='instructions-image'>","","instructions","","","","","","","","","","","","","","","",""
"learning-instructions","59","354399","0.0-3.0-11.0-0.2","pilot_wm_v1","null","2","null","null","true","","","","","","","3490.5","<p> For example, if you hear this series of beeps, you should report 4 as the password using the slider. </p>
            <p> After reporting a password for a chest, you should count the high beeps again starting from 0. </p>
            <p> Let's try practicing that now. </p>","","instructions","","","","","","","","","","","","","","","",""
"audio-button-response","60","362600","0.0-3.0-12.0-0.0-0.0","pilot_wm_v1","null","2","null","null","true","","","","","","","null","./assets/audio/beeps/practice_6.wav","null","","","","","","","","","","","","","","","","",""
"html-slider-response","61","365913","0.0-3.0-12.0-0.0-1.0","pilot_wm_v1","null","2","null","null","true","","","","","","","3313","<div style=""width:500px;"">
        <p>What is the password?</p>
        <img src='./assets/img/instructions/beep_chest.jpg' class='instructions-image'>","6","","","","","false","","","","50","0","6","","","","","",""
"comp-q","62","374085","0.0-3.0-12.0-0.0-2.0","pilot_wm_v1","null","2","null","null","true","","","","","","","3795","<p>Correct! There were 6 high pitched beeps before you saw the chest. </p>","0","beep_answer","","","","","","","","","","","","","","","",""
"audio-button-response","63","382278","0.0-3.0-12.0-0.1-0.1","pilot_wm_v1","null","2","null","null","true","","","","","","","null","./assets/audio/beeps/practice_4.wav","null","","","","","","","","","","","","","","","","",""
"html-slider-response","64","385521","0.0-3.0-12.0-0.1-1.1","pilot_wm_v1","null","2","null","null","true","","","","","","","3242","<div style=""width:500px;"">
        <p>What is the password?</p>
        <img src='./assets/img/instructions/beep_chest.jpg' class='instructions-image'>","5","","","","","false","","","","50","0","5","","","","","",""
"comp-q","65","393048","0.0-3.0-12.0-0.1-2.1","pilot_wm_v1","null","2","null","null","true","","","","","","","2010.2000000476837","<p>Incorrect! Please try again. Remember to count the number of high pitched beeps only. </p>","0","beep_answer","","","","","","","","","","","","","","","",""
"audio-button-response","66","401048","0.0-3.0-12.0-0.2-0.2","pilot_wm_v1","null","2","null","null","true","","","","","","","null","./assets/audio/beeps/practice_4.wav","null","","","","","","","","","","","","","","","","",""
"html-slider-response","67","405280","0.0-3.0-12.0-0.2-1.2","pilot_wm_v1","null","2","null","null","true","","","","","","","4231","<div style=""width:500px;"">
        <p>What is the password?</p>
        <img src='./assets/img/instructions/beep_chest.jpg' class='instructions-image'>","3","","","","","false","","","","50","0","3","","","","","",""
"comp-q","68","411357","0.0-3.0-12.0-0.2-2.2","pilot_wm_v1","null","2","null","null","true","","","","","","","738.5","<p>Incorrect! Please try again. Remember to count the number of high pitched beeps only. </p>","0","beep_answer","","","","","","","","","","","","","","","",""
"audio-button-response","69","419348","0.0-3.0-12.0-0.3-0.3","pilot_wm_v1","null","2","null","null","true","","","","","","","null","./assets/audio/beeps/practice_4.wav","null","","","","","","","","","","","","","","","","",""
"html-slider-response","70","422179","0.0-3.0-12.0-0.3-1.3","pilot_wm_v1","null","2","null","null","true","","","","","","","2830","<div style=""width:500px;"">
        <p>What is the password?</p>
        <img src='./assets/img/instructions/beep_chest.jpg' class='instructions-image'>","4","","","","","false","","","","50","0","4","","","","","",""
"comp-q","71","428356","0.0-3.0-12.0-0.3-2.3","pilot_wm_v1","null","2","null","null","true","","","","","","","1817.4000000953674","<p>Correct! There were 4 high pitched beeps before you saw the chest. </p>","0","beep_answer","","","","","","","","","","","","","","","",""
"learning-instructions","72","439732","0.0-3.0-13.0-0.0","pilot_wm_v1","null","2","null","null","true","","","","","","","883.2999999523163","<p> Good job! In the real game we will not tell you if you entered the right password. </p>
            <p> Do your best, the treasure you earn from these chests will also give you extra bonus money. </p>","","instructions","","","","","","","","","","","","","","","",""
"learning-instructions","73","454697","0.0-3.0-14.0-0.0-0.0","pilot_wm_v1","null","2","null","null","true","","","","","","","1387.5999999046326","<p> After you explore a place to find treasure, it will be time to play a different game. </p>
            <p> During this game, red dots will appear on the screen and fall down slowly. </p>
            <p><b> You must click on them before they reach the bottom. </b></p>
            <img src='./assets/img/instructions/dotGame.jpg' class='instructions-image'>","","instructions","","","","","","","","","","","","","","","",""
"learning-instructions","74","461234","0.0-3.0-14.0-0.0-0.1","pilot_wm_v1","null","2","null","null","true","","","","","","","885.1000001430511","<p> For every dot you click, you will earn additional treasure. </p>
            <p> Let’s try practicing that now. </p>","","instructions","","","","","","","","","","","","","","","",""
"revaluation","75","476239","0.0-3.0-14.0-1.0-0.0","pilot_wm_v1","null","2","null","null","true","","","","","","","[44]","","","rest practice","","10","","","","","","","","","0","15000","","","",""
"learning-instructions","76","482725","0.0-3.0-15.0-0.0-0.0","pilot_wm_v1","null","2","null","null","true","","","","","","","1246.5","<p> Now, you will practice a shortened version of the game to get a sense of how it all fits together. </p>","","instructions","","","","","","","","","","","","","","","",""
"learning-instructions","77","486702","0.0-3.0-15.0-0.0-0.1","pilot_wm_v1","null","2","null","null","true","","","","","","","803.5","<p>This time you are searching for treasure in outer space.</p>","","instructions","","","","","","","","","","","","","","","",""
"learning-instructions","78","502317","0.0-3.0-15.0-1.0-0.0","pilot_wm_v1","null","2","null","null","true","","","","","","","858.2999999523163","<p> Remember, when you see a picture of the place, use the up and down keys to <b>find an animal</b>.</p>
            <p> When you encounter an animal, you should use the left and right keys to <b>select a treasure chest</b>.</p>
            <p> Don't forget to look out for the robber! </p>","","instructions","","","","","","","","","","","","","","","",""
"revaluation","79","508341","0.0-3.0-15.0-2.0-0.0","pilot_wm_v1","null","2","null","null","true","","false","","","","","[960.1999998092651,507.19999980926514]","./assets/img/space/11.jpg","[""ArrowUp"",""ArrowRight""]","practice block","space","36","{""ArrowUp,ArrowLeft"":3,""ArrowUp,ArrowRight"":36,""ArrowDown,ArrowLeft"":15,""ArrowDown,ArrowRight"":23}","true","ArrowUp,ArrowRight","false","","","","","","","","","",""
"html-keyboard-response","80","508849","0.0-3.0-15.0-2.0-1.0","pilot_wm_v1","null","2","null","null","true","","","","","","","null","<div style=""font-size:60px;"">+</div>","null","fixation","","","","","","","","","","","","","","","",""
"revaluation","81","514881","0.0-3.0-15.0-2.0-0.1","pilot_wm_v1","null","2","null","null","true","","false","","","","","[971.4000000953674,893.2000000476837]","./assets/img/space/12.jpg","[""ArrowDown"",""ArrowRight""]","practice block","space","23","{""ArrowUp,ArrowLeft"":3,""ArrowUp,ArrowRight"":36,""ArrowDown,ArrowLeft"":15,""ArrowDown,ArrowRight"":23}","false","ArrowDown,ArrowRight","false","","","","","","","","","",""
"html-keyboard-response","82","515389","0.0-3.0-15.0-2.0-1.1","pilot_wm_v1","null","2","null","null","true","","","","","","","null","<div style=""font-size:60px;"">+</div>","null","fixation","","","","","","","","","","","","","","","",""
"revaluation","83","521421","0.0-3.0-15.0-2.0-0.2","pilot_wm_v1","null","2","null","null","true","","false","","","","","[874.3999998569489,371.5]","./assets/img/space/13.jpg","[""ArrowDown"",""ArrowRight""]","practice block","space","23","{""ArrowUp,ArrowLeft"":3,""ArrowUp,ArrowRight"":36,""ArrowDown,ArrowLeft"":15,""ArrowDown,ArrowRight"":23}","false","ArrowDown,ArrowRight","false","","","","","","","","","",""
"html-keyboard-response","84","521930","0.0-3.0-15.0-2.0-1.2","pilot_wm_v1","null","2","null","null","true","","","","","","","null","<div style=""font-size:60px;"">+</div>","null","fixation","","","","","","","","","","","","","","","",""
"revaluation","85","527948","0.0-3.0-15.0-2.0-0.3","pilot_wm_v1","null","2","null","null","true","","false","","","","","[519,451.60000014305115]","./assets/img/space/14.jpg","[""ArrowUp"",""ArrowRight""]","practice block","space","36","{""ArrowUp,ArrowLeft"":3,""ArrowUp,ArrowRight"":36,""ArrowDown,ArrowLeft"":15,""ArrowDown,ArrowRight"":23}","true","ArrowUp,ArrowRight","false","","","","","","","","","",""
"html-keyboard-response","86","528456","0.0-3.0-15.0-2.0-1.3","pilot_wm_v1","null","2","null","null","true","","","","","","","null","<div style=""font-size:60px;"">+</div>","null","fixation","","","","","","","","","","","","","","","",""
"revaluation","87","534460","0.0-3.0-15.0-2.0-0.4","pilot_wm_v1","null","2","null","null","true","","false","","","","","[1033.8999998569489,795]","./assets/img/space/11.jpg","[""ArrowUp"",""ArrowRight""]","practice block","space","36","{""ArrowUp,ArrowLeft"":3,""ArrowUp,ArrowRight"":36,""ArrowDown,ArrowLeft"":15,""ArrowDown,ArrowRight"":23}","true","ArrowUp,ArrowRight","false","","","","","","","","","",""
"html-keyboard-response","88","534960","0.0-3.0-15.0-2.0-1.4","pilot_wm_v1","null","2","null","null","true","","","","","","","null","<div style=""font-size:60px;"">+</div>","null","fixation","","","","","","","","","","","","","","","",""
"revaluation","89","540964","0.0-3.0-15.0-2.0-0.5","pilot_wm_v1","null","2","null","null","true","","false","","","","","[835.9000000953674,471.60000014305115]","./assets/img/space/12.jpg","[""ArrowUp"",""ArrowRight""]","practice block","space","36","{""ArrowUp,ArrowLeft"":3,""ArrowUp,ArrowRight"":36,""ArrowDown,ArrowLeft"":15,""ArrowDown,ArrowRight"":23}","true","ArrowUp,ArrowRight","false","","","","","","","","","",""
"html-keyboard-response","90","541464","0.0-3.0-15.0-2.0-1.5","pilot_wm_v1","null","2","null","null","true","","","","","","","null","<div style=""font-size:60px;"">+</div>","null","fixation","","","","","","","","","","","","","","","",""
"revaluation","91","547467","0.0-3.0-15.0-2.0-0.6","pilot_wm_v1","null","2","null","null","true","","false","","","","","[626.9000000953674,311.59999990463257]","./assets/img/space/13.jpg","[""ArrowUp"",""ArrowRight""]","practice block","space","36","{""ArrowUp,ArrowLeft"":3,""ArrowUp,ArrowRight"":36,""ArrowDown,ArrowLeft"":15,""ArrowDown,ArrowRight"":23}","true","ArrowUp,ArrowRight","false","","","","","","","","","",""
"html-keyboard-response","92","547967","0.0-3.0-15.0-2.0-1.6","pilot_wm_v1","null","2","null","null","true","","","","","","","null","<div style=""font-size:60px;"">+</div>","null","fixation","","","","","","","","","","","","","","","",""
"revaluation","93","553970","0.0-3.0-15.0-2.0-0.7","pilot_wm_v1","null","2","null","null","true","","false","","","","","[924,535]","./assets/img/space/14.jpg","[""ArrowUp"",""ArrowRight""]","practice block","space","36","{""ArrowUp,ArrowLeft"":3,""ArrowUp,ArrowRight"":36,""ArrowDown,ArrowLeft"":15,""ArrowDown,ArrowRight"":23}","true","ArrowUp,ArrowRight","false","","","","","","","","","",""
"html-keyboard-response","94","554471","0.0-3.0-15.0-2.0-1.7","pilot_wm_v1","null","2","null","null","true","","","","","","","null","<div style=""font-size:60px;"">+</div>","null","fixation","","","","","","","","","","","","","","","",""
"revaluation","95","558473","0.0-3.0-15.0-2.0-0.8","pilot_wm_v1","null","2","null","null","true","","false","","","","","[911.0999999046326]","./assets/img/space/catch/3.jpg","[""spaceBar""]","practice block","space","0","{""ArrowUp,ArrowLeft"":3,""ArrowUp,ArrowRight"":36,""ArrowDown,ArrowLeft"":15,""ArrowDown,ArrowRight"":23}","true","spaceBar","true","","","","","","","","","",""
"html-keyboard-response","96","558974","0.0-3.0-15.0-2.0-1.8","pilot_wm_v1","null","2","null","null","true","","","","","","","null","<div style=""font-size:60px;"">+</div>","null","fixation","","","","","","","","","","","","","","","",""
"learning-instructions","97","573783","0.0-3.0-15.0-3.0-0.0","pilot_wm_v1","null","2","null","null","true","","","","","","","1911.1000001430511","<p> Now, you will travel with a friend who will choose whether you go up or down first. </p>
            <p> On these turns, you will just see the animal that they found. You will still get to choose which chest to search for treasure.</p>","","instructions","","","","","","","","","","","","","","","",""
"learning-instructions","98","586791","0.0-3.0-15.0-3.0-0.1","pilot_wm_v1","null","2","null","null","true","","","","","","","1198.7000000476837","<p> In this part, you will also hear beeps from your friend and see special treasure chests that need a password. </p>
            <p> Do your best to count the high beeps <b>and</b> choose between each animals' chests at the same time.</p>
            <img src='./assets/img/instructions/beep_chest.jpg' class='instructions-image'>","","instructions","","","","","","","","","","","","","","","",""
"revaluation","99","590799","0.0-3.0-15.0-4.0-0.0","pilot_wm_v1","null","2","null","null","true","","false","","","","","[1910.5999999046326]","./assets/img/space/animals/cat.jpg","[""ArrowRight""]","practice block","space","36","{""ArrowUp,ArrowLeft"":3,""ArrowUp,ArrowRight"":36,""ArrowDown,ArrowLeft"":15,""ArrowDown,ArrowRight"":23}","true","ArrowUp,ArrowRight","","[""20_0""]","","","","","","0","","",""
"html-keyboard-response","100","591307","0.0-3.0-15.0-4.0-1.0","pilot_wm_v1","null","2","null","null","true","","","","","","","null","<div style=""font-size:60px;"">+</div>","null","fixation","","","","","","","","","","","","","","","",""
"revaluation","101","595311","0.0-3.0-15.0-4.0-0.1","pilot_wm_v1","null","2","null","null","true","","true","","","","","[]","./assets/img/space/animals/rabbit.jpg","[]","practice block","space","-5","{""ArrowUp,ArrowLeft"":3,""ArrowUp,ArrowRight"":36,""ArrowDown,ArrowLeft"":15,""ArrowDown,ArrowRight"":23}","false","ArrowDown","","[""22_3""]","","","","","","1","","",""
"html-keyboard-response","102","595819","0.0-3.0-15.0-4.0-1.1","pilot_wm_v1","null","2","null","null","true","","","","","","","null","<div style=""font-size:60px;"">+</div>","null","fixation","","","","","","","","","","","","","","","",""
"revaluation","103","599837","0.0-3.0-15.0-4.0-0.2","pilot_wm_v1","null","2","null","null","true","","false","","","","","[927.6999998092651]","./assets/img/space/animals/rabbit.jpg","[""ArrowRight""]","practice block","space","23","{""ArrowUp,ArrowLeft"":3,""ArrowUp,ArrowRight"":36,""ArrowDown,ArrowLeft"":15,""ArrowDown,ArrowRight"":23}","true","ArrowDown,ArrowRight","","[""21_1""]","","","","","","2","","",""
"html-keyboard-response","104","600346","0.0-3.0-15.0-4.0-1.2","pilot_wm_v1","null","2","null","null","true","","","","","","","null","<div style=""font-size:60px;"">+</div>","null","fixation","","","","","","","","","","","","","","","",""
"revaluation","105","604363","0.0-3.0-15.0-4.0-0.3","pilot_wm_v1","null","2","null","null","true","","false","","","","","[1541.1000001430511]","./assets/img/space/animals/cat.jpg","[""ArrowRight""]","practice block","space","36","{""ArrowUp,ArrowLeft"":3,""ArrowUp,ArrowRight"":36,""ArrowDown,ArrowLeft"":15,""ArrowDown,ArrowRight"":23}","true","ArrowUp,ArrowRight","","[""19_0""]","","","","","","3","","",""
"html-keyboard-response","106","604872","0.0-3.0-15.0-4.0-1.3","pilot_wm_v1","null","2","null","null","true","","","","","","","null","<div style=""font-size:60px;"">+</div>","null","fixation","","","","","","","","","","","","","","","",""
"html-slider-response","107","608054","0.0-3.0-15.0-4.0-2.3-0.3","pilot_wm_v1","null","2","null","null","true","","","","","","","3181","<div style=""width:500px;"">
        <p>What is the password?</p>
        <img src='./assets/img/instructions/beep_chest.jpg' class='instructions-image'>","5","","","","","false","","","","50","82","77","","","","","",""
"learning-instructions","108","616894","0.0-3.0-15.0-5.0-0.0-0.0","pilot_wm_v1","null","2","null","null","true","","","","","","","1481.2000000476837","<p> Time to play the dot game! </p>
            <p> For 15 seconds, click the red dots on the following screen as they appear. </p>","","instructions","","","","","","","","","","","","","","","",""
"revaluation","109","631894","0.0-3.0-15.0-5.0-1.0-0.0","pilot_wm_v1","null","2","null","null","true","","","","","","","[40]","","","rest practice","","10","","","","","","","","","0","15000","","","",""
"learning-instructions","110","640015","0.0-3.0-15.0-6.0-0.0","pilot_wm_v1","null","2","null","null","true","","","","","","","null","<p> You have almost finished this part of the game! </p>
            <p> We are going to ask you to make a few more choices. </p>","","instructions","","","","","","","","","","","","","","","",""
"learning-instructions","111","656023","0.0-3.0-15.0-6.0-0.1","pilot_wm_v1","null","2","null","null","true","","","","","","","null","<p> First, you need to decide whether to go up or down. When you see each picture, use the arrow keys to make your choice. </p>
            <p><b>You will not see which animal you found, but try to get to the one that will give you the most treasure.</b></p>","","instructions","","","","","","","","","","","","","","","",""
"html-keyboard-response","112","657039","0.0-3.0-15.0-7.0-0.0","pilot_wm_v1","null","2","null","null","true","","","","","","","null","<div style=""font-size:100px;color:red;"">Starting in...</div>","null","","","","","","","","","","","","","","","","",""
"html-keyboard-response","113","658040","0.0-3.0-15.0-7.0-1.0","pilot_wm_v1","null","2","null","null","true","","","","","","","null","<div style=""font-size:200px;color:red;"">3</div>","null","","","","","","","","","","","","","","","","",""
"html-keyboard-response","114","659055","0.0-3.0-15.0-7.0-2.0","pilot_wm_v1","null","2","null","null","true","","","","","","","null","<div style=""font-size:200px;color:red;"">2</div>","null","","","","","","","","","","","","","","","","",""
"html-keyboard-response","115","660056","0.0-3.0-15.0-7.0-3.0","pilot_wm_v1","null","2","null","null","true","","","","","","","null","<div style=""font-size:200px;color:red;"">1</div>","null","","","","","","","","","","","","","","","","",""
"revaluation","116","660833","0.0-3.0-15.0-8.0","pilot_wm_v1","null","2","null","null","true","","false","","","","","[775.7999999523163]","./assets/img/space/15.jpg","[""ArrowUp""]","practice block","space","0","{""ArrowUp,ArrowLeft"":3,""ArrowUp,ArrowRight"":36,""ArrowDown,ArrowLeft"":15,""ArrowDown,ArrowRight"":23}","true","ArrowUp","false","","","","","","","","","",""
"html-keyboard-response","117","661348","0.0-3.0-15.0-9.0","pilot_wm_v1","null","2","null","null","true","","","","","","","null","<div style=""font-size:60px;"">+</div>","null","fixation","","","","","","","","","","","","","","","",""
"learning-instructions","118","674717","0.0-3.0-15.0-10.0-0.0","pilot_wm_v1","null","2","null","null","true","","","","","","","null","<p> Now you will see the animals again and can search their chests for treasure. </p>
            <p> This time, you will not see how much treasure you earned, but you will earn more bonus money for making better choices. </p>","","instructions","","","","","","","","","","","","","","","",""
"html-keyboard-response","119","675732","0.0-3.0-15.0-11.0-0.0","pilot_wm_v1","null","2","null","null","true","","","","","","","null","<div style=""font-size:100px;color:red;"">Starting in...</div>","null","","","","","","","","","","","","","","","","",""
"html-keyboard-response","120","676746","0.0-3.0-15.0-11.0-1.0","pilot_wm_v1","null","2","null","null","true","","","","","","","null","<div style=""font-size:200px;color:red;"">3</div>","null","","","","","","","","","","","","","","","","",""
"html-keyboard-response","121","677761","0.0-3.0-15.0-11.0-2.0","pilot_wm_v1","null","2","null","null","true","","","","","","","null","<div style=""font-size:200px;color:red;"">2</div>","null","","","","","","","","","","","","","","","","",""
"html-keyboard-response","122","678775","0.0-3.0-15.0-11.0-3.0","pilot_wm_v1","null","2","null","null","true","","","","","","","null","<div style=""font-size:200px;color:red;"">1</div>","null","","","","","","","","","","","","","","","","",""
"revaluation","123","679237","0.0-3.0-15.0-12.0-0.0","pilot_wm_v1","null","2","null","null","true","","false","","","","","[461.30000019073486]","./assets/img/space/animals/cat.jpg","[""ArrowRight""]","practice block","space","0","{""ArrowUp,ArrowLeft"":3,""ArrowUp,ArrowRight"":36,""ArrowDown,ArrowLeft"":15,""ArrowDown,ArrowRight"":23}","true","ArrowUp,ArrowRight","","","","","","","","","","",""
"html-keyboard-response","124","679743","0.0-3.0-15.0-12.0-1.0","pilot_wm_v1","null","2","null","null","true","","","","","","","null","<div style=""font-size:60px;"">+</div>","null","fixation","","","","","","","","","","","","","","","",""
"revaluation","125","680278","0.0-3.0-15.0-12.0-0.1","pilot_wm_v1","null","2","null","null","true","","false","","","","","[533.5]","./assets/img/space/animals/rabbit.jpg","[""ArrowRight""]","practice block","space","0","{""ArrowUp,ArrowLeft"":3,""ArrowUp,ArrowRight"":36,""ArrowDown,ArrowLeft"":15,""ArrowDown,ArrowRight"":23}","true","ArrowDown,ArrowRight","","","","","","","","","","",""
"html-keyboard-response","126","680791","0.0-3.0-15.0-12.0-1.1","pilot_wm_v1","null","2","null","null","true","","","","","","","null","<div style=""font-size:60px;"">+</div>","null","fixation","","","","","","","","","","","","","","","",""
"learning-instructions","127","686978","0.0-3.0-16.0-0.0","pilot_wm_v1","null","2","null","null","true","","","","","","","1626.0999999046326","<p> Before you start, we're going to ask you a few questions about how the game works. </p>","","instructions","","","","","","","","","","","","","","","",""
"comp-q","128","694220","0.0-3.0-17.0-0.0-0.0","pilot_wm_v1","null","2","null","null","true","","","","","","","1676.5999999046326","<p> <b> True or False? </b> </p>
            <p> There can be 50 pieces of treasure in a given animal's chest. </p>","1","comp_question","","","","true","","","","","","","","","","","",""
"comp-q","129","702587","0.0-3.0-17.0-0.0-1.0","pilot_wm_v1","null","2","null","null","true","","","","","","","1725.2000000476837","<p> <b> That's right! </b> The amount of treasure in each chest can range from 0 to 40 pieces. </p>","0","comp_answer","","","","","","","","","","","","","","","",""
"comp-q","130","710523","0.0-3.0-17.0-0.1-0.1","pilot_wm_v1","null","2","null","null","true","","","","","","","831","<p> <b> True or False? </b> </p><p> In this game, all animals have the same amount of treasure in their left and right chests. </p>","1","comp_question","","","","true","","","","","","","","","","","",""
"comp-q","131","717406","0.0-3.0-17.0-0.1-1.1","pilot_wm_v1","null","2","null","null","true","","","","","","","1664.0999999046326","<p> <b> That's right! </b> Animals have different amounts of treasure in their treasure chests. </p>","0","comp_answer","","","","","","","","","","","","","","","",""
"comp-q","132","724154","0.0-3.0-17.0-0.2-0.2","pilot_wm_v1","null","2","null","null","true","","","","","","","921.5999999046326","<p> <b> True or False? </b> </p><p> The same animal will always be there if you go up in the same place. </p>","0","comp_question","","","","true","","","","","","","","","","","",""
"comp-q","133","731462","0.0-3.0-17.0-0.2-1.2","pilot_wm_v1","null","2","null","null","true","","","","","","","879.4000000953674","<p> <b> That's right! </b> One animal lives in the upper part and one lives in the lower part of every place. </p>","0","comp_answer","","","","","","","","","","","","","","","",""
"comp-q","134","738264","0.0-3.0-17.0-0.3-0.3","pilot_wm_v1","null","2","null","null","true","","","","","","","1282.2000000476837","<p> <b> True or False? </b> </p><p> If you see a different picture, it means you are in a new place. </p>","1","comp_question","","","","true","","","","","","","","","","","",""
"comp-q","135","751396","0.0-3.0-17.0-0.3-1.3","pilot_wm_v1","null","2","null","null","true","","","","","","","1923.2999999523163","<p> <b> That's right! </b> Lots of different images may show the same place. For example,  you may see three different images that all remind you that you are in outer space. </p>","0","comp_answer","","","","","","","","","","","","","","","",""
"learning-instructions","136","762471","0.0-3.0-18.0-0.0","pilot_wm_v1","null","2","null","null","true","","","","","","","1248.7999999523163","<p> Good job. Remember to do your best because the amount of treasure you earn will be converted into bonus money. </p>
            <p> It’s time to start the real game! </p>","","instructions","","","","","","","","","","","","","","","",""
"learning-instructions","137","765967","0.0-4.0-0.0-0.0","pilot_wm_v1","null","2","null","null","true","","","","","","","734.5","<p> This time you are searching for treasure in the <b>canyon</b>.</p>","","instructions","","","","","","","","","","","","","","","",""
"learning-instructions","138","784041","0.0-4.0-0.0-0.1","pilot_wm_v1","null","2","null","null","true","","","","","","","808","<p><b>New</b> animals with <b>new</b> treasure chests live here. You need to explore to discover where the animal with the best treasure chest is.</p>
                    <p> Like before, once you figure out which animal has the chest with the most treasure, you should try to get to that animal and select that chest! </p>","","instructions","","","","","","","","","","","","","","","",""
"learning-instructions","139","799987","0.0-4.0-1.0-0.0","pilot_wm_v1","null","2","null","null","true","","","","","","","1214.2000000476837","<p> Remember, when you see a picture of the place, use the up and down keys to <b>find an animal</b>.</p>
            <p> When you encounter an animal, you should use the left and right keys to <b>select a treasure chest</b>.</p>
            <p> Don't forget to look out for the robber! </p>","","instructions","","","","","","","","","","","","","","","",""
"revaluation","140","806017","0.0-4.0-2.0-0.0","pilot_wm_v1","null","2","null","null","true","","false","","","","","[1162.8999998569489,654.2000000476837]","./assets/img/canyon/memory/5.jpg","[""ArrowUp"",""ArrowRight""]","value training","canyon","10","{""ArrowUp,ArrowLeft"":23,""ArrowUp,ArrowRight"":10,""ArrowDown,ArrowLeft"":8,""ArrowDown,ArrowRight"":30}","false","ArrowUp,ArrowRight","false","","","","","","","0","revaluation","1",""
"html-keyboard-response","141","806525","0.0-4.0-2.0-1.0","pilot_wm_v1","null","2","null","null","true","","","","","","","null","<div style=""font-size:60px;"">+</div>","null","fixation","","","","","","","","","","","","","1","","",""
"revaluation","142","812545","0.0-4.0-2.0-0.1","pilot_wm_v1","null","2","null","null","true","","false","","","","","[702.2000000476837,370.2999999523163]","./assets/img/canyon/memory/11.jpg","[""ArrowUp"",""ArrowLeft""]","value training","canyon","23","{""ArrowUp,ArrowLeft"":23,""ArrowUp,ArrowRight"":10,""ArrowDown,ArrowLeft"":8,""ArrowDown,ArrowRight"":30}","false","ArrowUp,ArrowLeft","false","","","","","","","2","revaluation","1",""
"html-keyboard-response","143","813051","0.0-4.0-2.0-1.1","pilot_wm_v1","null","2","null","null","true","","","","","","","null","<div style=""font-size:60px;"">+</div>","null","fixation","","","","","","","","","","","","","3","","",""
"revaluation","144","819096","0.0-4.0-2.0-0.2","pilot_wm_v1","null","2","null","null","true","","false","","","","","[979.2999999523163,731.7999999523163]","./assets/img/canyon/memory/31.jpg","[""ArrowDown"",""ArrowRight""]","value training","canyon","30","{""ArrowUp,ArrowLeft"":23,""ArrowUp,ArrowRight"":10,""ArrowDown,ArrowLeft"":8,""ArrowDown,ArrowRight"":30}","true","ArrowDown,ArrowRight","false","","","","","","","4","revaluation","1",""
"html-keyboard-response","145","819603","0.0-4.0-2.0-1.2","pilot_wm_v1","null","2","null","null","true","","","","","","","null","<div style=""font-size:60px;"">+</div>","null","fixation","","","","","","","","","","","","","5","","",""
"revaluation","146","825648","0.0-4.0-2.0-0.3","pilot_wm_v1","null","2","null","null","true","","false","","","","","[576.0999999046326,504.5]","./assets/img/canyon/memory/19.jpg","[""ArrowDown"",""ArrowLeft""]","value training","canyon","8","{""ArrowUp,ArrowLeft"":23,""ArrowUp,ArrowRight"":10,""ArrowDown,ArrowLeft"":8,""ArrowDown,ArrowRight"":30}","false","ArrowDown,ArrowLeft","false","","","","","","","6","revaluation","1",""
"html-keyboard-response","147","826154","0.0-4.0-2.0-1.3","pilot_wm_v1","null","2","null","null","true","","","","","","","null","<div style=""font-size:60px;"">+</div>","null","fixation","","","","","","","","","","","","","7","","",""
"revaluation","148","832171","0.0-4.0-2.0-0.4","pilot_wm_v1","null","2","null","null","true","","false","","","","","[766.3000001907349,295.7000000476837]","./assets/img/canyon/memory/33.jpg","[""ArrowDown"",""ArrowRight""]","value training","canyon","30","{""ArrowUp,ArrowLeft"":23,""ArrowUp,ArrowRight"":10,""ArrowDown,ArrowLeft"":8,""ArrowDown,ArrowRight"":30}","true","ArrowDown,ArrowRight","false","","","","","","","8","revaluation","1",""
"html-keyboard-response","149","832672","0.0-4.0-2.0-1.4","pilot_wm_v1","null","2","null","null","true","","","","","","","null","<div style=""font-size:60px;"">+</div>","null","fixation","","","","","","","","","","","","","9","","",""
"revaluation","150","836675","0.0-4.0-2.0-0.5","pilot_wm_v1","null","2","null","null","true","","false","","","","","[824.5999999046326]","./assets/img/canyon/catch/5.jpg","[""spaceBar""]","value training","canyon","0","{""ArrowUp,ArrowLeft"":23,""ArrowUp,ArrowRight"":10,""ArrowDown,ArrowLeft"":8,""ArrowDown,ArrowRight"":30}","true","spaceBar","true","","","","","","","10","revaluation","1",""
"html-keyboard-response","151","837176","0.0-4.0-2.0-1.5","pilot_wm_v1","null","2","null","null","true","","","","","","","null","<div style=""font-size:60px;"">+</div>","null","fixation","","","","","","","","","","","","","11","","",""
"revaluation","152","843179","0.0-4.0-2.0-0.6","pilot_wm_v1","null","2","null","null","true","","false","","","","","[418.59999990463257,382.09999990463257]","./assets/img/canyon/memory/40.jpg","[""ArrowDown"",""ArrowRight""]","value training","canyon","30","{""ArrowUp,ArrowLeft"":23,""ArrowUp,ArrowRight"":10,""ArrowDown,ArrowLeft"":8,""ArrowDown,ArrowRight"":30}","true","ArrowDown,ArrowRight","false","","","","","","","12","revaluation","1",""
"html-keyboard-response","153","843680","0.0-4.0-2.0-1.6","pilot_wm_v1","null","2","null","null","true","","","","","","","null","<div style=""font-size:60px;"">+</div>","null","fixation","","","","","","","","","","","","","13","","",""
"revaluation","154","847682","0.0-4.0-2.0-0.7","pilot_wm_v1","null","2","null","null","true","","false","","","","","[779.9000000953674]","./assets/img/canyon/catch/2.jpg","[""spaceBar""]","value training","canyon","0","{""ArrowUp,ArrowLeft"":23,""ArrowUp,ArrowRight"":10,""ArrowDown,ArrowLeft"":8,""ArrowDown,ArrowRight"":30}","true","spaceBar","true","","","","","","","14","revaluation","1",""
"html-keyboard-response","155","848184","0.0-4.0-2.0-1.7","pilot_wm_v1","null","2","null","null","true","","","","","","","null","<div style=""font-size:60px;"">+</div>","null","fixation","","","","","","","","","","","","","15","","",""
"revaluation","156","854187","0.0-4.0-2.0-0.8","pilot_wm_v1","null","2","null","null","true","","false","","","","","[992.2000000476837,452.39999985694885]","./assets/img/canyon/memory/5.jpg","[""ArrowDown"",""ArrowRight""]","value training","canyon","30","{""ArrowUp,ArrowLeft"":23,""ArrowUp,ArrowRight"":10,""ArrowDown,ArrowLeft"":8,""ArrowDown,ArrowRight"":30}","true","ArrowDown,ArrowRight","false","","","","","","","16","revaluation","1",""
"html-keyboard-response","157","854688","0.0-4.0-2.0-1.8","pilot_wm_v1","null","2","null","null","true","","","","","","","null","<div style=""font-size:60px;"">+</div>","null","fixation","","","","","","","","","","","","","17","","",""
"revaluation","158","858691","0.0-4.0-2.0-0.9","pilot_wm_v1","null","2","null","null","true","","false","","","","","[733.3000001907349]","./assets/img/canyon/catch/7.jpg","[""spaceBar""]","value training","canyon","0","{""ArrowUp,ArrowLeft"":23,""ArrowUp,ArrowRight"":10,""ArrowDown,ArrowLeft"":8,""ArrowDown,ArrowRight"":30}","true","spaceBar","true","","","","","","","18","revaluation","1",""
"html-keyboard-response","159","859192","0.0-4.0-2.0-1.9","pilot_wm_v1","null","2","null","null","true","","","","","","","null","<div style=""font-size:60px;"">+</div>","null","fixation","","","","","","","","","","","","","19","","",""
"revaluation","160","865196","0.0-4.0-2.0-0.10","pilot_wm_v1","null","2","null","null","true","","false","","","","","[798.7999999523163,280.7000000476837]","./assets/img/canyon/memory/9.jpg","[""ArrowDown"",""ArrowRight""]","value training","canyon","30","{""ArrowUp,ArrowLeft"":23,""ArrowUp,ArrowRight"":10,""ArrowDown,ArrowLeft"":8,""ArrowDown,ArrowRight"":30}","true","ArrowDown,ArrowRight","false","","","","","","","20","revaluation","1",""
"html-keyboard-response","161","865697","0.0-4.0-2.0-1.10","pilot_wm_v1","null","2","null","null","true","","","","","","","null","<div style=""font-size:60px;"">+</div>","null","fixation","","","","","","","","","","","","","21","","",""
"revaluation","162","871708","0.0-4.0-2.0-0.11","pilot_wm_v1","null","2","null","null","true","","false","","","","","[842,439.7000000476837]","./assets/img/canyon/memory/40.jpg","[""ArrowDown"",""ArrowRight""]","value training","canyon","30","{""ArrowUp,ArrowLeft"":23,""ArrowUp,ArrowRight"":10,""ArrowDown,ArrowLeft"":8,""ArrowDown,ArrowRight"":30}","true","ArrowDown,ArrowRight","false","","","","","","","22","revaluation","1",""
"html-keyboard-response","163","872209","0.0-4.0-2.0-1.11","pilot_wm_v1","null","2","null","null","true","","","","","","","null","<div style=""font-size:60px;"">+</div>","null","fixation","","","","","","","","","","","","","23","","",""
"revaluation","164","876211","0.0-4.0-2.0-0.12","pilot_wm_v1","null","2","null","null","true","","false","","","","","[590.7999999523163]","./assets/img/canyon/catch/4.jpg","[""spaceBar""]","value training","canyon","0","{""ArrowUp,ArrowLeft"":23,""ArrowUp,ArrowRight"":10,""ArrowDown,ArrowLeft"":8,""ArrowDown,ArrowRight"":30}","true","spaceBar","true","","","","","","","24","revaluation","1",""
"html-keyboard-response","165","876718","0.0-4.0-2.0-1.12","pilot_wm_v1","null","2","null","null","true","","","","","","","null","<div style=""font-size:60px;"">+</div>","null","fixation","","","","","","","","","","","","","25","","",""
"revaluation","166","880732","0.0-4.0-2.0-0.13","pilot_wm_v1","null","2","null","null","true","","false","","","","","[738.5]","./assets/img/canyon/catch/1.jpg","[""spaceBar""]","value training","canyon","0","{""ArrowUp,ArrowLeft"":23,""ArrowUp,ArrowRight"":10,""ArrowDown,ArrowLeft"":8,""ArrowDown,ArrowRight"":30}","true","spaceBar","true","","","","","","","26","revaluation","1",""
"html-keyboard-response","167","881233","0.0-4.0-2.0-1.13","pilot_wm_v1","null","2","null","null","true","","","","","","","null","<div style=""font-size:60px;"">+</div>","null","fixation","","","","","","","","","","","","","27","","",""
"revaluation","168","887236","0.0-4.0-2.0-0.14","pilot_wm_v1","null","2","null","null","true","","false","","","","","[565.5,355.09999990463257]","./assets/img/canyon/memory/38.jpg","[""ArrowDown"",""ArrowRight""]","value training","canyon","30","{""ArrowUp,ArrowLeft"":23,""ArrowUp,ArrowRight"":10,""ArrowDown,ArrowLeft"":8,""ArrowDown,ArrowRight"":30}","true","ArrowDown,ArrowRight","false","","","","","","","28","revaluation","1",""
"html-keyboard-response","169","887737","0.0-4.0-2.0-1.14","pilot_wm_v1","null","2","null","null","true","","","","","","","null","<div style=""font-size:60px;"">+</div>","null","fixation","","","","","","","","","","","","","29","","",""
"revaluation","170","891739","0.0-4.0-2.0-0.15","pilot_wm_v1","null","2","null","null","true","","false","","","","","[650.7000000476837]","./assets/img/canyon/catch/3.jpg","[""spaceBar""]","value training","canyon","0","{""ArrowUp,ArrowLeft"":23,""ArrowUp,ArrowRight"":10,""ArrowDown,ArrowLeft"":8,""ArrowDown,ArrowRight"":30}","true","spaceBar","true","","","","","","","30","revaluation","1",""
"html-keyboard-response","171","892248","0.0-4.0-2.0-1.15","pilot_wm_v1","null","2","null","null","true","","","","","","","null","<div style=""font-size:60px;"">+</div>","null","fixation","","","","","","","","","","","","","31","","",""
"revaluation","172","898251","0.0-4.0-2.0-0.16","pilot_wm_v1","null","2","null","null","true","","false","","","","","[763.2999999523163,359.09999990463257]","./assets/img/canyon/memory/0.jpg","[""ArrowDown"",""ArrowRight""]","value training","canyon","30","{""ArrowUp,ArrowLeft"":23,""ArrowUp,ArrowRight"":10,""ArrowDown,ArrowLeft"":8,""ArrowDown,ArrowRight"":30}","true","ArrowDown,ArrowRight","false","","","","","","","32","revaluation","1",""
"html-keyboard-response","173","898753","0.0-4.0-2.0-1.16","pilot_wm_v1","null","2","null","null","true","","","","","","","null","<div style=""font-size:60px;"">+</div>","null","fixation","","","","","","","","","","","","","33","","",""
"revaluation","174","904755","0.0-4.0-2.0-0.17","pilot_wm_v1","null","2","null","null","true","","false","","","","","[812.9000000953674,321.19999980926514]","./assets/img/canyon/memory/1.jpg","[""ArrowDown"",""ArrowRight""]","value training","canyon","30","{""ArrowUp,ArrowLeft"":23,""ArrowUp,ArrowRight"":10,""ArrowDown,ArrowLeft"":8,""ArrowDown,ArrowRight"":30}","true","ArrowDown,ArrowRight","false","","","","","","","34","revaluation","1",""
"html-keyboard-response","175","905256","0.0-4.0-2.0-1.17","pilot_wm_v1","null","2","null","null","true","","","","","","","null","<div style=""font-size:60px;"">+</div>","null","fixation","","","","","","","","","","","","","35","","",""
"revaluation","176","911259","0.0-4.0-2.0-0.18","pilot_wm_v1","null","2","null","null","true","","false","","","","","[899.5,510.2999999523163]","./assets/img/canyon/memory/39.jpg","[""ArrowDown"",""ArrowRight""]","value training","canyon","30","{""ArrowUp,ArrowLeft"":23,""ArrowUp,ArrowRight"":10,""ArrowDown,ArrowLeft"":8,""ArrowDown,ArrowRight"":30}","true","ArrowDown,ArrowRight","false","","","","","","","36","revaluation","1",""
"html-keyboard-response","177","911759","0.0-4.0-2.0-1.18","pilot_wm_v1","null","2","null","null","true","","","","","","","null","<div style=""font-size:60px;"">+</div>","null","fixation","","","","","","","","","","","","","37","","",""
"revaluation","178","917776","0.0-4.0-2.0-0.19","pilot_wm_v1","null","2","null","null","true","","false","","","","","[727,389.5]","./assets/img/canyon/memory/3.jpg","[""ArrowDown"",""ArrowRight""]","value training","canyon","30","{""ArrowUp,ArrowLeft"":23,""ArrowUp,ArrowRight"":10,""ArrowDown,ArrowLeft"":8,""ArrowDown,ArrowRight"":30}","true","ArrowDown,ArrowRight","false","","","","","","","38","revaluation","1",""
"html-keyboard-response","179","918277","0.0-4.0-2.0-1.19","pilot_wm_v1","null","2","null","null","true","","","","","","","null","<div style=""font-size:60px;"">+</div>","null","fixation","","","","","","","","","","","","","39","","",""
"revaluation","180","924280","0.0-4.0-2.0-0.20","pilot_wm_v1","null","2","null","null","true","","false","","","","","[798.1000001430511,299.7999999523163]","./assets/img/canyon/memory/9.jpg","[""ArrowDown"",""ArrowRight""]","value training","canyon","30","{""ArrowUp,ArrowLeft"":23,""ArrowUp,ArrowRight"":10,""ArrowDown,ArrowLeft"":8,""ArrowDown,ArrowRight"":30}","true","ArrowDown,ArrowRight","false","","","","","","","40","revaluation","1",""
"html-keyboard-response","181","924782","0.0-4.0-2.0-1.20","pilot_wm_v1","null","2","null","null","true","","","","","","","null","<div style=""font-size:60px;"">+</div>","null","fixation","","","","","","","","","","","","","41","","",""
"revaluation","182","930785","0.0-4.0-2.0-0.21","pilot_wm_v1","null","2","null","null","true","","false","","","","","[788.7999999523163,503.89999985694885]","./assets/img/canyon/memory/33.jpg","[""ArrowDown"",""ArrowRight""]","value training","canyon","30","{""ArrowUp,ArrowLeft"":23,""ArrowUp,ArrowRight"":10,""ArrowDown,ArrowLeft"":8,""ArrowDown,ArrowRight"":30}","true","ArrowDown,ArrowRight","false","","","","","","","42","revaluation","1",""
"html-keyboard-response","183","931286","0.0-4.0-2.0-1.21","pilot_wm_v1","null","2","null","null","true","","","","","","","null","<div style=""font-size:60px;"">+</div>","null","fixation","","","","","","","","","","","","","43","","",""
"revaluation","184","937289","0.0-4.0-2.0-0.22","pilot_wm_v1","null","2","null","null","true","","false","","","","","[1073.6000001430511,569.5]","./assets/img/canyon/memory/18.jpg","[""ArrowDown"",""ArrowRight""]","value training","canyon","30","{""ArrowUp,ArrowLeft"":23,""ArrowUp,ArrowRight"":10,""ArrowDown,ArrowLeft"":8,""ArrowDown,ArrowRight"":30}","true","ArrowDown,ArrowRight","false","","","","","","","44","revaluation","1",""
"html-keyboard-response","185","937790","0.0-4.0-2.0-1.22","pilot_wm_v1","null","2","null","null","true","","","","","","","null","<div style=""font-size:60px;"">+</div>","null","fixation","","","","","","","","","","","","","45","","",""
"revaluation","186","943792","0.0-4.0-2.0-0.23","pilot_wm_v1","null","2","null","null","true","","false","","","","","[711.5999999046326,350.5]","./assets/img/canyon/memory/17.jpg","[""ArrowDown"",""ArrowRight""]","value training","canyon","30","{""ArrowUp,ArrowLeft"":23,""ArrowUp,ArrowRight"":10,""ArrowDown,ArrowLeft"":8,""ArrowDown,ArrowRight"":30}","true","ArrowDown,ArrowRight","false","","","","","","","46","revaluation","1",""
"html-keyboard-response","187","944293","0.0-4.0-2.0-1.23","pilot_wm_v1","null","2","null","null","true","","","","","","","null","<div style=""font-size:60px;"">+</div>","null","fixation","","","","","","","","","","","","","47","","",""
"revaluation","188","948296","0.0-4.0-2.0-0.24","pilot_wm_v1","null","2","null","null","true","","false","","","","","[601.7999999523163]","./assets/img/canyon/catch/0.jpg","[""spaceBar""]","value training","canyon","0","{""ArrowUp,ArrowLeft"":23,""ArrowUp,ArrowRight"":10,""ArrowDown,ArrowLeft"":8,""ArrowDown,ArrowRight"":30}","true","spaceBar","true","","","","","","","48","revaluation","1",""
"html-keyboard-response","189","948797","0.0-4.0-2.0-1.24","pilot_wm_v1","null","2","null","null","true","","","","","","","null","<div style=""font-size:60px;"">+</div>","null","fixation","","","","","","","","","","","","","49","","",""
"revaluation","190","954800","0.0-4.0-2.0-0.25","pilot_wm_v1","null","2","null","null","true","","false","","","","","[726.5,502.7000000476837]","./assets/img/canyon/memory/12.jpg","[""ArrowDown"",""ArrowRight""]","value training","canyon","30","{""ArrowUp,ArrowLeft"":23,""ArrowUp,ArrowRight"":10,""ArrowDown,ArrowLeft"":8,""ArrowDown,ArrowRight"":30}","true","ArrowDown,ArrowRight","false","","","","","","","50","revaluation","1",""
"html-keyboard-response","191","955301","0.0-4.0-2.0-1.25","pilot_wm_v1","null","2","null","null","true","","","","","","","null","<div style=""font-size:60px;"">+</div>","null","fixation","","","","","","","","","","","","","51","","",""
"revaluation","192","961304","0.0-4.0-2.0-0.26","pilot_wm_v1","null","2","null","null","true","","false","","","","","[716.0999999046326,410.90000009536743]","./assets/img/canyon/memory/11.jpg","[""ArrowDown"",""ArrowRight""]","value training","canyon","30","{""ArrowUp,ArrowLeft"":23,""ArrowUp,ArrowRight"":10,""ArrowDown,ArrowLeft"":8,""ArrowDown,ArrowRight"":30}","true","ArrowDown,ArrowRight","false","","","","","","","52","revaluation","1",""
"html-keyboard-response","193","961805","0.0-4.0-2.0-1.26","pilot_wm_v1","null","2","null","null","true","","","","","","","null","<div style=""font-size:60px;"">+</div>","null","fixation","","","","","","","","","","","","","53","","",""
"revaluation","194","967809","0.0-4.0-2.0-0.27","pilot_wm_v1","null","2","null","null","true","","false","","","","","[749.4000000953674,509.90000009536743]","./assets/img/canyon/memory/14.jpg","[""ArrowDown"",""ArrowRight""]","value training","canyon","30","{""ArrowUp,ArrowLeft"":23,""ArrowUp,ArrowRight"":10,""ArrowDown,ArrowLeft"":8,""ArrowDown,ArrowRight"":30}","true","ArrowDown,ArrowRight","false","","","","","","","54","revaluation","1",""
"html-keyboard-response","195","968310","0.0-4.0-2.0-1.27","pilot_wm_v1","null","2","null","null","true","","","","","","","null","<div style=""font-size:60px;"">+</div>","null","fixation","","","","","","","","","","","","","55","","",""
"revaluation","196","974314","0.0-4.0-2.0-0.28","pilot_wm_v1","null","2","null","null","true","","false","","","","","[773.7999999523163,455.89999985694885]","./assets/img/canyon/memory/17.jpg","[""ArrowDown"",""ArrowRight""]","value training","canyon","30","{""ArrowUp,ArrowLeft"":23,""ArrowUp,ArrowRight"":10,""ArrowDown,ArrowLeft"":8,""ArrowDown,ArrowRight"":30}","true","ArrowDown,ArrowRight","false","","","","","","","56","revaluation","1",""
"html-keyboard-response","197","974815","0.0-4.0-2.0-1.28","pilot_wm_v1","null","2","null","null","true","","","","","","","null","<div style=""font-size:60px;"">+</div>","null","fixation","","","","","","","","","","","","","57","","",""
"revaluation","198","980817","0.0-4.0-2.0-0.29","pilot_wm_v1","null","2","null","null","true","","false","","","","","[697.0999999046326,533.0999999046326]","./assets/img/canyon/memory/21.jpg","[""ArrowDown"",""ArrowRight""]","value training","canyon","30","{""ArrowUp,ArrowLeft"":23,""ArrowUp,ArrowRight"":10,""ArrowDown,ArrowLeft"":8,""ArrowDown,ArrowRight"":30}","true","ArrowDown,ArrowRight","false","","","","","","","58","revaluation","1",""
"html-keyboard-response","199","981318","0.0-4.0-2.0-1.29","pilot_wm_v1","null","2","null","null","true","","","","","","","null","<div style=""font-size:60px;"">+</div>","null","fixation","","","","","","","","","","","","","59","","",""
"revaluation","200","985320","0.0-4.0-2.0-0.30","pilot_wm_v1","null","2","null","null","true","","false","","","","","[780]","./assets/img/canyon/catch/6.jpg","[""spaceBar""]","value training","canyon","0","{""ArrowUp,ArrowLeft"":23,""ArrowUp,ArrowRight"":10,""ArrowDown,ArrowLeft"":8,""ArrowDown,ArrowRight"":30}","true","spaceBar","true","","","","","","","60","revaluation","1",""
"html-keyboard-response","201","985822","0.0-4.0-2.0-1.30","pilot_wm_v1","null","2","null","null","true","","","","","","","null","<div style=""font-size:60px;"">+</div>","null","fixation","","","","","","","","","","","","","61","","",""
"revaluation","202","991825","0.0-4.0-2.0-0.31","pilot_wm_v1","null","2","null","null","true","","false","","","","","[797.2999999523163,408]","./assets/img/canyon/memory/22.jpg","[""ArrowDown"",""ArrowRight""]","value training","canyon","30","{""ArrowUp,ArrowLeft"":23,""ArrowUp,ArrowRight"":10,""ArrowDown,ArrowLeft"":8,""ArrowDown,ArrowRight"":30}","true","ArrowDown,ArrowRight","false","","","","","","","62","revaluation","1",""
"html-keyboard-response","203","992325","0.0-4.0-2.0-1.31","pilot_wm_v1","null","2","null","null","true","","","","","","","null","<div style=""font-size:60px;"">+</div>","null","fixation","","","","","","","","","","","","","63","","",""
"revaluation","204","998329","0.0-4.0-2.0-0.32","pilot_wm_v1","null","2","null","null","true","","false","","","","","[930.7999999523163,385.09999990463257]","./assets/img/canyon/memory/26.jpg","[""ArrowDown"",""ArrowRight""]","value training","canyon","30","{""ArrowUp,ArrowLeft"":23,""ArrowUp,ArrowRight"":10,""ArrowDown,ArrowLeft"":8,""ArrowDown,ArrowRight"":30}","true","ArrowDown,ArrowRight","false","","","","","","","64","revaluation","1",""
"html-keyboard-response","205","998830","0.0-4.0-2.0-1.32","pilot_wm_v1","null","2","null","null","true","","","","","","","null","<div style=""font-size:60px;"">+</div>","null","fixation","","","","","","","","","","","","","65","","",""
"revaluation","206","1004841","0.0-4.0-2.0-0.33","pilot_wm_v1","null","2","null","null","true","","false","","","","","[835.2999999523163,486.7000000476837]","./assets/img/canyon/memory/1.jpg","[""ArrowDown"",""ArrowRight""]","value training","canyon","30","{""ArrowUp,ArrowLeft"":23,""ArrowUp,ArrowRight"":10,""ArrowDown,ArrowLeft"":8,""ArrowDown,ArrowRight"":30}","true","ArrowDown,ArrowRight","false","","","","","","","66","revaluation","1",""
"html-keyboard-response","207","1005342","0.0-4.0-2.0-1.33","pilot_wm_v1","null","2","null","null","true","","","","","","","null","<div style=""font-size:60px;"">+</div>","null","fixation","","","","","","","","","","","","","67","","",""
"revaluation","208","1011345","0.0-4.0-2.0-0.34","pilot_wm_v1","null","2","null","null","true","","false","","","","","[630,441.10000014305115]","./assets/img/canyon/memory/31.jpg","[""ArrowDown"",""ArrowRight""]","value training","canyon","30","{""ArrowUp,ArrowLeft"":23,""ArrowUp,ArrowRight"":10,""ArrowDown,ArrowLeft"":8,""ArrowDown,ArrowRight"":30}","true","ArrowDown,ArrowRight","false","","","","","","","68","revaluation","1",""
"html-keyboard-response","209","1011847","0.0-4.0-2.0-1.34","pilot_wm_v1","null","2","null","null","true","","","","","","","null","<div style=""font-size:60px;"">+</div>","null","fixation","","","","","","","","","","","","","69","","",""
"revaluation","210","1017850","0.0-4.0-2.0-0.35","pilot_wm_v1","null","2","null","null","true","","false","","","","","[701.9000000953674,403]","./assets/img/canyon/memory/38.jpg","[""ArrowDown"",""ArrowRight""]","value training","canyon","30","{""ArrowUp,ArrowLeft"":23,""ArrowUp,ArrowRight"":10,""ArrowDown,ArrowLeft"":8,""ArrowDown,ArrowRight"":30}","true","ArrowDown,ArrowRight","false","","","","","","","70","revaluation","1",""
"html-keyboard-response","211","1018351","0.0-4.0-2.0-1.35","pilot_wm_v1","null","2","null","null","true","","","","","","","null","<div style=""font-size:60px;"">+</div>","null","fixation","","","","","","","","","","","","","71","","",""
"revaluation","212","1024354","0.0-4.0-2.0-0.36","pilot_wm_v1","null","2","null","null","true","","false","","","","","[1360.2999999523163,413.2000000476837]","./assets/img/canyon/memory/22.jpg","[""ArrowDown"",""ArrowRight""]","value training","canyon","30","{""ArrowUp,ArrowLeft"":23,""ArrowUp,ArrowRight"":10,""ArrowDown,ArrowLeft"":8,""ArrowDown,ArrowRight"":30}","true","ArrowDown,ArrowRight","false","","","","","","","72","revaluation","1",""
"html-keyboard-response","213","1024855","0.0-4.0-2.0-1.36","pilot_wm_v1","null","2","null","null","true","","","","","","","null","<div style=""font-size:60px;"">+</div>","null","fixation","","","","","","","","","","","","","73","","",""
"revaluation","214","1030858","0.0-4.0-2.0-0.37","pilot_wm_v1","null","2","null","null","true","","false","","","","","[936.2999999523163,415.09999990463257]","./assets/img/canyon/memory/34.jpg","[""ArrowDown"",""ArrowRight""]","value training","canyon","30","{""ArrowUp,ArrowLeft"":23,""ArrowUp,ArrowRight"":10,""ArrowDown,ArrowLeft"":8,""ArrowDown,ArrowRight"":30}","true","ArrowDown,ArrowRight","false","","","","","","","74","revaluation","1",""
"html-keyboard-response","215","1031359","0.0-4.0-2.0-1.37","pilot_wm_v1","null","2","null","null","true","","","","","","","null","<div style=""font-size:60px;"">+</div>","null","fixation","","","","","","","","","","","","","75","","",""
"revaluation","216","1037361","0.0-4.0-2.0-0.38","pilot_wm_v1","null","2","null","null","true","","false","","","","","[1182.3000001907349,369.2000000476837]","./assets/img/canyon/memory/18.jpg","[""ArrowDown"",""ArrowRight""]","value training","canyon","30","{""ArrowUp,ArrowLeft"":23,""ArrowUp,ArrowRight"":10,""ArrowDown,ArrowLeft"":8,""ArrowDown,ArrowRight"":30}","true","ArrowDown,ArrowRight","false","","","","","","","76","revaluation","1",""
"html-keyboard-response","217","1037862","0.0-4.0-2.0-1.38","pilot_wm_v1","null","2","null","null","true","","","","","","","null","<div style=""font-size:60px;"">+</div>","null","fixation","","","","","","","","","","","","","77","","",""
"revaluation","218","1043865","0.0-4.0-2.0-0.39","pilot_wm_v1","null","2","null","null","true","","false","","","","","[766.2999999523163,344.2000000476837]","./assets/img/canyon/memory/3.jpg","[""ArrowDown"",""ArrowRight""]","value training","canyon","30","{""ArrowUp,ArrowLeft"":23,""ArrowUp,ArrowRight"":10,""ArrowDown,ArrowLeft"":8,""ArrowDown,ArrowRight"":30}","true","ArrowDown,ArrowRight","false","","","","","","","78","revaluation","1",""
"html-keyboard-response","219","1044366","0.0-4.0-2.0-1.39","pilot_wm_v1","null","2","null","null","true","","","","","","","null","<div style=""font-size:60px;"">+</div>","null","fixation","","","","","","","","","","","","","79","","",""
"revaluation","220","1050369","0.0-4.0-2.0-0.40","pilot_wm_v1","null","2","null","null","true","","false","","","","","[846.0999999046326,383.5]","./assets/img/canyon/memory/34.jpg","[""ArrowDown"",""ArrowRight""]","value training","canyon","30","{""ArrowUp,ArrowLeft"":23,""ArrowUp,ArrowRight"":10,""ArrowDown,ArrowLeft"":8,""ArrowDown,ArrowRight"":30}","true","ArrowDown,ArrowRight","false","","","","","","","80","revaluation","1",""
"html-keyboard-response","221","1050870","0.0-4.0-2.0-1.40","pilot_wm_v1","null","2","null","null","true","","","","","","","null","<div style=""font-size:60px;"">+</div>","null","fixation","","","","","","","","","","","","","81","","",""
"revaluation","222","1056873","0.0-4.0-2.0-0.41","pilot_wm_v1","null","2","null","null","true","","false","","","","","[640.7000000476837,374.5]","./assets/img/canyon/memory/19.jpg","[""ArrowDown"",""ArrowRight""]","value training","canyon","30","{""ArrowUp,ArrowLeft"":23,""ArrowUp,ArrowRight"":10,""ArrowDown,ArrowLeft"":8,""ArrowDown,ArrowRight"":30}","true","ArrowDown,ArrowRight","false","","","","","","","82","revaluation","1",""
"html-keyboard-response","223","1057374","0.0-4.0-2.0-1.41","pilot_wm_v1","null","2","null","null","true","","","","","","","null","<div style=""font-size:60px;"">+</div>","null","fixation","","","","","","","","","","","","","83","","",""
"revaluation","224","1063377","0.0-4.0-2.0-0.42","pilot_wm_v1","null","2","null","null","true","","false","","","","","[784.3999998569489,384.7000000476837]","./assets/img/canyon/memory/14.jpg","[""ArrowDown"",""ArrowRight""]","value training","canyon","30","{""ArrowUp,ArrowLeft"":23,""ArrowUp,ArrowRight"":10,""ArrowDown,ArrowLeft"":8,""ArrowDown,ArrowRight"":30}","true","ArrowDown,ArrowRight","false","","","","","","","84","revaluation","1",""
"html-keyboard-response","225","1063878","0.0-4.0-2.0-1.42","pilot_wm_v1","null","2","null","null","true","","","","","","","null","<div style=""font-size:60px;"">+</div>","null","fixation","","","","","","","","","","","","","85","","",""
"revaluation","226","1069880","0.0-4.0-2.0-0.43","pilot_wm_v1","null","2","null","null","true","","false","","","","","[661.1999998092651,309]","./assets/img/canyon/memory/26.jpg","[""ArrowDown"",""ArrowRight""]","value training","canyon","30","{""ArrowUp,ArrowLeft"":23,""ArrowUp,ArrowRight"":10,""ArrowDown,ArrowLeft"":8,""ArrowDown,ArrowRight"":30}","true","ArrowDown,ArrowRight","false","","","","","","","86","revaluation","1",""
"html-keyboard-response","227","1070381","0.0-4.0-2.0-1.43","pilot_wm_v1","null","2","null","null","true","","","","","","","null","<div style=""font-size:60px;"">+</div>","null","fixation","","","","","","","","","","","","","87","","",""
"revaluation","228","1076385","0.0-4.0-2.0-0.44","pilot_wm_v1","null","2","null","null","true","","false","","","","","[1009,298]","./assets/img/canyon/memory/12.jpg","[""ArrowDown"",""ArrowRight""]","value training","canyon","30","{""ArrowUp,ArrowLeft"":23,""ArrowUp,ArrowRight"":10,""ArrowDown,ArrowLeft"":8,""ArrowDown,ArrowRight"":30}","true","ArrowDown,ArrowRight","false","","","","","","","88","revaluation","1",""
"html-keyboard-response","229","1076886","0.0-4.0-2.0-1.44","pilot_wm_v1","null","2","null","null","true","","","","","","","null","<div style=""font-size:60px;"">+</div>","null","fixation","","","","","","","","","","","","","89","","",""
"revaluation","230","1082889","0.0-4.0-2.0-0.45","pilot_wm_v1","null","2","null","null","true","","false","","","","","[532.7000000476837,314.2000000476837]","./assets/img/canyon/memory/21.jpg","[""ArrowDown"",""ArrowRight""]","value training","canyon","30","{""ArrowUp,ArrowLeft"":23,""ArrowUp,ArrowRight"":10,""ArrowDown,ArrowLeft"":8,""ArrowDown,ArrowRight"":30}","true","ArrowDown,ArrowRight","false","","","","","","","90","revaluation","1",""
"html-keyboard-response","231","1083391","0.0-4.0-2.0-1.45","pilot_wm_v1","null","2","null","null","true","","","","","","","null","<div style=""font-size:60px;"">+</div>","null","fixation","","","","","","","","","","","","","91","","",""
"revaluation","232","1089395","0.0-4.0-2.0-0.46","pilot_wm_v1","null","2","null","null","true","","false","","","","","[599.4000000953674,349]","./assets/img/canyon/memory/39.jpg","[""ArrowDown"",""ArrowRight""]","value training","canyon","30","{""ArrowUp,ArrowLeft"":23,""ArrowUp,ArrowRight"":10,""ArrowDown,ArrowLeft"":8,""ArrowDown,ArrowRight"":30}","true","ArrowDown,ArrowRight","false","","","","","","","92","revaluation","1",""
"html-keyboard-response","233","1089896","0.0-4.0-2.0-1.46","pilot_wm_v1","null","2","null","null","true","","","","","","","null","<div style=""font-size:60px;"">+</div>","null","fixation","","","","","","","","","","","","","93","","",""
"revaluation","234","1095899","0.0-4.0-2.0-0.47","pilot_wm_v1","null","2","null","null","true","","false","","","","","[593.1999998092651,755.7999999523163]","./assets/img/canyon/memory/35.jpg","[""ArrowDown"",""ArrowRight""]","value training","canyon","30","{""ArrowUp,ArrowLeft"":23,""ArrowUp,ArrowRight"":10,""ArrowDown,ArrowLeft"":8,""ArrowDown,ArrowRight"":30}","true","ArrowDown,ArrowRight","false","","","","","","","94","revaluation","1",""
"html-keyboard-response","235","1096400","0.0-4.0-2.0-1.47","pilot_wm_v1","null","2","null","null","true","","","","","","","null","<div style=""font-size:60px;"">+</div>","null","fixation","","","","","","","","","","","","","95","","",""
"revaluation","236","1102404","0.0-4.0-2.0-0.48","pilot_wm_v1","null","2","null","null","true","","false","","","","","[678.4000000953674,348.5]","./assets/img/canyon/memory/35.jpg","[""ArrowDown"",""ArrowRight""]","value training","canyon","30","{""ArrowUp,ArrowLeft"":23,""ArrowUp,ArrowRight"":10,""ArrowDown,ArrowLeft"":8,""ArrowDown,ArrowRight"":30}","true","ArrowDown,ArrowRight","false","","","","","","","96","revaluation","1",""
"html-keyboard-response","237","1102905","0.0-4.0-2.0-1.48","pilot_wm_v1","null","2","null","null","true","","","","","","","null","<div style=""font-size:60px;"">+</div>","null","fixation","","","","","","","","","","","","","97","","",""
"revaluation","238","1108907","0.0-4.0-2.0-0.49","pilot_wm_v1","null","2","null","null","true","","false","","","","","[816.2999999523163,286.5]","./assets/img/canyon/memory/0.jpg","[""ArrowDown"",""ArrowRight""]","value training","canyon","30","{""ArrowUp,ArrowLeft"":23,""ArrowUp,ArrowRight"":10,""ArrowDown,ArrowLeft"":8,""ArrowDown,ArrowRight"":30}","true","ArrowDown,ArrowRight","false","","","","","","","98","revaluation","1",""
"html-keyboard-response","239","1109408","0.0-4.0-2.0-1.49","pilot_wm_v1","null","2","null","null","true","","","","","","","null","<div style=""font-size:60px;"">+</div>","null","fixation","","","","","","","","","","","","","99","","",""
"learning-instructions","240","1124525","0.0-4.0-3.0-0.0","pilot_wm_v1","null","2","null","null","true","","","","","","","2238.800000190735","<p> Now, you will travel with a friend who will choose whether you go up or down first. </p>
            <p> On these turns, you will just see the animal that they found. You will still get to choose which chest to search for treasure.</p>","","instructions","","","","","","","","","","","","","","","",""
"learning-instructions","241","1137763","0.0-4.0-3.0-0.1","pilot_wm_v1","null","2","null","null","true","","","","","","","1636.1000001430511","<p> In this part, you will also hear beeps from your friend and see special treasure chests that need a password. </p>
            <p> Do your best to count the high beeps <b>and</b> choose between each animals' chests at the same time.</p>
            <img src='./assets/img/instructions/beep_chest.jpg' class='instructions-image'>","","instructions","","","","","","","","","","","","","","","",""
"revaluation","242","1141790","0.0-4.0-4.0-0.0","pilot_wm_v1","null","2","null","null","true","","false","","","","","[958]","./assets/img/canyon/animals/giraffe.jpg","[""ArrowRight""]","revaluation","canyon","15","{""ArrowUp,ArrowLeft"":27,""ArrowUp,ArrowRight"":15,""ArrowDown,ArrowLeft"":21,""ArrowDown,ArrowRight"":7}","false","ArrowUp,ArrowRight","","7_4","","","","","","0","revaluation","1",""
"html-keyboard-response","243","1142298","0.0-4.0-4.0-1.0","pilot_wm_v1","null","2","null","null","true","","","","","","","null","<div style=""font-size:60px;"">+</div>","null","fixation","","","","","","","","","","","","","","","",""
"revaluation","244","1146300","0.0-4.0-4.0-0.1","pilot_wm_v1","null","2","null","null","true","","false","","","","","[752.5999999046326]","./assets/img/canyon/animals/giraffe.jpg","[""ArrowRight""]","revaluation","canyon","15","{""ArrowUp,ArrowLeft"":27,""ArrowUp,ArrowRight"":15,""ArrowDown,ArrowLeft"":21,""ArrowDown,ArrowRight"":7}","false","ArrowUp,ArrowRight","","9_2","","","","","","1","revaluation","1",""
"html-keyboard-response","245","1146809","0.0-4.0-4.0-1.1","pilot_wm_v1","null","2","null","null","true","","","","","","","null","<div style=""font-size:60px;"">+</div>","null","fixation","","","","","","","","","","","","","","","",""
"revaluation","246","1150827","0.0-4.0-4.0-0.2","pilot_wm_v1","null","2","null","null","true","","false","","","","","[477.40000009536743]","./assets/img/canyon/animals/giraffe.jpg","[""ArrowRight""]","revaluation","canyon","15","{""ArrowUp,ArrowLeft"":27,""ArrowUp,ArrowRight"":15,""ArrowDown,ArrowLeft"":21,""ArrowDown,ArrowRight"":7}","false","ArrowUp,ArrowRight","","5_4","","","","","","2","revaluation","1",""
"html-keyboard-response","247","1151334","0.0-4.0-4.0-1.2","pilot_wm_v1","null","2","null","null","true","","","","","","","null","<div style=""font-size:60px;"">+</div>","null","fixation","","","","","","","","","","","","","","","",""
"revaluation","248","1155352","0.0-4.0-4.0-0.3","pilot_wm_v1","null","2","null","null","true","","false","","","","","[628.2000000476837]","./assets/img/canyon/animals/lion.jpg","[""ArrowLeft""]","revaluation","canyon","21","{""ArrowUp,ArrowLeft"":27,""ArrowUp,ArrowRight"":15,""ArrowDown,ArrowLeft"":21,""ArrowDown,ArrowRight"":7}","true","ArrowDown,ArrowLeft","","15_0","","","","","","3","revaluation","1",""
"html-keyboard-response","249","1155860","0.0-4.0-4.0-1.3","pilot_wm_v1","null","2","null","null","true","","","","","","","null","<div style=""font-size:60px;"">+</div>","null","fixation","","","","","","","","","","","","","","","",""
"html-slider-response","250","1158310","0.0-4.0-4.0-2.3-0.3","pilot_wm_v1","null","2","null","null","true","","","","","","","2448","<div style=""width:500px;"">
        <p>What is the password?</p>
        <img src='./assets/img/instructions/beep_chest.jpg' class='instructions-image'>","10","","","","","true","","","","50","10","0","","","","","",""
"revaluation","251","1162323","0.0-4.0-4.0-0.4","pilot_wm_v1","null","2","null","null","true","","false","","","","","[999.2000000476837]","./assets/img/canyon/animals/lion.jpg","[""ArrowRight""]","revaluation","canyon","7","{""ArrowUp,ArrowLeft"":27,""ArrowUp,ArrowRight"":15,""ArrowDown,ArrowLeft"":21,""ArrowDown,ArrowRight"":7}","false","ArrowDown,ArrowRight","","16_0","","","","","","4","revaluation","1",""
"html-keyboard-response","252","1162831","0.0-4.0-4.0-1.4","pilot_wm_v1","null","2","null","null","true","","","","","","","null","<div style=""font-size:60px;"">+</div>","null","fixation","","","","","","","","","","","","","","","",""
"revaluation","253","1166834","0.0-4.0-4.0-0.5","pilot_wm_v1","null","2","null","null","true","","false","","","","","[445.69999980926514]","./assets/img/canyon/animals/lion.jpg","[""ArrowLeft""]","revaluation","canyon","21","{""ArrowUp,ArrowLeft"":27,""ArrowUp,ArrowRight"":15,""ArrowDown,ArrowLeft"":21,""ArrowDown,ArrowRight"":7}","true","ArrowDown,ArrowLeft","","11_4","","","","","","5","revaluation","1",""
"html-keyboard-response","254","1167336","0.0-4.0-4.0-1.5","pilot_wm_v1","null","2","null","null","true","","","","","","","null","<div style=""font-size:60px;"">+</div>","null","fixation","","","","","","","","","","","","","","","",""
"revaluation","255","1171339","0.0-4.0-4.0-0.6","pilot_wm_v1","null","2","null","null","true","","false","","","","","[1366.1999998092651]","./assets/img/canyon/animals/lion.jpg","[""ArrowRight""]","revaluation","canyon","7","{""ArrowUp,ArrowLeft"":27,""ArrowUp,ArrowRight"":15,""ArrowDown,ArrowLeft"":21,""ArrowDown,ArrowRight"":7}","false","ArrowDown,ArrowRight","","18_0","","","","","","6","revaluation","1",""
"html-keyboard-response","256","1171839","0.0-4.0-4.0-1.6","pilot_wm_v1","null","2","null","null","true","","","","","","","null","<div style=""font-size:60px;"">+</div>","null","fixation","","","","","","","","","","","","","","","",""
"revaluation","257","1175841","0.0-4.0-4.0-0.7","pilot_wm_v1","null","2","null","null","true","","false","","","","","[585.3999998569489]","./assets/img/canyon/animals/lion.jpg","[""ArrowLeft""]","revaluation","canyon","21","{""ArrowUp,ArrowLeft"":27,""ArrowUp,ArrowRight"":15,""ArrowDown,ArrowLeft"":21,""ArrowDown,ArrowRight"":7}","true","ArrowDown,ArrowLeft","","12_2","","","","","","7","revaluation","1",""
"html-keyboard-response","258","1176341","0.0-4.0-4.0-1.7","pilot_wm_v1","null","2","null","null","true","","","","","","","null","<div style=""font-size:60px;"">+</div>","null","fixation","","","","","","","","","","","","","","","",""
"html-slider-response","259","1178793","0.0-4.0-4.0-2.7-0.7","pilot_wm_v1","null","2","null","null","true","","","","","","","2451","<div style=""width:500px;"">
        <p>What is the password?</p>
        <img src='./assets/img/instructions/beep_chest.jpg' class='instructions-image'>","9","","","","","false","","","","50","6","3","","","","","",""
"revaluation","260","1182795","0.0-4.0-4.0-0.8","pilot_wm_v1","null","2","null","null","true","","false","","","","","[1342.7000000476837]","./assets/img/canyon/animals/lion.jpg","[""ArrowLeft""]","revaluation","canyon","21","{""ArrowUp,ArrowLeft"":27,""ArrowUp,ArrowRight"":15,""ArrowDown,ArrowLeft"":21,""ArrowDown,ArrowRight"":7}","true","ArrowDown,ArrowLeft","","10_3","","","","","","8","revaluation","1",""
"html-keyboard-response","261","1183297","0.0-4.0-4.0-1.8","pilot_wm_v1","null","2","null","null","true","","","","","","","null","<div style=""font-size:60px;"">+</div>","null","fixation","","","","","","","","","","","","","","","",""
"revaluation","262","1187302","0.0-4.0-4.0-0.9","pilot_wm_v1","null","2","null","null","true","","false","","","","","[1542.6999998092651]","./assets/img/canyon/animals/giraffe.jpg","[""ArrowRight""]","revaluation","canyon","15","{""ArrowUp,ArrowLeft"":27,""ArrowUp,ArrowRight"":15,""ArrowDown,ArrowLeft"":21,""ArrowDown,ArrowRight"":7}","false","ArrowUp,ArrowRight","","8_2","","","","","","9","revaluation","1",""
"html-keyboard-response","263","1187803","0.0-4.0-4.0-1.9","pilot_wm_v1","null","2","null","null","true","","","","","","","null","<div style=""font-size:60px;"">+</div>","null","fixation","","","","","","","","","","","","","","","",""
"revaluation","264","1191805","0.0-4.0-4.0-0.10","pilot_wm_v1","null","2","null","null","true","","false","","","","","[1654.4000000953674]","./assets/img/canyon/animals/giraffe.jpg","[""ArrowLeft""]","revaluation","canyon","27","{""ArrowUp,ArrowLeft"":27,""ArrowUp,ArrowRight"":15,""ArrowDown,ArrowLeft"":21,""ArrowDown,ArrowRight"":7}","true","ArrowUp,ArrowLeft","","2_1","","","","","","10","revaluation","1",""
"html-keyboard-response","265","1192306","0.0-4.0-4.0-1.10","pilot_wm_v1","null","2","null","null","true","","","","","","","null","<div style=""font-size:60px;"">+</div>","null","fixation","","","","","","","","","","","","","","","",""
"revaluation","266","1196319","0.0-4.0-4.0-0.11","pilot_wm_v1","null","2","null","null","true","","false","","","","","[607.3999998569489]","./assets/img/canyon/animals/giraffe.jpg","[""ArrowLeft""]","revaluation","canyon","27","{""ArrowUp,ArrowLeft"":27,""ArrowUp,ArrowRight"":15,""ArrowDown,ArrowLeft"":21,""ArrowDown,ArrowRight"":7}","true","ArrowUp,ArrowLeft","","1_4","","","","","","11","revaluation","1",""
"html-keyboard-response","267","1196820","0.0-4.0-4.0-1.11","pilot_wm_v1","null","2","null","null","true","","","","","","","null","<div style=""font-size:60px;"">+</div>","null","fixation","","","","","","","","","","","","","","","",""
"html-slider-response","268","1198716","0.0-4.0-4.0-2.11-0.11","pilot_wm_v1","null","2","null","null","true","","","","","","","1896","<div style=""width:500px;"">
        <p>What is the password?</p>
        <img src='./assets/img/instructions/beep_chest.jpg' class='instructions-image'>","14","","","","","false","","","","50","10","4","","","","","",""
"revaluation","269","1202719","0.0-4.0-4.0-0.12","pilot_wm_v1","null","2","null","null","true","","false","","","","","[1561.2000000476837]","./assets/img/canyon/animals/lion.jpg","[""ArrowLeft""]","revaluation","canyon","21","{""ArrowUp,ArrowLeft"":27,""ArrowUp,ArrowRight"":15,""ArrowDown,ArrowLeft"":21,""ArrowDown,ArrowRight"":7}","true","ArrowDown,ArrowLeft","","13_2","","","","","","12","revaluation","1",""
"html-keyboard-response","270","1203220","0.0-4.0-4.0-1.12","pilot_wm_v1","null","2","null","null","true","","","","","","","null","<div style=""font-size:60px;"">+</div>","null","fixation","","","","","","","","","","","","","","","",""
"revaluation","271","1207222","0.0-4.0-4.0-0.13","pilot_wm_v1","null","2","null","null","true","","false","","","","","[1791]","./assets/img/canyon/animals/giraffe.jpg","[""ArrowLeft""]","revaluation","canyon","27","{""ArrowUp,ArrowLeft"":27,""ArrowUp,ArrowRight"":15,""ArrowDown,ArrowLeft"":21,""ArrowDown,ArrowRight"":7}","true","ArrowUp,ArrowLeft","","3_0","","","","","","13","revaluation","1",""
"html-keyboard-response","272","1207722","0.0-4.0-4.0-1.13","pilot_wm_v1","null","2","null","null","true","","","","","","","null","<div style=""font-size:60px;"">+</div>","null","fixation","","","","","","","","","","","","","","","",""
"revaluation","273","1211725","0.0-4.0-4.0-0.14","pilot_wm_v1","null","2","null","null","true","","false","","","","","[588.2999999523163]","./assets/img/canyon/animals/lion.jpg","[""ArrowLeft""]","revaluation","canyon","21","{""ArrowUp,ArrowLeft"":27,""ArrowUp,ArrowRight"":15,""ArrowDown,ArrowLeft"":21,""ArrowDown,ArrowRight"":7}","true","ArrowDown,ArrowLeft","","14_4","","","","","","14","revaluation","1",""
"html-keyboard-response","274","1212226","0.0-4.0-4.0-1.14","pilot_wm_v1","null","2","null","null","true","","","","","","","null","<div style=""font-size:60px;"">+</div>","null","fixation","","","","","","","","","","","","","","","",""
"revaluation","275","1216231","0.0-4.0-4.0-0.15","pilot_wm_v1","null","2","null","null","true","","true","","","","","[]","./assets/img/canyon/animals/giraffe.jpg","[]","revaluation","canyon","-5","{""ArrowUp,ArrowLeft"":27,""ArrowUp,ArrowRight"":15,""ArrowDown,ArrowLeft"":21,""ArrowDown,ArrowRight"":7}","false","ArrowUp","","6_3","","","","","","15","revaluation","1",""
"html-keyboard-response","276","1216732","0.0-4.0-4.0-1.15","pilot_wm_v1","null","2","null","null","true","","","","","","","null","<div style=""font-size:60px;"">+</div>","null","fixation","","","","","","","","","","","","","","","",""
"html-slider-response","277","1218965","0.0-4.0-4.0-2.15-0.15","pilot_wm_v1","null","2","null","null","true","","","","","","","2232","<div style=""width:500px;"">
        <p>What is the password?</p>
        <img src='./assets/img/instructions/beep_chest.jpg' class='instructions-image'>","11","","","","","false","","","","50","9","2","","","","","",""
"revaluation","278","1222968","0.0-4.0-4.0-0.16","pilot_wm_v1","null","2","null","null","true","","false","","","","","[1125.2999999523163]","./assets/img/canyon/animals/giraffe.jpg","[""ArrowLeft""]","revaluation","canyon","27","{""ArrowUp,ArrowLeft"":27,""ArrowUp,ArrowRight"":15,""ArrowDown,ArrowLeft"":21,""ArrowDown,ArrowRight"":7}","true","ArrowUp,ArrowLeft","","4_0","","","","","","16","revaluation","1",""
"html-keyboard-response","279","1223470","0.0-4.0-4.0-1.16","pilot_wm_v1","null","2","null","null","true","","","","","","","null","<div style=""font-size:60px;"">+</div>","null","fixation","","","","","","","","","","","","","","","",""
"revaluation","280","1227473","0.0-4.0-4.0-0.17","pilot_wm_v1","null","2","null","null","true","","false","","","","","[1317.9000000953674]","./assets/img/canyon/animals/lion.jpg","[""ArrowLeft""]","revaluation","canyon","21","{""ArrowUp,ArrowLeft"":27,""ArrowUp,ArrowRight"":15,""ArrowDown,ArrowLeft"":21,""ArrowDown,ArrowRight"":7}","true","ArrowDown,ArrowLeft","","17_1","","","","","","17","revaluation","1",""
"html-keyboard-response","281","1227975","0.0-4.0-4.0-1.17","pilot_wm_v1","null","2","null","null","true","","","","","","","null","<div style=""font-size:60px;"">+</div>","null","fixation","","","","","","","","","","","","","","","",""
"learning-instructions","282","1240188","0.0-4.0-5.0-0.0-0.0","pilot_wm_v1","null","2","null","null","true","","","","","","","919.7000000476837","<p> Time to play the dot game! </p>
            <p> For one minute, click the red dots on the following screen as they appear. </p>
            <p><b> Don't look away, as you will earn bonus for clicking dots</b>. </p>","","instructions","","","","","","","","","","","","","","","",""
"revaluation","283","1300192","0.0-4.0-5.0-1.0-0.0","pilot_wm_v1","null","2","null","null","true","","","","","","","[60,56,59,53,57,51]","","","rest","","60","","","","","","","","","0","60000","","","",""
"learning-instructions","284","1308302","0.0-4.0-6.0-0.0","pilot_wm_v1","null","2","null","null","true","","","","","","","null","<p> You have almost finished this part of the game! </p>
            <p> We are going to ask you to make a few more choices. </p>","","instructions","","","","","","","","","","","","","","","",""
"learning-instructions","285","1324287","0.0-4.0-6.0-0.1","pilot_wm_v1","null","2","null","null","true","","","","","","","null","<p> First, you need to decide whether to go up or down. When you see each picture, use the arrow keys to make your choice. </p>
            <p><b>You will not see which animal you found, but try to get to the one that will give you the most treasure.</b></p>","","instructions","","","","","","","","","","","","","","","",""
"html-keyboard-response","286","1325303","0.0-4.0-7.0-0.0","pilot_wm_v1","null","2","null","null","true","","","","","","","null","<div style=""font-size:100px;color:red;"">Starting in...</div>","null","","","","","","","","","","","","","","","","",""
"html-keyboard-response","287","1326317","0.0-4.0-7.0-1.0","pilot_wm_v1","null","2","null","null","true","","","","","","","null","<div style=""font-size:200px;color:red;"">3</div>","null","","","","","","","","","","","","","","","","",""
"html-keyboard-response","288","1327331","0.0-4.0-7.0-2.0","pilot_wm_v1","null","2","null","null","true","","","","","","","null","<div style=""font-size:200px;color:red;"">2</div>","null","","","","","","","","","","","","","","","","",""
"html-keyboard-response","289","1328347","0.0-4.0-7.0-3.0","pilot_wm_v1","null","2","null","null","true","","","","","","","null","<div style=""font-size:200px;color:red;"">1</div>","null","","","","","","","","","","","","","","","","",""
"revaluation","290","1328849","0.0-4.0-8.0-0.0","pilot_wm_v1","null","2","null","null","true","","false","","","","","[501.09999990463257]","./assets/img/canyon/test/3.jpg","[""ArrowDown""]","first stage test","canyon","0","{""ArrowUp,ArrowLeft"":27,""ArrowUp,ArrowRight"":15,""ArrowDown,ArrowLeft"":21,""ArrowDown,ArrowRight"":7}","false","ArrowDown","false","","","","","","","","revaluation","1",""
"html-keyboard-response","291","1329362","0.0-4.0-8.0-1.0","pilot_wm_v1","null","2","null","null","true","","","","","","","null","<div style=""font-size:60px;"">+</div>","null","fixation","","","","","","","","","","","","","","","",""
"revaluation","292","1329716","0.0-4.0-8.0-0.1","pilot_wm_v1","null","2","null","null","true","","false","","","","","[353.90000009536743]","./assets/img/canyon/test/0.jpg","[""ArrowDown""]","first stage test","canyon","0","{""ArrowUp,ArrowLeft"":27,""ArrowUp,ArrowRight"":15,""ArrowDown,ArrowLeft"":21,""ArrowDown,ArrowRight"":7}","false","ArrowDown","false","","","","","","","","revaluation","1",""
"html-keyboard-response","293","1330222","0.0-4.0-8.0-1.1","pilot_wm_v1","null","2","null","null","true","","","","","","","null","<div style=""font-size:60px;"">+</div>","null","fixation","","","","","","","","","","","","","","","",""
"revaluation","294","1330521","0.0-4.0-8.0-0.2","pilot_wm_v1","null","2","null","null","true","","false","","","","","[297.40000009536743]","./assets/img/canyon/test/2.jpg","[""ArrowDown""]","first stage test","canyon","0","{""ArrowUp,ArrowLeft"":27,""ArrowUp,ArrowRight"":15,""ArrowDown,ArrowLeft"":21,""ArrowDown,ArrowRight"":7}","false","ArrowDown","false","","","","","","","","revaluation","1",""
"html-keyboard-response","295","1331022","0.0-4.0-8.0-1.2","pilot_wm_v1","null","2","null","null","true","","","","","","","null","<div style=""font-size:60px;"">+</div>","null","fixation","","","","","","","","","","","","","","","",""
"revaluation","296","1331325","0.0-4.0-8.0-0.3","pilot_wm_v1","null","2","null","null","true","","false","","","","","[302.7999999523163]","./assets/img/canyon/test/1.jpg","[""ArrowDown""]","first stage test","canyon","0","{""ArrowUp,ArrowLeft"":27,""ArrowUp,ArrowRight"":15,""ArrowDown,ArrowLeft"":21,""ArrowDown,ArrowRight"":7}","false","ArrowDown","false","","","","","","","","revaluation","1",""
"html-keyboard-response","297","1331837","0.0-4.0-8.0-1.3","pilot_wm_v1","null","2","null","null","true","","","","","","","null","<div style=""font-size:60px;"">+</div>","null","fixation","","","","","","","","","","","","","","","",""
