"trial_type","trial_index","time_elapsed","internal_node_id","task_version","subject_id","assigned_condition","age","gender","rest","success","timeout","failed_images","failed_audio","failed_video","browser_interaction","rt","stimulus","response","task_part","environment","score","rewardMap","correct","fullState","isCatch","audioStim","slider_start","answer","error","numberMissed","duration","trial_num","condition","order","bonus"
"pavlovia","0","1027","0.0-0.0","pilot_wm_v1","null","1","null","null","true","","","","","","","","","","","","","","","","","","","","","","","","","",""
"preload","1","9368","0.0-1.0","pilot_wm_v1","null","1","null","null","true","true","false","[]","[]","[]","[{""event"":""fullscreenenter"",""trial"":2,""time"":13119},{""event"":""blur"",""trial"":384,""time"":1566107},{""event"":""focus"",""trial"":384,""time"":1566591},{""event"":""fullscreenexit"",""trial"":419,""time"":1704025}]","","","","","","","","","","","","","","","","","","","",""
"fullscreen","2","14115","0.0-2.0","pilot_wm_v1","null","1","null","null","true","true","","","","","","","","","","","","","","","","","","","","","","","","",""
"audio-button-response","3","16078","0.0-3.0-0.0-0.0","pilot_wm_v1","null","1","null","null","true","","","","","","","1949","./assets/audio/audiotest/turtle.mp3","2","audio_test","","","","","","","","","","","","","","","",""
"learning-instructions","4","24044","0.0-3.0-1.0-0.0","pilot_wm_v1","null","1","null","null","true","","","","","","","981.2000000001863","<p> Welcome! Please remember to stay in fullscreen mode and don't click away from the experiment. </p>","","instructions","","","","","","","","","","","","","","","",""
"learning-instructions","5","36469","0.0-3.0-1.0-0.1","pilot_wm_v1","null","1","null","null","true","","","","","","","4016.0999999996275","<p> Today you will be playing a game to earn treasure. </p>
            <p> At the end of the experiment, you will earn a bonus based on how much treasure you find. </p>
            <img src='./assets/img/instructions/treasure.jpg' class='instructions-image'>","","instructions","","","","","","","","","","","","","","","",""
"learning-instructions","6","45721","0.0-3.0-1.0-0.2","pilot_wm_v1","null","1","null","null","true","","","","","","","979.7999999998137","<p> Animals have hidden treasure in treasure chests. </p>
            <p> You need to first find an animal and then choose which of their treasure chests to search. </p>
            <img src='./assets/img/space/animals/cat.jpg' class='instructions-image'>","","instructions","","","","","","","","","","","","","","","",""
"learning-instructions","7","59548","0.0-3.0-1.0-0.3","pilot_wm_v1","null","1","null","null","true","","","","","","","665.4000000003725","<p> In each round, you will search for treasure in a different place. In the real game, there will be two rounds. </p>
            <p> You will begin with a separate, practice round where you will search for treasure in outer space. </p>
            <img src='./assets/img/space/0.jpg' class='instructions-image'>","","instructions","","","","","","","","","","","","","","","",""
"learning-instructions","8","71755","0.0-3.0-1.0-0.4","pilot_wm_v1","null","1","null","null","true","","","","","","","791.7999999998137","<p> On every turn, you will see a picture of the place that you are in, but the specific image may be different each time. </p>
            <p> For example, both of these images mean you are in outer space. </p>
            <img src='./assets/img/instructions/outerspace.jpg' class='instructions-image'>","","instructions","","","","","","","","","","","","","","","",""
"learning-instructions","9","80279","0.0-3.0-1.0-0.5","pilot_wm_v1","null","1","null","null","true","","","","","","","696.3999999994412","<p> You need to decide which direction to travel in. </p>
            <p> You can choose between going <b>up or down</b> by using the arrow keys. </p>
            <img src='./assets/img/instructions/updown.jpg' class='instructions-image'>","","instructions","","","","","","","","","","","","","","","",""
"learning-instructions","10","90152","0.0-3.0-1.0-0.6","pilot_wm_v1","null","1","null","null","true","","","","","","","1069.2000000001863","<p> You will have <b>2 seconds</b> to make your choice. </p>
            <p> If you do not make a choice within 2 seconds, you will not find an animal or earn treasure. </p>
            <img src='./assets/img/instructions/2seconds.jpg' class='instructions-image'>","","instructions","","","","","","","","","","","","","","","",""
"learning-instructions","11","98683","0.0-3.0-1.0-0.7","pilot_wm_v1","null","1","null","null","true","","","","","","","1500.5","<p> Let’s try practicing that now! </p>
            <p> When you see a picture of the place you are in, press the <b>up</b> key to travel up. </p>
            <img src='./assets/img/instructions/pressUp.jpg' class='instructions-image'>","","instructions","","","","","","","","","","","","","","","",""
"revaluation","12","102719","0.0-3.0-2.0-0.0","pilot_wm_v1","null","1","null","null","true","","false","","","","","[688.5]","./assets/img/space/0.jpg","[""ArrowUp""]","first stage practice","space","0","null","null","ArrowUp","false","","","","","","","","","",""
"html-keyboard-response","13","103231","0.0-3.0-2.0-1.0","pilot_wm_v1","null","1","null","null","true","","","","","","","null","<div style=""font-size:60px;"">+</div>","null","fixation","","","","","","","","","","","","","","","",""
"revaluation","14","107259","0.0-3.0-2.0-0.1","pilot_wm_v1","null","1","null","null","true","","true","","","","","[]","./assets/img/space/1.jpg","[]","first stage practice","space","-5","null","null","","false","","","","","","","","","",""
"html-keyboard-response","15","107770","0.0-3.0-2.0-1.1","pilot_wm_v1","null","1","null","null","true","","","","","","","null","<div style=""font-size:60px;"">+</div>","null","fixation","","","","","","","","","","","","","","","",""
"revaluation","16","111787","0.0-3.0-2.0-0.2","pilot_wm_v1","null","1","null","null","true","","false","","","","","[303.29999999981374]","./assets/img/space/2.jpg","[""ArrowUp""]","first stage practice","space","0","null","null","ArrowUp","false","","","","","","","","","",""
"html-keyboard-response","17","112299","0.0-3.0-2.0-1.2","pilot_wm_v1","null","1","null","null","true","","","","","","","null","<div style=""font-size:60px;"">+</div>","null","fixation","","","","","","","","","","","","","","","",""
"learning-instructions","18","117676","0.0-3.0-3.0-0.0","pilot_wm_v1","null","1","null","null","true","","","","","","","673","<p> Great job! Now try pressing the <b>down</b> key to travel down. </p>
            <img src='./assets/img/instructions/pressDown.jpg' class='instructions-image'>","","instructions","","","","","","","","","","","","","","","",""
"revaluation","19","121686","0.0-3.0-4.0-0.0","pilot_wm_v1","null","1","null","null","true","","false","","","","","[614.9000000003725]","./assets/img/space/3.jpg","[""ArrowDown""]","first stage practice","space","0","null","null","ArrowDown","false","","","","","","","","","",""
"html-keyboard-response","20","122196","0.0-3.0-4.0-1.0","pilot_wm_v1","null","1","null","null","true","","","","","","","null","<div style=""font-size:60px;"">+</div>","null","fixation","","","","","","","","","","","","","","","",""
"revaluation","21","126213","0.0-3.0-4.0-0.1","pilot_wm_v1","null","1","null","null","true","","false","","","","","[455.20000000018626]","./assets/img/space/4.jpg","[""ArrowDown""]","first stage practice","space","0","null","null","ArrowDown","false","","","","","","","","","",""
"html-keyboard-response","22","126724","0.0-3.0-4.0-1.1","pilot_wm_v1","null","1","null","null","true","","","","","","","null","<div style=""font-size:60px;"">+</div>","null","fixation","","","","","","","","","","","","","","","",""
"revaluation","23","130740","0.0-3.0-4.0-0.2","pilot_wm_v1","null","1","null","null","true","","false","","","","","[223.20000000018626]","./assets/img/space/5.jpg","[""ArrowDown""]","first stage practice","space","0","null","null","ArrowDown","false","","","","","","","","","",""
"html-keyboard-response","24","131253","0.0-3.0-4.0-1.2","pilot_wm_v1","null","1","null","null","true","","","","","","","null","<div style=""font-size:60px;"">+</div>","null","fixation","","","","","","","","","","","","","","","",""
"learning-instructions","25","141795","0.0-3.0-5.0-0.0","pilot_wm_v1","null","1","null","null","true","","","","","","","693","<p> The animals don’t move, so the animal in the upper part of a place will stay in the upper part of a place, and the animal in the lower part of a place will stay in the lower part of a place. </p>","","instructions","","","","","","","","","","","","","","","",""
"learning-instructions","26","153949","0.0-3.0-5.0-0.1","pilot_wm_v1","null","1","null","null","true","","","","","","","3026.600000000559","<p> Each animal has two treasure chests for you to choose from. </p>
            <p> The amount of treasure in each chest can range from <b> 0 to 40 pieces.</b></p>","","instructions","","","","","","","","","","","","","","","",""
"learning-instructions","27","165803","0.0-3.0-5.0-0.2","pilot_wm_v1","null","1","null","null","true","","","","","","","660.7999999998137","<p> You should decide which chest to search for treasure by using the <b>left</b> and <b>right</b> arrow keys. </p>
            <p><b> Pay attention to which animal is on the screen, as the animals have different treasure chests. </b></p>
            <img src='./assets/img/instructions/leftright.jpg' class='instructions-image'>","","instructions","","","","","","","","","","","","","","","",""
"learning-instructions","28","172796","0.0-3.0-5.0-0.3","pilot_wm_v1","null","1","null","null","true","","","","","","","634","<p> Let’s try practicing that now. </p>
            <p> When you see an animal, choose which chest to search for treasure. </p>
            <img src='./assets/img/instructions/chooseChest.jpg' class='instructions-image'>","","instructions","","","","","","","","","","","","","","","",""
"revaluation","29","176811","0.0-3.0-6.0-0.0","pilot_wm_v1","null","1","null","null","true","","false","","","","","[544.2000000001863]","./assets/img/space/animals/rabbit.jpg","[""ArrowRight""]","second stage practice","space","23","{""ArrowUp,ArrowLeft"":3,""ArrowUp,ArrowRight"":36,""ArrowDown,ArrowLeft"":15,""ArrowDown,ArrowRight"":23}","true","ArrowDown,ArrowRight","","","","","","","","","","",""
"html-keyboard-response","30","177318","0.0-3.0-6.0-1.0","pilot_wm_v1","null","1","null","null","true","","","","","","","null","<div style=""font-size:60px;"">+</div>","null","fixation","","","","","","","","","","","","","","","",""
"revaluation","31","181337","0.0-3.0-6.0-0.1","pilot_wm_v1","null","1","null","null","true","","false","","","","","[483.59999999962747]","./assets/img/space/animals/cat.jpg","[""ArrowRight""]","second stage practice","space","36","{""ArrowUp,ArrowLeft"":3,""ArrowUp,ArrowRight"":36,""ArrowDown,ArrowLeft"":15,""ArrowDown,ArrowRight"":23}","true","ArrowUp,ArrowRight","","","","","","","","","","",""
"html-keyboard-response","32","181848","0.0-3.0-6.0-1.1","pilot_wm_v1","null","1","null","null","true","","","","","","","null","<div style=""font-size:60px;"">+</div>","null","fixation","","","","","","","","","","","","","","","",""
"revaluation","33","185877","0.0-3.0-6.0-0.2","pilot_wm_v1","null","1","null","null","true","","false","","","","","[574.8999999994412]","./assets/img/space/animals/cat.jpg","[""ArrowLeft""]","second stage practice","space","3","{""ArrowUp,ArrowLeft"":3,""ArrowUp,ArrowRight"":36,""ArrowDown,ArrowLeft"":15,""ArrowDown,ArrowRight"":23}","false","ArrowUp,ArrowLeft","","","","","","","","","","",""
"html-keyboard-response","34","186388","0.0-3.0-6.0-1.2","pilot_wm_v1","null","1","null","null","true","","","","","","","null","<div style=""font-size:60px;"">+</div>","null","fixation","","","","","","","","","","","","","","","",""
"revaluation","35","190406","0.0-3.0-6.0-0.3","pilot_wm_v1","null","1","null","null","true","","false","","","","","[938.5]","./assets/img/space/animals/rabbit.jpg","[""ArrowLeft""]","second stage practice","space","15","{""ArrowUp,ArrowLeft"":3,""ArrowUp,ArrowRight"":36,""ArrowDown,ArrowLeft"":15,""ArrowDown,ArrowRight"":23}","false","ArrowDown,ArrowLeft","","","","","","","","","","",""
"html-keyboard-response","36","190916","0.0-3.0-6.0-1.3","pilot_wm_v1","null","1","null","null","true","","","","","","","null","<div style=""font-size:60px;"">+</div>","null","fixation","","","","","","","","","","","","","","","",""
"learning-instructions","37","208534","0.0-3.0-7.0-0.0","pilot_wm_v1","null","1","null","null","true","","","","","","","790.7999999998137","<p> Great job. Now let’s try putting it together. </p>
            <p> On each turn, you will first see a picture to remind you of the place you are in, and you need to choose whether to go up or down. </p>
            <p> Then you will see an animal and choose which of its chests to search for treasure. </p>","","instructions","","","","","","","","","","","","","","","",""
"learning-instructions","38","217303","0.0-3.0-7.0-0.1","pilot_wm_v1","null","1","null","null","true","","","","","","","500","<p> When you choose whether to go up or down, try to go to the animal with the chest with the most treasure. </p>
            <p> Try practicing that now! </p>","","instructions","","","","","","","","","","","","","","","",""
"revaluation","39","223348","0.0-3.0-8.0-0.0","pilot_wm_v1","null","1","null","null","true","","false","","","","","[448.20000000018626,352.30000000074506]","./assets/img/space/6.jpg","[""ArrowUp"",""ArrowLeft""]","full practice","space","3","{""ArrowUp,ArrowLeft"":3,""ArrowUp,ArrowRight"":36,""ArrowDown,ArrowLeft"":15,""ArrowDown,ArrowRight"":23}","false","ArrowUp,ArrowLeft","false","","","","","","","","","",""
"html-keyboard-response","40","223860","0.0-3.0-8.0-1.0","pilot_wm_v1","null","1","null","null","true","","","","","","","null","<div style=""font-size:60px;"">+</div>","null","fixation","","","","","","","","","","","","","","","",""
"revaluation","41","229877","0.0-3.0-8.0-0.1","pilot_wm_v1","null","1","null","null","true","","false","","","","","[614.0999999996275,328]","./assets/img/space/7.jpg","[""ArrowUp"",""ArrowRight""]","full practice","space","36","{""ArrowUp,ArrowLeft"":3,""ArrowUp,ArrowRight"":36,""ArrowDown,ArrowLeft"":15,""ArrowDown,ArrowRight"":23}","true","ArrowUp,ArrowRight","false","","","","","","","","","",""
"html-keyboard-response","42","230390","0.0-3.0-8.0-1.1","pilot_wm_v1","null","1","null","null","true","","","","","","","null","<div style=""font-size:60px;"">+</div>","null","fixation","","","","","","","","","","","","","","","",""
"revaluation","43","236421","0.0-3.0-8.0-0.2","pilot_wm_v1","null","1","null","null","true","","false","","","","","[564.1000000005588,249.09999999962747]","./assets/img/space/8.jpg","[""ArrowUp"",""ArrowRight""]","full practice","space","36","{""ArrowUp,ArrowLeft"":3,""ArrowUp,ArrowRight"":36,""ArrowDown,ArrowLeft"":15,""ArrowDown,ArrowRight"":23}","true","ArrowUp,ArrowRight","false","","","","","","","","","",""
"html-keyboard-response","44","236934","0.0-3.0-8.0-1.2","pilot_wm_v1","null","1","null","null","true","","","","","","","null","<div style=""font-size:60px;"">+</div>","null","fixation","","","","","","","","","","","","","","","",""
"revaluation","45","242940","0.0-3.0-8.0-0.3","pilot_wm_v1","null","1","null","null","true","","false","","","","","[459.70000000018626,331.90000000037253]","./assets/img/space/9.jpg","[""ArrowUp"",""ArrowRight""]","full practice","space","36","{""ArrowUp,ArrowLeft"":3,""ArrowUp,ArrowRight"":36,""ArrowDown,ArrowLeft"":15,""ArrowDown,ArrowRight"":23}","true","ArrowUp,ArrowRight","false","","","","","","","","","",""
"html-keyboard-response","46","243452","0.0-3.0-8.0-1.3","pilot_wm_v1","null","1","null","null","true","","","","","","","null","<div style=""font-size:60px;"">+</div>","null","fixation","","","","","","","","","","","","","","","",""
"revaluation","47","249456","0.0-3.0-8.0-0.4","pilot_wm_v1","null","1","null","null","true","","false","","","","","[492.20000000018626,321.29999999981374]","./assets/img/space/10.jpg","[""ArrowUp"",""ArrowRight""]","full practice","space","36","{""ArrowUp,ArrowLeft"":3,""ArrowUp,ArrowRight"":36,""ArrowDown,ArrowLeft"":15,""ArrowDown,ArrowRight"":23}","true","ArrowUp,ArrowRight","false","","","","","","","","","",""
"html-keyboard-response","48","249957","0.0-3.0-8.0-1.4","pilot_wm_v1","null","1","null","null","true","","","","","","","null","<div style=""font-size:60px;"">+</div>","null","fixation","","","","","","","","","","","","","","","",""
"learning-instructions","49","262488","0.0-3.0-9.0-0.0","pilot_wm_v1","null","1","null","null","true","","","","","","","2223.800000000745","<p> One last thing: sometimes, you will see a robber. The robber can be anywhere in the picture. </p>
            <p> If you do not stop them, you will lose treasure. </p>
            <img src='./assets/img/instructions/robber.jpg' class='instructions-image'>","","instructions","","","","","","","","","","","","","","","",""
"learning-instructions","50","270554","0.0-3.0-9.0-0.1","pilot_wm_v1","null","1","null","null","true","","","","","","","899.8999999994412","<p> If you see the robber, you should <b>press the space bar</b> rather than using the arrow keys. </p>
            <p> Try practicing that now! </p>","","instructions","","","","","","","","","","","","","","","",""
"revaluation","51","274573","0.0-3.0-10.0-0.0","pilot_wm_v1","null","1","null","null","true","","false","","","","","[857.2999999998137]","./assets/img/space/catch/0.jpg","[""ArrowUp""]","catch practice","space","-10","{""ArrowUp,ArrowLeft"":3,""ArrowUp,ArrowRight"":36,""ArrowDown,ArrowLeft"":15,""ArrowDown,ArrowRight"":23}","false","ArrowUp","true","","","","","","","","","",""
"html-keyboard-response","52","275085","0.0-3.0-10.0-1.0","pilot_wm_v1","null","1","null","null","true","","","","","","","null","<div style=""font-size:60px;"">+</div>","null","fixation","","","","","","","","","","","","","","","",""
"revaluation","53","279099","0.0-3.0-10.0-0.1","pilot_wm_v1","null","1","null","null","true","","false","","","","","[382.5]","./assets/img/space/catch/1.jpg","[""spaceBar""]","catch practice","space","0","{""ArrowUp,ArrowLeft"":3,""ArrowUp,ArrowRight"":36,""ArrowDown,ArrowLeft"":15,""ArrowDown,ArrowRight"":23}","true","spaceBar","true","","","","","","","","","",""
"html-keyboard-response","54","279612","0.0-3.0-10.0-1.1","pilot_wm_v1","null","1","null","null","true","","","","","","","null","<div style=""font-size:60px;"">+</div>","null","fixation","","","","","","","","","","","","","","","",""
"revaluation","55","283627","0.0-3.0-10.0-0.2","pilot_wm_v1","null","1","null","null","true","","false","","","","","[448.20000000018626]","./assets/img/space/catch/2.jpg","[""spaceBar""]","catch practice","space","0","{""ArrowUp,ArrowLeft"":3,""ArrowUp,ArrowRight"":36,""ArrowDown,ArrowLeft"":15,""ArrowDown,ArrowRight"":23}","true","spaceBar","true","","","","","","","","","",""
"html-keyboard-response","56","284139","0.0-3.0-10.0-1.2","pilot_wm_v1","null","1","null","null","true","","","","","","","null","<div style=""font-size:60px;"">+</div>","null","fixation","","","","","","","","","","","","","","","",""
"learning-instructions","57","291326","0.0-3.0-11.0-0.0","pilot_wm_v1","null","1","null","null","true","","","","","","","1662.4000000003725","<p> Sometimes, you will come across a special kind of treasure chest that requires a password. </p>
            <img src='./assets/img/instructions/beep_chest.jpg' class='instructions-image'>","","instructions","","","","","","","","","","","","","","","",""
"learning-instructions","58","316229","0.0-3.0-11.0-0.1","pilot_wm_v1","null","1","null","null","true","","","","","","","3275.0999999996275","<p> Your friend will send you the password using a series of beeps so that you can open the chest and earn treasure. </p>
            <p> You will hear two kinds of beeps, a high beep and a low beep. </p>
            <p> You should report the number of high beeps that you heard before seeing the chest. </p>
            <img src='./assets/img/instructions/listen.jpg' class='instructions-image'>","","instructions","","","","","","","","","","","","","","","",""
"learning-instructions","59","339941","0.0-3.0-11.0-0.2","pilot_wm_v1","null","1","null","null","true","","","","","","","1397.5","<p> For example, if you hear this series of beeps, you should report 4 as the password using the slider. </p>
            <p> After reporting a password for a chest, you should count the high beeps again starting from 0. </p>
            <p> Let's try practicing that now. </p>","","instructions","","","","","","","","","","","","","","","",""
"audio-button-response","60","348083","0.0-3.0-12.0-0.0-0.0","pilot_wm_v1","null","1","null","null","true","","","","","","","null","./assets/audio/beeps/practice_6.wav","null","","","","","","","","","","","","","","","","",""
"html-slider-response","61","351416","0.0-3.0-12.0-0.0-1.0","pilot_wm_v1","null","1","null","null","true","","","","","","","3331","<div style=""width:500px;"">
        <p>What is the password?</p>
        <img src='./assets/img/instructions/beep_chest.jpg' class='instructions-image'>","6","","","","","false","","","","50","0","6","","","","","",""
"comp-q","62","356710","0.0-3.0-12.0-0.0-2.0","pilot_wm_v1","null","1","null","null","true","","","","","","","976","<p>Correct! There were 6 high pitched beeps before you saw the chest. </p>","0","beep_answer","","","","","","","","","","","","","","","",""
"audio-button-response","63","364843","0.0-3.0-12.0-0.1-0.1","pilot_wm_v1","null","1","null","null","true","","","","","","","null","./assets/audio/beeps/practice_4.wav","null","","","","","","","","","","","","","","","","",""
"html-slider-response","64","366835","0.0-3.0-12.0-0.1-1.1","pilot_wm_v1","null","1","null","null","true","","","","","","","1991","<div style=""width:500px;"">
        <p>What is the password?</p>
        <img src='./assets/img/instructions/beep_chest.jpg' class='instructions-image'>","4","","","","","false","","","","50","0","4","","","","","",""
"comp-q","65","372239","0.0-3.0-12.0-0.1-2.1","pilot_wm_v1","null","1","null","null","true","","","","","","","1105.7999999998137","<p>Correct! There were 4 high pitched beeps before you saw the chest. </p>","0","beep_answer","","","","","","","","","","","","","","","",""
"learning-instructions","66","383475","0.0-3.0-13.0-0.0","pilot_wm_v1","null","1","null","null","true","","","","","","","802.4000000003725","<p> Good job! In the real game we will not tell you if you entered the right password. </p>
            <p> Do your best, the treasure you earn from these chests will also give you extra bonus money. </p>","","instructions","","","","","","","","","","","","","","","",""
"learning-instructions","67","398761","0.0-3.0-14.0-0.0-0.0","pilot_wm_v1","null","1","null","null","true","","","","","","","1677.5","<p> After you explore a place to find treasure, it will be time to play a different game. </p>
            <p> During this game, red dots will appear on the screen and fall down slowly. </p>
            <p><b> You must click on them before they reach the bottom. </b></p>
            <img src='./assets/img/instructions/dotGame.jpg' class='instructions-image'>","","instructions","","","","","","","","","","","","","","","",""
"learning-instructions","68","405124","0.0-3.0-14.0-0.0-0.1","pilot_wm_v1","null","1","null","null","true","","","","","","","679.7999999998137","<p> For every dot you click, you will earn additional treasure. </p>
            <p> Let’s try practicing that now. </p>","","instructions","","","","","","","","","","","","","","","",""
"revaluation","69","420128","0.0-3.0-14.0-1.0-0.0","pilot_wm_v1","null","1","null","null","true","","","","","","","[55]","","","rest practice","","10","","","","","","","","","0","15000","","","",""
"learning-instructions","70","426289","0.0-3.0-15.0-0.0-0.0","pilot_wm_v1","null","1","null","null","true","","","","","","","916.7999999998137","<p> Now, you will practice a shortened version of the game to get a sense of how it all fits together. </p>","","instructions","","","","","","","","","","","","","","","",""
"learning-instructions","71","430231","0.0-3.0-15.0-0.0-0.1","pilot_wm_v1","null","1","null","null","true","","","","","","","748","<p>This time you are searching for treasure in outer space.</p>","","instructions","","","","","","","","","","","","","","","",""
"learning-instructions","72","445794","0.0-3.0-15.0-1.0-0.0","pilot_wm_v1","null","1","null","null","true","","","","","","","771.7999999998137","<p> Remember, when you see a picture of the place, use the up and down keys to <b>find an animal</b>.</p>
            <p> When you encounter an animal, you should use the left and right keys to <b>select a treasure chest</b>.</p>
            <p> Don't forget to look out for the robber! </p>","","instructions","","","","","","","","","","","","","","","",""
"revaluation","73","451829","0.0-3.0-15.0-2.0-0.0","pilot_wm_v1","null","1","null","null","true","","false","","","","","[724.8999999994412,314.5]","./assets/img/space/11.jpg","[""ArrowUp"",""ArrowRight""]","practice block","space","36","{""ArrowUp,ArrowLeft"":3,""ArrowUp,ArrowRight"":36,""ArrowDown,ArrowLeft"":15,""ArrowDown,ArrowRight"":23}","true","ArrowUp,ArrowRight","false","","","","","","","","","",""
"html-keyboard-response","74","452340","0.0-3.0-15.0-2.0-1.0","pilot_wm_v1","null","1","null","null","true","","","","","","","null","<div style=""font-size:60px;"">+</div>","null","fixation","","","","","","","","","","","","","","","",""
"revaluation","75","458379","0.0-3.0-15.0-2.0-0.1","pilot_wm_v1","null","1","null","null","true","","false","","","","","[573.8000000007451,343.79999999981374]","./assets/img/space/12.jpg","[""ArrowUp"",""ArrowRight""]","practice block","space","36","{""ArrowUp,ArrowLeft"":3,""ArrowUp,ArrowRight"":36,""ArrowDown,ArrowLeft"":15,""ArrowDown,ArrowRight"":23}","true","ArrowUp,ArrowRight","false","","","","","","","","","",""
"html-keyboard-response","76","458892","0.0-3.0-15.0-2.0-1.1","pilot_wm_v1","null","1","null","null","true","","","","","","","null","<div style=""font-size:60px;"">+</div>","null","fixation","","","","","","","","","","","","","","","",""
"revaluation","77","464927","0.0-3.0-15.0-2.0-0.2","pilot_wm_v1","null","1","null","null","true","","false","","","","","[491,328.09999999962747]","./assets/img/space/13.jpg","[""ArrowUp"",""ArrowRight""]","practice block","space","36","{""ArrowUp,ArrowLeft"":3,""ArrowUp,ArrowRight"":36,""ArrowDown,ArrowLeft"":15,""ArrowDown,ArrowRight"":23}","true","ArrowUp,ArrowRight","false","","","","","","","","","",""
"html-keyboard-response","78","465437","0.0-3.0-15.0-2.0-1.2","pilot_wm_v1","null","1","null","null","true","","","","","","","null","<div style=""font-size:60px;"">+</div>","null","fixation","","","","","","","","","","","","","","","",""
"revaluation","79","471465","0.0-3.0-15.0-2.0-0.3","pilot_wm_v1","null","1","null","null","true","","false","","","","","[475.5,326]","./assets/img/space/14.jpg","[""ArrowUp"",""ArrowRight""]","practice block","space","36","{""ArrowUp,ArrowLeft"":3,""ArrowUp,ArrowRight"":36,""ArrowDown,ArrowLeft"":15,""ArrowDown,ArrowRight"":23}","true","ArrowUp,ArrowRight","false","","","","","","","","","",""
"html-keyboard-response","80","471977","0.0-3.0-15.0-2.0-1.3","pilot_wm_v1","null","1","null","null","true","","","","","","","null","<div style=""font-size:60px;"">+</div>","null","fixation","","","","","","","","","","","","","","","",""
"revaluation","81","477994","0.0-3.0-15.0-2.0-0.4","pilot_wm_v1","null","1","null","null","true","","false","","","","","[543.1000000005588,320]","./assets/img/space/11.jpg","[""ArrowUp"",""ArrowRight""]","practice block","space","36","{""ArrowUp,ArrowLeft"":3,""ArrowUp,ArrowRight"":36,""ArrowDown,ArrowLeft"":15,""ArrowDown,ArrowRight"":23}","true","ArrowUp,ArrowRight","false","","","","","","","","","",""
"html-keyboard-response","82","478495","0.0-3.0-15.0-2.0-1.4","pilot_wm_v1","null","1","null","null","true","","","","","","","null","<div style=""font-size:60px;"">+</div>","null","fixation","","","","","","","","","","","","","","","",""
"revaluation","83","484498","0.0-3.0-15.0-2.0-0.5","pilot_wm_v1","null","1","null","null","true","","false","","","","","[763.2000000001863,317.29999999981374]","./assets/img/space/12.jpg","[""ArrowUp"",""ArrowRight""]","practice block","space","36","{""ArrowUp,ArrowLeft"":3,""ArrowUp,ArrowRight"":36,""ArrowDown,ArrowLeft"":15,""ArrowDown,ArrowRight"":23}","true","ArrowUp,ArrowRight","false","","","","","","","","","",""
"html-keyboard-response","84","484999","0.0-3.0-15.0-2.0-1.5","pilot_wm_v1","null","1","null","null","true","","","","","","","null","<div style=""font-size:60px;"">+</div>","null","fixation","","","","","","","","","","","","","","","",""
"revaluation","85","491002","0.0-3.0-15.0-2.0-0.6","pilot_wm_v1","null","1","null","null","true","","false","","","","","[484,312.70000000018626]","./assets/img/space/13.jpg","[""ArrowUp"",""ArrowRight""]","practice block","space","36","{""ArrowUp,ArrowLeft"":3,""ArrowUp,ArrowRight"":36,""ArrowDown,ArrowLeft"":15,""ArrowDown,ArrowRight"":23}","true","ArrowUp,ArrowRight","false","","","","","","","","","",""
"html-keyboard-response","86","491503","0.0-3.0-15.0-2.0-1.6","pilot_wm_v1","null","1","null","null","true","","","","","","","null","<div style=""font-size:60px;"">+</div>","null","fixation","","","","","","","","","","","","","","","",""
"revaluation","87","497530","0.0-3.0-15.0-2.0-0.7","pilot_wm_v1","null","1","null","null","true","","false","","","","","[456.09999999962747,251]","./assets/img/space/14.jpg","[""ArrowUp"",""ArrowRight""]","practice block","space","36","{""ArrowUp,ArrowLeft"":3,""ArrowUp,ArrowRight"":36,""ArrowDown,ArrowLeft"":15,""ArrowDown,ArrowRight"":23}","true","ArrowUp,ArrowRight","false","","","","","","","","","",""
"html-keyboard-response","88","498031","0.0-3.0-15.0-2.0-1.7","pilot_wm_v1","null","1","null","null","true","","","","","","","null","<div style=""font-size:60px;"">+</div>","null","fixation","","","","","","","","","","","","","","","",""
"revaluation","89","502034","0.0-3.0-15.0-2.0-0.8","pilot_wm_v1","null","1","null","null","true","","false","","","","","[483.20000000018626]","./assets/img/space/catch/3.jpg","[""spaceBar""]","practice block","space","0","{""ArrowUp,ArrowLeft"":3,""ArrowUp,ArrowRight"":36,""ArrowDown,ArrowLeft"":15,""ArrowDown,ArrowRight"":23}","true","spaceBar","true","","","","","","","","","",""
"html-keyboard-response","90","502535","0.0-3.0-15.0-2.0-1.8","pilot_wm_v1","null","1","null","null","true","","","","","","","null","<div style=""font-size:60px;"">+</div>","null","fixation","","","","","","","","","","","","","","","",""
"learning-instructions","91","516525","0.0-3.0-15.0-3.0-0.0","pilot_wm_v1","null","1","null","null","true","","","","","","","1052.2000000001863","<p> Now, you will travel with a friend who will choose whether you go up or down first. </p>
            <p> On these turns, you will just see the animal that they found. You will still get to choose which chest to search for treasure.</p>","","instructions","","","","","","","","","","","","","","","",""
"learning-instructions","92","529717","0.0-3.0-15.0-3.0-0.1","pilot_wm_v1","null","1","null","null","true","","","","","","","1454.4000000003725","<p> In this part, you will also hear beeps from your friend and see special treasure chests that need a password. </p>
            <p> Do your best to count the high beeps <b>and</b> choose between each animals' chests at the same time.</p>
            <img src='./assets/img/instructions/beep_chest.jpg' class='instructions-image'>","","instructions","","","","","","","","","","","","","","","",""
"revaluation","93","533750","0.0-3.0-15.0-4.0-0.0","pilot_wm_v1","null","1","null","null","true","","false","","","","","[890.6000000005588]","./assets/img/space/animals/cat.jpg","[""ArrowRight""]","practice block","space","36","{""ArrowUp,ArrowLeft"":3,""ArrowUp,ArrowRight"":36,""ArrowDown,ArrowLeft"":15,""ArrowDown,ArrowRight"":23}","true","ArrowUp,ArrowRight","","[""20_0""]","","","","","","0","","",""
"html-keyboard-response","94","534262","0.0-3.0-15.0-4.0-1.0","pilot_wm_v1","null","1","null","null","true","","","","","","","null","<div style=""font-size:60px;"">+</div>","null","fixation","","","","","","","","","","","","","","","",""
"revaluation","95","538287","0.0-3.0-15.0-4.0-0.1","pilot_wm_v1","null","1","null","null","true","","false","","","","","[1078.5999999996275]","./assets/img/space/animals/rabbit.jpg","[""ArrowRight""]","practice block","space","23","{""ArrowUp,ArrowLeft"":3,""ArrowUp,ArrowRight"":36,""ArrowDown,ArrowLeft"":15,""ArrowDown,ArrowRight"":23}","true","ArrowDown,ArrowRight","","[""22_3""]","","","","","","1","","",""
"html-keyboard-response","96","538799","0.0-3.0-15.0-4.0-1.1","pilot_wm_v1","null","1","null","null","true","","","","","","","null","<div style=""font-size:60px;"">+</div>","null","fixation","","","","","","","","","","","","","","","",""
"revaluation","97","542830","0.0-3.0-15.0-4.0-0.2","pilot_wm_v1","null","1","null","null","true","","false","","","","","[869.3999999994412]","./assets/img/space/animals/cat.jpg","[""ArrowRight""]","practice block","space","36","{""ArrowUp,ArrowLeft"":3,""ArrowUp,ArrowRight"":36,""ArrowDown,ArrowLeft"":15,""ArrowDown,ArrowRight"":23}","true","ArrowUp,ArrowRight","","[""19_0""]","","","","","","2","","",""
"html-keyboard-response","98","543340","0.0-3.0-15.0-4.0-1.2","pilot_wm_v1","null","1","null","null","true","","","","","","","null","<div style=""font-size:60px;"">+</div>","null","fixation","","","","","","","","","","","","","","","",""
"revaluation","99","547369","0.0-3.0-15.0-4.0-0.3","pilot_wm_v1","null","1","null","null","true","","false","","","","","[597.5999999996275]","./assets/img/space/animals/rabbit.jpg","[""ArrowRight""]","practice block","space","23","{""ArrowUp,ArrowLeft"":3,""ArrowUp,ArrowRight"":36,""ArrowDown,ArrowLeft"":15,""ArrowDown,ArrowRight"":23}","true","ArrowDown,ArrowRight","","[""21_1""]","","","","","","3","","",""
"html-keyboard-response","100","547880","0.0-3.0-15.0-4.0-1.3","pilot_wm_v1","null","1","null","null","true","","","","","","","null","<div style=""font-size:60px;"">+</div>","null","fixation","","","","","","","","","","","","","","","",""
"html-slider-response","101","550025","0.0-3.0-15.0-4.0-2.3-0.3","pilot_wm_v1","null","1","null","null","true","","","","","","","2144","<div style=""width:500px;"">
        <p>What is the password?</p>
        <img src='./assets/img/instructions/beep_chest.jpg' class='instructions-image'>","4","","","","","false","","","","50","82","78","","","","","",""
"learning-instructions","102","558195","0.0-3.0-15.0-5.0-0.0-0.0","pilot_wm_v1","null","1","null","null","true","","","","","","","803.5999999996275","<p> Time to play the dot game! </p>
            <p> For 15 seconds, click the red dots on the following screen as they appear. </p>","","instructions","","","","","","","","","","","","","","","",""
"revaluation","103","573198","0.0-3.0-15.0-5.0-1.0-0.0","pilot_wm_v1","null","1","null","null","true","","","","","","","[54]","","","rest practice","","10","","","","","","","","","0","15000","","","",""
"learning-instructions","104","581336","0.0-3.0-15.0-6.0-0.0","pilot_wm_v1","null","1","null","null","true","","","","","","","null","<p> You have almost finished this part of the game! </p>
            <p> We are going to ask you to make a few more choices. </p>","","instructions","","","","","","","","","","","","","","","",""
"learning-instructions","105","597374","0.0-3.0-15.0-6.0-0.1","pilot_wm_v1","null","1","null","null","true","","","","","","","null","<p> First, you need to decide whether to go up or down. When you see each picture, use the arrow keys to make your choice. </p>
            <p><b>You will not see which animal you found, but try to get to the one that will give you the most treasure.</b></p>","","instructions","","","","","","","","","","","","","","","",""
"html-keyboard-response","106","598380","0.0-3.0-15.0-7.0-0.0","pilot_wm_v1","null","1","null","null","true","","","","","","","null","<div style=""font-size:100px;color:red;"">Starting in...</div>","null","","","","","","","","","","","","","","","","",""
"html-keyboard-response","107","599384","0.0-3.0-15.0-7.0-1.0","pilot_wm_v1","null","1","null","null","true","","","","","","","null","<div style=""font-size:200px;color:red;"">3</div>","null","","","","","","","","","","","","","","","","",""
"html-keyboard-response","108","600393","0.0-3.0-15.0-7.0-2.0","pilot_wm_v1","null","1","null","null","true","","","","","","","null","<div style=""font-size:200px;color:red;"">2</div>","null","","","","","","","","","","","","","","","","",""
"html-keyboard-response","109","601402","0.0-3.0-15.0-7.0-3.0","pilot_wm_v1","null","1","null","null","true","","","","","","","null","<div style=""font-size:200px;color:red;"">1</div>","null","","","","","","","","","","","","","","","","",""
"revaluation","110","601730","0.0-3.0-15.0-8.0","pilot_wm_v1","null","1","null","null","true","","false","","","","","[325.8999999994412]","./assets/img/space/15.jpg","[""ArrowUp""]","practice block","space","0","{""ArrowUp,ArrowLeft"":3,""ArrowUp,ArrowRight"":36,""ArrowDown,ArrowLeft"":15,""ArrowDown,ArrowRight"":23}","true","ArrowUp","false","","","","","","","","","",""
"html-keyboard-response","111","602236","0.0-3.0-15.0-9.0","pilot_wm_v1","null","1","null","null","true","","","","","","","null","<div style=""font-size:60px;"">+</div>","null","fixation","","","","","","","","","","","","","","","",""
"learning-instructions","112","615635","0.0-3.0-15.0-10.0-0.0","pilot_wm_v1","null","1","null","null","true","","","","","","","null","<p> Now you will see the animals again and can search their chests for treasure. </p>
            <p> This time, you will not see how much treasure you earned, but you will earn more bonus money for making better choices. </p>","","instructions","","","","","","","","","","","","","","","",""
"html-keyboard-response","113","616642","0.0-3.0-15.0-11.0-0.0","pilot_wm_v1","null","1","null","null","true","","","","","","","null","<div style=""font-size:100px;color:red;"">Starting in...</div>","null","","","","","","","","","","","","","","","","",""
"html-keyboard-response","114","617649","0.0-3.0-15.0-11.0-1.0","pilot_wm_v1","null","1","null","null","true","","","","","","","null","<div style=""font-size:200px;color:red;"">3</div>","null","","","","","","","","","","","","","","","","",""
"html-keyboard-response","115","618657","0.0-3.0-15.0-11.0-2.0","pilot_wm_v1","null","1","null","null","true","","","","","","","null","<div style=""font-size:200px;color:red;"">2</div>","null","","","","","","","","","","","","","","","","",""
"html-keyboard-response","116","619666","0.0-3.0-15.0-11.0-3.0","pilot_wm_v1","null","1","null","null","true","","","","","","","null","<div style=""font-size:200px;color:red;"">1</div>","null","","","","","","","","","","","","","","","","",""
"revaluation","117","620150","0.0-3.0-15.0-12.0-0.0","pilot_wm_v1","null","1","null","null","true","","false","","","","","[482.59999999962747]","./assets/img/space/animals/cat.jpg","[""ArrowRight""]","practice block","space","0","{""ArrowUp,ArrowLeft"":3,""ArrowUp,ArrowRight"":36,""ArrowDown,ArrowLeft"":15,""ArrowDown,ArrowRight"":23}","true","ArrowUp,ArrowRight","","","","","","","","","","",""
"html-keyboard-response","118","620658","0.0-3.0-15.0-12.0-1.0","pilot_wm_v1","null","1","null","null","true","","","","","","","null","<div style=""font-size:60px;"">+</div>","null","fixation","","","","","","","","","","","","","","","",""
"revaluation","119","621312","0.0-3.0-15.0-12.0-0.1","pilot_wm_v1","null","1","null","null","true","","false","","","","","[652.5]","./assets/img/space/animals/rabbit.jpg","[""ArrowRight""]","practice block","space","0","{""ArrowUp,ArrowLeft"":3,""ArrowUp,ArrowRight"":36,""ArrowDown,ArrowLeft"":15,""ArrowDown,ArrowRight"":23}","true","ArrowDown,ArrowRight","","","","","","","","","","",""
"html-keyboard-response","120","621822","0.0-3.0-15.0-12.0-1.1","pilot_wm_v1","null","1","null","null","true","","","","","","","null","<div style=""font-size:60px;"">+</div>","null","fixation","","","","","","","","","","","","","","","",""
"learning-instructions","121","629299","0.0-3.0-16.0-0.0","pilot_wm_v1","null","1","null","null","true","","","","","","","2897.100000000559","<p> Before you start, we're going to ask you a few questions about how the game works. </p>","","instructions","","","","","","","","","","","","","","","",""
"comp-q","122","636405","0.0-3.0-17.0-0.0-0.0","pilot_wm_v1","null","1","null","null","true","","","","","","","1521.6000000005588","<p> <b> True or False? </b> </p>
            <p> There can be 50 pieces of treasure in a given animal's chest. </p>","1","comp_question","","","","true","","","","","","","","","","","",""
"comp-q","123","645479","0.0-3.0-17.0-0.0-1.0","pilot_wm_v1","null","1","null","null","true","","","","","","","2418","<p> <b> That's right! </b> The amount of treasure in each chest can range from 0 to 40 pieces. </p>","0","comp_answer","","","","","","","","","","","","","","","",""
"comp-q","124","653301","0.0-3.0-17.0-0.1-0.1","pilot_wm_v1","null","1","null","null","true","","","","","","","700.3999999994412","<p> <b> True or False? </b> </p><p> In this game, all animals have the same amount of treasure in their left and right chests. </p>","1","comp_question","","","","true","","","","","","","","","","","",""
"comp-q","125","659169","0.0-3.0-17.0-0.1-1.1","pilot_wm_v1","null","1","null","null","true","","","","","","","627.6000000005588","<p> <b> That's right! </b> Animals have different amounts of treasure in their treasure chests. </p>","0","comp_answer","","","","","","","","","","","","","","","",""
"comp-q","126","665404","0.0-3.0-17.0-0.2-0.2","pilot_wm_v1","null","1","null","null","true","","","","","","","392.90000000037253","<p> <b> True or False? </b> </p><p> The same animal will always be there if you go up in the same place. </p>","0","comp_question","","","","true","","","","","","","","","","","",""
"comp-q","127","672834","0.0-3.0-17.0-0.2-1.2","pilot_wm_v1","null","1","null","null","true","","","","","","","991.2999999998137","<p> <b> That's right! </b> One animal lives in the upper part and one lives in the lower part of every place. </p>","0","comp_answer","","","","","","","","","","","","","","","",""
"comp-q","128","679120","0.0-3.0-17.0-0.3-0.3","pilot_wm_v1","null","1","null","null","true","","","","","","","768.7999999998137","<p> <b> True or False? </b> </p><p> If you see a different picture, it means you are in a new place. </p>","0","comp_question","","","","false","","","","","","","","","","","",""
"comp-q","129","691050","0.0-3.0-17.0-0.3-1.3","pilot_wm_v1","null","1","null","null","true","","","","","","","828","<p> <b>Incorrect.</b> Lots of different images may show the same place. For example,  you may see three different images that all remind you that you are in outer space. </p>","0","comp_answer","","","","","","","","","","","","","","","",""
"comp-q","130","697396","0.0-3.0-17.0-0.4-0.4","pilot_wm_v1","null","1","null","null","true","","","","","","","854.5999999996275","<p> <b> True or False? </b> </p><p> If you see a different picture, it means you are in a new place. </p>","1","comp_question","","","","true","","","","","","","","","","","",""
"comp-q","131","709432","0.0-3.0-17.0-0.4-1.4","pilot_wm_v1","null","1","null","null","true","","","","","","","790.7000000001863","<p> <b> That's right! </b> Lots of different images may show the same place. For example,  you may see three different images that all remind you that you are in outer space. </p>","0","comp_answer","","","","","","","","","","","","","","","",""
"learning-instructions","132","721042","0.0-3.0-18.0-0.0","pilot_wm_v1","null","1","null","null","true","","","","","","","1760.6000000005588","<p> Good job. Remember to do your best because the amount of treasure you earn will be converted into bonus money. </p>
            <p> It’s time to start the real game! </p>","","instructions","","","","","","","","","","","","","","","",""
"learning-instructions","133","726707","0.0-4.0-0.0-0.0","pilot_wm_v1","null","1","null","null","true","","","","","","","2905.5","<p> This time you are searching for treasure in the <b>canyon</b>.</p>","","instructions","","","","","","","","","","","","","","","",""
"learning-instructions","134","746057","0.0-4.0-0.0-0.1","pilot_wm_v1","null","1","null","null","true","","","","","","","2034.2999999998137","<p><b>New</b> animals with <b>new</b> treasure chests live here. You need to explore to discover where the animal with the best treasure chest is.</p>
                    <p> Like before, once you figure out which animal has the chest with the most treasure, you should try to get to that animal and select that chest! </p>","","instructions","","","","","","","","","","","","","","","",""
"learning-instructions","135","762427","0.0-4.0-1.0-0.0","pilot_wm_v1","null","1","null","null","true","","","","","","","1644.699999999255","<p> Remember, when you see a picture of the place, use the up and down keys to <b>find an animal</b>.</p>
            <p> When you encounter an animal, you should use the left and right keys to <b>select a treasure chest</b>.</p>
            <p> Don't forget to look out for the robber! </p>","","instructions","","","","","","","","","","","","","","","",""
"revaluation","136","768465","0.0-4.0-2.0-0.0","pilot_wm_v1","null","1","null","null","true","","false","","","","","[762.2000000001863,324.69999999925494]","./assets/img/canyon/memory/35.jpg","[""ArrowUp"",""ArrowRight""]","value training","canyon","10","{""ArrowUp,ArrowLeft"":26,""ArrowUp,ArrowRight"":10,""ArrowDown,ArrowLeft"":5,""ArrowDown,ArrowRight"":17}","false","ArrowUp,ArrowRight","false","","","","","","","0","original","1",""
"html-keyboard-response","137","768976","0.0-4.0-2.0-1.0","pilot_wm_v1","null","1","null","null","true","","","","","","","null","<div style=""font-size:60px;"">+</div>","null","fixation","","","","","","","","","","","","","1","","",""
"revaluation","138","775007","0.0-4.0-2.0-0.1","pilot_wm_v1","null","1","null","null","true","","false","","","","","[430.59999999962747,285]","./assets/img/canyon/memory/15.jpg","[""ArrowUp"",""ArrowLeft""]","value training","canyon","26","{""ArrowUp,ArrowLeft"":26,""ArrowUp,ArrowRight"":10,""ArrowDown,ArrowLeft"":5,""ArrowDown,ArrowRight"":17}","true","ArrowUp,ArrowLeft","false","","","","","","","2","original","1",""
"html-keyboard-response","139","775520","0.0-4.0-2.0-1.1","pilot_wm_v1","null","1","null","null","true","","","","","","","null","<div style=""font-size:60px;"">+</div>","null","fixation","","","","","","","","","","","","","3","","",""
"revaluation","140","781557","0.0-4.0-2.0-0.2","pilot_wm_v1","null","1","null","null","true","","false","","","","","[498.59999999962747,372.19999999925494]","./assets/img/canyon/memory/31.jpg","[""ArrowDown"",""ArrowRight""]","value training","canyon","17","{""ArrowUp,ArrowLeft"":26,""ArrowUp,ArrowRight"":10,""ArrowDown,ArrowLeft"":5,""ArrowDown,ArrowRight"":17}","false","ArrowDown,ArrowRight","false","","","","","","","4","original","1",""
"html-keyboard-response","141","782066","0.0-4.0-2.0-1.2","pilot_wm_v1","null","1","null","null","true","","","","","","","null","<div style=""font-size:60px;"">+</div>","null","fixation","","","","","","","","","","","","","5","","",""
"revaluation","142","788095","0.0-4.0-2.0-0.3","pilot_wm_v1","null","1","null","null","true","","false","","","","","[455.69999999925494,418.80000000074506]","./assets/img/canyon/memory/39.jpg","[""ArrowDown"",""ArrowLeft""]","value training","canyon","5","{""ArrowUp,ArrowLeft"":26,""ArrowUp,ArrowRight"":10,""ArrowDown,ArrowLeft"":5,""ArrowDown,ArrowRight"":17}","false","ArrowDown,ArrowLeft","false","","","","","","","6","original","1",""
"html-keyboard-response","143","788607","0.0-4.0-2.0-1.3","pilot_wm_v1","null","1","null","null","true","","","","","","","null","<div style=""font-size:60px;"">+</div>","null","fixation","","","","","","","","","","","","","7","","",""
"revaluation","144","794623","0.0-4.0-2.0-0.4","pilot_wm_v1","null","1","null","null","true","","false","","","","","[564.9000000003725,234.59999999962747]","./assets/img/canyon/memory/1.jpg","[""ArrowUp"",""ArrowLeft""]","value training","canyon","26","{""ArrowUp,ArrowLeft"":26,""ArrowUp,ArrowRight"":10,""ArrowDown,ArrowLeft"":5,""ArrowDown,ArrowRight"":17}","true","ArrowUp,ArrowLeft","false","","","","","","","8","original","1",""
"html-keyboard-response","145","795124","0.0-4.0-2.0-1.4","pilot_wm_v1","null","1","null","null","true","","","","","","","null","<div style=""font-size:60px;"">+</div>","null","fixation","","","","","","","","","","","","","9","","",""
"revaluation","146","801128","0.0-4.0-2.0-0.5","pilot_wm_v1","null","1","null","null","true","","false","","","","","[511.79999999981374,476.79999999981374]","./assets/img/canyon/memory/16.jpg","[""ArrowUp"",""ArrowLeft""]","value training","canyon","26","{""ArrowUp,ArrowLeft"":26,""ArrowUp,ArrowRight"":10,""ArrowDown,ArrowLeft"":5,""ArrowDown,ArrowRight"":17}","true","ArrowUp,ArrowLeft","false","","","","","","","10","original","1",""
"html-keyboard-response","147","801630","0.0-4.0-2.0-1.5","pilot_wm_v1","null","1","null","null","true","","","","","","","null","<div style=""font-size:60px;"">+</div>","null","fixation","","","","","","","","","","","","","11","","",""
"revaluation","148","807634","0.0-4.0-2.0-0.6","pilot_wm_v1","null","1","null","null","true","","false","","","","","[445.90000000037253,205.59999999962747]","./assets/img/canyon/memory/11.jpg","[""ArrowUp"",""ArrowLeft""]","value training","canyon","26","{""ArrowUp,ArrowLeft"":26,""ArrowUp,ArrowRight"":10,""ArrowDown,ArrowLeft"":5,""ArrowDown,ArrowRight"":17}","true","ArrowUp,ArrowLeft","false","","","","","","","12","original","1",""
"html-keyboard-response","149","808135","0.0-4.0-2.0-1.6","pilot_wm_v1","null","1","null","null","true","","","","","","","null","<div style=""font-size:60px;"">+</div>","null","fixation","","","","","","","","","","","","","13","","",""
"revaluation","150","814139","0.0-4.0-2.0-0.7","pilot_wm_v1","null","1","null","null","true","","false","","","","","[591,416.20000000018626]","./assets/img/canyon/memory/6.jpg","[""ArrowUp"",""ArrowLeft""]","value training","canyon","26","{""ArrowUp,ArrowLeft"":26,""ArrowUp,ArrowRight"":10,""ArrowDown,ArrowLeft"":5,""ArrowDown,ArrowRight"":17}","true","ArrowUp,ArrowLeft","false","","","","","","","14","original","1",""
"html-keyboard-response","151","814640","0.0-4.0-2.0-1.7","pilot_wm_v1","null","1","null","null","true","","","","","","","null","<div style=""font-size:60px;"">+</div>","null","fixation","","","","","","","","","","","","","15","","",""
"revaluation","152","820644","0.0-4.0-2.0-0.8","pilot_wm_v1","null","1","null","null","true","","false","","","","","[434.20000000018626,304]","./assets/img/canyon/memory/29.jpg","[""ArrowUp"",""ArrowLeft""]","value training","canyon","26","{""ArrowUp,ArrowLeft"":26,""ArrowUp,ArrowRight"":10,""ArrowDown,ArrowLeft"":5,""ArrowDown,ArrowRight"":17}","true","ArrowUp,ArrowLeft","false","","","","","","","16","original","1",""
"html-keyboard-response","153","821145","0.0-4.0-2.0-1.8","pilot_wm_v1","null","1","null","null","true","","","","","","","null","<div style=""font-size:60px;"">+</div>","null","fixation","","","","","","","","","","","","","17","","",""
"revaluation","154","827148","0.0-4.0-2.0-0.9","pilot_wm_v1","null","1","null","null","true","","false","","","","","[394.70000000018626,285.69999999925494]","./assets/img/canyon/memory/33.jpg","[""ArrowUp"",""ArrowLeft""]","value training","canyon","26","{""ArrowUp,ArrowLeft"":26,""ArrowUp,ArrowRight"":10,""ArrowDown,ArrowLeft"":5,""ArrowDown,ArrowRight"":17}","true","ArrowUp,ArrowLeft","false","","","","","","","18","original","1",""
"html-keyboard-response","155","827649","0.0-4.0-2.0-1.9","pilot_wm_v1","null","1","null","null","true","","","","","","","null","<div style=""font-size:60px;"">+</div>","null","fixation","","","","","","","","","","","","","19","","",""
"revaluation","156","833652","0.0-4.0-2.0-0.10","pilot_wm_v1","null","1","null","null","true","","false","","","","","[536,297]","./assets/img/canyon/memory/18.jpg","[""ArrowUp"",""ArrowLeft""]","value training","canyon","26","{""ArrowUp,ArrowLeft"":26,""ArrowUp,ArrowRight"":10,""ArrowDown,ArrowLeft"":5,""ArrowDown,ArrowRight"":17}","true","ArrowUp,ArrowLeft","false","","","","","","","20","original","1",""
"html-keyboard-response","157","834154","0.0-4.0-2.0-1.10","pilot_wm_v1","null","1","null","null","true","","","","","","","null","<div style=""font-size:60px;"">+</div>","null","fixation","","","","","","","","","","","","","21","","",""
"revaluation","158","840158","0.0-4.0-2.0-0.11","pilot_wm_v1","null","1","null","null","true","","false","","","","","[409.5,244.1000000005588]","./assets/img/canyon/memory/39.jpg","[""ArrowUp"",""ArrowLeft""]","value training","canyon","26","{""ArrowUp,ArrowLeft"":26,""ArrowUp,ArrowRight"":10,""ArrowDown,ArrowLeft"":5,""ArrowDown,ArrowRight"":17}","true","ArrowUp,ArrowLeft","false","","","","","","","22","original","1",""
"html-keyboard-response","159","840660","0.0-4.0-2.0-1.11","pilot_wm_v1","null","1","null","null","true","","","","","","","null","<div style=""font-size:60px;"">+</div>","null","fixation","","","","","","","","","","","","","23","","",""
"revaluation","160","846663","0.0-4.0-2.0-0.12","pilot_wm_v1","null","1","null","null","true","","false","","","","","[511.5,232.79999999981374]","./assets/img/canyon/memory/14.jpg","[""ArrowUp"",""ArrowLeft""]","value training","canyon","26","{""ArrowUp,ArrowLeft"":26,""ArrowUp,ArrowRight"":10,""ArrowDown,ArrowLeft"":5,""ArrowDown,ArrowRight"":17}","true","ArrowUp,ArrowLeft","false","","","","","","","24","original","1",""
"html-keyboard-response","161","847164","0.0-4.0-2.0-1.12","pilot_wm_v1","null","1","null","null","true","","","","","","","null","<div style=""font-size:60px;"">+</div>","null","fixation","","","","","","","","","","","","","25","","",""
"revaluation","162","853168","0.0-4.0-2.0-0.13","pilot_wm_v1","null","1","null","null","true","","false","","","","","[436.70000000018626,238]","./assets/img/canyon/memory/6.jpg","[""ArrowUp"",""ArrowLeft""]","value training","canyon","26","{""ArrowUp,ArrowLeft"":26,""ArrowUp,ArrowRight"":10,""ArrowDown,ArrowLeft"":5,""ArrowDown,ArrowRight"":17}","true","ArrowUp,ArrowLeft","false","","","","","","","26","original","1",""
"html-keyboard-response","163","853673","0.0-4.0-2.0-1.13","pilot_wm_v1","null","1","null","null","true","","","","","","","null","<div style=""font-size:60px;"">+</div>","null","fixation","","","","","","","","","","","","","27","","",""
"revaluation","164","859675","0.0-4.0-2.0-0.14","pilot_wm_v1","null","1","null","null","true","","false","","","","","[422.5,220.30000000074506]","./assets/img/canyon/memory/34.jpg","[""ArrowUp"",""ArrowLeft""]","value training","canyon","26","{""ArrowUp,ArrowLeft"":26,""ArrowUp,ArrowRight"":10,""ArrowDown,ArrowLeft"":5,""ArrowDown,ArrowRight"":17}","true","ArrowUp,ArrowLeft","false","","","","","","","28","original","1",""
"html-keyboard-response","165","860177","0.0-4.0-2.0-1.14","pilot_wm_v1","null","1","null","null","true","","","","","","","null","<div style=""font-size:60px;"">+</div>","null","fixation","","","","","","","","","","","","","29","","",""
"revaluation","166","866180","0.0-4.0-2.0-0.15","pilot_wm_v1","null","1","null","null","true","","false","","","","","[405.5,251.8999999994412]","./assets/img/canyon/memory/22.jpg","[""ArrowUp"",""ArrowLeft""]","value training","canyon","26","{""ArrowUp,ArrowLeft"":26,""ArrowUp,ArrowRight"":10,""ArrowDown,ArrowLeft"":5,""ArrowDown,ArrowRight"":17}","true","ArrowUp,ArrowLeft","false","","","","","","","30","original","1",""
"html-keyboard-response","167","866681","0.0-4.0-2.0-1.15","pilot_wm_v1","null","1","null","null","true","","","","","","","null","<div style=""font-size:60px;"">+</div>","null","fixation","","","","","","","","","","","","","31","","",""
"revaluation","168","872685","0.0-4.0-2.0-0.16","pilot_wm_v1","null","1","null","null","true","","false","","","","","[435.20000000018626,205.09999999962747]","./assets/img/canyon/memory/11.jpg","[""ArrowUp"",""ArrowLeft""]","value training","canyon","26","{""ArrowUp,ArrowLeft"":26,""ArrowUp,ArrowRight"":10,""ArrowDown,ArrowLeft"":5,""ArrowDown,ArrowRight"":17}","true","ArrowUp,ArrowLeft","false","","","","","","","32","original","1",""
"html-keyboard-response","169","873187","0.0-4.0-2.0-1.16","pilot_wm_v1","null","1","null","null","true","","","","","","","null","<div style=""font-size:60px;"">+</div>","null","fixation","","","","","","","","","","","","","33","","",""
"revaluation","170","879190","0.0-4.0-2.0-0.17","pilot_wm_v1","null","1","null","null","true","","false","","","","","[479.20000000018626,272]","./assets/img/canyon/memory/1.jpg","[""ArrowUp"",""ArrowLeft""]","value training","canyon","26","{""ArrowUp,ArrowLeft"":26,""ArrowUp,ArrowRight"":10,""ArrowDown,ArrowLeft"":5,""ArrowDown,ArrowRight"":17}","true","ArrowUp,ArrowLeft","false","","","","","","","34","original","1",""
"html-keyboard-response","171","879691","0.0-4.0-2.0-1.17","pilot_wm_v1","null","1","null","null","true","","","","","","","null","<div style=""font-size:60px;"">+</div>","null","fixation","","","","","","","","","","","","","35","","",""
"revaluation","172","885695","0.0-4.0-2.0-0.18","pilot_wm_v1","null","1","null","null","true","","false","","","","","[469.1000000005588,224.59999999962747]","./assets/img/canyon/memory/25.jpg","[""ArrowUp"",""ArrowLeft""]","value training","canyon","26","{""ArrowUp,ArrowLeft"":26,""ArrowUp,ArrowRight"":10,""ArrowDown,ArrowLeft"":5,""ArrowDown,ArrowRight"":17}","true","ArrowUp,ArrowLeft","false","","","","","","","36","original","1",""
"html-keyboard-response","173","886195","0.0-4.0-2.0-1.18","pilot_wm_v1","null","1","null","null","true","","","","","","","null","<div style=""font-size:60px;"">+</div>","null","fixation","","","","","","","","","","","","","37","","",""
"revaluation","174","892199","0.0-4.0-2.0-0.19","pilot_wm_v1","null","1","null","null","true","","false","","","","","[405.70000000018626,270.5]","./assets/img/canyon/memory/29.jpg","[""ArrowUp"",""ArrowLeft""]","value training","canyon","26","{""ArrowUp,ArrowLeft"":26,""ArrowUp,ArrowRight"":10,""ArrowDown,ArrowLeft"":5,""ArrowDown,ArrowRight"":17}","true","ArrowUp,ArrowLeft","false","","","","","","","38","original","1",""
"html-keyboard-response","175","892700","0.0-4.0-2.0-1.19","pilot_wm_v1","null","1","null","null","true","","","","","","","null","<div style=""font-size:60px;"">+</div>","null","fixation","","","","","","","","","","","","","39","","",""
"revaluation","176","898703","0.0-4.0-2.0-0.20","pilot_wm_v1","null","1","null","null","true","","false","","","","","[455.40000000037253,383.59999999962747]","./assets/img/canyon/memory/12.jpg","[""ArrowUp"",""ArrowLeft""]","value training","canyon","26","{""ArrowUp,ArrowLeft"":26,""ArrowUp,ArrowRight"":10,""ArrowDown,ArrowLeft"":5,""ArrowDown,ArrowRight"":17}","true","ArrowUp,ArrowLeft","false","","","","","","","40","original","1",""
"html-keyboard-response","177","899204","0.0-4.0-2.0-1.20","pilot_wm_v1","null","1","null","null","true","","","","","","","null","<div style=""font-size:60px;"">+</div>","null","fixation","","","","","","","","","","","","","41","","",""
"revaluation","178","905207","0.0-4.0-2.0-0.21","pilot_wm_v1","null","1","null","null","true","","false","","","","","[462.40000000037253,417.90000000037253]","./assets/img/canyon/memory/17.jpg","[""ArrowUp"",""ArrowLeft""]","value training","canyon","26","{""ArrowUp,ArrowLeft"":26,""ArrowUp,ArrowRight"":10,""ArrowDown,ArrowLeft"":5,""ArrowDown,ArrowRight"":17}","true","ArrowUp,ArrowLeft","false","","","","","","","42","original","1",""
"html-keyboard-response","179","905709","0.0-4.0-2.0-1.21","pilot_wm_v1","null","1","null","null","true","","","","","","","null","<div style=""font-size:60px;"">+</div>","null","fixation","","","","","","","","","","","","","43","","",""
"revaluation","180","911712","0.0-4.0-2.0-0.22","pilot_wm_v1","null","1","null","null","true","","false","","","","","[570.7999999998137,364.29999999981374]","./assets/img/canyon/memory/16.jpg","[""ArrowUp"",""ArrowLeft""]","value training","canyon","26","{""ArrowUp,ArrowLeft"":26,""ArrowUp,ArrowRight"":10,""ArrowDown,ArrowLeft"":5,""ArrowDown,ArrowRight"":17}","true","ArrowUp,ArrowLeft","false","","","","","","","44","original","1",""
"html-keyboard-response","181","912214","0.0-4.0-2.0-1.22","pilot_wm_v1","null","1","null","null","true","","","","","","","null","<div style=""font-size:60px;"">+</div>","null","fixation","","","","","","","","","","","","","45","","",""
"revaluation","182","918218","0.0-4.0-2.0-0.23","pilot_wm_v1","null","1","null","null","true","","false","","","","","[391.90000000037253,367.09999999962747]","./assets/img/canyon/memory/41.jpg","[""ArrowUp"",""ArrowLeft""]","value training","canyon","26","{""ArrowUp,ArrowLeft"":26,""ArrowUp,ArrowRight"":10,""ArrowDown,ArrowLeft"":5,""ArrowDown,ArrowRight"":17}","true","ArrowUp,ArrowLeft","false","","","","","","","46","original","1",""
"html-keyboard-response","183","918720","0.0-4.0-2.0-1.23","pilot_wm_v1","null","1","null","null","true","","","","","","","null","<div style=""font-size:60px;"">+</div>","null","fixation","","","","","","","","","","","","","47","","",""
"revaluation","184","922722","0.0-4.0-2.0-0.24","pilot_wm_v1","null","1","null","null","true","","false","","","","","[688.7999999998137]","./assets/img/canyon/catch/7.jpg","[""spaceBar""]","value training","canyon","0","{""ArrowUp,ArrowLeft"":26,""ArrowUp,ArrowRight"":10,""ArrowDown,ArrowLeft"":5,""ArrowDown,ArrowRight"":17}","true","spaceBar","true","","","","","","","48","original","1",""
"html-keyboard-response","185","923223","0.0-4.0-2.0-1.24","pilot_wm_v1","null","1","null","null","true","","","","","","","null","<div style=""font-size:60px;"">+</div>","null","fixation","","","","","","","","","","","","","49","","",""
"revaluation","186","929227","0.0-4.0-2.0-0.25","pilot_wm_v1","null","1","null","null","true","","false","","","","","[463.5,261.5]","./assets/img/canyon/memory/12.jpg","[""ArrowUp"",""ArrowLeft""]","value training","canyon","26","{""ArrowUp,ArrowLeft"":26,""ArrowUp,ArrowRight"":10,""ArrowDown,ArrowLeft"":5,""ArrowDown,ArrowRight"":17}","true","ArrowUp,ArrowLeft","false","","","","","","","50","original","1",""
"html-keyboard-response","187","929728","0.0-4.0-2.0-1.25","pilot_wm_v1","null","1","null","null","true","","","","","","","null","<div style=""font-size:60px;"">+</div>","null","fixation","","","","","","","","","","","","","51","","",""
"revaluation","188","935730","0.0-4.0-2.0-0.26","pilot_wm_v1","null","1","null","null","true","","false","","","","","[381.59999999962747,268.79999999981374]","./assets/img/canyon/memory/17.jpg","[""ArrowUp"",""ArrowLeft""]","value training","canyon","26","{""ArrowUp,ArrowLeft"":26,""ArrowUp,ArrowRight"":10,""ArrowDown,ArrowLeft"":5,""ArrowDown,ArrowRight"":17}","true","ArrowUp,ArrowLeft","false","","","","","","","52","original","1",""
"html-keyboard-response","189","936230","0.0-4.0-2.0-1.26","pilot_wm_v1","null","1","null","null","true","","","","","","","null","<div style=""font-size:60px;"">+</div>","null","fixation","","","","","","","","","","","","","53","","",""
"revaluation","190","940233","0.0-4.0-2.0-0.27","pilot_wm_v1","null","1","null","null","true","","false","","","","","[448.59999999962747]","./assets/img/canyon/catch/4.jpg","[""spaceBar""]","value training","canyon","0","{""ArrowUp,ArrowLeft"":26,""ArrowUp,ArrowRight"":10,""ArrowDown,ArrowLeft"":5,""ArrowDown,ArrowRight"":17}","true","spaceBar","true","","","","","","","54","original","1",""
"html-keyboard-response","191","940735","0.0-4.0-2.0-1.27","pilot_wm_v1","null","1","null","null","true","","","","","","","null","<div style=""font-size:60px;"">+</div>","null","fixation","","","","","","","","","","","","","55","","",""
"revaluation","192","944749","0.0-4.0-2.0-0.28","pilot_wm_v1","null","1","null","null","true","","false","","","","","[615.2999999998137]","./assets/img/canyon/catch/5.jpg","[""spaceBar""]","value training","canyon","0","{""ArrowUp,ArrowLeft"":26,""ArrowUp,ArrowRight"":10,""ArrowDown,ArrowLeft"":5,""ArrowDown,ArrowRight"":17}","true","spaceBar","true","","","","","","","56","original","1",""
"html-keyboard-response","193","945250","0.0-4.0-2.0-1.28","pilot_wm_v1","null","1","null","null","true","","","","","","","null","<div style=""font-size:60px;"">+</div>","null","fixation","","","","","","","","","","","","","57","","",""
"revaluation","194","951253","0.0-4.0-2.0-0.29","pilot_wm_v1","null","1","null","null","true","","false","","","","","[606.9000000003725,475.8999999994412]","./assets/img/canyon/memory/27.jpg","[""ArrowUp"",""ArrowLeft""]","value training","canyon","26","{""ArrowUp,ArrowLeft"":26,""ArrowUp,ArrowRight"":10,""ArrowDown,ArrowLeft"":5,""ArrowDown,ArrowRight"":17}","true","ArrowUp,ArrowLeft","false","","","","","","","58","original","1",""
"html-keyboard-response","195","951755","0.0-4.0-2.0-1.29","pilot_wm_v1","null","1","null","null","true","","","","","","","null","<div style=""font-size:60px;"">+</div>","null","fixation","","","","","","","","","","","","","59","","",""
"revaluation","196","955756","0.0-4.0-2.0-0.30","pilot_wm_v1","null","1","null","null","true","","false","","","","","[569.6999999992549]","./assets/img/canyon/catch/0.jpg","[""spaceBar""]","value training","canyon","0","{""ArrowUp,ArrowLeft"":26,""ArrowUp,ArrowRight"":10,""ArrowDown,ArrowLeft"":5,""ArrowDown,ArrowRight"":17}","true","spaceBar","true","","","","","","","60","original","1",""
"html-keyboard-response","197","956258","0.0-4.0-2.0-1.30","pilot_wm_v1","null","1","null","null","true","","","","","","","null","<div style=""font-size:60px;"">+</div>","null","fixation","","","","","","","","","","","","","61","","",""
"revaluation","198","962261","0.0-4.0-2.0-0.31","pilot_wm_v1","null","1","null","null","true","","false","","","","","[973.3000000007451,327.30000000074506]","./assets/img/canyon/memory/22.jpg","[""ArrowUp"",""ArrowLeft""]","value training","canyon","26","{""ArrowUp,ArrowLeft"":26,""ArrowUp,ArrowRight"":10,""ArrowDown,ArrowLeft"":5,""ArrowDown,ArrowRight"":17}","true","ArrowUp,ArrowLeft","false","","","","","","","62","original","1",""
"html-keyboard-response","199","962762","0.0-4.0-2.0-1.31","pilot_wm_v1","null","1","null","null","true","","","","","","","null","<div style=""font-size:60px;"">+</div>","null","fixation","","","","","","","","","","","","","63","","",""
"revaluation","200","968766","0.0-4.0-2.0-0.32","pilot_wm_v1","null","1","null","null","true","","false","","","","","[490.09999999962747,231.3999999994412]","./assets/img/canyon/memory/18.jpg","[""ArrowUp"",""ArrowLeft""]","value training","canyon","26","{""ArrowUp,ArrowLeft"":26,""ArrowUp,ArrowRight"":10,""ArrowDown,ArrowLeft"":5,""ArrowDown,ArrowRight"":17}","true","ArrowUp,ArrowLeft","false","","","","","","","64","original","1",""
"html-keyboard-response","201","969267","0.0-4.0-2.0-1.32","pilot_wm_v1","null","1","null","null","true","","","","","","","null","<div style=""font-size:60px;"">+</div>","null","fixation","","","","","","","","","","","","","65","","",""
"revaluation","202","975269","0.0-4.0-2.0-0.33","pilot_wm_v1","null","1","null","null","true","","false","","","","","[528,347.40000000037253]","./assets/img/canyon/memory/25.jpg","[""ArrowUp"",""ArrowLeft""]","value training","canyon","26","{""ArrowUp,ArrowLeft"":26,""ArrowUp,ArrowRight"":10,""ArrowDown,ArrowLeft"":5,""ArrowDown,ArrowRight"":17}","true","ArrowUp,ArrowLeft","false","","","","","","","66","original","1",""
"html-keyboard-response","203","975771","0.0-4.0-2.0-1.33","pilot_wm_v1","null","1","null","null","true","","","","","","","null","<div style=""font-size:60px;"">+</div>","null","fixation","","","","","","","","","","","","","67","","",""
"revaluation","204","981774","0.0-4.0-2.0-0.34","pilot_wm_v1","null","1","null","null","true","","false","","","","","[610.3000000007451,217.1000000005588]","./assets/img/canyon/memory/27.jpg","[""ArrowUp"",""ArrowLeft""]","value training","canyon","26","{""ArrowUp,ArrowLeft"":26,""ArrowUp,ArrowRight"":10,""ArrowDown,ArrowLeft"":5,""ArrowDown,ArrowRight"":17}","true","ArrowUp,ArrowLeft","false","","","","","","","68","original","1",""
"html-keyboard-response","205","982275","0.0-4.0-2.0-1.34","pilot_wm_v1","null","1","null","null","true","","","","","","","null","<div style=""font-size:60px;"">+</div>","null","fixation","","","","","","","","","","","","","69","","",""
"revaluation","206","988279","0.0-4.0-2.0-0.35","pilot_wm_v1","null","1","null","null","true","","false","","","","","[494.6000000005588,429.20000000018626]","./assets/img/canyon/memory/0.jpg","[""ArrowUp"",""ArrowLeft""]","value training","canyon","26","{""ArrowUp,ArrowLeft"":26,""ArrowUp,ArrowRight"":10,""ArrowDown,ArrowLeft"":5,""ArrowDown,ArrowRight"":17}","true","ArrowUp,ArrowLeft","false","","","","","","","70","original","1",""
"html-keyboard-response","207","988780","0.0-4.0-2.0-1.35","pilot_wm_v1","null","1","null","null","true","","","","","","","null","<div style=""font-size:60px;"">+</div>","null","fixation","","","","","","","","","","","","","71","","",""
"revaluation","208","994782","0.0-4.0-2.0-0.36","pilot_wm_v1","null","1","null","null","true","","false","","","","","[447.6000000005588,430.5]","./assets/img/canyon/memory/15.jpg","[""ArrowUp"",""ArrowLeft""]","value training","canyon","26","{""ArrowUp,ArrowLeft"":26,""ArrowUp,ArrowRight"":10,""ArrowDown,ArrowLeft"":5,""ArrowDown,ArrowRight"":17}","true","ArrowUp,ArrowLeft","false","","","","","","","72","original","1",""
"html-keyboard-response","209","995283","0.0-4.0-2.0-1.36","pilot_wm_v1","null","1","null","null","true","","","","","","","null","<div style=""font-size:60px;"">+</div>","null","fixation","","","","","","","","","","","","","73","","",""
"revaluation","210","1001287","0.0-4.0-2.0-0.37","pilot_wm_v1","null","1","null","null","true","","false","","","","","[435.5,206]","./assets/img/canyon/memory/14.jpg","[""ArrowUp"",""ArrowLeft""]","value training","canyon","26","{""ArrowUp,ArrowLeft"":26,""ArrowUp,ArrowRight"":10,""ArrowDown,ArrowLeft"":5,""ArrowDown,ArrowRight"":17}","true","ArrowUp,ArrowLeft","false","","","","","","","74","original","1",""
"html-keyboard-response","211","1001789","0.0-4.0-2.0-1.37","pilot_wm_v1","null","1","null","null","true","","","","","","","null","<div style=""font-size:60px;"">+</div>","null","fixation","","","","","","","","","","","","","75","","",""
"revaluation","212","1007793","0.0-4.0-2.0-0.38","pilot_wm_v1","null","1","null","null","true","","false","","","","","[530.1000000005588,381.59999999962747]","./assets/img/canyon/memory/35.jpg","[""ArrowUp"",""ArrowLeft""]","value training","canyon","26","{""ArrowUp,ArrowLeft"":26,""ArrowUp,ArrowRight"":10,""ArrowDown,ArrowLeft"":5,""ArrowDown,ArrowRight"":17}","true","ArrowUp,ArrowLeft","false","","","","","","","76","original","1",""
"html-keyboard-response","213","1008294","0.0-4.0-2.0-1.38","pilot_wm_v1","null","1","null","null","true","","","","","","","null","<div style=""font-size:60px;"">+</div>","null","fixation","","","","","","","","","","","","","77","","",""
"revaluation","214","1014312","0.0-4.0-2.0-0.39","pilot_wm_v1","null","1","null","null","true","","false","","","","","[617.6000000005588,435.1000000005588]","./assets/img/canyon/memory/37.jpg","[""ArrowUp"",""ArrowLeft""]","value training","canyon","26","{""ArrowUp,ArrowLeft"":26,""ArrowUp,ArrowRight"":10,""ArrowDown,ArrowLeft"":5,""ArrowDown,ArrowRight"":17}","true","ArrowUp,ArrowLeft","false","","","","","","","78","original","1",""
"html-keyboard-response","215","1014812","0.0-4.0-2.0-1.39","pilot_wm_v1","null","1","null","null","true","","","","","","","null","<div style=""font-size:60px;"">+</div>","null","fixation","","","","","","","","","","","","","79","","",""
"revaluation","216","1020815","0.0-4.0-2.0-0.40","pilot_wm_v1","null","1","null","null","true","","false","","","","","[568.4000000003725,261.59999999962747]","./assets/img/canyon/memory/34.jpg","[""ArrowUp"",""ArrowLeft""]","value training","canyon","26","{""ArrowUp,ArrowLeft"":26,""ArrowUp,ArrowRight"":10,""ArrowDown,ArrowLeft"":5,""ArrowDown,ArrowRight"":17}","true","ArrowUp,ArrowLeft","false","","","","","","","80","original","1",""
"html-keyboard-response","217","1021317","0.0-4.0-2.0-1.40","pilot_wm_v1","null","1","null","null","true","","","","","","","null","<div style=""font-size:60px;"">+</div>","null","fixation","","","","","","","","","","","","","81","","",""
"revaluation","218","1027320","0.0-4.0-2.0-0.41","pilot_wm_v1","null","1","null","null","true","","false","","","","","[565.2999999998137,402.5]","./assets/img/canyon/memory/37.jpg","[""ArrowUp"",""ArrowLeft""]","value training","canyon","26","{""ArrowUp,ArrowLeft"":26,""ArrowUp,ArrowRight"":10,""ArrowDown,ArrowLeft"":5,""ArrowDown,ArrowRight"":17}","true","ArrowUp,ArrowLeft","false","","","","","","","82","original","1",""
"html-keyboard-response","219","1027821","0.0-4.0-2.0-1.41","pilot_wm_v1","null","1","null","null","true","","","","","","","null","<div style=""font-size:60px;"">+</div>","null","fixation","","","","","","","","","","","","","83","","",""
"revaluation","220","1031823","0.0-4.0-2.0-0.42","pilot_wm_v1","null","1","null","null","true","","false","","","","","[555.3999999994412]","./assets/img/canyon/catch/6.jpg","[""spaceBar""]","value training","canyon","0","{""ArrowUp,ArrowLeft"":26,""ArrowUp,ArrowRight"":10,""ArrowDown,ArrowLeft"":5,""ArrowDown,ArrowRight"":17}","true","spaceBar","true","","","","","","","84","original","1",""
"html-keyboard-response","221","1032324","0.0-4.0-2.0-1.42","pilot_wm_v1","null","1","null","null","true","","","","","","","null","<div style=""font-size:60px;"">+</div>","null","fixation","","","","","","","","","","","","","85","","",""
"revaluation","222","1036327","0.0-4.0-2.0-0.43","pilot_wm_v1","null","1","null","null","true","","false","","","","","[585.2000000001863]","./assets/img/canyon/catch/2.jpg","[""spaceBar""]","value training","canyon","0","{""ArrowUp,ArrowLeft"":26,""ArrowUp,ArrowRight"":10,""ArrowDown,ArrowLeft"":5,""ArrowDown,ArrowRight"":17}","true","spaceBar","true","","","","","","","86","original","1",""
"html-keyboard-response","223","1036828","0.0-4.0-2.0-1.43","pilot_wm_v1","null","1","null","null","true","","","","","","","null","<div style=""font-size:60px;"">+</div>","null","fixation","","","","","","","","","","","","","87","","",""
"revaluation","224","1042831","0.0-4.0-2.0-0.44","pilot_wm_v1","null","1","null","null","true","","false","","","","","[680.7000000001863,281.20000000018626]","./assets/img/canyon/memory/41.jpg","[""ArrowUp"",""ArrowLeft""]","value training","canyon","26","{""ArrowUp,ArrowLeft"":26,""ArrowUp,ArrowRight"":10,""ArrowDown,ArrowLeft"":5,""ArrowDown,ArrowRight"":17}","true","ArrowUp,ArrowLeft","false","","","","","","","88","original","1",""
"html-keyboard-response","225","1043332","0.0-4.0-2.0-1.44","pilot_wm_v1","null","1","null","null","true","","","","","","","null","<div style=""font-size:60px;"">+</div>","null","fixation","","","","","","","","","","","","","89","","",""
"revaluation","226","1049335","0.0-4.0-2.0-0.45","pilot_wm_v1","null","1","null","null","true","","false","","","","","[558,232.5]","./assets/img/canyon/memory/0.jpg","[""ArrowUp"",""ArrowLeft""]","value training","canyon","26","{""ArrowUp,ArrowLeft"":26,""ArrowUp,ArrowRight"":10,""ArrowDown,ArrowLeft"":5,""ArrowDown,ArrowRight"":17}","true","ArrowUp,ArrowLeft","false","","","","","","","90","original","1",""
"html-keyboard-response","227","1049836","0.0-4.0-2.0-1.45","pilot_wm_v1","null","1","null","null","true","","","","","","","null","<div style=""font-size:60px;"">+</div>","null","fixation","","","","","","","","","","","","","91","","",""
"revaluation","228","1053838","0.0-4.0-2.0-0.46","pilot_wm_v1","null","1","null","null","true","","false","","","","","[400.90000000037253]","./assets/img/canyon/catch/3.jpg","[""spaceBar""]","value training","canyon","0","{""ArrowUp,ArrowLeft"":26,""ArrowUp,ArrowRight"":10,""ArrowDown,ArrowLeft"":5,""ArrowDown,ArrowRight"":17}","true","spaceBar","true","","","","","","","92","original","1",""
"html-keyboard-response","229","1054339","0.0-4.0-2.0-1.46","pilot_wm_v1","null","1","null","null","true","","","","","","","null","<div style=""font-size:60px;"">+</div>","null","fixation","","","","","","","","","","","","","93","","",""
"revaluation","230","1058342","0.0-4.0-2.0-0.47","pilot_wm_v1","null","1","null","null","true","","false","","","","","[521.6000000005588]","./assets/img/canyon/catch/1.jpg","[""spaceBar""]","value training","canyon","0","{""ArrowUp,ArrowLeft"":26,""ArrowUp,ArrowRight"":10,""ArrowDown,ArrowLeft"":5,""ArrowDown,ArrowRight"":17}","true","spaceBar","true","","","","","","","94","original","1",""
"html-keyboard-response","231","1058844","0.0-4.0-2.0-1.47","pilot_wm_v1","null","1","null","null","true","","","","","","","null","<div style=""font-size:60px;"">+</div>","null","fixation","","","","","","","","","","","","","95","","",""
"revaluation","232","1064848","0.0-4.0-2.0-0.48","pilot_wm_v1","null","1","null","null","true","","false","","","","","[617.7999999998137,383.09999999962747]","./assets/img/canyon/memory/31.jpg","[""ArrowUp"",""ArrowLeft""]","value training","canyon","26","{""ArrowUp,ArrowLeft"":26,""ArrowUp,ArrowRight"":10,""ArrowDown,ArrowLeft"":5,""ArrowDown,ArrowRight"":17}","true","ArrowUp,ArrowLeft","false","","","","","","","96","original","1",""
"html-keyboard-response","233","1065350","0.0-4.0-2.0-1.48","pilot_wm_v1","null","1","null","null","true","","","","","","","null","<div style=""font-size:60px;"">+</div>","null","fixation","","","","","","","","","","","","","97","","",""
"revaluation","234","1071365","0.0-4.0-2.0-0.49","pilot_wm_v1","null","1","null","null","true","","false","","","","","[529.9000000003725,316.29999999981374]","./assets/img/canyon/memory/33.jpg","[""ArrowUp"",""ArrowLeft""]","value training","canyon","26","{""ArrowUp,ArrowLeft"":26,""ArrowUp,ArrowRight"":10,""ArrowDown,ArrowLeft"":5,""ArrowDown,ArrowRight"":17}","true","ArrowUp,ArrowLeft","false","","","","","","","98","original","1",""
"html-keyboard-response","235","1071866","0.0-4.0-2.0-1.49","pilot_wm_v1","null","1","null","null","true","","","","","","","null","<div style=""font-size:60px;"">+</div>","null","fixation","","","","","","","","","","","","","99","","",""
"learning-instructions","236","1091065","0.0-4.0-3.0-0.0","pilot_wm_v1","null","1","null","null","true","","","","","","","6314.699999999255","<p> Now, you will travel with a friend who will choose whether you go up or down first. </p>
            <p> On these turns, you will just see the animal that they found. You will still get to choose which chest to search for treasure.</p>","","instructions","","","","","","","","","","","","","","","",""
"learning-instructions","237","1103695","0.0-4.0-3.0-0.1","pilot_wm_v1","null","1","null","null","true","","","","","","","1024.4000000003725","<p> In this part, you will also hear beeps from your friend and see special treasure chests that need a password. </p>
            <p> Do your best to count the high beeps <b>and</b> choose between each animals' chests at the same time.</p>
            <img src='./assets/img/instructions/beep_chest.jpg' class='instructions-image'>","","instructions","","","","","","","","","","","","","","","",""
"revaluation","238","1107698","0.0-4.0-4.0-0.0","pilot_wm_v1","null","1","null","null","true","","false","","","","","[919.0999999996275]","./assets/img/canyon/animals/lion.jpg","[""ArrowRight""]","revaluation","canyon","17","{""ArrowUp,ArrowLeft"":26,""ArrowUp,ArrowRight"":10,""ArrowDown,ArrowLeft"":5,""ArrowDown,ArrowRight"":17}","true","ArrowDown,ArrowRight","","17_1","","","","","","0","original","1",""
"html-keyboard-response","239","1108209","0.0-4.0-4.0-1.0","pilot_wm_v1","null","1","null","null","true","","","","","","","null","<div style=""font-size:60px;"">+</div>","null","fixation","","","","","","","","","","","","","","","",""
"revaluation","240","1112223","0.0-4.0-4.0-0.1","pilot_wm_v1","null","1","null","null","true","","false","","","","","[714.1000000005588]","./assets/img/canyon/animals/giraffe.jpg","[""ArrowLeft""]","revaluation","canyon","26","{""ArrowUp,ArrowLeft"":26,""ArrowUp,ArrowRight"":10,""ArrowDown,ArrowLeft"":5,""ArrowDown,ArrowRight"":17}","true","ArrowUp,ArrowLeft","","6_3","","","","","","1","original","1",""
"html-keyboard-response","241","1112733","0.0-4.0-4.0-1.1","pilot_wm_v1","null","1","null","null","true","","","","","","","null","<div style=""font-size:60px;"">+</div>","null","fixation","","","","","","","","","","","","","","","",""
"revaluation","242","1116750","0.0-4.0-4.0-0.2","pilot_wm_v1","null","1","null","null","true","","false","","","","","[481.70000000018626]","./assets/img/canyon/animals/lion.jpg","[""ArrowRight""]","revaluation","canyon","17","{""ArrowUp,ArrowLeft"":26,""ArrowUp,ArrowRight"":10,""ArrowDown,ArrowLeft"":5,""ArrowDown,ArrowRight"":17}","true","ArrowDown,ArrowRight","","15_0","","","","","","2","original","1",""
"html-keyboard-response","243","1117257","0.0-4.0-4.0-1.2","pilot_wm_v1","null","1","null","null","true","","","","","","","null","<div style=""font-size:60px;"">+</div>","null","fixation","","","","","","","","","","","","","","","",""
"revaluation","244","1121287","0.0-4.0-4.0-0.3","pilot_wm_v1","null","1","null","null","true","","false","","","","","[396]","./assets/img/canyon/animals/giraffe.jpg","[""ArrowLeft""]","revaluation","canyon","26","{""ArrowUp,ArrowLeft"":26,""ArrowUp,ArrowRight"":10,""ArrowDown,ArrowLeft"":5,""ArrowDown,ArrowRight"":17}","true","ArrowUp,ArrowLeft","","1_4","","","","","","3","original","1",""
"html-keyboard-response","245","1121799","0.0-4.0-4.0-1.3","pilot_wm_v1","null","1","null","null","true","","","","","","","null","<div style=""font-size:60px;"">+</div>","null","fixation","","","","","","","","","","","","","","","",""
"html-slider-response","246","1124362","0.0-4.0-4.0-2.3-0.3","pilot_wm_v1","null","1","null","null","true","","","","","","","2560","<div style=""width:500px;"">
        <p>What is the password?</p>
        <img src='./assets/img/instructions/beep_chest.jpg' class='instructions-image'>","8","","","","","true","","","","50","8","0","","","","","",""
"revaluation","247","1128374","0.0-4.0-4.0-0.4","pilot_wm_v1","null","1","null","null","true","","false","","","","","[1011]","./assets/img/canyon/animals/giraffe.jpg","[""ArrowLeft""]","revaluation","canyon","26","{""ArrowUp,ArrowLeft"":26,""ArrowUp,ArrowRight"":10,""ArrowDown,ArrowLeft"":5,""ArrowDown,ArrowRight"":17}","true","ArrowUp,ArrowLeft","","8_2","","","","","","4","original","1",""
"html-keyboard-response","248","1128887","0.0-4.0-4.0-1.4","pilot_wm_v1","null","1","null","null","true","","","","","","","null","<div style=""font-size:60px;"">+</div>","null","fixation","","","","","","","","","","","","","","","",""
"revaluation","249","1132901","0.0-4.0-4.0-0.5","pilot_wm_v1","null","1","null","null","true","","false","","","","","[320.3999999994412]","./assets/img/canyon/animals/lion.jpg","[""ArrowRight""]","revaluation","canyon","17","{""ArrowUp,ArrowLeft"":26,""ArrowUp,ArrowRight"":10,""ArrowDown,ArrowLeft"":5,""ArrowDown,ArrowRight"":17}","true","ArrowDown,ArrowRight","","10_3","","","","","","5","original","1",""
"html-keyboard-response","250","1133402","0.0-4.0-4.0-1.5","pilot_wm_v1","null","1","null","null","true","","","","","","","null","<div style=""font-size:60px;"">+</div>","null","fixation","","","","","","","","","","","","","","","",""
"revaluation","251","1137405","0.0-4.0-4.0-0.6","pilot_wm_v1","null","1","null","null","true","","false","","","","","[619.5999999996275]","./assets/img/canyon/animals/lion.jpg","[""ArrowLeft""]","revaluation","canyon","5","{""ArrowUp,ArrowLeft"":26,""ArrowUp,ArrowRight"":10,""ArrowDown,ArrowLeft"":5,""ArrowDown,ArrowRight"":17}","false","ArrowDown,ArrowLeft","","16_0","","","","","","6","original","1",""
"html-keyboard-response","252","1137907","0.0-4.0-4.0-1.6","pilot_wm_v1","null","1","null","null","true","","","","","","","null","<div style=""font-size:60px;"">+</div>","null","fixation","","","","","","","","","","","","","","","",""
"revaluation","253","1141910","0.0-4.0-4.0-0.7","pilot_wm_v1","null","1","null","null","true","","false","","","","","[639.2000000001863]","./assets/img/canyon/animals/lion.jpg","[""ArrowLeft""]","revaluation","canyon","5","{""ArrowUp,ArrowLeft"":26,""ArrowUp,ArrowRight"":10,""ArrowDown,ArrowLeft"":5,""ArrowDown,ArrowRight"":17}","false","ArrowDown,ArrowLeft","","18_0","","","","","","7","original","1",""
"html-keyboard-response","254","1142411","0.0-4.0-4.0-1.7","pilot_wm_v1","null","1","null","null","true","","","","","","","null","<div style=""font-size:60px;"">+</div>","null","fixation","","","","","","","","","","","","","","","",""
"html-slider-response","255","1144831","0.0-4.0-4.0-2.7-0.7","pilot_wm_v1","null","1","null","null","true","","","","","","","2420","<div style=""width:500px;"">
        <p>What is the password?</p>
        <img src='./assets/img/instructions/beep_chest.jpg' class='instructions-image'>","5","","","","","true","","","","50","5","0","","","","","",""
"revaluation","256","1148834","0.0-4.0-4.0-0.8","pilot_wm_v1","null","1","null","null","true","","false","","","","","[1133.300000000745]","./assets/img/canyon/animals/giraffe.jpg","[""ArrowLeft""]","revaluation","canyon","26","{""ArrowUp,ArrowLeft"":26,""ArrowUp,ArrowRight"":10,""ArrowDown,ArrowLeft"":5,""ArrowDown,ArrowRight"":17}","true","ArrowUp,ArrowLeft","","7_4","","","","","","8","original","1",""
"html-keyboard-response","257","1149335","0.0-4.0-4.0-1.8","pilot_wm_v1","null","1","null","null","true","","","","","","","null","<div style=""font-size:60px;"">+</div>","null","fixation","","","","","","","","","","","","","","","",""
"revaluation","258","1153339","0.0-4.0-4.0-0.9","pilot_wm_v1","null","1","null","null","true","","false","","","","","[834.5]","./assets/img/canyon/animals/giraffe.jpg","[""ArrowLeft""]","revaluation","canyon","26","{""ArrowUp,ArrowLeft"":26,""ArrowUp,ArrowRight"":10,""ArrowDown,ArrowLeft"":5,""ArrowDown,ArrowRight"":17}","true","ArrowUp,ArrowLeft","","9_2","","","","","","9","original","1",""
"html-keyboard-response","259","1153840","0.0-4.0-4.0-1.9","pilot_wm_v1","null","1","null","null","true","","","","","","","null","<div style=""font-size:60px;"">+</div>","null","fixation","","","","","","","","","","","","","","","",""
"revaluation","260","1157842","0.0-4.0-4.0-0.10","pilot_wm_v1","null","1","null","null","true","","false","","","","","[418.30000000074506]","./assets/img/canyon/animals/giraffe.jpg","[""ArrowLeft""]","revaluation","canyon","26","{""ArrowUp,ArrowLeft"":26,""ArrowUp,ArrowRight"":10,""ArrowDown,ArrowLeft"":5,""ArrowDown,ArrowRight"":17}","true","ArrowUp,ArrowLeft","","3_0","","","","","","10","original","1",""
"html-keyboard-response","261","1158344","0.0-4.0-4.0-1.10","pilot_wm_v1","null","1","null","null","true","","","","","","","null","<div style=""font-size:60px;"">+</div>","null","fixation","","","","","","","","","","","","","","","",""
"revaluation","262","1162346","0.0-4.0-4.0-0.11","pilot_wm_v1","null","1","null","null","true","","false","","","","","[495.29999999981374]","./assets/img/canyon/animals/giraffe.jpg","[""ArrowLeft""]","revaluation","canyon","26","{""ArrowUp,ArrowLeft"":26,""ArrowUp,ArrowRight"":10,""ArrowDown,ArrowLeft"":5,""ArrowDown,ArrowRight"":17}","true","ArrowUp,ArrowLeft","","2_1","","","","","","11","original","1",""
"html-keyboard-response","263","1162847","0.0-4.0-4.0-1.11","pilot_wm_v1","null","1","null","null","true","","","","","","","null","<div style=""font-size:60px;"">+</div>","null","fixation","","","","","","","","","","","","","","","",""
"html-slider-response","264","1164751","0.0-4.0-4.0-2.11-0.11","pilot_wm_v1","null","1","null","null","true","","","","","","","1903","<div style=""width:500px;"">
        <p>What is the password?</p>
        <img src='./assets/img/instructions/beep_chest.jpg' class='instructions-image'>","7","","","","","true","","","","50","7","0","","","","","",""
"revaluation","265","1168753","0.0-4.0-4.0-0.12","pilot_wm_v1","null","1","null","null","true","","false","","","","","[695]","./assets/img/canyon/animals/giraffe.jpg","[""ArrowLeft""]","revaluation","canyon","26","{""ArrowUp,ArrowLeft"":26,""ArrowUp,ArrowRight"":10,""ArrowDown,ArrowLeft"":5,""ArrowDown,ArrowRight"":17}","true","ArrowUp,ArrowLeft","","5_4","","","","","","12","original","1",""
"html-keyboard-response","266","1169254","0.0-4.0-4.0-1.12","pilot_wm_v1","null","1","null","null","true","","","","","","","null","<div style=""font-size:60px;"">+</div>","null","fixation","","","","","","","","","","","","","","","",""
"revaluation","267","1173256","0.0-4.0-4.0-0.13","pilot_wm_v1","null","1","null","null","true","","false","","","","","[479.90000000037253]","./assets/img/canyon/animals/lion.jpg","[""ArrowRight""]","revaluation","canyon","17","{""ArrowUp,ArrowLeft"":26,""ArrowUp,ArrowRight"":10,""ArrowDown,ArrowLeft"":5,""ArrowDown,ArrowRight"":17}","true","ArrowDown,ArrowRight","","14_4","","","","","","13","original","1",""
"html-keyboard-response","268","1173757","0.0-4.0-4.0-1.13","pilot_wm_v1","null","1","null","null","true","","","","","","","null","<div style=""font-size:60px;"">+</div>","null","fixation","","","","","","","","","","","","","","","",""
"revaluation","269","1177759","0.0-4.0-4.0-0.14","pilot_wm_v1","null","1","null","null","true","","false","","","","","[897.8999999994412]","./assets/img/canyon/animals/lion.jpg","[""ArrowRight""]","revaluation","canyon","17","{""ArrowUp,ArrowLeft"":26,""ArrowUp,ArrowRight"":10,""ArrowDown,ArrowLeft"":5,""ArrowDown,ArrowRight"":17}","true","ArrowDown,ArrowRight","","11_4","","","","","","14","original","1",""
"html-keyboard-response","270","1178261","0.0-4.0-4.0-1.14","pilot_wm_v1","null","1","null","null","true","","","","","","","null","<div style=""font-size:60px;"">+</div>","null","fixation","","","","","","","","","","","","","","","",""
"revaluation","271","1182264","0.0-4.0-4.0-0.15","pilot_wm_v1","null","1","null","null","true","","false","","","","","[423.8999999994412]","./assets/img/canyon/animals/lion.jpg","[""ArrowRight""]","revaluation","canyon","17","{""ArrowUp,ArrowLeft"":26,""ArrowUp,ArrowRight"":10,""ArrowDown,ArrowLeft"":5,""ArrowDown,ArrowRight"":17}","true","ArrowDown,ArrowRight","","12_2","","","","","","15","original","1",""
"html-keyboard-response","272","1182766","0.0-4.0-4.0-1.15","pilot_wm_v1","null","1","null","null","true","","","","","","","null","<div style=""font-size:60px;"">+</div>","null","fixation","","","","","","","","","","","","","","","",""
"html-slider-response","273","1184670","0.0-4.0-4.0-2.15-0.15","pilot_wm_v1","null","1","null","null","true","","","","","","","1903","<div style=""width:500px;"">
        <p>What is the password?</p>
        <img src='./assets/img/instructions/beep_chest.jpg' class='instructions-image'>","14","","","","","true","","","","50","14","0","","","","","",""
"revaluation","274","1188673","0.0-4.0-4.0-0.16","pilot_wm_v1","null","1","null","null","true","","false","","","","","[716.2999999998137]","./assets/img/canyon/animals/giraffe.jpg","[""ArrowLeft""]","revaluation","canyon","26","{""ArrowUp,ArrowLeft"":26,""ArrowUp,ArrowRight"":10,""ArrowDown,ArrowLeft"":5,""ArrowDown,ArrowRight"":17}","true","ArrowUp,ArrowLeft","","4_0","","","","","","16","original","1",""
"html-keyboard-response","275","1189174","0.0-4.0-4.0-1.16","pilot_wm_v1","null","1","null","null","true","","","","","","","null","<div style=""font-size:60px;"">+</div>","null","fixation","","","","","","","","","","","","","","","",""
"revaluation","276","1193177","0.0-4.0-4.0-0.17","pilot_wm_v1","null","1","null","null","true","","false","","","","","[298.90000000037253]","./assets/img/canyon/animals/lion.jpg","[""ArrowRight""]","revaluation","canyon","17","{""ArrowUp,ArrowLeft"":26,""ArrowUp,ArrowRight"":10,""ArrowDown,ArrowLeft"":5,""ArrowDown,ArrowRight"":17}","true","ArrowDown,ArrowRight","","13_2","","","","","","17","original","1",""
"html-keyboard-response","277","1193678","0.0-4.0-4.0-1.17","pilot_wm_v1","null","1","null","null","true","","","","","","","null","<div style=""font-size:60px;"">+</div>","null","fixation","","","","","","","","","","","","","","","",""
"learning-instructions","278","1205771","0.0-4.0-5.0-0.0-0.0","pilot_wm_v1","null","1","null","null","true","","","","","","","780.8999999994412","<p> Time to play the dot game! </p>
            <p> For one minute, click the red dots on the following screen as they appear. </p>
            <p><b> Don't look away, as you will earn bonus for clicking dots</b>. </p>","","instructions","","","","","","","","","","","","","","","",""
"revaluation","279","1265774","0.0-4.0-5.0-1.0-0.0","pilot_wm_v1","null","1","null","null","true","","","","","","","[70,46,54,56,54,66]","","","rest","","60","","","","","","","","","0","60000","","","",""
"learning-instructions","280","1273893","0.0-4.0-6.0-0.0","pilot_wm_v1","null","1","null","null","true","","","","","","","null","<p> You have almost finished this part of the game! </p>
            <p> We are going to ask you to make a few more choices. </p>","","instructions","","","","","","","","","","","","","","","",""
"learning-instructions","281","1289868","0.0-4.0-6.0-0.1","pilot_wm_v1","null","1","null","null","true","","","","","","","null","<p> First, you need to decide whether to go up or down. When you see each picture, use the arrow keys to make your choice. </p>
            <p><b>You will not see which animal you found, but try to get to the one that will give you the most treasure.</b></p>","","instructions","","","","","","","","","","","","","","","",""
"html-keyboard-response","282","1290876","0.0-4.0-7.0-0.0","pilot_wm_v1","null","1","null","null","true","","","","","","","null","<div style=""font-size:100px;color:red;"">Starting in...</div>","null","","","","","","","","","","","","","","","","",""
"html-keyboard-response","283","1291885","0.0-4.0-7.0-1.0","pilot_wm_v1","null","1","null","null","true","","","","","","","null","<div style=""font-size:200px;color:red;"">3</div>","null","","","","","","","","","","","","","","","","",""
"html-keyboard-response","284","1292893","0.0-4.0-7.0-2.0","pilot_wm_v1","null","1","null","null","true","","","","","","","null","<div style=""font-size:200px;color:red;"">2</div>","null","","","","","","","","","","","","","","","","",""
"html-keyboard-response","285","1293902","0.0-4.0-7.0-3.0","pilot_wm_v1","null","1","null","null","true","","","","","","","null","<div style=""font-size:200px;color:red;"">1</div>","null","","","","","","","","","","","","","","","","",""
"revaluation","286","1294345","0.0-4.0-8.0-0.0","pilot_wm_v1","null","1","null","null","true","","false","","","","","[441.6000000005588]","./assets/img/canyon/test/2.jpg","[""ArrowUp""]","first stage test","canyon","0","{""ArrowUp,ArrowLeft"":26,""ArrowUp,ArrowRight"":10,""ArrowDown,ArrowLeft"":5,""ArrowDown,ArrowRight"":17}","true","ArrowUp","false","","","","","","","","original","1",""
"html-keyboard-response","287","1294849","0.0-4.0-8.0-1.0","pilot_wm_v1","null","1","null","null","true","","","","","","","null","<div style=""font-size:60px;"">+</div>","null","fixation","","","","","","","","","","","","","","","",""
"revaluation","288","1295145","0.0-4.0-8.0-0.1","pilot_wm_v1","null","1","null","null","true","","false","","","","","[294.6000000005588]","./assets/img/canyon/test/3.jpg","[""ArrowUp""]","first stage test","canyon","0","{""ArrowUp,ArrowLeft"":26,""ArrowUp,ArrowRight"":10,""ArrowDown,ArrowLeft"":5,""ArrowDown,ArrowRight"":17}","true","ArrowUp","false","","","","","","","","original","1",""
"html-keyboard-response","289","1295655","0.0-4.0-8.0-1.1","pilot_wm_v1","null","1","null","null","true","","","","","","","null","<div style=""font-size:60px;"">+</div>","null","fixation","","","","","","","","","","","","","","","",""
"revaluation","290","1296049","0.0-4.0-8.0-0.2","pilot_wm_v1","null","1","null","null","true","","false","","","","","[392.70000000018626]","./assets/img/canyon/test/1.jpg","[""ArrowUp""]","first stage test","canyon","0","{""ArrowUp,ArrowLeft"":26,""ArrowUp,ArrowRight"":10,""ArrowDown,ArrowLeft"":5,""ArrowDown,ArrowRight"":17}","true","ArrowUp","false","","","","","","","","original","1",""
"html-keyboard-response","291","1296553","0.0-4.0-8.0-1.2","pilot_wm_v1","null","1","null","null","true","","","","","","","null","<div style=""font-size:60px;"">+</div>","null","fixation","","","","","","","","","","","","","","","",""
"revaluation","292","1296876","0.0-4.0-8.0-0.3","pilot_wm_v1","null","1","null","null","true","","false","","","","","[321.29999999981374]","./assets/img/canyon/test/0.jpg","[""ArrowUp""]","first stage test","canyon","0","{""ArrowUp,ArrowLeft"":26,""ArrowUp,ArrowRight"":10,""ArrowDown,ArrowLeft"":5,""ArrowDown,ArrowRight"":17}","true","ArrowUp","false","","","","","","","","original","1",""
"html-keyboard-response","293","1297389","0.0-4.0-8.0-1.3","pilot_wm_v1","null","1","null","null","true","","","","","","","null","<div style=""font-size:60px;"">+</div>","null","fixation","","","","","","","","","","","","","","","",""
"learning-instructions","294","1310742","0.0-4.0-9.0-0.0","pilot_wm_v1","null","1","null","null","true","","","","","","","null","<p> Now you will see the animals again and can search their chests for treasure. </p>
            <p> This time, you will not see how much treasure you earned, but you will earn more bonus money for making better choices. </p>","","instructions","","","","","","","","","","","","","","","",""
"html-keyboard-response","295","1311751","0.0-4.0-10.0-0.0","pilot_wm_v1","null","1","null","null","true","","","","","","","null","<div style=""font-size:100px;color:red;"">Starting in...</div>","null","","","","","","","","","","","","","","","","",""
"html-keyboard-response","296","1312758","0.0-4.0-10.0-1.0","pilot_wm_v1","null","1","null","null","true","","","","","","","null","<div style=""font-size:200px;color:red;"">3</div>","null","","","","","","","","","","","","","","","","",""
"html-keyboard-response","297","1313763","0.0-4.0-10.0-2.0","pilot_wm_v1","null","1","null","null","true","","","","","","","null","<div style=""font-size:200px;color:red;"">2</div>","null","","","","","","","","","","","","","","","","",""
"html-keyboard-response","298","1314771","0.0-4.0-10.0-3.0","pilot_wm_v1","null","1","null","null","true","","","","","","","null","<div style=""font-size:200px;color:red;"">1</div>","null","","","","","","","","","","","","","","","","",""
