"trial_type","trial_index","time_elapsed","internal_node_id","task_version","subject_id","assigned_condition","age","gender","rest","browser_interaction","success","timeout","failed_images","failed_audio","failed_video","rt","stimulus","response","task_part","environment","score","rewardMap","correct","fullState","isCatch","audioStim","slider_start","answer","error","trial_num","condition","order","bonus"
"pavlovia","0","3944","0.0-0.0","pilot_wm_v1","66952c67f557cc6b49a8d91f","7","null","null","false","[{""event"":""blur"",""trial"":1,""time"":5095},{""event"":""focus"",""trial"":2,""time"":27871},{""event"":""blur"",""trial"":2,""time"":36090},{""event"":""focus"",""trial"":2,""time"":42216},{""event"":""blur"",""trial"":2,""time"":42378},{""event"":""focus"",""trial"":2,""time"":46069},{""event"":""fullscreenenter"",""trial"":2,""time"":47510}]","","","","","","","","","","","","","","","","","","","","","","",""
"preload","1","27870","0.0-1.0","pilot_wm_v1","66952c67f557cc6b49a8d91f","7","null","null","false","[{""event"":""blur"",""trial"":1,""time"":5095},{""event"":""focus"",""trial"":2,""time"":27871},{""event"":""blur"",""trial"":2,""time"":36090},{""event"":""focus"",""trial"":2,""time"":42216},{""event"":""blur"",""trial"":2,""time"":42378},{""event"":""focus"",""trial"":2,""time"":46069},{""event"":""fullscreenenter"",""trial"":2,""time"":47510}]","true","false","[]","[]","[]","","","","","","","","","","","","","","","","","",""
"fullscreen","2","48452","0.0-2.0","pilot_wm_v1","66952c67f557cc6b49a8d91f","7","null","null","false","","true","","","","","","","","","","","","","","","","","","","","","",""
"audio-button-response","3","51629","0.0-3.0-0.0-0.0","pilot_wm_v1","66952c67f557cc6b49a8d91f","7","null","null","false","","","","","","","2101","./assets/audio/audiotest/turtle.mp3","2","audio_test","","","","","","","","","","","","","",""
"learning-instructions","4","64016","0.0-3.0-1.0-0.0","pilot_wm_v1","66952c67f557cc6b49a8d91f","7","null","null","false","","","","","","","5303.400000095367","<p> Welcome! Please remember to stay in fullscreen mode and don't click away from the experiment. </p>","","instructions","","","","","","","","","","","","","",""
"learning-instructions","5","76681","0.0-3.0-1.0-0.1","pilot_wm_v1","66952c67f557cc6b49a8d91f","7","null","null","false","","","","","","","4164.899999856949","<p> Today you will be playing a game to earn treasure. </p>
            <p> At the end of the experiment, you will earn a bonus based on how much treasure you find. </p>
            <img src='./assets/img/instructions/treasure.jpg' class='instructions-image'>","","instructions","","","","","","","","","","","","","",""
"learning-instructions","6","89764","0.0-3.0-1.0-0.2","pilot_wm_v1","66952c67f557cc6b49a8d91f","7","null","null","false","","","","","","","4739.800000190735","<p> Animals have hidden treasure in treasure chests. </p>
            <p> You need to first find an animal and then choose which of their treasure chests to search. </p>
            <img src='./assets/img/space/animals/cat.jpg' class='instructions-image'>","","instructions","","","","","","","","","","","","","",""
"learning-instructions","7","104672","0.0-3.0-1.0-0.3","pilot_wm_v1","66952c67f557cc6b49a8d91f","7","null","null","false","","","","","","","1617.7999999523163","<p> In each round, you will search for treasure in a different place. In the real game, there will be two rounds. </p>
            <p> You will begin with a separate, practice round where you will search for treasure in outer space. </p>
            <img src='./assets/img/space/0.jpg' class='instructions-image'>","","instructions","","","","","","","","","","","","","",""
"learning-instructions","8","117405","0.0-3.0-1.0-0.4","pilot_wm_v1","66952c67f557cc6b49a8d91f","7","null","null","false","","","","","","","1216.2000000476837","<p> On every turn, you will see a picture of the place that you are in, but the specific image may be different each time. </p>
            <p> For example, both of these images mean you are in outer space. </p>
            <img src='./assets/img/instructions/outerspace.jpg' class='instructions-image'>","","instructions","","","","","","","","","","","","","",""
"learning-instructions","9","130220","0.0-3.0-1.0-0.5","pilot_wm_v1","66952c67f557cc6b49a8d91f","7","null","null","false","","","","","","","4867.900000095367","<p> You need to decide which direction to travel in. </p>
            <p> You can choose between going <b>up or down</b> by using the arrow keys. </p>
            <img src='./assets/img/instructions/updown.jpg' class='instructions-image'>","","instructions","","","","","","","","","","","","","",""
"learning-instructions","10","141413","0.0-3.0-1.0-0.6","pilot_wm_v1","66952c67f557cc6b49a8d91f","7","null","null","false","","","","","","","2255.100000143051","<p> You will have <b>2 seconds</b> to make your choice. </p>
            <p> If you do not make a choice within 2 seconds, you will not find an animal or earn treasure. </p>
            <img src='./assets/img/instructions/2seconds.jpg' class='instructions-image'>","","instructions","","","","","","","","","","","","","",""
"learning-instructions","11","156050","0.0-3.0-1.0-0.7","pilot_wm_v1","66952c67f557cc6b49a8d91f","7","null","null","false","","","","","","","7495.799999952316","<p> Let’s try practicing that now! </p>
            <p> When you see a picture of the place you are in, press the <b>up</b> key to travel up. </p>
            <img src='./assets/img/instructions/pressUp.jpg' class='instructions-image'>","","instructions","","","","","","","","","","","","","",""
"revaluation","12","160115","0.0-3.0-2.0-0.0","pilot_wm_v1","66952c67f557cc6b49a8d91f","7","null","null","false","","","false","","","","[1164.5]","./assets/img/space/0.jpg","[""ArrowUp""]","first stage practice","space","0","null","null","ArrowUp","false","","","","","","","",""
"html-keyboard-response","13","160620","0.0-3.0-2.0-1.0","pilot_wm_v1","66952c67f557cc6b49a8d91f","7","null","null","false","","","","","","","null","<div style=""font-size:60px;"">+</div>","null","fixation","","","","","","","","","","","","","",""
"revaluation","14","164642","0.0-3.0-2.0-0.1","pilot_wm_v1","66952c67f557cc6b49a8d91f","7","null","null","false","","","false","","","","[1241.5999999046326]","./assets/img/space/1.jpg","[""ArrowUp""]","first stage practice","space","0","null","null","ArrowUp","false","","","","","","","",""
"html-keyboard-response","15","165152","0.0-3.0-2.0-1.1","pilot_wm_v1","66952c67f557cc6b49a8d91f","7","null","null","false","","","","","","","null","<div style=""font-size:60px;"">+</div>","null","fixation","","","","","","","","","","","","","",""
"revaluation","16","169190","0.0-3.0-2.0-0.2","pilot_wm_v1","66952c67f557cc6b49a8d91f","7","null","null","false","","","false","","","","[248]","./assets/img/space/2.jpg","[""ArrowUp""]","first stage practice","space","0","null","null","ArrowUp","false","","","","","","","",""
"html-keyboard-response","17","169692","0.0-3.0-2.0-1.2","pilot_wm_v1","66952c67f557cc6b49a8d91f","7","null","null","false","","","","","","","null","<div style=""font-size:60px;"">+</div>","null","fixation","","","","","","","","","","","","","",""
"learning-instructions","18","177100","0.0-3.0-3.0-0.0","pilot_wm_v1","66952c67f557cc6b49a8d91f","7","null","null","false","","","","","","","2653.699999809265","<p> Great job! Now try pressing the <b>down</b> key to travel down. </p>
            <img src='./assets/img/instructions/pressDown.jpg' class='instructions-image'>","","instructions","","","","","","","","","","","","","",""
"revaluation","19","181123","0.0-3.0-4.0-0.0","pilot_wm_v1","66952c67f557cc6b49a8d91f","7","null","null","false","","","false","","","","[1066.1000001430511]","./assets/img/space/3.jpg","[""ArrowDown""]","first stage practice","space","0","null","null","ArrowDown","false","","","","","","","",""
"html-keyboard-response","20","181637","0.0-3.0-4.0-1.0","pilot_wm_v1","66952c67f557cc6b49a8d91f","7","null","null","false","","","","","","","null","<div style=""font-size:60px;"">+</div>","null","fixation","","","","","","","","","","","","","",""
"revaluation","21","185658","0.0-3.0-4.0-0.1","pilot_wm_v1","66952c67f557cc6b49a8d91f","7","null","null","false","","","false","","","","[464]","./assets/img/space/4.jpg","[""ArrowDown""]","first stage practice","space","0","null","null","ArrowDown","false","","","","","","","",""
"html-keyboard-response","22","186163","0.0-3.0-4.0-1.1","pilot_wm_v1","66952c67f557cc6b49a8d91f","7","null","null","false","","","","","","","null","<div style=""font-size:60px;"">+</div>","null","fixation","","","","","","","","","","","","","",""
"revaluation","23","190180","0.0-3.0-4.0-0.2","pilot_wm_v1","66952c67f557cc6b49a8d91f","7","null","null","false","","","false","","","","[326.39999985694885]","./assets/img/space/5.jpg","[""ArrowDown""]","first stage practice","space","0","null","null","ArrowDown","false","","","","","","","",""
"html-keyboard-response","24","190683","0.0-3.0-4.0-1.2","pilot_wm_v1","66952c67f557cc6b49a8d91f","7","null","null","false","","","","","","","null","<div style=""font-size:60px;"">+</div>","null","fixation","","","","","","","","","","","","","",""
"learning-instructions","25","201799","0.0-3.0-5.0-0.0","pilot_wm_v1","66952c67f557cc6b49a8d91f","7","null","null","false","","","","","","","1205.4000000953674","<p> The animals don’t move, so the animal in the upper part of a place will stay in the upper part of a place, and the animal in the lower part of a place will stay in the lower part of a place. </p>","","instructions","","","","","","","","","","","","","",""
"learning-instructions","26","212534","0.0-3.0-5.0-0.1","pilot_wm_v1","66952c67f557cc6b49a8d91f","7","null","null","false","","","","","","","1547.6999998092651","<p> Each animal has two treasure chests for you to choose from. </p>
            <p> The amount of treasure in each chest can range from <b> 0 to 40 pieces.</b></p>","","instructions","","","","","","","","","","","","","",""
"learning-instructions","27","226480","0.0-3.0-5.0-0.2","pilot_wm_v1","66952c67f557cc6b49a8d91f","7","null","null","false","","","","","","","2673.0999999046326","<p> You should decide which chest to search for treasure by using the <b>left</b> and <b>right</b> arrow keys. </p>
            <p><b> Pay attention to which animal is on the screen, as the animals have different treasure chests. </b></p>
            <img src='./assets/img/instructions/leftright.jpg' class='instructions-image'>","","instructions","","","","","","","","","","","","","",""
"learning-instructions","28","234839","0.0-3.0-5.0-0.3","pilot_wm_v1","66952c67f557cc6b49a8d91f","7","null","null","false","","","","","","","1920.2000000476837","<p> Let’s try practicing that now. </p>
            <p> When you see an animal, choose which chest to search for treasure. </p>
            <img src='./assets/img/instructions/chooseChest.jpg' class='instructions-image'>","","instructions","","","","","","","","","","","","","",""
"revaluation","29","238850","0.0-3.0-6.0-0.0","pilot_wm_v1","66952c67f557cc6b49a8d91f","7","null","null","false","","","false","","","","[963]","./assets/img/space/animals/cat.jpg","[""ArrowLeft""]","second stage practice","space","3","{""ArrowUp,ArrowLeft"":3,""ArrowUp,ArrowRight"":36,""ArrowDown,ArrowLeft"":15,""ArrowDown,ArrowRight"":23}","false","ArrowUp,ArrowLeft","","","","","","","","",""
"html-keyboard-response","30","239352","0.0-3.0-6.0-1.0","pilot_wm_v1","66952c67f557cc6b49a8d91f","7","null","null","false","","","","","","","null","<div style=""font-size:60px;"">+</div>","null","fixation","","","","","","","","","","","","","",""
"revaluation","31","243359","0.0-3.0-6.0-0.1","pilot_wm_v1","66952c67f557cc6b49a8d91f","7","null","null","false","","","false","","","","[417.2000000476837]","./assets/img/space/animals/rabbit.jpg","[""ArrowRight""]","second stage practice","space","23","{""ArrowUp,ArrowLeft"":3,""ArrowUp,ArrowRight"":36,""ArrowDown,ArrowLeft"":15,""ArrowDown,ArrowRight"":23}","true","ArrowDown,ArrowRight","","","","","","","","",""
"html-keyboard-response","32","243864","0.0-3.0-6.0-1.1","pilot_wm_v1","66952c67f557cc6b49a8d91f","7","null","null","false","","","","","","","null","<div style=""font-size:60px;"">+</div>","null","fixation","","","","","","","","","","","","","",""
"revaluation","33","247876","0.0-3.0-6.0-0.2","pilot_wm_v1","66952c67f557cc6b49a8d91f","7","null","null","false","","","false","","","","[463.19999980926514]","./assets/img/space/animals/cat.jpg","[""ArrowLeft""]","second stage practice","space","3","{""ArrowUp,ArrowLeft"":3,""ArrowUp,ArrowRight"":36,""ArrowDown,ArrowLeft"":15,""ArrowDown,ArrowRight"":23}","false","ArrowUp,ArrowLeft","","","","","","","","",""
"html-keyboard-response","34","248385","0.0-3.0-6.0-1.2","pilot_wm_v1","66952c67f557cc6b49a8d91f","7","null","null","false","","","","","","","null","<div style=""font-size:60px;"">+</div>","null","fixation","","","","","","","","","","","","","",""
"revaluation","35","252398","0.0-3.0-6.0-0.3","pilot_wm_v1","66952c67f557cc6b49a8d91f","7","null","null","false","","","false","","","","[433.09999990463257]","./assets/img/space/animals/rabbit.jpg","[""ArrowLeft""]","second stage practice","space","15","{""ArrowUp,ArrowLeft"":3,""ArrowUp,ArrowRight"":36,""ArrowDown,ArrowLeft"":15,""ArrowDown,ArrowRight"":23}","false","ArrowDown,ArrowLeft","","","","","","","","",""
"html-keyboard-response","36","252900","0.0-3.0-6.0-1.3","pilot_wm_v1","66952c67f557cc6b49a8d91f","7","null","null","false","","","","","","","null","<div style=""font-size:60px;"">+</div>","null","fixation","","","","","","","","","","","","","",""
"learning-instructions","37","273120","0.0-3.0-7.0-0.0","pilot_wm_v1","66952c67f557cc6b49a8d91f","7","null","null","false","","","","","","","3232.399999856949","<p> Great job. Now let’s try putting it together. </p>
            <p> On each turn, you will first see a picture to remind you of the place you are in, and you need to choose whether to go up or down. </p>
            <p> Then you will see an animal and choose which of its chests to search for treasure. </p>","","instructions","","","","","","","","","","","","","",""
"learning-instructions","38","283277","0.0-3.0-7.0-0.1","pilot_wm_v1","66952c67f557cc6b49a8d91f","7","null","null","false","","","","","","","1817","<p> When you choose whether to go up or down, try to go to the animal with the chest with the most treasure. </p>
            <p> Try practicing that now! </p>","","instructions","","","","","","","","","","","","","",""
"revaluation","39","289310","0.0-3.0-8.0-0.0","pilot_wm_v1","66952c67f557cc6b49a8d91f","7","null","null","false","","","false","","","","[1436.7999999523163,1215.3000001907349]","./assets/img/space/6.jpg","[""ArrowUp"",""ArrowRight""]","full practice","space","36","{""ArrowUp,ArrowLeft"":3,""ArrowUp,ArrowRight"":36,""ArrowDown,ArrowLeft"":15,""ArrowDown,ArrowRight"":23}","true","ArrowUp,ArrowRight","false","","","","","","","",""
"html-keyboard-response","40","289817","0.0-3.0-8.0-1.0","pilot_wm_v1","66952c67f557cc6b49a8d91f","7","null","null","false","","","","","","","null","<div style=""font-size:60px;"">+</div>","null","fixation","","","","","","","","","","","","","",""
"revaluation","41","295848","0.0-3.0-8.0-0.1","pilot_wm_v1","66952c67f557cc6b49a8d91f","7","null","null","false","","","false","","","","[1228,1542.7999999523163]","./assets/img/space/7.jpg","[""ArrowDown"",""ArrowRight""]","full practice","space","23","{""ArrowUp,ArrowLeft"":3,""ArrowUp,ArrowRight"":36,""ArrowDown,ArrowLeft"":15,""ArrowDown,ArrowRight"":23}","false","ArrowDown,ArrowRight","false","","","","","","","",""
"html-keyboard-response","42","296354","0.0-3.0-8.0-1.1","pilot_wm_v1","66952c67f557cc6b49a8d91f","7","null","null","false","","","","","","","null","<div style=""font-size:60px;"">+</div>","null","fixation","","","","","","","","","","","","","",""
"revaluation","43","302408","0.0-3.0-8.0-0.2","pilot_wm_v1","66952c67f557cc6b49a8d91f","7","null","null","false","","","false","","","","[542.5,1661]","./assets/img/space/8.jpg","[""ArrowUp"",""ArrowLeft""]","full practice","space","3","{""ArrowUp,ArrowLeft"":3,""ArrowUp,ArrowRight"":36,""ArrowDown,ArrowLeft"":15,""ArrowDown,ArrowRight"":23}","false","ArrowUp,ArrowLeft","false","","","","","","","",""
"html-keyboard-response","44","302919","0.0-3.0-8.0-1.2","pilot_wm_v1","66952c67f557cc6b49a8d91f","7","null","null","false","","","","","","","null","<div style=""font-size:60px;"">+</div>","null","fixation","","","","","","","","","","","","","",""
"revaluation","45","308959","0.0-3.0-8.0-0.3","pilot_wm_v1","66952c67f557cc6b49a8d91f","7","null","null","false","","","false","","","","[1520.4000000953674,825.5]","./assets/img/space/9.jpg","[""ArrowUp"",""ArrowRight""]","full practice","space","36","{""ArrowUp,ArrowLeft"":3,""ArrowUp,ArrowRight"":36,""ArrowDown,ArrowLeft"":15,""ArrowDown,ArrowRight"":23}","true","ArrowUp,ArrowRight","false","","","","","","","",""
"html-keyboard-response","46","309471","0.0-3.0-8.0-1.3","pilot_wm_v1","66952c67f557cc6b49a8d91f","7","null","null","false","","","","","","","null","<div style=""font-size:60px;"">+</div>","null","fixation","","","","","","","","","","","","","",""
"revaluation","47","315504","0.0-3.0-8.0-0.4","pilot_wm_v1","66952c67f557cc6b49a8d91f","7","null","null","false","","","false","","","","[382.10000014305115,468]","./assets/img/space/10.jpg","[""ArrowUp"",""ArrowRight""]","full practice","space","36","{""ArrowUp,ArrowLeft"":3,""ArrowUp,ArrowRight"":36,""ArrowDown,ArrowLeft"":15,""ArrowDown,ArrowRight"":23}","true","ArrowUp,ArrowRight","false","","","","","","","",""
"html-keyboard-response","48","316007","0.0-3.0-8.0-1.4","pilot_wm_v1","66952c67f557cc6b49a8d91f","7","null","null","false","","","","","","","null","<div style=""font-size:60px;"">+</div>","null","fixation","","","","","","","","","","","","","",""
"learning-instructions","49","328281","0.0-3.0-9.0-0.0","pilot_wm_v1","66952c67f557cc6b49a8d91f","7","null","null","false","","","","","","","1658.6000001430511","<p> One last thing: sometimes, you will see a robber. The robber can be anywhere in the picture. </p>
            <p> If you do not stop them, you will lose treasure. </p>
            <img src='./assets/img/instructions/robber.jpg' class='instructions-image'>","","instructions","","","","","","","","","","","","","",""
"learning-instructions","50","336647","0.0-3.0-9.0-0.1","pilot_wm_v1","66952c67f557cc6b49a8d91f","7","null","null","false","","","","","","","1105.7999999523163","<p> If you see the robber, you should <b>press the space bar</b> rather than using the arrow keys. </p>
            <p> Try practicing that now! </p>","","instructions","","","","","","","","","","","","","",""
"revaluation","51","340668","0.0-3.0-10.0-0.0","pilot_wm_v1","66952c67f557cc6b49a8d91f","7","null","null","false","","","false","","","","[1106.7999999523163]","./assets/img/space/catch/0.jpg","[""spaceBar""]","catch practice","space","0","{""ArrowUp,ArrowLeft"":3,""ArrowUp,ArrowRight"":36,""ArrowDown,ArrowLeft"":15,""ArrowDown,ArrowRight"":23}","true","spaceBar","true","","","","","","","",""
"html-keyboard-response","52","341180","0.0-3.0-10.0-1.0","pilot_wm_v1","66952c67f557cc6b49a8d91f","7","null","null","false","","","","","","","null","<div style=""font-size:60px;"">+</div>","null","fixation","","","","","","","","","","","","","",""
"revaluation","53","345221","0.0-3.0-10.0-0.1","pilot_wm_v1","66952c67f557cc6b49a8d91f","7","null","null","false","","","false","","","","[671.9000000953674]","./assets/img/space/catch/1.jpg","[""spaceBar""]","catch practice","space","0","{""ArrowUp,ArrowLeft"":3,""ArrowUp,ArrowRight"":36,""ArrowDown,ArrowLeft"":15,""ArrowDown,ArrowRight"":23}","true","spaceBar","true","","","","","","","",""
"html-keyboard-response","54","345731","0.0-3.0-10.0-1.1","pilot_wm_v1","66952c67f557cc6b49a8d91f","7","null","null","false","","","","","","","null","<div style=""font-size:60px;"">+</div>","null","fixation","","","","","","","","","","","","","",""
"revaluation","55","349754","0.0-3.0-10.0-0.2","pilot_wm_v1","66952c67f557cc6b49a8d91f","7","null","null","false","","","false","","","","[735.7000000476837]","./assets/img/space/catch/2.jpg","[""spaceBar""]","catch practice","space","0","{""ArrowUp,ArrowLeft"":3,""ArrowUp,ArrowRight"":36,""ArrowDown,ArrowLeft"":15,""ArrowDown,ArrowRight"":23}","true","spaceBar","true","","","","","","","",""
"html-keyboard-response","56","350266","0.0-3.0-10.0-1.2","pilot_wm_v1","66952c67f557cc6b49a8d91f","7","null","null","false","","","","","","","null","<div style=""font-size:60px;"">+</div>","null","fixation","","","","","","","","","","","","","",""
"learning-instructions","57","357939","0.0-3.0-11.0-0.0","pilot_wm_v1","66952c67f557cc6b49a8d91f","7","null","null","false","","","","","","","2059.4000000953674","<p> Sometimes, you will come across a special kind of treasure chest that requires a password. </p>
            <img src='./assets/img/instructions/beep_chest.jpg' class='instructions-image'>","","instructions","","","","","","","","","","","","","",""
"learning-instructions","58","383471","0.0-3.0-11.0-0.1","pilot_wm_v1","66952c67f557cc6b49a8d91f","7","null","null","false","","","","","","","3792.5999999046326","<p> Your friend will send you the password using a series of beeps so that you can open the chest and earn treasure. </p>
            <p> You will hear two kinds of beeps, a high beep and a low beep. </p>
            <p> You should report the number of high beeps that you heard before seeing the chest. </p>
            <img src='./assets/img/instructions/listen.jpg' class='instructions-image'>","","instructions","","","","","","","","","","","","","",""
"learning-instructions","59","407177","0.0-3.0-11.0-0.2","pilot_wm_v1","66952c67f557cc6b49a8d91f","7","null","null","false","","","","","","","1289.7999999523163","<p> For example, if you hear this series of beeps, you should report 4 as the password using the slider. </p>
            <p> After reporting a password for a chest, you should count the high beeps again starting from 0. </p>
            <p> Let's try practicing that now. </p>","","instructions","","","","","","","","","","","","","",""
"audio-button-response","60","415273","0.0-3.0-12.0-0.0-0.0","pilot_wm_v1","66952c67f557cc6b49a8d91f","7","null","null","false","","","","","","","null","./assets/audio/beeps/practice_6.wav","null","","","","","","","","","","","","","","",""
"html-slider-response","61","420193","0.0-3.0-12.0-0.0-1.0","pilot_wm_v1","66952c67f557cc6b49a8d91f","7","null","null","false","","","","","","","4890","<div style=""width:500px;"">
        <p>What is the password?</p>
        <img src='./assets/img/instructions/beep_chest.jpg' class='instructions-image'>","6","beep chest","","","","false","","","","50","0","6","","","",""
"comp-q","62","428036","0.0-3.0-12.0-0.0-2.0","pilot_wm_v1","66952c67f557cc6b49a8d91f","7","null","null","false","","","","","","","3566.5","<p>Correct! There were 6 high pitched beeps before you saw the chest. </p>","0","beep answer","","","","","","","","","","","","","",""
"audio-button-response","63","436112","0.0-3.0-12.0-0.1-0.1","pilot_wm_v1","66952c67f557cc6b49a8d91f","7","null","null","false","","","","","","","null","./assets/audio/beeps/practice_4.wav","null","","","","","","","","","","","","","","",""
"html-slider-response","64","440851","0.0-3.0-12.0-0.1-1.1","pilot_wm_v1","66952c67f557cc6b49a8d91f","7","null","null","false","","","","","","","4734","<div style=""width:500px;"">
        <p>What is the password?</p>
        <img src='./assets/img/instructions/beep_chest.jpg' class='instructions-image'>","4","beep chest","","","","false","","","","50","0","4","","","",""
"comp-q","65","446915","0.0-3.0-12.0-0.1-2.1","pilot_wm_v1","66952c67f557cc6b49a8d91f","7","null","null","false","","","","","","","1850.1000001430511","<p>Correct! There were 4 high pitched beeps before you saw the chest. </p>","0","beep answer","","","","","","","","","","","","","",""
"learning-instructions","66","458530","0.0-3.0-13.0-0.0","pilot_wm_v1","66952c67f557cc6b49a8d91f","7","null","null","false","","","","","","","1234.7999999523163","<p> Good job! In the real game we will not tell you if you entered the right password. </p>
            <p> Do your best, the treasure you earn from these chests will also give you extra bonus money. </p>","","instructions","","","","","","","","","","","","","",""
"learning-instructions","67","464940","0.0-3.0-15.0-0.0-0.0","pilot_wm_v1","66952c67f557cc6b49a8d91f","7","null","null","false","","","","","","","1120.2000000476837","<p> Now, you will practice a shortened version of the game to get a sense of how it all fits together. </p>","","instructions","","","","","","","","","","","","","",""
"learning-instructions","68","470147","0.0-3.0-15.0-0.0-0.1","pilot_wm_v1","66952c67f557cc6b49a8d91f","7","null","null","false","","","","","","","1960.9000000953674","<p>This time you are searching for treasure in outer space.</p>","","instructions","","","","","","","","","","","","","",""
"learning-instructions","69","487670","0.0-3.0-15.0-1.0-0.0","pilot_wm_v1","66952c67f557cc6b49a8d91f","7","null","null","false","","","","","","","2630.0999999046326","<p> Remember, when you see a picture of the place, use the up and down keys to <b>find an animal</b>.</p>
            <p> When you encounter an animal, you should use the left and right keys to <b>select a treasure chest</b>.</p>
            <p> Don't forget to look out for the robber! </p>","","instructions","","","","","","","","","","","","","",""
"revaluation","70","493713","0.0-3.0-15.0-2.0-0.0","pilot_wm_v1","66952c67f557cc6b49a8d91f","7","null","null","false","","","false","","","","[1230.0999999046326,855.9000000953674]","./assets/img/space/11.jpg","[""ArrowUp"",""ArrowRight""]","practice block","space","36","{""ArrowUp,ArrowLeft"":3,""ArrowUp,ArrowRight"":36,""ArrowDown,ArrowLeft"":15,""ArrowDown,ArrowRight"":23}","true","ArrowUp,ArrowRight","false","","","","","","","",""
"html-keyboard-response","71","494227","0.0-3.0-15.0-2.0-1.0","pilot_wm_v1","66952c67f557cc6b49a8d91f","7","null","null","false","","","","","","","null","<div style=""font-size:60px;"">+</div>","null","fixation","","","","","","","","","","","","","",""
"revaluation","72","500267","0.0-3.0-15.0-2.0-0.1","pilot_wm_v1","66952c67f557cc6b49a8d91f","7","null","null","false","","","false","","","","[896.1000001430511,361.09999990463257]","./assets/img/space/12.jpg","[""ArrowUp"",""ArrowRight""]","practice block","space","36","{""ArrowUp,ArrowLeft"":3,""ArrowUp,ArrowRight"":36,""ArrowDown,ArrowLeft"":15,""ArrowDown,ArrowRight"":23}","true","ArrowUp,ArrowRight","false","","","","","","","",""
"html-keyboard-response","73","500782","0.0-3.0-15.0-2.0-1.1","pilot_wm_v1","66952c67f557cc6b49a8d91f","7","null","null","false","","","","","","","null","<div style=""font-size:60px;"">+</div>","null","fixation","","","","","","","","","","","","","",""
"revaluation","74","506811","0.0-3.0-15.0-2.0-0.2","pilot_wm_v1","66952c67f557cc6b49a8d91f","7","null","null","false","","","false","","","","[356.09999990463257,410.59999990463257]","./assets/img/space/13.jpg","[""ArrowUp"",""ArrowRight""]","practice block","space","36","{""ArrowUp,ArrowLeft"":3,""ArrowUp,ArrowRight"":36,""ArrowDown,ArrowLeft"":15,""ArrowDown,ArrowRight"":23}","true","ArrowUp,ArrowRight","false","","","","","","","",""
"html-keyboard-response","75","507325","0.0-3.0-15.0-2.0-1.2","pilot_wm_v1","66952c67f557cc6b49a8d91f","7","null","null","false","","","","","","","null","<div style=""font-size:60px;"">+</div>","null","fixation","","","","","","","","","","","","","",""
"revaluation","76","513358","0.0-3.0-15.0-2.0-0.3","pilot_wm_v1","66952c67f557cc6b49a8d91f","7","null","null","false","","","false","","","","[462,706.7000000476837]","./assets/img/space/14.jpg","[""ArrowUp"",""ArrowRight""]","practice block","space","36","{""ArrowUp,ArrowLeft"":3,""ArrowUp,ArrowRight"":36,""ArrowDown,ArrowLeft"":15,""ArrowDown,ArrowRight"":23}","true","ArrowUp,ArrowRight","false","","","","","","","",""
"html-keyboard-response","77","513866","0.0-3.0-15.0-2.0-1.3","pilot_wm_v1","66952c67f557cc6b49a8d91f","7","null","null","false","","","","","","","null","<div style=""font-size:60px;"">+</div>","null","fixation","","","","","","","","","","","","","",""
"revaluation","78","519909","0.0-3.0-15.0-2.0-0.4","pilot_wm_v1","66952c67f557cc6b49a8d91f","7","null","null","false","","","false","","","","[831.5999999046326,550]","./assets/img/space/11.jpg","[""ArrowUp"",""ArrowRight""]","practice block","space","36","{""ArrowUp,ArrowLeft"":3,""ArrowUp,ArrowRight"":36,""ArrowDown,ArrowLeft"":15,""ArrowDown,ArrowRight"":23}","true","ArrowUp,ArrowRight","false","","","","","","","",""
"html-keyboard-response","79","520412","0.0-3.0-15.0-2.0-1.4","pilot_wm_v1","66952c67f557cc6b49a8d91f","7","null","null","false","","","","","","","null","<div style=""font-size:60px;"">+</div>","null","fixation","","","","","","","","","","","","","",""
"revaluation","80","526458","0.0-3.0-15.0-2.0-0.5","pilot_wm_v1","66952c67f557cc6b49a8d91f","7","null","null","false","","","false","","","","[404.40000009536743,387.30000019073486]","./assets/img/space/12.jpg","[""ArrowUp"",""ArrowRight""]","practice block","space","36","{""ArrowUp,ArrowLeft"":3,""ArrowUp,ArrowRight"":36,""ArrowDown,ArrowLeft"":15,""ArrowDown,ArrowRight"":23}","true","ArrowUp,ArrowRight","false","","","","","","","",""
"html-keyboard-response","81","526961","0.0-3.0-15.0-2.0-1.5","pilot_wm_v1","66952c67f557cc6b49a8d91f","7","null","null","false","","","","","","","null","<div style=""font-size:60px;"">+</div>","null","fixation","","","","","","","","","","","","","",""
"revaluation","82","533006","0.0-3.0-15.0-2.0-0.6","pilot_wm_v1","66952c67f557cc6b49a8d91f","7","null","null","false","","","false","","","","[361.7999999523163,402.10000014305115]","./assets/img/space/13.jpg","[""ArrowUp"",""ArrowRight""]","practice block","space","36","{""ArrowUp,ArrowLeft"":3,""ArrowUp,ArrowRight"":36,""ArrowDown,ArrowLeft"":15,""ArrowDown,ArrowRight"":23}","true","ArrowUp,ArrowRight","false","","","","","","","",""
"html-keyboard-response","83","533510","0.0-3.0-15.0-2.0-1.6","pilot_wm_v1","66952c67f557cc6b49a8d91f","7","null","null","false","","","","","","","null","<div style=""font-size:60px;"">+</div>","null","fixation","","","","","","","","","","","","","",""
"revaluation","84","539557","0.0-3.0-15.0-2.0-0.7","pilot_wm_v1","66952c67f557cc6b49a8d91f","7","null","null","false","","","false","","","","[1167.2999999523163,407.7000000476837]","./assets/img/space/14.jpg","[""ArrowUp"",""ArrowRight""]","practice block","space","36","{""ArrowUp,ArrowLeft"":3,""ArrowUp,ArrowRight"":36,""ArrowDown,ArrowLeft"":15,""ArrowDown,ArrowRight"":23}","true","ArrowUp,ArrowRight","false","","","","","","","",""
"html-keyboard-response","85","540060","0.0-3.0-15.0-2.0-1.7","pilot_wm_v1","66952c67f557cc6b49a8d91f","7","null","null","false","","","","","","","null","<div style=""font-size:60px;"">+</div>","null","fixation","","","","","","","","","","","","","",""
"revaluation","86","544076","0.0-3.0-15.0-2.0-0.8","pilot_wm_v1","66952c67f557cc6b49a8d91f","7","null","null","false","","","false","","","","[902.2000000476837]","./assets/img/space/catch/3.jpg","[""spaceBar""]","practice block","space","0","{""ArrowUp,ArrowLeft"":3,""ArrowUp,ArrowRight"":36,""ArrowDown,ArrowLeft"":15,""ArrowDown,ArrowRight"":23}","true","spaceBar","true","","","","","","","",""
"html-keyboard-response","87","544579","0.0-3.0-15.0-2.0-1.8","pilot_wm_v1","66952c67f557cc6b49a8d91f","7","null","null","false","","","","","","","null","<div style=""font-size:60px;"">+</div>","null","fixation","","","","","","","","","","","","","",""
"learning-instructions","88","559663","0.0-3.0-15.0-3.0-0.0","pilot_wm_v1","66952c67f557cc6b49a8d91f","7","null","null","false","","","","","","","978.2999999523163","<p> Now, you will travel with a friend who will choose whether you go up or down first. </p>
            <p> On these turns, you will just see the animal that they found. You will still get to choose which chest to search for treasure.</p>","","instructions","","","","","","","","","","","","","",""
"learning-instructions","89","572522","0.0-3.0-15.0-3.0-0.1","pilot_wm_v1","66952c67f557cc6b49a8d91f","7","null","null","false","","","","","","","1156.8000001907349","<p> In this part, you will also hear beeps from your friend and see special treasure chests that need a password. </p>
            <p> Do your best to count the high beeps <b>and</b> choose between each animals' chests at the same time.</p>
            <img src='./assets/img/instructions/beep_chest.jpg' class='instructions-image'>","","instructions","","","","","","","","","","","","","",""
"revaluation","90","576545","0.0-3.0-15.0-4.0-0.0","pilot_wm_v1","66952c67f557cc6b49a8d91f","7","null","null","false","","","true","","","","[]","./assets/img/space/animals/cat.jpg","[]","practice block","space","-5","{""ArrowUp,ArrowLeft"":3,""ArrowUp,ArrowRight"":36,""ArrowDown,ArrowLeft"":15,""ArrowDown,ArrowRight"":23}","false","ArrowUp","","[""20_0""]","","","","0","","",""
"html-keyboard-response","91","577058","0.0-3.0-15.0-4.0-1.0","pilot_wm_v1","66952c67f557cc6b49a8d91f","7","null","null","false","","","","","","","null","<div style=""font-size:60px;"">+</div>","null","fixation","","","","","","","","","","","","","",""
"revaluation","92","581084","0.0-3.0-15.0-4.0-0.1","pilot_wm_v1","66952c67f557cc6b49a8d91f","7","null","null","false","","","false","","","","[467.09999990463257]","./assets/img/space/animals/rabbit.jpg","[""ArrowRight""]","practice block","space","23","{""ArrowUp,ArrowLeft"":3,""ArrowUp,ArrowRight"":36,""ArrowDown,ArrowLeft"":15,""ArrowDown,ArrowRight"":23}","true","ArrowDown,ArrowRight","","[""21_1""]","","","","1","","",""
"html-keyboard-response","93","581587","0.0-3.0-15.0-4.0-1.1","pilot_wm_v1","66952c67f557cc6b49a8d91f","7","null","null","false","","","","","","","null","<div style=""font-size:60px;"">+</div>","null","fixation","","","","","","","","","","","","","",""
"revaluation","94","585625","0.0-3.0-15.0-4.0-0.2","pilot_wm_v1","66952c67f557cc6b49a8d91f","7","null","null","false","","","false","","","","[475.7999999523163]","./assets/img/space/animals/rabbit.jpg","[""ArrowRight""]","practice block","space","23","{""ArrowUp,ArrowLeft"":3,""ArrowUp,ArrowRight"":36,""ArrowDown,ArrowLeft"":15,""ArrowDown,ArrowRight"":23}","true","ArrowDown,ArrowRight","","[""22_3""]","","","","2","","",""
"html-keyboard-response","95","586132","0.0-3.0-15.0-4.0-1.2","pilot_wm_v1","66952c67f557cc6b49a8d91f","7","null","null","false","","","","","","","null","<div style=""font-size:60px;"">+</div>","null","fixation","","","","","","","","","","","","","",""
"revaluation","96","590161","0.0-3.0-15.0-4.0-0.3","pilot_wm_v1","66952c67f557cc6b49a8d91f","7","null","null","false","","","false","","","","[536.7000000476837]","./assets/img/space/animals/cat.jpg","[""ArrowRight""]","practice block","space","36","{""ArrowUp,ArrowLeft"":3,""ArrowUp,ArrowRight"":36,""ArrowDown,ArrowLeft"":15,""ArrowDown,ArrowRight"":23}","true","ArrowUp,ArrowRight","","[""19_0""]","","","","3","","",""
"html-keyboard-response","97","590663","0.0-3.0-15.0-4.0-1.3","pilot_wm_v1","66952c67f557cc6b49a8d91f","7","null","null","false","","","","","","","null","<div style=""font-size:60px;"">+</div>","null","fixation","","","","","","","","","","","","","",""
"html-slider-response","98","596617","0.0-3.0-15.0-4.0-2.3-0.3","pilot_wm_v1","66952c67f557cc6b49a8d91f","7","null","null","false","","","","","","","5946","<div style=""width:500px;"">
        <p>What is the password?</p>
        <img src='./assets/img/instructions/beep_chest.jpg' class='instructions-image'>","4","beep chest","","","","false","","","","50","82","78","","","",""
"learning-instructions","99","604833","0.0-3.0-15.0-6.0-0.0","pilot_wm_v1","66952c67f557cc6b49a8d91f","7","null","null","false","","","","","","","null","<p> You have almost finished this part of the game! </p>
            <p> We are going to ask you to make a few more choices. </p>","","instructions","","","","","","","","","","","","","",""
"learning-instructions","100","620983","0.0-3.0-15.0-6.0-0.1","pilot_wm_v1","66952c67f557cc6b49a8d91f","7","null","null","false","","","","","","","null","<p> First, you need to decide whether to go up or down. When you see each picture, use the arrow keys to make your choice. </p>
            <p><b>You will not see which animal you found, but try to get to the one that will give you the most treasure.</b></p>","","instructions","","","","","","","","","","","","","",""
"html-keyboard-response","101","621999","0.0-3.0-15.0-7.0-0.0","pilot_wm_v1","66952c67f557cc6b49a8d91f","7","null","null","false","","","","","","","null","<div style=""font-size:100px;color:red;"">Starting in...</div>","null","","","","","","","","","","","","","","",""
"html-keyboard-response","102","623004","0.0-3.0-15.0-7.0-1.0","pilot_wm_v1","66952c67f557cc6b49a8d91f","7","null","null","false","","","","","","","null","<div style=""font-size:200px;color:red;"">3</div>","null","","","","","","","","","","","","","","",""
"html-keyboard-response","103","624009","0.0-3.0-15.0-7.0-2.0","pilot_wm_v1","66952c67f557cc6b49a8d91f","7","null","null","false","","","","","","","null","<div style=""font-size:200px;color:red;"">2</div>","null","","","","","","","","","","","","","","",""
"html-keyboard-response","104","625023","0.0-3.0-15.0-7.0-3.0","pilot_wm_v1","66952c67f557cc6b49a8d91f","7","null","null","false","","","","","","","null","<div style=""font-size:200px;color:red;"">1</div>","null","","","","","","","","","","","","","","",""
"revaluation","105","625409","0.0-3.0-15.0-8.0","pilot_wm_v1","66952c67f557cc6b49a8d91f","7","null","null","false","","","false","","","","[370.7999999523163]","./assets/img/space/15.jpg","[""ArrowUp""]","practice block","space","0","{""ArrowUp,ArrowLeft"":3,""ArrowUp,ArrowRight"":36,""ArrowDown,ArrowLeft"":15,""ArrowDown,ArrowRight"":23}","true","ArrowUp","false","","","","","","","",""
"html-keyboard-response","106","625914","0.0-3.0-15.0-9.0","pilot_wm_v1","66952c67f557cc6b49a8d91f","7","null","null","false","","","","","","","null","<div style=""font-size:60px;"">+</div>","null","fixation","","","","","","","","","","","","","",""
"learning-instructions","107","639403","0.0-3.0-15.0-10.0-0.0","pilot_wm_v1","66952c67f557cc6b49a8d91f","7","null","null","false","","","","","","","null","<p> Now you will see the animals again and can search their chests for treasure. </p>
            <p> This time, you will not see how much treasure you earned, but you will earn more bonus money for making better choices. </p>","","instructions","","","","","","","","","","","","","",""
"html-keyboard-response","108","640412","0.0-3.0-15.0-11.0-0.0","pilot_wm_v1","66952c67f557cc6b49a8d91f","7","null","null","false","","","","","","","null","<div style=""font-size:100px;color:red;"">Starting in...</div>","null","","","","","","","","","","","","","","",""
"html-keyboard-response","109","641423","0.0-3.0-15.0-11.0-1.0","pilot_wm_v1","66952c67f557cc6b49a8d91f","7","null","null","false","","","","","","","null","<div style=""font-size:200px;color:red;"">3</div>","null","","","","","","","","","","","","","","",""
"html-keyboard-response","110","642430","0.0-3.0-15.0-11.0-2.0","pilot_wm_v1","66952c67f557cc6b49a8d91f","7","null","null","false","","","","","","","null","<div style=""font-size:200px;color:red;"">2</div>","null","","","","","","","","","","","","","","",""
"html-keyboard-response","111","643443","0.0-3.0-15.0-11.0-3.0","pilot_wm_v1","66952c67f557cc6b49a8d91f","7","null","null","false","","","","","","","null","<div style=""font-size:200px;color:red;"">1</div>","null","","","","","","","","","","","","","","",""
"revaluation","112","643803","0.0-3.0-15.0-12.0-0.0","pilot_wm_v1","66952c67f557cc6b49a8d91f","7","null","null","false","","","false","","","","[354.09999990463257]","./assets/img/space/animals/cat.jpg","[""ArrowRight""]","practice block","space","0","{""ArrowUp,ArrowLeft"":3,""ArrowUp,ArrowRight"":36,""ArrowDown,ArrowLeft"":15,""ArrowDown,ArrowRight"":23}","true","ArrowUp,ArrowRight","","","","","","","","",""
"html-keyboard-response","113","644322","0.0-3.0-15.0-12.0-1.0","pilot_wm_v1","66952c67f557cc6b49a8d91f","7","null","null","false","","","","","","","null","<div style=""font-size:60px;"">+</div>","null","fixation","","","","","","","","","","","","","",""
"revaluation","114","644891","0.0-3.0-15.0-12.0-0.1","pilot_wm_v1","66952c67f557cc6b49a8d91f","7","null","null","false","","","false","","","","[559.9000000953674]","./assets/img/space/animals/rabbit.jpg","[""ArrowRight""]","practice block","space","0","{""ArrowUp,ArrowLeft"":3,""ArrowUp,ArrowRight"":36,""ArrowDown,ArrowLeft"":15,""ArrowDown,ArrowRight"":23}","true","ArrowDown,ArrowRight","","","","","","","","",""
"html-keyboard-response","115","645397","0.0-3.0-15.0-12.0-1.1","pilot_wm_v1","66952c67f557cc6b49a8d91f","7","null","null","false","","","","","","","null","<div style=""font-size:60px;"">+</div>","null","fixation","","","","","","","","","","","","","",""
"learning-instructions","116","651770","0.0-3.0-16.0-0.0","pilot_wm_v1","66952c67f557cc6b49a8d91f","7","null","null","false","","","","","","","1704.8000001907349","<p> Before you start, we're going to ask you a few questions about how the game works. </p>","","instructions","","","","","","","","","","","","","",""
"comp-q","117","658969","0.0-3.0-17.0-0.0-0.0","pilot_wm_v1","66952c67f557cc6b49a8d91f","7","null","null","false","","","","","","","1540.2000000476837","<p> <b> True or False? </b> </p>
            <p> There can be 50 pieces of treasure in a given animal's chest. </p>","1","comp_question","","","","true","","","","","","","","","",""
"comp-q","118","667174","0.0-3.0-17.0-0.0-1.0","pilot_wm_v1","66952c67f557cc6b49a8d91f","7","null","null","false","","","","","","","1456","<p> <b> That's right! </b> The amount of treasure in each chest can range from 0 to 40 pieces. </p>","0","comp_answer","","","","","","","","","","","","","",""
"comp-q","119","675595","0.0-3.0-17.0-0.1-0.1","pilot_wm_v1","66952c67f557cc6b49a8d91f","7","null","null","false","","","","","","","1221.7000000476837","<p> <b> True or False? </b> </p><p> In this game, all animals have the same amount of treasure in their left and right chests. </p>","1","comp_question","","","","true","","","","","","","","","",""
"comp-q","120","682946","0.0-3.0-17.0-0.1-1.1","pilot_wm_v1","66952c67f557cc6b49a8d91f","7","null","null","false","","","","","","","2059.2999999523163","<p> <b> That's right! </b> Animals have different amounts of treasure in their treasure chests. </p>","0","comp_answer","","","","","","","","","","","","","",""
"comp-q","121","689832","0.0-3.0-17.0-0.2-0.2","pilot_wm_v1","66952c67f557cc6b49a8d91f","7","null","null","false","","","","","","","961.0999999046326","<p> <b> True or False? </b> </p><p> The same animal will always be there if you go up in the same place. </p>","0","comp_question","","","","true","","","","","","","","","",""
"comp-q","122","697558","0.0-3.0-17.0-0.2-1.2","pilot_wm_v1","66952c67f557cc6b49a8d91f","7","null","null","false","","","","","","","1200.3999998569489","<p> <b> That's right! </b> One animal lives in the upper part and one lives in the lower part of every place. </p>","0","comp_answer","","","","","","","","","","","","","",""
"comp-q","123","706996","0.0-3.0-17.0-0.3-0.3","pilot_wm_v1","66952c67f557cc6b49a8d91f","7","null","null","false","","","","","","","3843.899999856949","<p> <b> True or False? </b> </p><p> If you see a different picture, it means you are in a new place. </p>","1","comp_question","","","","true","","","","","","","","","",""
"comp-q","124","722238","0.0-3.0-17.0-0.3-1.3","pilot_wm_v1","66952c67f557cc6b49a8d91f","7","null","null","false","","","","","","","3897.5","<p> <b> That's right! </b> Lots of different images may show the same place. For example,  you may see three different images that all remind you that you are in outer space. </p>","0","comp_answer","","","","","","","","","","","","","",""
"learning-instructions","125","733808","0.0-3.0-18.0-0.0","pilot_wm_v1","66952c67f557cc6b49a8d91f","7","null","null","false","","","","","","","1612.7000000476837","<p> Good job. Remember to do your best because the amount of treasure you earn will be converted into bonus money. </p>
            <p> It’s time to start the real game! </p>","","instructions","","","","","","","","","","","","","",""
"learning-instructions","126","738263","0.0-4.0-0.0-0.0","pilot_wm_v1","66952c67f557cc6b49a8d91f","7","null","null","false","","","","","","","1719.1000001430511","<p> This time you are searching for treasure in the <b>ocean</b>.</p>","","instructions","","","","","","","","","","","","","",""
"learning-instructions","127","757076","0.0-4.0-0.0-0.1","pilot_wm_v1","66952c67f557cc6b49a8d91f","7","null","null","false","","","","","","","1382.3000001907349","<p><b>New</b> animals with <b>new</b> treasure chests live here. You need to explore to discover where the animal with the best treasure chest is.</p>
                    <p> Like before, once you figure out which animal has the chest with the most treasure, you should try to get to that animal and select that chest! </p>","","instructions","","","","","","","","","","","","","",""
"learning-instructions","128","773358","0.0-4.0-1.0-0.0","pilot_wm_v1","66952c67f557cc6b49a8d91f","7","null","null","false","","","","","","","1551.2000000476837","<p> Remember, when you see a picture of the place, use the up and down keys to <b>find an animal</b>.</p>
            <p> When you encounter an animal, you should use the left and right keys to <b>select a treasure chest</b>.</p>
            <p> Don't forget to look out for the robber! </p>","","instructions","","","","","","","","","","","","","",""
"revaluation","129","779388","0.0-4.0-2.0-0.0","pilot_wm_v1","66952c67f557cc6b49a8d91f","7","null","null","false","","","false","","","","[1211.6999998092651,583.6000001430511]","./assets/img/ocean/memory/0.jpg","[""ArrowUp"",""ArrowRight""]","value training","ocean","10","{""ArrowUp,ArrowLeft"":23,""ArrowUp,ArrowRight"":10,""ArrowDown,ArrowLeft"":8,""ArrowDown,ArrowRight"":30}","false","ArrowUp,ArrowRight","false","","","","","0","original","1",""
"html-keyboard-response","130","779901","0.0-4.0-2.0-1.0","pilot_wm_v1","66952c67f557cc6b49a8d91f","7","null","null","false","","","","","","","null","<div style=""font-size:60px;"">+</div>","null","fixation","","","","","","","","","","","1","","",""
"revaluation","131","785924","0.0-4.0-2.0-0.1","pilot_wm_v1","66952c67f557cc6b49a8d91f","7","null","null","false","","","false","","","","[253.29999995231628,753.2000000476837]","./assets/img/ocean/memory/18.jpg","[""ArrowDown"",""ArrowLeft""]","value training","ocean","8","{""ArrowUp,ArrowLeft"":23,""ArrowUp,ArrowRight"":10,""ArrowDown,ArrowLeft"":8,""ArrowDown,ArrowRight"":30}","false","ArrowDown,ArrowLeft","false","","","","","2","original","1",""
"html-keyboard-response","132","786436","0.0-4.0-2.0-1.1","pilot_wm_v1","66952c67f557cc6b49a8d91f","7","null","null","false","","","","","","","null","<div style=""font-size:60px;"">+</div>","null","fixation","","","","","","","","","","","3","","",""
"revaluation","133","792459","0.0-4.0-2.0-0.2","pilot_wm_v1","66952c67f557cc6b49a8d91f","7","null","null","false","","","false","","","","[294.40000009536743,345.2999999523163]","./assets/img/ocean/memory/37.jpg","[""ArrowUp"",""ArrowLeft""]","value training","ocean","23","{""ArrowUp,ArrowLeft"":23,""ArrowUp,ArrowRight"":10,""ArrowDown,ArrowLeft"":8,""ArrowDown,ArrowRight"":30}","false","ArrowUp,ArrowLeft","false","","","","","4","original","1",""
"html-keyboard-response","134","792971","0.0-4.0-2.0-1.2","pilot_wm_v1","66952c67f557cc6b49a8d91f","7","null","null","false","","","","","","","null","<div style=""font-size:60px;"">+</div>","null","fixation","","","","","","","","","","","5","","",""
"revaluation","135","798999","0.0-4.0-2.0-0.3","pilot_wm_v1","66952c67f557cc6b49a8d91f","7","null","null","false","","","false","","","","[288.89999985694885,409.5]","./assets/img/ocean/memory/35.jpg","[""ArrowDown"",""ArrowRight""]","value training","ocean","30","{""ArrowUp,ArrowLeft"":23,""ArrowUp,ArrowRight"":10,""ArrowDown,ArrowLeft"":8,""ArrowDown,ArrowRight"":30}","true","ArrowDown,ArrowRight","false","","","","","6","original","1",""
"html-keyboard-response","136","799512","0.0-4.0-2.0-1.3","pilot_wm_v1","66952c67f557cc6b49a8d91f","7","null","null","false","","","","","","","null","<div style=""font-size:60px;"">+</div>","null","fixation","","","","","","","","","","","7","","",""
"revaluation","137","805555","0.0-4.0-2.0-0.4","pilot_wm_v1","66952c67f557cc6b49a8d91f","7","null","null","false","","","false","","","","[259.60000014305115,345.89999985694885]","./assets/img/ocean/memory/9.jpg","[""ArrowDown"",""ArrowRight""]","value training","ocean","30","{""ArrowUp,ArrowLeft"":23,""ArrowUp,ArrowRight"":10,""ArrowDown,ArrowLeft"":8,""ArrowDown,ArrowRight"":30}","true","ArrowDown,ArrowRight","false","","","","","8","original","1",""
"html-keyboard-response","138","806058","0.0-4.0-2.0-1.4","pilot_wm_v1","66952c67f557cc6b49a8d91f","7","null","null","false","","","","","","","null","<div style=""font-size:60px;"">+</div>","null","fixation","","","","","","","","","","","9","","",""
"revaluation","139","812106","0.0-4.0-2.0-0.5","pilot_wm_v1","66952c67f557cc6b49a8d91f","7","null","null","false","","","false","","","","[497.2999999523163,421]","./assets/img/ocean/memory/7.jpg","[""ArrowDown"",""ArrowRight""]","value training","ocean","30","{""ArrowUp,ArrowLeft"":23,""ArrowUp,ArrowRight"":10,""ArrowDown,ArrowLeft"":8,""ArrowDown,ArrowRight"":30}","true","ArrowDown,ArrowRight","false","","","","","10","original","1",""
"html-keyboard-response","140","812609","0.0-4.0-2.0-1.5","pilot_wm_v1","66952c67f557cc6b49a8d91f","7","null","null","false","","","","","","","null","<div style=""font-size:60px;"">+</div>","null","fixation","","","","","","","","","","","11","","",""
"revaluation","141","816641","0.0-4.0-2.0-0.6","pilot_wm_v1","66952c67f557cc6b49a8d91f","7","null","null","false","","","false","","","","[273.10000014305115]","./assets/img/ocean/catch/0.jpg","[""ArrowDown""]","value training","ocean","-10","{""ArrowUp,ArrowLeft"":23,""ArrowUp,ArrowRight"":10,""ArrowDown,ArrowLeft"":8,""ArrowDown,ArrowRight"":30}","false","ArrowDown","true","","","","","12","original","1",""
"html-keyboard-response","142","817144","0.0-4.0-2.0-1.6","pilot_wm_v1","66952c67f557cc6b49a8d91f","7","null","null","false","","","","","","","null","<div style=""font-size:60px;"">+</div>","null","fixation","","","","","","","","","","","13","","",""
"revaluation","143","821162","0.0-4.0-2.0-0.7","pilot_wm_v1","66952c67f557cc6b49a8d91f","7","null","null","false","","","false","","","","[638.2000000476837]","./assets/img/ocean/catch/5.jpg","[""ArrowDown""]","value training","ocean","-10","{""ArrowUp,ArrowLeft"":23,""ArrowUp,ArrowRight"":10,""ArrowDown,ArrowLeft"":8,""ArrowDown,ArrowRight"":30}","false","ArrowDown","true","","","","","14","original","1",""
"html-keyboard-response","144","821665","0.0-4.0-2.0-1.7","pilot_wm_v1","66952c67f557cc6b49a8d91f","7","null","null","false","","","","","","","null","<div style=""font-size:60px;"">+</div>","null","fixation","","","","","","","","","","","15","","",""
"revaluation","145","827708","0.0-4.0-2.0-0.8","pilot_wm_v1","66952c67f557cc6b49a8d91f","7","null","null","false","","","false","","","","[1235.5,400.7000000476837]","./assets/img/ocean/memory/24.jpg","[""ArrowDown"",""ArrowRight""]","value training","ocean","30","{""ArrowUp,ArrowLeft"":23,""ArrowUp,ArrowRight"":10,""ArrowDown,ArrowLeft"":8,""ArrowDown,ArrowRight"":30}","true","ArrowDown,ArrowRight","false","","","","","16","original","1",""
"html-keyboard-response","146","828211","0.0-4.0-2.0-1.8","pilot_wm_v1","66952c67f557cc6b49a8d91f","7","null","null","false","","","","","","","null","<div style=""font-size:60px;"">+</div>","null","fixation","","","","","","","","","","","17","","",""
"revaluation","147","834258","0.0-4.0-2.0-0.9","pilot_wm_v1","66952c67f557cc6b49a8d91f","7","null","null","false","","","false","","","","[975,363.19999980926514]","./assets/img/ocean/memory/27.jpg","[""ArrowDown"",""ArrowRight""]","value training","ocean","30","{""ArrowUp,ArrowLeft"":23,""ArrowUp,ArrowRight"":10,""ArrowDown,ArrowLeft"":8,""ArrowDown,ArrowRight"":30}","true","ArrowDown,ArrowRight","false","","","","","18","original","1",""
"html-keyboard-response","148","834760","0.0-4.0-2.0-1.9","pilot_wm_v1","66952c67f557cc6b49a8d91f","7","null","null","false","","","","","","","null","<div style=""font-size:60px;"">+</div>","null","fixation","","","","","","","","","","","19","","",""
"revaluation","149","840807","0.0-4.0-2.0-0.10","pilot_wm_v1","66952c67f557cc6b49a8d91f","7","null","null","false","","","false","","","","[287,349.40000009536743]","./assets/img/ocean/memory/17.jpg","[""ArrowDown"",""ArrowRight""]","value training","ocean","30","{""ArrowUp,ArrowLeft"":23,""ArrowUp,ArrowRight"":10,""ArrowDown,ArrowLeft"":8,""ArrowDown,ArrowRight"":30}","true","ArrowDown,ArrowRight","false","","","","","20","original","1",""
"html-keyboard-response","150","841310","0.0-4.0-2.0-1.10","pilot_wm_v1","66952c67f557cc6b49a8d91f","7","null","null","false","","","","","","","null","<div style=""font-size:60px;"">+</div>","null","fixation","","","","","","","","","","","21","","",""
"revaluation","151","847342","0.0-4.0-2.0-0.11","pilot_wm_v1","66952c67f557cc6b49a8d91f","7","null","null","false","","","false","","","","[814.2999999523163,342.10000014305115]","./assets/img/ocean/memory/11.jpg","[""ArrowDown"",""ArrowRight""]","value training","ocean","30","{""ArrowUp,ArrowLeft"":23,""ArrowUp,ArrowRight"":10,""ArrowDown,ArrowLeft"":8,""ArrowDown,ArrowRight"":30}","true","ArrowDown,ArrowRight","false","","","","","22","original","1",""
"html-keyboard-response","152","847844","0.0-4.0-2.0-1.11","pilot_wm_v1","66952c67f557cc6b49a8d91f","7","null","null","false","","","","","","","null","<div style=""font-size:60px;"">+</div>","null","fixation","","","","","","","","","","","23","","",""
"revaluation","153","853893","0.0-4.0-2.0-0.12","pilot_wm_v1","66952c67f557cc6b49a8d91f","7","null","null","false","","","false","","","","[749.2999999523163,396.5]","./assets/img/ocean/memory/19.jpg","[""ArrowDown"",""ArrowRight""]","value training","ocean","30","{""ArrowUp,ArrowLeft"":23,""ArrowUp,ArrowRight"":10,""ArrowDown,ArrowLeft"":8,""ArrowDown,ArrowRight"":30}","true","ArrowDown,ArrowRight","false","","","","","24","original","1",""
"html-keyboard-response","154","854397","0.0-4.0-2.0-1.12","pilot_wm_v1","66952c67f557cc6b49a8d91f","7","null","null","false","","","","","","","null","<div style=""font-size:60px;"">+</div>","null","fixation","","","","","","","","","","","25","","",""
"revaluation","155","860430","0.0-4.0-2.0-0.13","pilot_wm_v1","66952c67f557cc6b49a8d91f","7","null","null","false","","","false","","","","[903,340.69999980926514]","./assets/img/ocean/memory/38.jpg","[""ArrowDown"",""ArrowRight""]","value training","ocean","30","{""ArrowUp,ArrowLeft"":23,""ArrowUp,ArrowRight"":10,""ArrowDown,ArrowLeft"":8,""ArrowDown,ArrowRight"":30}","true","ArrowDown,ArrowRight","false","","","","","26","original","1",""
"html-keyboard-response","156","860933","0.0-4.0-2.0-1.13","pilot_wm_v1","66952c67f557cc6b49a8d91f","7","null","null","false","","","","","","","null","<div style=""font-size:60px;"">+</div>","null","fixation","","","","","","","","","","","27","","",""
"revaluation","157","866980","0.0-4.0-2.0-0.14","pilot_wm_v1","66952c67f557cc6b49a8d91f","7","null","null","false","","","false","","","","[384.30000019073486,532.7999999523163]","./assets/img/ocean/memory/19.jpg","[""ArrowDown"",""ArrowRight""]","value training","ocean","30","{""ArrowUp,ArrowLeft"":23,""ArrowUp,ArrowRight"":10,""ArrowDown,ArrowLeft"":8,""ArrowDown,ArrowRight"":30}","true","ArrowDown,ArrowRight","false","","","","","28","original","1",""
"html-keyboard-response","158","867482","0.0-4.0-2.0-1.14","pilot_wm_v1","66952c67f557cc6b49a8d91f","7","null","null","false","","","","","","","null","<div style=""font-size:60px;"">+</div>","null","fixation","","","","","","","","","","","29","","",""
"revaluation","159","873529","0.0-4.0-2.0-0.15","pilot_wm_v1","66952c67f557cc6b49a8d91f","7","null","null","false","","","false","","","","[789.9000000953674,550.6999998092651]","./assets/img/ocean/memory/38.jpg","[""ArrowDown"",""ArrowRight""]","value training","ocean","30","{""ArrowUp,ArrowLeft"":23,""ArrowUp,ArrowRight"":10,""ArrowDown,ArrowLeft"":8,""ArrowDown,ArrowRight"":30}","true","ArrowDown,ArrowRight","false","","","","","30","original","1",""
"html-keyboard-response","160","874032","0.0-4.0-2.0-1.15","pilot_wm_v1","66952c67f557cc6b49a8d91f","7","null","null","false","","","","","","","null","<div style=""font-size:60px;"">+</div>","null","fixation","","","","","","","","","","","31","","",""
"revaluation","161","880080","0.0-4.0-2.0-0.16","pilot_wm_v1","66952c67f557cc6b49a8d91f","7","null","null","false","","","false","","","","[799.4000000953674,378]","./assets/img/ocean/memory/23.jpg","[""ArrowDown"",""ArrowRight""]","value training","ocean","30","{""ArrowUp,ArrowLeft"":23,""ArrowUp,ArrowRight"":10,""ArrowDown,ArrowLeft"":8,""ArrowDown,ArrowRight"":30}","true","ArrowDown,ArrowRight","false","","","","","32","original","1",""
"html-keyboard-response","162","880583","0.0-4.0-2.0-1.16","pilot_wm_v1","66952c67f557cc6b49a8d91f","7","null","null","false","","","","","","","null","<div style=""font-size:60px;"">+</div>","null","fixation","","","","","","","","","","","33","","",""
"revaluation","163","886622","0.0-4.0-2.0-0.17","pilot_wm_v1","66952c67f557cc6b49a8d91f","7","null","null","false","","","false","","","","[733.2999999523163,420.2000000476837]","./assets/img/ocean/memory/34.jpg","[""ArrowDown"",""ArrowRight""]","value training","ocean","30","{""ArrowUp,ArrowLeft"":23,""ArrowUp,ArrowRight"":10,""ArrowDown,ArrowLeft"":8,""ArrowDown,ArrowRight"":30}","true","ArrowDown,ArrowRight","false","","","","","34","original","1",""
"html-keyboard-response","164","887126","0.0-4.0-2.0-1.17","pilot_wm_v1","66952c67f557cc6b49a8d91f","7","null","null","false","","","","","","","null","<div style=""font-size:60px;"">+</div>","null","fixation","","","","","","","","","","","35","","",""
"revaluation","165","893159","0.0-4.0-2.0-0.18","pilot_wm_v1","66952c67f557cc6b49a8d91f","7","null","null","false","","","false","","","","[859.4000000953674,396.39999985694885]","./assets/img/ocean/memory/36.jpg","[""ArrowDown"",""ArrowRight""]","value training","ocean","30","{""ArrowUp,ArrowLeft"":23,""ArrowUp,ArrowRight"":10,""ArrowDown,ArrowLeft"":8,""ArrowDown,ArrowRight"":30}","true","ArrowDown,ArrowRight","false","","","","","36","original","1",""
"html-keyboard-response","166","893662","0.0-4.0-2.0-1.18","pilot_wm_v1","66952c67f557cc6b49a8d91f","7","null","null","false","","","","","","","null","<div style=""font-size:60px;"">+</div>","null","fixation","","","","","","","","","","","37","","",""
"revaluation","167","899695","0.0-4.0-2.0-0.19","pilot_wm_v1","66952c67f557cc6b49a8d91f","7","null","null","false","","","false","","","","[858.7999999523163,445.7000000476837]","./assets/img/ocean/memory/9.jpg","[""ArrowDown"",""ArrowRight""]","value training","ocean","30","{""ArrowUp,ArrowLeft"":23,""ArrowUp,ArrowRight"":10,""ArrowDown,ArrowLeft"":8,""ArrowDown,ArrowRight"":30}","true","ArrowDown,ArrowRight","false","","","","","38","original","1",""
"html-keyboard-response","168","900200","0.0-4.0-2.0-1.19","pilot_wm_v1","66952c67f557cc6b49a8d91f","7","null","null","false","","","","","","","null","<div style=""font-size:60px;"">+</div>","null","fixation","","","","","","","","","","","39","","",""
"revaluation","169","904228","0.0-4.0-2.0-0.20","pilot_wm_v1","66952c67f557cc6b49a8d91f","7","null","null","false","","","false","","","","[1000.4000000953674]","./assets/img/ocean/catch/3.jpg","[""spaceBar""]","value training","ocean","0","{""ArrowUp,ArrowLeft"":23,""ArrowUp,ArrowRight"":10,""ArrowDown,ArrowLeft"":8,""ArrowDown,ArrowRight"":30}","true","spaceBar","true","","","","","40","original","1",""
"html-keyboard-response","170","904731","0.0-4.0-2.0-1.20","pilot_wm_v1","66952c67f557cc6b49a8d91f","7","null","null","false","","","","","","","null","<div style=""font-size:60px;"">+</div>","null","fixation","","","","","","","","","","","41","","",""
"revaluation","171","908747","0.0-4.0-2.0-0.21","pilot_wm_v1","66952c67f557cc6b49a8d91f","7","null","null","false","","","false","","","","[736.3000001907349]","./assets/img/ocean/catch/4.jpg","[""spaceBar""]","value training","ocean","0","{""ArrowUp,ArrowLeft"":23,""ArrowUp,ArrowRight"":10,""ArrowDown,ArrowLeft"":8,""ArrowDown,ArrowRight"":30}","true","spaceBar","true","","","","","42","original","1",""
"html-keyboard-response","172","909250","0.0-4.0-2.0-1.21","pilot_wm_v1","66952c67f557cc6b49a8d91f","7","null","null","false","","","","","","","null","<div style=""font-size:60px;"">+</div>","null","fixation","","","","","","","","","","","43","","",""
"revaluation","173","915290","0.0-4.0-2.0-0.22","pilot_wm_v1","66952c67f557cc6b49a8d91f","7","null","null","false","","","false","","","","[711.2999999523163,473]","./assets/img/ocean/memory/3.jpg","[""ArrowDown"",""ArrowRight""]","value training","ocean","30","{""ArrowUp,ArrowLeft"":23,""ArrowUp,ArrowRight"":10,""ArrowDown,ArrowLeft"":8,""ArrowDown,ArrowRight"":30}","true","ArrowDown,ArrowRight","false","","","","","44","original","1",""
"html-keyboard-response","174","915794","0.0-4.0-2.0-1.22","pilot_wm_v1","66952c67f557cc6b49a8d91f","7","null","null","false","","","","","","","null","<div style=""font-size:60px;"">+</div>","null","fixation","","","","","","","","","","","45","","",""
"revaluation","175","921840","0.0-4.0-2.0-0.23","pilot_wm_v1","66952c67f557cc6b49a8d91f","7","null","null","false","","","false","","","","[795,518]","./assets/img/ocean/memory/39.jpg","[""ArrowDown"",""ArrowRight""]","value training","ocean","30","{""ArrowUp,ArrowLeft"":23,""ArrowUp,ArrowRight"":10,""ArrowDown,ArrowLeft"":8,""ArrowDown,ArrowRight"":30}","true","ArrowDown,ArrowRight","false","","","","","46","original","1",""
"html-keyboard-response","176","922346","0.0-4.0-2.0-1.23","pilot_wm_v1","66952c67f557cc6b49a8d91f","7","null","null","false","","","","","","","null","<div style=""font-size:60px;"">+</div>","null","fixation","","","","","","","","","","","47","","",""
"revaluation","177","928394","0.0-4.0-2.0-0.24","pilot_wm_v1","66952c67f557cc6b49a8d91f","7","null","null","false","","","false","","","","[859.5,537.5999999046326]","./assets/img/ocean/memory/11.jpg","[""ArrowDown"",""ArrowRight""]","value training","ocean","30","{""ArrowUp,ArrowLeft"":23,""ArrowUp,ArrowRight"":10,""ArrowDown,ArrowLeft"":8,""ArrowDown,ArrowRight"":30}","true","ArrowDown,ArrowRight","false","","","","","48","original","1",""
"html-keyboard-response","178","928912","0.0-4.0-2.0-1.24","pilot_wm_v1","66952c67f557cc6b49a8d91f","7","null","null","false","","","","","","","null","<div style=""font-size:60px;"">+</div>","null","fixation","","","","","","","","","","","49","","",""
"revaluation","179","934960","0.0-4.0-2.0-0.25","pilot_wm_v1","66952c67f557cc6b49a8d91f","7","null","null","false","","","false","","","","[681.7000000476837,551.7999999523163]","./assets/img/ocean/memory/29.jpg","[""ArrowDown"",""ArrowRight""]","value training","ocean","30","{""ArrowUp,ArrowLeft"":23,""ArrowUp,ArrowRight"":10,""ArrowDown,ArrowLeft"":8,""ArrowDown,ArrowRight"":30}","true","ArrowDown,ArrowRight","false","","","","","50","original","1",""
"html-keyboard-response","180","935463","0.0-4.0-2.0-1.25","pilot_wm_v1","66952c67f557cc6b49a8d91f","7","null","null","false","","","","","","","null","<div style=""font-size:60px;"">+</div>","null","fixation","","","","","","","","","","","51","","",""
"revaluation","181","941507","0.0-4.0-2.0-0.26","pilot_wm_v1","66952c67f557cc6b49a8d91f","7","null","null","false","","","false","","","","[940,517.7000000476837]","./assets/img/ocean/memory/4.jpg","[""ArrowDown"",""ArrowRight""]","value training","ocean","30","{""ArrowUp,ArrowLeft"":23,""ArrowUp,ArrowRight"":10,""ArrowDown,ArrowLeft"":8,""ArrowDown,ArrowRight"":30}","true","ArrowDown,ArrowRight","false","","","","","52","original","1",""
"html-keyboard-response","182","942011","0.0-4.0-2.0-1.26","pilot_wm_v1","66952c67f557cc6b49a8d91f","7","null","null","false","","","","","","","null","<div style=""font-size:60px;"">+</div>","null","fixation","","","","","","","","","","","53","","",""
"revaluation","183","948045","0.0-4.0-2.0-0.27","pilot_wm_v1","66952c67f557cc6b49a8d91f","7","null","null","false","","","false","","","","[818.9000000953674,437.7999999523163]","./assets/img/ocean/memory/17.jpg","[""ArrowDown"",""ArrowRight""]","value training","ocean","30","{""ArrowUp,ArrowLeft"":23,""ArrowUp,ArrowRight"":10,""ArrowDown,ArrowLeft"":8,""ArrowDown,ArrowRight"":30}","true","ArrowDown,ArrowRight","false","","","","","54","original","1",""
"html-keyboard-response","184","948549","0.0-4.0-2.0-1.27","pilot_wm_v1","66952c67f557cc6b49a8d91f","7","null","null","false","","","","","","","null","<div style=""font-size:60px;"">+</div>","null","fixation","","","","","","","","","","","55","","",""
"revaluation","185","954595","0.0-4.0-2.0-0.28","pilot_wm_v1","66952c67f557cc6b49a8d91f","7","null","null","false","","","false","","","","[613.9000000953674,375.59999990463257]","./assets/img/ocean/memory/18.jpg","[""ArrowDown"",""ArrowRight""]","value training","ocean","30","{""ArrowUp,ArrowLeft"":23,""ArrowUp,ArrowRight"":10,""ArrowDown,ArrowLeft"":8,""ArrowDown,ArrowRight"":30}","true","ArrowDown,ArrowRight","false","","","","","56","original","1",""
"html-keyboard-response","186","955099","0.0-4.0-2.0-1.28","pilot_wm_v1","66952c67f557cc6b49a8d91f","7","null","null","false","","","","","","","null","<div style=""font-size:60px;"">+</div>","null","fixation","","","","","","","","","","","57","","",""
"revaluation","187","961116","0.0-4.0-2.0-0.29","pilot_wm_v1","66952c67f557cc6b49a8d91f","7","null","null","false","","","false","","","","[824.2000000476837,441.59999990463257]","./assets/img/ocean/memory/24.jpg","[""ArrowDown"",""ArrowRight""]","value training","ocean","30","{""ArrowUp,ArrowLeft"":23,""ArrowUp,ArrowRight"":10,""ArrowDown,ArrowLeft"":8,""ArrowDown,ArrowRight"":30}","true","ArrowDown,ArrowRight","false","","","","","58","original","1",""
"html-keyboard-response","188","961619","0.0-4.0-2.0-1.29","pilot_wm_v1","66952c67f557cc6b49a8d91f","7","null","null","false","","","","","","","null","<div style=""font-size:60px;"">+</div>","null","fixation","","","","","","","","","","","59","","",""
"revaluation","189","967653","0.0-4.0-2.0-0.30","pilot_wm_v1","66952c67f557cc6b49a8d91f","7","null","null","false","","","false","","","","[954,546.4000000953674]","./assets/img/ocean/memory/35.jpg","[""ArrowDown"",""ArrowRight""]","value training","ocean","30","{""ArrowUp,ArrowLeft"":23,""ArrowUp,ArrowRight"":10,""ArrowDown,ArrowLeft"":8,""ArrowDown,ArrowRight"":30}","true","ArrowDown,ArrowRight","false","","","","","60","original","1",""
"html-keyboard-response","190","968156","0.0-4.0-2.0-1.30","pilot_wm_v1","66952c67f557cc6b49a8d91f","7","null","null","false","","","","","","","null","<div style=""font-size:60px;"">+</div>","null","fixation","","","","","","","","","","","61","","",""
"revaluation","191","974189","0.0-4.0-2.0-0.31","pilot_wm_v1","66952c67f557cc6b49a8d91f","7","null","null","false","","","false","","","","[678.5,409.90000009536743]","./assets/img/ocean/memory/23.jpg","[""ArrowDown"",""ArrowRight""]","value training","ocean","30","{""ArrowUp,ArrowLeft"":23,""ArrowUp,ArrowRight"":10,""ArrowDown,ArrowLeft"":8,""ArrowDown,ArrowRight"":30}","true","ArrowDown,ArrowRight","false","","","","","62","original","1",""
"html-keyboard-response","192","974692","0.0-4.0-2.0-1.31","pilot_wm_v1","66952c67f557cc6b49a8d91f","7","null","null","false","","","","","","","null","<div style=""font-size:60px;"">+</div>","null","fixation","","","","","","","","","","","63","","",""
"revaluation","193","980738","0.0-4.0-2.0-0.32","pilot_wm_v1","66952c67f557cc6b49a8d91f","7","null","null","false","","","false","","","","[456.7000000476837,346.2000000476837]","./assets/img/ocean/memory/4.jpg","[""ArrowDown"",""ArrowRight""]","value training","ocean","30","{""ArrowUp,ArrowLeft"":23,""ArrowUp,ArrowRight"":10,""ArrowDown,ArrowLeft"":8,""ArrowDown,ArrowRight"":30}","true","ArrowDown,ArrowRight","false","","","","","64","original","1",""
"html-keyboard-response","194","981241","0.0-4.0-2.0-1.32","pilot_wm_v1","66952c67f557cc6b49a8d91f","7","null","null","false","","","","","","","null","<div style=""font-size:60px;"">+</div>","null","fixation","","","","","","","","","","","65","","",""
"revaluation","195","987287","0.0-4.0-2.0-0.33","pilot_wm_v1","66952c67f557cc6b49a8d91f","7","null","null","false","","","false","","","","[453.2999999523163,263.09999990463257]","./assets/img/ocean/memory/39.jpg","[""ArrowDown"",""ArrowRight""]","value training","ocean","30","{""ArrowUp,ArrowLeft"":23,""ArrowUp,ArrowRight"":10,""ArrowDown,ArrowLeft"":8,""ArrowDown,ArrowRight"":30}","true","ArrowDown,ArrowRight","false","","","","","66","original","1",""
"html-keyboard-response","196","987790","0.0-4.0-2.0-1.33","pilot_wm_v1","66952c67f557cc6b49a8d91f","7","null","null","false","","","","","","","null","<div style=""font-size:60px;"">+</div>","null","fixation","","","","","","","","","","","67","","",""
"revaluation","197","993837","0.0-4.0-2.0-0.34","pilot_wm_v1","66952c67f557cc6b49a8d91f","7","null","null","false","","","false","","","","[617.8000001907349,324.10000014305115]","./assets/img/ocean/memory/27.jpg","[""ArrowDown"",""ArrowRight""]","value training","ocean","30","{""ArrowUp,ArrowLeft"":23,""ArrowUp,ArrowRight"":10,""ArrowDown,ArrowLeft"":8,""ArrowDown,ArrowRight"":30}","true","ArrowDown,ArrowRight","false","","","","","68","original","1",""
"html-keyboard-response","198","994339","0.0-4.0-2.0-1.34","pilot_wm_v1","66952c67f557cc6b49a8d91f","7","null","null","false","","","","","","","null","<div style=""font-size:60px;"">+</div>","null","fixation","","","","","","","","","","","69","","",""
"revaluation","199","1000373","0.0-4.0-2.0-0.35","pilot_wm_v1","66952c67f557cc6b49a8d91f","7","null","null","false","","","false","","","","[370.7999999523163,277.60000014305115]","./assets/img/ocean/memory/34.jpg","[""ArrowDown"",""ArrowRight""]","value training","ocean","30","{""ArrowUp,ArrowLeft"":23,""ArrowUp,ArrowRight"":10,""ArrowDown,ArrowLeft"":8,""ArrowDown,ArrowRight"":30}","true","ArrowDown,ArrowRight","false","","","","","70","original","1",""
"html-keyboard-response","200","1000876","0.0-4.0-2.0-1.35","pilot_wm_v1","66952c67f557cc6b49a8d91f","7","null","null","false","","","","","","","null","<div style=""font-size:60px;"">+</div>","null","fixation","","","","","","","","","","","71","","",""
"revaluation","201","1004889","0.0-4.0-2.0-0.36","pilot_wm_v1","66952c67f557cc6b49a8d91f","7","null","null","false","","","false","","","","[636.2999999523163]","./assets/img/ocean/catch/2.jpg","[""spaceBar""]","value training","ocean","0","{""ArrowUp,ArrowLeft"":23,""ArrowUp,ArrowRight"":10,""ArrowDown,ArrowLeft"":8,""ArrowDown,ArrowRight"":30}","true","spaceBar","true","","","","","72","original","1",""
"html-keyboard-response","202","1005391","0.0-4.0-2.0-1.36","pilot_wm_v1","66952c67f557cc6b49a8d91f","7","null","null","false","","","","","","","null","<div style=""font-size:60px;"">+</div>","null","fixation","","","","","","","","","","","73","","",""
"revaluation","203","1011434","0.0-4.0-2.0-0.37","pilot_wm_v1","66952c67f557cc6b49a8d91f","7","null","null","false","","","false","","","","[718.8999998569489,507.7000000476837]","./assets/img/ocean/memory/3.jpg","[""ArrowDown"",""ArrowRight""]","value training","ocean","30","{""ArrowUp,ArrowLeft"":23,""ArrowUp,ArrowRight"":10,""ArrowDown,ArrowLeft"":8,""ArrowDown,ArrowRight"":30}","true","ArrowDown,ArrowRight","false","","","","","74","original","1",""
"html-keyboard-response","204","1011937","0.0-4.0-2.0-1.37","pilot_wm_v1","66952c67f557cc6b49a8d91f","7","null","null","false","","","","","","","null","<div style=""font-size:60px;"">+</div>","null","fixation","","","","","","","","","","","75","","",""
"revaluation","205","1017985","0.0-4.0-2.0-0.38","pilot_wm_v1","66952c67f557cc6b49a8d91f","7","null","null","false","","","false","","","","[610.7000000476837,884.8999998569489]","./assets/img/ocean/memory/29.jpg","[""ArrowDown"",""ArrowRight""]","value training","ocean","30","{""ArrowUp,ArrowLeft"":23,""ArrowUp,ArrowRight"":10,""ArrowDown,ArrowLeft"":8,""ArrowDown,ArrowRight"":30}","true","ArrowDown,ArrowRight","false","","","","","76","original","1",""
"html-keyboard-response","206","1018488","0.0-4.0-2.0-1.38","pilot_wm_v1","66952c67f557cc6b49a8d91f","7","null","null","false","","","","","","","null","<div style=""font-size:60px;"">+</div>","null","fixation","","","","","","","","","","","77","","",""
"revaluation","207","1022506","0.0-4.0-2.0-0.39","pilot_wm_v1","66952c67f557cc6b49a8d91f","7","null","null","false","","","false","","","","[730.1999998092651]","./assets/img/ocean/catch/1.jpg","[""spaceBar""]","value training","ocean","0","{""ArrowUp,ArrowLeft"":23,""ArrowUp,ArrowRight"":10,""ArrowDown,ArrowLeft"":8,""ArrowDown,ArrowRight"":30}","true","spaceBar","true","","","","","78","original","1",""
"html-keyboard-response","208","1023009","0.0-4.0-2.0-1.39","pilot_wm_v1","66952c67f557cc6b49a8d91f","7","null","null","false","","","","","","","null","<div style=""font-size:60px;"">+</div>","null","fixation","","","","","","","","","","","79","","",""
"revaluation","209","1029057","0.0-4.0-2.0-0.40","pilot_wm_v1","66952c67f557cc6b49a8d91f","7","null","null","false","","","false","","","","[949.7000000476837,425.89999985694885]","./assets/img/ocean/memory/0.jpg","[""ArrowDown"",""ArrowRight""]","value training","ocean","30","{""ArrowUp,ArrowLeft"":23,""ArrowUp,ArrowRight"":10,""ArrowDown,ArrowLeft"":8,""ArrowDown,ArrowRight"":30}","true","ArrowDown,ArrowRight","false","","","","","80","original","1",""
"html-keyboard-response","210","1029560","0.0-4.0-2.0-1.40","pilot_wm_v1","66952c67f557cc6b49a8d91f","7","null","null","false","","","","","","","null","<div style=""font-size:60px;"">+</div>","null","fixation","","","","","","","","","","","81","","",""
"revaluation","211","1035606","0.0-4.0-2.0-0.41","pilot_wm_v1","66952c67f557cc6b49a8d91f","7","null","null","false","","","false","","","","[711,374]","./assets/img/ocean/memory/14.jpg","[""ArrowDown"",""ArrowRight""]","value training","ocean","30","{""ArrowUp,ArrowLeft"":23,""ArrowUp,ArrowRight"":10,""ArrowDown,ArrowLeft"":8,""ArrowDown,ArrowRight"":30}","true","ArrowDown,ArrowRight","false","","","","","82","original","1",""
"html-keyboard-response","212","1036110","0.0-4.0-2.0-1.41","pilot_wm_v1","66952c67f557cc6b49a8d91f","7","null","null","false","","","","","","","null","<div style=""font-size:60px;"">+</div>","null","fixation","","","","","","","","","","","83","","",""
"revaluation","213","1042155","0.0-4.0-2.0-0.42","pilot_wm_v1","66952c67f557cc6b49a8d91f","7","null","null","false","","","false","","","","[953.5,510.7999999523163]","./assets/img/ocean/memory/20.jpg","[""ArrowDown"",""ArrowRight""]","value training","ocean","30","{""ArrowUp,ArrowLeft"":23,""ArrowUp,ArrowRight"":10,""ArrowDown,ArrowLeft"":8,""ArrowDown,ArrowRight"":30}","true","ArrowDown,ArrowRight","false","","","","","84","original","1",""
"html-keyboard-response","214","1042659","0.0-4.0-2.0-1.42","pilot_wm_v1","66952c67f557cc6b49a8d91f","7","null","null","false","","","","","","","null","<div style=""font-size:60px;"">+</div>","null","fixation","","","","","","","","","","","85","","",""
"revaluation","215","1048704","0.0-4.0-2.0-0.43","pilot_wm_v1","66952c67f557cc6b49a8d91f","7","null","null","false","","","false","","","","[640.6999998092651,321.89999985694885]","./assets/img/ocean/memory/7.jpg","[""ArrowDown"",""ArrowRight""]","value training","ocean","30","{""ArrowUp,ArrowLeft"":23,""ArrowUp,ArrowRight"":10,""ArrowDown,ArrowLeft"":8,""ArrowDown,ArrowRight"":30}","true","ArrowDown,ArrowRight","false","","","","","86","original","1",""
"html-keyboard-response","216","1049207","0.0-4.0-2.0-1.43","pilot_wm_v1","66952c67f557cc6b49a8d91f","7","null","null","false","","","","","","","null","<div style=""font-size:60px;"">+</div>","null","fixation","","","","","","","","","","","87","","",""
"revaluation","217","1053240","0.0-4.0-2.0-0.44","pilot_wm_v1","66952c67f557cc6b49a8d91f","7","null","null","false","","","false","","","","[666.7999999523163]","./assets/img/ocean/catch/6.jpg","[""spaceBar""]","value training","ocean","0","{""ArrowUp,ArrowLeft"":23,""ArrowUp,ArrowRight"":10,""ArrowDown,ArrowLeft"":8,""ArrowDown,ArrowRight"":30}","true","spaceBar","true","","","","","88","original","1",""
"html-keyboard-response","218","1053757","0.0-4.0-2.0-1.44","pilot_wm_v1","66952c67f557cc6b49a8d91f","7","null","null","false","","","","","","","null","<div style=""font-size:60px;"">+</div>","null","fixation","","","","","","","","","","","89","","",""
"revaluation","219","1059805","0.0-4.0-2.0-0.45","pilot_wm_v1","66952c67f557cc6b49a8d91f","7","null","null","false","","","false","","","","[433,726.7999999523163]","./assets/img/ocean/memory/37.jpg","[""ArrowDown"",""ArrowRight""]","value training","ocean","30","{""ArrowUp,ArrowLeft"":23,""ArrowUp,ArrowRight"":10,""ArrowDown,ArrowLeft"":8,""ArrowDown,ArrowRight"":30}","true","ArrowDown,ArrowRight","false","","","","","90","original","1",""
"html-keyboard-response","220","1060308","0.0-4.0-2.0-1.45","pilot_wm_v1","66952c67f557cc6b49a8d91f","7","null","null","false","","","","","","","null","<div style=""font-size:60px;"">+</div>","null","fixation","","","","","","","","","","","91","","",""
"revaluation","221","1066346","0.0-4.0-2.0-0.46","pilot_wm_v1","66952c67f557cc6b49a8d91f","7","null","null","false","","","false","","","","[766.4000000953674,386.30000019073486]","./assets/img/ocean/memory/20.jpg","[""ArrowDown"",""ArrowRight""]","value training","ocean","30","{""ArrowUp,ArrowLeft"":23,""ArrowUp,ArrowRight"":10,""ArrowDown,ArrowLeft"":8,""ArrowDown,ArrowRight"":30}","true","ArrowDown,ArrowRight","false","","","","","92","original","1",""
"html-keyboard-response","222","1066848","0.0-4.0-2.0-1.46","pilot_wm_v1","66952c67f557cc6b49a8d91f","7","null","null","false","","","","","","","null","<div style=""font-size:60px;"">+</div>","null","fixation","","","","","","","","","","","93","","",""
"revaluation","223","1072896","0.0-4.0-2.0-0.47","pilot_wm_v1","66952c67f557cc6b49a8d91f","7","null","null","false","","","false","","","","[571.7999999523163,380.2999999523163]","./assets/img/ocean/memory/14.jpg","[""ArrowDown"",""ArrowRight""]","value training","ocean","30","{""ArrowUp,ArrowLeft"":23,""ArrowUp,ArrowRight"":10,""ArrowDown,ArrowLeft"":8,""ArrowDown,ArrowRight"":30}","true","ArrowDown,ArrowRight","false","","","","","94","original","1",""
"html-keyboard-response","224","1073413","0.0-4.0-2.0-1.47","pilot_wm_v1","66952c67f557cc6b49a8d91f","7","null","null","false","","","","","","","null","<div style=""font-size:60px;"">+</div>","null","fixation","","","","","","","","","","","95","","",""
"revaluation","225","1079458","0.0-4.0-2.0-0.48","pilot_wm_v1","66952c67f557cc6b49a8d91f","7","null","null","false","","","false","","","","[752.3999998569489,425.40000009536743]","./assets/img/ocean/memory/36.jpg","[""ArrowDown"",""ArrowRight""]","value training","ocean","30","{""ArrowUp,ArrowLeft"":23,""ArrowUp,ArrowRight"":10,""ArrowDown,ArrowLeft"":8,""ArrowDown,ArrowRight"":30}","true","ArrowDown,ArrowRight","false","","","","","96","original","1",""
"html-keyboard-response","226","1079961","0.0-4.0-2.0-1.48","pilot_wm_v1","66952c67f557cc6b49a8d91f","7","null","null","false","","","","","","","null","<div style=""font-size:60px;"">+</div>","null","fixation","","","","","","","","","","","97","","",""
"revaluation","227","1083993","0.0-4.0-2.0-0.49","pilot_wm_v1","66952c67f557cc6b49a8d91f","7","null","null","false","","","false","","","","[679.8999998569489]","./assets/img/ocean/catch/7.jpg","[""spaceBar""]","value training","ocean","0","{""ArrowUp,ArrowLeft"":23,""ArrowUp,ArrowRight"":10,""ArrowDown,ArrowLeft"":8,""ArrowDown,ArrowRight"":30}","true","spaceBar","true","","","","","98","original","1",""
"html-keyboard-response","228","1084496","0.0-4.0-2.0-1.49","pilot_wm_v1","66952c67f557cc6b49a8d91f","7","null","null","false","","","","","","","null","<div style=""font-size:60px;"">+</div>","null","fixation","","","","","","","","","","","99","","",""
"learning-instructions","229","1100633","0.0-4.0-3.0-0.0","pilot_wm_v1","66952c67f557cc6b49a8d91f","7","null","null","false","","","","","","","2198.5","<p> Now, you will travel with a friend who will choose whether you go up or down first. </p>
            <p> On these turns, you will just see the animal that they found. You will still get to choose which chest to search for treasure.</p>","","instructions","","","","","","","","","","","","","",""
"learning-instructions","230","1114223","0.0-4.0-3.0-0.1","pilot_wm_v1","66952c67f557cc6b49a8d91f","7","null","null","false","","","","","","","1981.7000000476837","<p> In this part, you will also hear beeps from your friend and see special treasure chests that need a password. </p>
            <p> Do your best to count the high beeps <b>and</b> choose between each animals' chests at the same time.</p>
            <img src='./assets/img/instructions/beep_chest.jpg' class='instructions-image'>","","instructions","","","","","","","","","","","","","",""
"revaluation","231","1118257","0.0-4.0-4.0-0.0","pilot_wm_v1","66952c67f557cc6b49a8d91f","7","null","null","false","","","false","","","","[814.7000000476837]","./assets/img/ocean/animals/octopus.jpg","[""ArrowLeft""]","revaluation","ocean","23","{""ArrowUp,ArrowLeft"":23,""ArrowUp,ArrowRight"":10,""ArrowDown,ArrowLeft"":8,""ArrowDown,ArrowRight"":30}","true","ArrowUp,ArrowLeft","","6_3","","","","0","original","1",""
"html-keyboard-response","232","1118775","0.0-4.0-4.0-1.0","pilot_wm_v1","66952c67f557cc6b49a8d91f","7","null","null","false","","","","","","","null","<div style=""font-size:60px;"">+</div>","null","fixation","","","","","","","","","","","","","",""
"revaluation","233","1122801","0.0-4.0-4.0-0.1","pilot_wm_v1","66952c67f557cc6b49a8d91f","7","null","null","false","","","false","","","","[723.7999999523163]","./assets/img/ocean/animals/seahorse.jpg","[""ArrowRight""]","revaluation","ocean","30","{""ArrowUp,ArrowLeft"":23,""ArrowUp,ArrowRight"":10,""ArrowDown,ArrowLeft"":8,""ArrowDown,ArrowRight"":30}","true","ArrowDown,ArrowRight","","10_3","","","","1","original","1",""
"html-keyboard-response","234","1123310","0.0-4.0-4.0-1.1","pilot_wm_v1","66952c67f557cc6b49a8d91f","7","null","null","false","","","","","","","null","<div style=""font-size:60px;"">+</div>","null","fixation","","","","","","","","","","","","","",""
"revaluation","235","1127345","0.0-4.0-4.0-0.2","pilot_wm_v1","66952c67f557cc6b49a8d91f","7","null","null","false","","","false","","","","[682.5]","./assets/img/ocean/animals/octopus.jpg","[""ArrowLeft""]","revaluation","ocean","23","{""ArrowUp,ArrowLeft"":23,""ArrowUp,ArrowRight"":10,""ArrowDown,ArrowLeft"":8,""ArrowDown,ArrowRight"":30}","true","ArrowUp,ArrowLeft","","1_4","","","","2","original","1",""
"html-keyboard-response","236","1127863","0.0-4.0-4.0-1.2","pilot_wm_v1","66952c67f557cc6b49a8d91f","7","null","null","false","","","","","","","null","<div style=""font-size:60px;"">+</div>","null","fixation","","","","","","","","","","","","","",""
"revaluation","237","1131907","0.0-4.0-4.0-0.3","pilot_wm_v1","66952c67f557cc6b49a8d91f","7","null","null","false","","","false","","","","[556.0999999046326]","./assets/img/ocean/animals/seahorse.jpg","[""ArrowRight""]","revaluation","ocean","30","{""ArrowUp,ArrowLeft"":23,""ArrowUp,ArrowRight"":10,""ArrowDown,ArrowLeft"":8,""ArrowDown,ArrowRight"":30}","true","ArrowDown,ArrowRight","","11_4","","","","3","original","1",""
"html-keyboard-response","238","1132419","0.0-4.0-4.0-1.3","pilot_wm_v1","66952c67f557cc6b49a8d91f","7","null","null","false","","","","","","","null","<div style=""font-size:60px;"">+</div>","null","fixation","","","","","","","","","","","","","",""
"html-slider-response","239","1136753","0.0-4.0-4.0-2.3-0.3","pilot_wm_v1","66952c67f557cc6b49a8d91f","7","null","null","false","","","","","","","4326","<div style=""width:500px;"">
        <p>What is the password?</p>
        <img src='./assets/img/instructions/beep_chest.jpg' class='instructions-image'>","11","beep chest","","","","false","","","","50","14","3","","","",""
"revaluation","240","1140761","0.0-4.0-4.0-0.4","pilot_wm_v1","66952c67f557cc6b49a8d91f","7","null","null","false","","","false","","","","[821.8999998569489]","./assets/img/ocean/animals/octopus.jpg","[""ArrowLeft""]","revaluation","ocean","23","{""ArrowUp,ArrowLeft"":23,""ArrowUp,ArrowRight"":10,""ArrowDown,ArrowLeft"":8,""ArrowDown,ArrowRight"":30}","true","ArrowUp,ArrowLeft","","3_0","","","","4","original","1",""
"html-keyboard-response","241","1141268","0.0-4.0-4.0-1.4","pilot_wm_v1","66952c67f557cc6b49a8d91f","7","null","null","false","","","","","","","null","<div style=""font-size:60px;"">+</div>","null","fixation","","","","","","","","","","","","","",""
"revaluation","242","1145290","0.0-4.0-4.0-0.5","pilot_wm_v1","66952c67f557cc6b49a8d91f","7","null","null","false","","","false","","","","[886.4000000953674]","./assets/img/ocean/animals/seahorse.jpg","[""ArrowRight""]","revaluation","ocean","30","{""ArrowUp,ArrowLeft"":23,""ArrowUp,ArrowRight"":10,""ArrowDown,ArrowLeft"":8,""ArrowDown,ArrowRight"":30}","true","ArrowDown,ArrowRight","","17_1","","","","5","original","1",""
"html-keyboard-response","243","1145805","0.0-4.0-4.0-1.5","pilot_wm_v1","66952c67f557cc6b49a8d91f","7","null","null","false","","","","","","","null","<div style=""font-size:60px;"">+</div>","null","fixation","","","","","","","","","","","","","",""
"revaluation","244","1149821","0.0-4.0-4.0-0.6","pilot_wm_v1","66952c67f557cc6b49a8d91f","7","null","null","false","","","false","","","","[683.5]","./assets/img/ocean/animals/octopus.jpg","[""ArrowRight""]","revaluation","ocean","10","{""ArrowUp,ArrowLeft"":23,""ArrowUp,ArrowRight"":10,""ArrowDown,ArrowLeft"":8,""ArrowDown,ArrowRight"":30}","false","ArrowUp,ArrowRight","","8_2","","","","6","original","1",""
"html-keyboard-response","245","1150335","0.0-4.0-4.0-1.6","pilot_wm_v1","66952c67f557cc6b49a8d91f","7","null","null","false","","","","","","","null","<div style=""font-size:60px;"">+</div>","null","fixation","","","","","","","","","","","","","",""
"revaluation","246","1154358","0.0-4.0-4.0-0.7","pilot_wm_v1","66952c67f557cc6b49a8d91f","7","null","null","false","","","false","","","","[312.7999999523163]","./assets/img/ocean/animals/seahorse.jpg","[""ArrowLeft""]","revaluation","ocean","8","{""ArrowUp,ArrowLeft"":23,""ArrowUp,ArrowRight"":10,""ArrowDown,ArrowLeft"":8,""ArrowDown,ArrowRight"":30}","false","ArrowDown,ArrowLeft","","16_0","","","","7","original","1",""
"html-keyboard-response","247","1154874","0.0-4.0-4.0-1.7","pilot_wm_v1","66952c67f557cc6b49a8d91f","7","null","null","false","","","","","","","null","<div style=""font-size:60px;"">+</div>","null","fixation","","","","","","","","","","","","","",""
"html-slider-response","248","1159279","0.0-4.0-4.0-2.7-0.7","pilot_wm_v1","66952c67f557cc6b49a8d91f","7","null","null","false","","","","","","","4398","<div style=""width:500px;"">
        <p>What is the password?</p>
        <img src='./assets/img/instructions/beep_chest.jpg' class='instructions-image'>","4","beep chest","","","","false","","","","50","3","1","","","",""
"revaluation","249","1163317","0.0-4.0-4.0-0.8","pilot_wm_v1","66952c67f557cc6b49a8d91f","7","null","null","false","","","false","","","","[970.5999999046326]","./assets/img/ocean/animals/seahorse.jpg","[""ArrowRight""]","revaluation","ocean","30","{""ArrowUp,ArrowLeft"":23,""ArrowUp,ArrowRight"":10,""ArrowDown,ArrowLeft"":8,""ArrowDown,ArrowRight"":30}","true","ArrowDown,ArrowRight","","12_2","","","","8","original","1",""
"html-keyboard-response","250","1163825","0.0-4.0-4.0-1.8","pilot_wm_v1","66952c67f557cc6b49a8d91f","7","null","null","false","","","","","","","null","<div style=""font-size:60px;"">+</div>","null","fixation","","","","","","","","","","","","","",""
"revaluation","251","1167852","0.0-4.0-4.0-0.9","pilot_wm_v1","66952c67f557cc6b49a8d91f","7","null","null","false","","","false","","","","[345.5]","./assets/img/ocean/animals/octopus.jpg","[""ArrowRight""]","revaluation","ocean","10","{""ArrowUp,ArrowLeft"":23,""ArrowUp,ArrowRight"":10,""ArrowDown,ArrowLeft"":8,""ArrowDown,ArrowRight"":30}","false","ArrowUp,ArrowRight","","7_4","","","","9","original","1",""
"html-keyboard-response","252","1168355","0.0-4.0-4.0-1.9","pilot_wm_v1","66952c67f557cc6b49a8d91f","7","null","null","false","","","","","","","null","<div style=""font-size:60px;"">+</div>","null","fixation","","","","","","","","","","","","","",""
"revaluation","253","1172386","0.0-4.0-4.0-0.10","pilot_wm_v1","66952c67f557cc6b49a8d91f","7","null","null","false","","","false","","","","[793]","./assets/img/ocean/animals/octopus.jpg","[""ArrowLeft""]","revaluation","ocean","23","{""ArrowUp,ArrowLeft"":23,""ArrowUp,ArrowRight"":10,""ArrowDown,ArrowLeft"":8,""ArrowDown,ArrowRight"":30}","true","ArrowUp,ArrowLeft","","2_1","","","","10","original","1",""
"html-keyboard-response","254","1172890","0.0-4.0-4.0-1.10","pilot_wm_v1","66952c67f557cc6b49a8d91f","7","null","null","false","","","","","","","null","<div style=""font-size:60px;"">+</div>","null","fixation","","","","","","","","","","","","","",""
"revaluation","255","1176908","0.0-4.0-4.0-0.11","pilot_wm_v1","66952c67f557cc6b49a8d91f","7","null","null","false","","","false","","","","[994.7000000476837]","./assets/img/ocean/animals/octopus.jpg","[""ArrowLeft""]","revaluation","ocean","23","{""ArrowUp,ArrowLeft"":23,""ArrowUp,ArrowRight"":10,""ArrowDown,ArrowLeft"":8,""ArrowDown,ArrowRight"":30}","true","ArrowUp,ArrowLeft","","4_0","","","","11","original","1",""
"html-keyboard-response","256","1177423","0.0-4.0-4.0-1.11","pilot_wm_v1","66952c67f557cc6b49a8d91f","7","null","null","false","","","","","","","null","<div style=""font-size:60px;"">+</div>","null","fixation","","","","","","","","","","","","","",""
"html-slider-response","257","1182935","0.0-4.0-4.0-2.11-0.11","pilot_wm_v1","66952c67f557cc6b49a8d91f","7","null","null","false","","","","","","","5506","<div style=""width:500px;"">
        <p>What is the password?</p>
        <img src='./assets/img/instructions/beep_chest.jpg' class='instructions-image'>","7","beep chest","","","","true","","","","50","7","0","","","",""
"revaluation","258","1186964","0.0-4.0-4.0-0.12","pilot_wm_v1","66952c67f557cc6b49a8d91f","7","null","null","false","","","false","","","","[988.5999999046326]","./assets/img/ocean/animals/seahorse.jpg","[""ArrowRight""]","revaluation","ocean","30","{""ArrowUp,ArrowLeft"":23,""ArrowUp,ArrowRight"":10,""ArrowDown,ArrowLeft"":8,""ArrowDown,ArrowRight"":30}","true","ArrowDown,ArrowRight","","14_4","","","","12","original","1",""
"html-keyboard-response","259","1187479","0.0-4.0-4.0-1.12","pilot_wm_v1","66952c67f557cc6b49a8d91f","7","null","null","false","","","","","","","null","<div style=""font-size:60px;"">+</div>","null","fixation","","","","","","","","","","","","","",""
"revaluation","260","1191495","0.0-4.0-4.0-0.13","pilot_wm_v1","66952c67f557cc6b49a8d91f","7","null","null","false","","","false","","","","[962.2000000476837]","./assets/img/ocean/animals/seahorse.jpg","[""ArrowRight""]","revaluation","ocean","30","{""ArrowUp,ArrowLeft"":23,""ArrowUp,ArrowRight"":10,""ArrowDown,ArrowLeft"":8,""ArrowDown,ArrowRight"":30}","true","ArrowDown,ArrowRight","","13_2","","","","13","original","1",""
"html-keyboard-response","261","1192009","0.0-4.0-4.0-1.13","pilot_wm_v1","66952c67f557cc6b49a8d91f","7","null","null","false","","","","","","","null","<div style=""font-size:60px;"">+</div>","null","fixation","","","","","","","","","","","","","",""
"revaluation","262","1196042","0.0-4.0-4.0-0.14","pilot_wm_v1","66952c67f557cc6b49a8d91f","7","null","null","false","","","false","","","","[885.2000000476837]","./assets/img/ocean/animals/seahorse.jpg","[""ArrowRight""]","revaluation","ocean","30","{""ArrowUp,ArrowLeft"":23,""ArrowUp,ArrowRight"":10,""ArrowDown,ArrowLeft"":8,""ArrowDown,ArrowRight"":30}","true","ArrowDown,ArrowRight","","15_0","","","","14","original","1",""
"html-keyboard-response","263","1196551","0.0-4.0-4.0-1.14","pilot_wm_v1","66952c67f557cc6b49a8d91f","7","null","null","false","","","","","","","null","<div style=""font-size:60px;"">+</div>","null","fixation","","","","","","","","","","","","","",""
"revaluation","264","1200571","0.0-4.0-4.0-0.15","pilot_wm_v1","66952c67f557cc6b49a8d91f","7","null","null","false","","","false","","","","[753.7999999523163]","./assets/img/ocean/animals/seahorse.jpg","[""ArrowRight""]","revaluation","ocean","30","{""ArrowUp,ArrowLeft"":23,""ArrowUp,ArrowRight"":10,""ArrowDown,ArrowLeft"":8,""ArrowDown,ArrowRight"":30}","true","ArrowDown,ArrowRight","","18_0","","","","15","original","1",""
"html-keyboard-response","265","1201079","0.0-4.0-4.0-1.15","pilot_wm_v1","66952c67f557cc6b49a8d91f","7","null","null","false","","","","","","","null","<div style=""font-size:60px;"">+</div>","null","fixation","","","","","","","","","","","","","",""
"html-slider-response","266","1205064","0.0-4.0-4.0-2.15-0.15","pilot_wm_v1","66952c67f557cc6b49a8d91f","7","null","null","false","","","","","","","3977","<div style=""width:500px;"">
        <p>What is the password?</p>
        <img src='./assets/img/instructions/beep_chest.jpg' class='instructions-image'>","6","beep chest","","","","true","","","","50","6","0","","","",""
"revaluation","267","1209083","0.0-4.0-4.0-0.16","pilot_wm_v1","66952c67f557cc6b49a8d91f","7","null","null","false","","","false","","","","[1013.5]","./assets/img/ocean/animals/octopus.jpg","[""ArrowLeft""]","revaluation","ocean","23","{""ArrowUp,ArrowLeft"":23,""ArrowUp,ArrowRight"":10,""ArrowDown,ArrowLeft"":8,""ArrowDown,ArrowRight"":30}","true","ArrowUp,ArrowLeft","","9_2","","","","16","original","1",""
"html-keyboard-response","268","1209590","0.0-4.0-4.0-1.16","pilot_wm_v1","66952c67f557cc6b49a8d91f","7","null","null","false","","","","","","","null","<div style=""font-size:60px;"">+</div>","null","fixation","","","","","","","","","","","","","",""
"revaluation","269","1213620","0.0-4.0-4.0-0.17","pilot_wm_v1","66952c67f557cc6b49a8d91f","7","null","null","false","","","false","","","","[1763.7000000476837]","./assets/img/ocean/animals/octopus.jpg","[""ArrowLeft""]","revaluation","ocean","23","{""ArrowUp,ArrowLeft"":23,""ArrowUp,ArrowRight"":10,""ArrowDown,ArrowLeft"":8,""ArrowDown,ArrowRight"":30}","true","ArrowUp,ArrowLeft","","5_4","","","","17","original","1",""
"html-keyboard-response","270","1214133","0.0-4.0-4.0-1.17","pilot_wm_v1","66952c67f557cc6b49a8d91f","7","null","null","false","","","","","","","null","<div style=""font-size:60px;"">+</div>","null","fixation","","","","","","","","","","","","","",""
"learning-instructions","271","1222294","0.0-4.0-6.0-0.0","pilot_wm_v1","66952c67f557cc6b49a8d91f","7","null","null","false","","","","","","","null","<p> You have almost finished this part of the game! </p>
            <p> We are going to ask you to make a few more choices. </p>","","instructions","","","","","","","","","","","","","",""
"learning-instructions","272","1238275","0.0-4.0-6.0-0.1","pilot_wm_v1","66952c67f557cc6b49a8d91f","7","null","null","false","","","","","","","null","<p> First, you need to decide whether to go up or down. When you see each picture, use the arrow keys to make your choice. </p>
            <p><b>You will not see which animal you found, but try to get to the one that will give you the most treasure.</b></p>","","instructions","","","","","","","","","","","","","",""
"html-keyboard-response","273","1239292","0.0-4.0-7.0-0.0","pilot_wm_v1","66952c67f557cc6b49a8d91f","7","null","null","false","","","","","","","null","<div style=""font-size:100px;color:red;"">Starting in...</div>","null","","","","","","","","","","","","","","",""
"html-keyboard-response","274","1240295","0.0-4.0-7.0-1.0","pilot_wm_v1","66952c67f557cc6b49a8d91f","7","null","null","false","","","","","","","null","<div style=""font-size:200px;color:red;"">3</div>","null","","","","","","","","","","","","","","",""
"html-keyboard-response","275","1241303","0.0-4.0-7.0-2.0","pilot_wm_v1","66952c67f557cc6b49a8d91f","7","null","null","false","","","","","","","null","<div style=""font-size:200px;color:red;"">2</div>","null","","","","","","","","","","","","","","",""
"html-keyboard-response","276","1242313","0.0-4.0-7.0-3.0","pilot_wm_v1","66952c67f557cc6b49a8d91f","7","null","null","false","","","","","","","null","<div style=""font-size:200px;color:red;"">1</div>","null","","","","","","","","","","","","","","",""
"revaluation","277","1242661","0.0-4.0-8.0-0.0","pilot_wm_v1","66952c67f557cc6b49a8d91f","7","null","null","false","","","false","","","","[337.7999999523163]","./assets/img/ocean/test/3.jpg","[""ArrowUp""]","first stage test","ocean","0","{""ArrowUp,ArrowLeft"":23,""ArrowUp,ArrowRight"":10,""ArrowDown,ArrowLeft"":8,""ArrowDown,ArrowRight"":30}","false","ArrowUp","false","","","","","","original","1",""
"html-keyboard-response","278","1243179","0.0-4.0-8.0-1.0","pilot_wm_v1","66952c67f557cc6b49a8d91f","7","null","null","false","","","","","","","null","<div style=""font-size:60px;"">+</div>","null","fixation","","","","","","","","","","","","","",""
"revaluation","279","1243931","0.0-4.0-8.0-0.1","pilot_wm_v1","66952c67f557cc6b49a8d91f","7","null","null","false","","","false","","","","[736.4000000953674]","./assets/img/ocean/test/0.jpg","[""ArrowUp""]","first stage test","ocean","0","{""ArrowUp,ArrowLeft"":23,""ArrowUp,ArrowRight"":10,""ArrowDown,ArrowLeft"":8,""ArrowDown,ArrowRight"":30}","false","ArrowUp","false","","","","","","original","1",""
"html-keyboard-response","280","1244439","0.0-4.0-8.0-1.1","pilot_wm_v1","66952c67f557cc6b49a8d91f","7","null","null","false","","","","","","","null","<div style=""font-size:60px;"">+</div>","null","fixation","","","","","","","","","","","","","",""
"revaluation","281","1244900","0.0-4.0-8.0-0.2","pilot_wm_v1","66952c67f557cc6b49a8d91f","7","null","null","false","","","false","","","","[454.2999999523163]","./assets/img/ocean/test/1.jpg","[""ArrowUp""]","first stage test","ocean","0","{""ArrowUp,ArrowLeft"":23,""ArrowUp,ArrowRight"":10,""ArrowDown,ArrowLeft"":8,""ArrowDown,ArrowRight"":30}","false","ArrowUp","false","","","","","","original","1",""
"html-keyboard-response","282","1245413","0.0-4.0-8.0-1.2","pilot_wm_v1","66952c67f557cc6b49a8d91f","7","null","null","false","","","","","","","null","<div style=""font-size:60px;"">+</div>","null","fixation","","","","","","","","","","","","","",""
