,subject_id,trial_num,correct,index,block_condition,categorical_age,age,rt,is_first_trial,one_trial_revaluation
68,10608,0,False,260,Control,Children,8.62,786.5999999940395,True,1
69,10608,1,False,262,Control,Children,8.62,948.0,False,1
70,10608,2,False,264,Control,Children,8.62,661.9000000059605,False,1
71,10608,3,True,266,Control,Children,8.62,450.90000000596046,False,0
148,10608,0,False,435,Revaluation,Children,8.62,548.5999999940395,True,0
149,10608,1,False,437,Revaluation,Children,8.62,376.5,False,0
150,10608,2,False,439,Revaluation,Children,8.62,124.0,False,0
151,10608,3,False,441,Revaluation,Children,8.62,46.0,False,0
316,11405,0,False,262,Revaluation,Children,7.54,867.0,True,0
317,11405,1,False,264,Revaluation,Children,7.54,1107.8999999999069,False,0
318,11405,2,False,266,Revaluation,Children,7.54,787.5999999996275,False,0
319,11405,3,False,268,Revaluation,Children,7.54,570.5999999996275,False,0
396,11405,0,True,437,Control,Children,7.54,1838.8999999999069,True,0
397,11405,1,True,439,Control,Children,7.54,1242.2000000001863,False,0
398,11405,2,False,441,Control,Children,7.54,537.0,False,1
399,11405,3,False,443,Control,Children,7.54,451.39999999990687,False,1
564,8388,0,False,260,Revaluation,Children,8.91,1235.4000000059605,True,0
565,8388,1,False,262,Revaluation,Children,8.91,2613.3000000044703,False,0
566,8388,2,False,264,Revaluation,Children,8.91,603.4000000059605,False,0
567,8388,3,False,266,Revaluation,Children,8.91,824.0,False,0
644,8388,0,False,435,Control,Children,8.91,948.5,True,1
645,8388,1,True,437,Control,Children,8.91,1254.0,False,0
646,8388,2,True,439,Control,Children,8.91,615.0,False,0
647,8388,3,True,441,Control,Children,8.91,1188.7999999970198,False,0
812,8211,0,False,262,Control,Adults,22.45,1318.4000000357628,True,1
813,8211,1,False,264,Control,Adults,22.45,1414.300000011921,False,1
814,8211,2,False,266,Control,Adults,22.45,913.3000000119209,False,1
815,8211,3,True,268,Control,Adults,22.45,1154.699999988079,False,0
892,8211,0,False,437,Revaluation,Adults,22.45,358.0999999642372,True,0
893,8211,1,True,439,Revaluation,Adults,22.45,1373.5999999642372,False,1
894,8211,2,True,441,Revaluation,Adults,22.45,382.69999998807907,False,1
895,8211,3,True,443,Revaluation,Adults,22.45,235.19999998807907,False,1
1060,8469,0,False,260,Control,Adults,20.88,833.3000001907349,True,1
1061,8469,1,False,262,Control,Adults,20.88,982.4000000953674,False,1
1062,8469,2,False,264,Control,Adults,20.88,1134.7999997138977,False,1
1063,8469,3,True,266,Control,Adults,20.88,1133.0,False,0
1140,8469,0,False,435,Revaluation,Adults,20.88,468.40000009536743,True,0
1141,8469,1,True,437,Revaluation,Adults,20.88,917.0,False,1
1142,8469,2,True,439,Revaluation,Adults,20.88,505.59999990463257,False,1
1143,8469,3,True,441,Revaluation,Adults,20.88,645.7999997138977,False,1
1308,8191,0,False,262,Revaluation,Adolescents,15.44,725.4000005722046,True,0
1309,8191,1,False,264,Revaluation,Adolescents,15.44,939.4000005722046,False,0
1310,8191,2,False,266,Revaluation,Adolescents,15.44,1496.6999998092651,False,0
1311,8191,3,False,268,Revaluation,Adolescents,15.44,727.1000003814697,False,0
1388,8191,0,True,437,Control,Adolescents,15.44,322.1000003814697,True,0
1389,8191,1,True,439,Control,Adolescents,15.44,357.5,False,0
1390,8191,2,True,441,Control,Adolescents,15.44,371.1000003814697,False,0
1391,8191,3,True,443,Control,Adolescents,15.44,394.3999996185303,False,0
1556,9160,0,True,260,Control,Adolescents,15.11,532.8999999985099,True,0
1557,9160,1,True,262,Control,Adolescents,15.11,618.1000000014901,False,0
1558,9160,2,True,264,Control,Adolescents,15.11,658.3999999985099,False,0
1559,9160,3,True,266,Control,Adolescents,15.11,737.5,False,0
1636,9160,0,False,435,Revaluation,Adolescents,15.11,921.3999999985099,True,0
1637,9160,1,False,437,Revaluation,Adolescents,15.11,448.69999999552965,False,0
1638,9160,2,False,439,Revaluation,Adolescents,15.11,420.8999999985099,False,0
1639,9160,3,False,441,Revaluation,Adolescents,15.11,363.1000000014901,False,0
1804,8322,0,True,260,Control,Children,12.95,657.5999999940395,True,0
1805,8322,1,True,262,Control,Children,12.95,662.2000000178814,False,0
1806,8322,2,True,264,Control,Children,12.95,400.19999998807907,False,0
1807,8322,3,True,266,Control,Children,12.95,396.0,False,0
1884,8322,0,True,435,Revaluation,Children,12.95,936.4000000059605,True,1
1885,8322,1,True,437,Revaluation,Children,12.95,722.9000000059605,False,1
1886,8322,2,False,439,Revaluation,Children,12.95,732.4000000059605,False,0
1887,8322,3,False,441,Revaluation,Children,12.95,444.30000001192093,False,0
2052,10009,0,True,260,Control,Adults,18.53,307.10000002384186,True,0
2053,10009,1,True,262,Control,Adults,18.53,386.7999999523163,False,0
2054,10009,2,True,264,Control,Adults,18.53,435.89999997615814,False,0
2055,10009,3,True,266,Control,Adults,18.53,391.1999999284744,False,0
2132,10009,0,True,435,Revaluation,Adults,18.53,342.60000002384186,True,1
2133,10009,1,True,437,Revaluation,Adults,18.53,339.5,False,1
2134,10009,2,True,439,Revaluation,Adults,18.53,351.10000002384186,False,1
2135,10009,3,True,441,Revaluation,Adults,18.53,316.8000000715256,False,1
2300,9642,0,True,264,Control,Adolescents,16.37,662.8999999761581,True,0
2301,9642,1,True,266,Control,Adolescents,16.37,742.6000000238419,False,0
2302,9642,2,True,268,Control,Adolescents,16.37,447.7999999523163,False,0
2303,9642,3,True,270,Control,Adolescents,16.37,381.39999997615814,False,0
2380,9642,0,False,439,Revaluation,Adolescents,16.37,451.2999999523163,True,0
2381,9642,1,False,441,Revaluation,Adolescents,16.37,277.89999997615814,False,0
2382,9642,2,False,443,Revaluation,Adolescents,16.37,275.0,False,0
2383,9642,3,False,445,Revaluation,Adolescents,16.37,305.2000000476837,False,0
2548,14427,0,True,260,Control,Adults,22.42,635.0999999977648,True,0
2549,14427,1,True,262,Control,Adults,22.42,866.1000000014901,False,0
2550,14427,2,True,264,Control,Adults,22.42,638.3999999985099,False,0
2551,14427,3,True,266,Control,Adults,22.42,597.3000000007451,False,0
2628,14427,0,True,435,Revaluation,Adults,22.42,581.3000000007451,True,1
2629,14427,1,True,437,Revaluation,Adults,22.42,483.30000000074506,False,1
2630,14427,2,True,439,Revaluation,Adults,22.42,383.19999999925494,False,1
2631,14427,3,True,441,Revaluation,Adults,22.42,487.0,False,1
2796,9888,0,True,262,Control,Children,7.05,1515.8999999761581,True,0
2797,9888,1,True,264,Control,Children,7.05,2221.0,False,0
2798,9888,2,True,266,Control,Children,7.05,995.6999999880791,False,0
2799,9888,3,True,268,Control,Children,7.05,859.5,False,0
2876,9888,0,False,437,Revaluation,Children,7.05,624.9000000357628,True,0
2877,9888,1,True,439,Revaluation,Children,7.05,2822.600000023842,False,1
2878,9888,2,False,441,Revaluation,Children,7.05,1295.300000011921,False,0
2879,9888,3,True,443,Revaluation,Children,7.05,920.0,False,1
3044,9178,0,True,260,Control,Adults,22.13,635.2000000029802,True,0
3045,9178,1,True,262,Control,Adults,22.13,1762.0999999940395,False,0
3046,9178,2,True,264,Control,Adults,22.13,652.5999999940395,False,0
3047,9178,3,True,266,Control,Adults,22.13,560.9000000059605,False,0
3124,9178,0,False,435,Revaluation,Adults,22.13,921.5,True,0
3125,9178,1,False,437,Revaluation,Adults,22.13,568.6999999880791,False,0
3126,9178,2,False,439,Revaluation,Adults,22.13,310.5,False,0
3127,9178,3,False,441,Revaluation,Adults,22.13,236.1000000089407,False,0
3292,12223,0,True,265,Revaluation,Children,7.02,776.0,True,1
3293,12223,1,True,267,Revaluation,Children,7.02,1489.300000011921,False,1
3294,12223,2,False,269,Revaluation,Children,7.02,701.0,False,0
3295,12223,3,False,271,Revaluation,Children,7.02,782.5,False,0
3372,12223,0,True,440,Control,Children,7.02,558.9000000357628,True,0
3373,12223,1,True,442,Control,Children,7.02,1001.6999999880791,False,0
3374,12223,2,True,444,Control,Children,7.02,518.1999999880791,False,0
3375,12223,3,True,446,Control,Children,7.02,453.80000001192093,False,0
3540,8574,0,False,261,Revaluation,Children,10.91,575.0,True,0
3541,8574,1,False,263,Revaluation,Children,10.91,693.0,False,0
3542,8574,2,False,265,Revaluation,Children,10.91,869.0,False,0
3543,8574,3,False,267,Revaluation,Children,10.91,949.0000000001164,False,0
3620,8574,0,True,436,Control,Children,10.91,360.00000000023283,True,0
3621,8574,1,True,438,Control,Children,10.91,530.0,False,0
3622,8574,2,True,440,Control,Children,10.91,501.99999999976717,False,0
3623,8574,3,True,442,Control,Children,10.91,437.00000000023283,False,0
3788,9147,0,True,262,Control,Children,8.57,1088.3000000002794,True,0
3789,9147,1,True,264,Control,Children,8.57,919.3999999999069,False,0
3790,9147,2,True,266,Control,Children,8.57,869.0,False,0
3791,9147,3,True,268,Control,Children,8.57,771.7999999998137,False,0
3868,9147,0,False,437,Revaluation,Children,8.57,553.7000000001863,True,0
3869,9147,1,True,439,Revaluation,Children,8.57,382.09999999962747,False,1
3870,9147,2,False,441,Revaluation,Children,8.57,329.10000000009313,False,0
3871,9147,3,True,443,Revaluation,Children,8.57,300.59999999962747,False,1
4036,9986,0,False,264,Revaluation,Adults,23.62,634.9000000357628,True,0
4037,9986,1,False,266,Revaluation,Adults,23.62,1209.7000000476837,False,0
4038,9986,2,False,268,Revaluation,Adults,23.62,1510.0,False,0
4039,9986,3,False,270,Revaluation,Adults,23.62,814.3000000119209,False,0
4116,9986,0,True,439,Control,Adults,23.62,295.0,True,0
4117,9986,1,True,441,Control,Adults,23.62,51.60000002384186,False,0
4118,9986,2,True,443,Control,Adults,23.62,31.100000023841858,False,0
4119,9986,3,True,445,Control,Adults,23.62,129.10000002384186,False,0
4284,8367,0,False,262,Revaluation,Adults,20.48,879.0,True,0
4285,8367,1,False,264,Revaluation,Adults,20.48,904.1999999992549,False,0
4286,8367,2,False,266,Revaluation,Adults,20.48,703.1999999992549,False,0
4287,8367,3,False,268,Revaluation,Adults,20.48,924.6999999992549,False,0
4364,8367,0,True,437,Control,Adults,20.48,911.3000000007451,True,0
4365,8367,1,True,439,Control,Adults,20.48,640.1999999992549,False,0
4366,8367,2,True,441,Control,Adults,20.48,387.79999999701977,False,0
4367,8367,3,True,443,Control,Adults,20.48,356.9000000022352,False,0
4532,14485,0,True,262,Control,Adolescents,16.34,473.09999999962747,True,0
4533,14485,1,True,264,Control,Adolescents,16.34,654.0,False,0
4534,14485,2,True,266,Control,Adolescents,16.34,537.3000000002794,False,0
4535,14485,3,True,268,Control,Adolescents,16.34,558.5,False,0
4612,14485,0,False,437,Revaluation,Adolescents,16.34,533.3000000002794,True,0
4613,14485,1,False,439,Revaluation,Adolescents,16.34,676.2000000001863,False,0
4614,14485,2,True,441,Revaluation,Adolescents,16.34,624.8999999999069,False,1
4615,14485,3,False,443,Revaluation,Adolescents,16.34,587.7999999998137,False,0
4780,8427,0,True,264,Control,Children,11.61,413.3999999985099,True,0
4781,8427,1,True,266,Control,Children,11.61,628.3000000044703,False,0
4782,8427,2,True,268,Control,Children,11.61,506.6000000014901,False,0
4783,8427,3,True,270,Control,Children,11.61,496.79999999701977,False,0
4860,8427,0,True,439,Revaluation,Children,11.61,569.9000000059605,True,1
4861,8427,1,True,441,Revaluation,Children,11.61,490.40000000596046,False,1
4862,8427,2,True,443,Revaluation,Children,11.61,268.5,False,1
4863,8427,3,True,445,Revaluation,Children,11.61,267.20000000298023,False,1
5028,8210,0,True,262,Control,Adults,22.47,607.2999999523163,True,0
5029,8210,1,True,264,Control,Adults,22.47,993.2999999523163,False,0
5030,8210,2,True,266,Control,Adults,22.47,588.3999999761581,False,0
5031,8210,3,True,268,Control,Adults,22.47,385.3000000715256,False,0
5108,8210,0,False,437,Revaluation,Adults,22.47,330.7000000476837,True,0
5109,8210,1,False,439,Revaluation,Adults,22.47,341.5,False,0
5110,8210,2,False,441,Revaluation,Adults,22.47,212.39999997615814,False,0
5111,8210,3,False,443,Revaluation,Adults,22.47,285.5,False,0
5276,8674,0,True,263,Control,Adolescents,17.87,1419.0,True,0
5277,8674,1,True,265,Control,Adolescents,17.87,1572.0,False,0
5278,8674,2,True,267,Control,Adolescents,17.87,1839.0,False,0
5279,8674,3,True,269,Control,Adolescents,17.87,705.0,False,0
5356,8674,0,True,438,Revaluation,Adolescents,17.87,630.0,True,1
5357,8674,1,True,440,Revaluation,Adolescents,17.87,447.0,False,1
5358,8674,2,True,442,Revaluation,Adolescents,17.87,481.0,False,1
5359,8674,3,True,444,Revaluation,Adolescents,17.87,387.0,False,1
5524,8684,0,True,263,Revaluation,Adults,18.74,805.1000000089407,True,1
5525,8684,1,True,265,Revaluation,Adults,18.74,2359.5,False,1
5526,8684,2,True,267,Revaluation,Adults,18.74,2169.1000000089407,False,1
5527,8684,3,False,269,Revaluation,Adults,18.74,1159.5999999940395,False,0
5604,8684,0,True,438,Control,Adults,18.74,508.90000000596046,True,0
5605,8684,1,False,440,Control,Adults,18.74,1719.5999999940395,False,1
5606,8684,2,True,442,Control,Adults,18.74,422.29999999701977,False,0
5607,8684,3,False,444,Control,Adults,18.74,400.0,False,1
5772,8607,0,False,265,Control,Adolescents,13.56,388.0,True,1
5773,8607,1,False,267,Control,Adolescents,13.56,466.5,False,1
5774,8607,2,False,269,Control,Adolescents,13.56,686.7999999523163,False,1
5775,8607,3,True,271,Control,Adolescents,13.56,420.59999990463257,False,0
5852,8607,0,False,440,Revaluation,Adolescents,13.56,699.2999999523163,True,0
5853,8607,1,False,442,Revaluation,Adolescents,13.56,801.4000000953674,False,0
5854,8607,2,False,444,Revaluation,Adolescents,13.56,1086.1999998092651,False,0
5855,8607,3,False,446,Revaluation,Adolescents,13.56,25.90000009536743,False,0
6020,10044,0,True,262,Revaluation,Children,9.24,320.19999998807907,True,1
6021,10044,1,False,264,Revaluation,Children,9.24,1689.300000011921,False,0
6022,10044,2,True,266,Revaluation,Children,9.24,849.0,False,1
6023,10044,3,True,268,Revaluation,Children,9.24,1449.9000000357628,False,1
6100,10044,0,True,437,Control,Children,9.24,377.89999997615814,True,0
6101,10044,1,True,439,Control,Children,9.24,1441.8999999761581,False,0
6102,10044,2,False,441,Control,Children,9.24,704.8000000119209,False,1
6103,10044,3,False,443,Control,Children,9.24,1498.7000000476837,False,1
6268,8620,0,True,262,Control,Adolescents,13.31,633.3999999999069,True,0
6269,8620,1,True,264,Control,Adolescents,13.31,1085.1999999997206,False,0
6270,8620,2,True,266,Control,Adolescents,13.31,945.2000000001863,False,0
6271,8620,3,True,268,Control,Adolescents,13.31,807.2000000001863,False,0
6348,8620,0,True,437,Revaluation,Adolescents,13.31,692.7000000001863,True,1
6349,8620,1,True,439,Revaluation,Adolescents,13.31,386.90000000037253,False,1
6350,8620,2,True,441,Revaluation,Adolescents,13.31,503.0,False,1
6351,8620,3,True,443,Revaluation,Adolescents,13.31,547.0999999996275,False,1
6516,8731,0,True,262,Revaluation,Adults,23.87,426.5,True,1
6517,8731,1,True,264,Revaluation,Adults,23.87,565.8999999761581,False,1
6518,8731,2,True,266,Revaluation,Adults,23.87,318.7000000476837,False,1
6519,8731,3,True,268,Revaluation,Adults,23.87,277.1999999284744,False,1
6596,8731,0,True,437,Control,Adults,23.87,295.2000000476837,True,0
6597,8731,1,True,439,Control,Adults,23.87,273.5,False,0
6598,8731,2,True,441,Control,Adults,23.87,229.10000002384186,False,0
6599,8731,3,True,443,Control,Adults,23.87,273.10000002384186,False,0
6764,10589,0,False,263,Revaluation,Adults,23.86,566.0,True,0
6765,10589,1,False,265,Revaluation,Adults,23.86,1910.0,False,0
6766,10589,2,True,267,Revaluation,Adults,23.86,846.0,False,1
6767,10589,3,False,269,Revaluation,Adults,23.86,778.0,False,0
6844,10589,0,True,438,Control,Adults,23.86,526.0,True,0
6845,10589,1,True,440,Control,Adults,23.86,389.99999999976717,False,0
6846,10589,2,True,442,Control,Adults,23.86,490.0,False,0
6847,10589,3,True,444,Control,Adults,23.86,441.00000000023283,False,0
7012,8200,0,False,266,Revaluation,Adults,19.77,268.7999999821186,True,0
7013,8200,1,True,268,Revaluation,Adults,19.77,739.0,False,1
7014,8200,2,True,270,Revaluation,Adults,19.77,480.30000001192093,False,1
7015,8200,3,False,272,Revaluation,Adults,19.77,612.5999999940395,False,0
7092,8200,0,True,441,Control,Adults,19.77,788.2000000178814,True,0
7093,8200,1,False,443,Control,Adults,19.77,807.4000000059605,False,1
7094,8200,2,True,445,Control,Adults,19.77,590.1999999880791,False,0
7095,8200,3,False,447,Control,Adults,19.77,258.40000000596046,False,1
7260,10045,0,True,260,Revaluation,Adults,21.55,1307.4000000357628,True,1
7261,10045,1,False,262,Revaluation,Adults,21.55,1800.0,False,0
7262,10045,2,False,264,Revaluation,Adults,21.55,1440.8999999761581,False,0
7263,10045,3,False,266,Revaluation,Adults,21.55,1292.5999999642372,False,0
7340,10045,0,True,435,Control,Adults,21.55,949.7999999523163,True,0
7341,10045,1,True,437,Control,Adults,21.55,816.9000000357628,False,0
7342,10045,2,True,439,Control,Adults,21.55,825.5999999642372,False,0
7343,10045,3,True,441,Control,Adults,21.55,908.9000000357628,False,0
7508,12454,0,True,260,Control,Adolescents,16.51,1152.8999998569489,True,0
7509,12454,1,True,262,Control,Adolescents,16.51,1914.0,False,0
7510,12454,2,True,264,Control,Adolescents,16.51,1323.0999999046326,False,0
7511,12454,3,True,266,Control,Adolescents,16.51,1615.3999998569489,False,0
7588,12454,0,True,435,Revaluation,Adolescents,16.51,1316.8000001907349,True,1
7589,12454,1,True,437,Revaluation,Adolescents,16.51,1880.5,False,1
7590,12454,2,True,439,Revaluation,Adolescents,16.51,821.0,False,1
7591,12454,3,True,441,Revaluation,Adolescents,16.51,674.2000000476837,False,1
7756,9157,0,True,260,Revaluation,Adolescents,15.36,826.2999999523163,True,1
7757,9157,1,True,262,Revaluation,Adolescents,15.36,699.4000000953674,False,1
7758,9157,2,False,264,Revaluation,Adolescents,15.36,698.0,False,0
7759,9157,3,False,266,Revaluation,Adolescents,15.36,416.5,False,0
7836,9157,0,True,435,Control,Adolescents,15.36,412.39999985694885,True,0
7837,9157,1,True,437,Control,Adolescents,15.36,539.9000000953674,False,0
7838,9157,2,True,439,Control,Adolescents,15.36,521.0999999046326,False,0
7839,9157,3,True,441,Control,Adolescents,15.36,363.90000009536743,False,0
8004,8632,0,True,264,Control,Adolescents,14.62,1882.5,True,0
8005,8632,1,True,266,Control,Adolescents,14.62,807.2000000476837,False,0
8006,8632,2,False,268,Control,Adolescents,14.62,1266.5,False,1
8007,8632,3,False,270,Control,Adolescents,14.62,2319.199999988079,False,1
8084,8632,0,False,439,Revaluation,Adolescents,14.62,263.9000000357628,True,0
8085,8632,1,False,441,Revaluation,Adolescents,14.62,255.60000002384186,False,0
8086,8632,2,False,443,Revaluation,Adolescents,14.62,90.0,False,0
8087,8632,3,False,445,Revaluation,Adolescents,14.62,108.40000003576279,False,0
8252,11194,0,False,260,Revaluation,Adolescents,15.66,346.6000000014901,True,0
8253,11194,1,False,262,Revaluation,Adolescents,15.66,797.1999999955297,False,0
8254,11194,2,False,264,Revaluation,Adolescents,15.66,851.2000000029802,False,0
8255,11194,3,False,266,Revaluation,Adolescents,15.66,710.3000000044703,False,0
8332,11194,0,True,435,Control,Adolescents,15.66,1143.1000000014901,True,0
8333,11194,1,True,437,Control,Adolescents,15.66,702.1000000014901,False,0
8334,11194,2,True,439,Control,Adolescents,15.66,445.29999999701977,False,0
8335,11194,3,True,441,Control,Adolescents,15.66,331.19999999552965,False,0
8500,8610,0,True,264,Control,Adolescents,13.28,3988.199999988079,True,0
8501,8610,1,True,266,Control,Adolescents,13.28,769.8000000119209,False,0
8502,8610,2,True,268,Control,Adolescents,13.28,609.7999999523163,False,0
8503,8610,3,True,270,Control,Adolescents,13.28,410.19999998807907,False,0
8580,8610,0,False,439,Revaluation,Adolescents,13.28,785.8000000119209,True,0
8581,8610,1,False,441,Revaluation,Adolescents,13.28,64.90000003576279,False,0
8582,8610,2,False,443,Revaluation,Adolescents,13.28,29.30000001192093,False,0
8583,8610,3,False,445,Revaluation,Adolescents,13.28,174.19999998807907,False,0
8748,8359,0,True,260,Control,Adults,19.52,322.10000002384186,True,0
8749,8359,1,True,262,Control,Adults,19.52,1830.8999999761581,False,0
8750,8359,2,True,264,Control,Adults,19.52,1279.199999988079,False,0
8751,8359,3,True,266,Control,Adults,19.52,2057.199999988079,False,0
8828,8359,0,False,435,Revaluation,Adults,19.52,652.5,True,0
8829,8359,1,True,437,Revaluation,Adults,19.52,1678.699999988079,False,1
8830,8359,2,True,439,Revaluation,Adults,19.52,544.9000000357628,False,1
8831,8359,3,True,441,Revaluation,Adults,19.52,307.10000002384186,False,1
8996,9627,0,True,261,Control,Adolescents,16.0,663.0,True,0
8997,9627,1,True,263,Control,Adolescents,16.0,1434.0,False,0
8998,9627,2,True,265,Control,Adolescents,16.0,896.6999998092651,False,0
8999,9627,3,True,267,Control,Adolescents,16.0,811.2000002861023,False,0
9076,9627,0,False,436,Revaluation,Adolescents,16.0,649.7999997138977,True,0
9077,9627,1,False,438,Revaluation,Adolescents,16.0,383.5,False,0
9078,9627,2,False,440,Revaluation,Adolescents,16.0,377.40000009536743,False,0
9079,9627,3,False,442,Revaluation,Adolescents,16.0,319.59999990463257,False,0
9244,9000,0,False,264,Revaluation,Adults,21.34,530.3999999985099,True,0
9245,9000,1,False,266,Revaluation,Adults,21.34,965.5999999977648,False,0
9246,9000,2,False,268,Revaluation,Adults,21.34,547.1000000014901,False,0
9247,9000,3,False,270,Revaluation,Adults,21.34,821.4000000022352,False,0
9324,9000,0,True,439,Control,Adults,21.34,654.2000000029802,True,0
9325,9000,1,True,441,Control,Adults,21.34,1513.6000000014901,False,0
9326,9000,2,True,443,Control,Adults,21.34,411.80000000074506,False,0
9327,9000,3,True,445,Control,Adults,21.34,340.8999999985099,False,0
9492,8700,0,True,262,Control,Adults,19.67,1081.5,True,0
9493,8700,1,True,264,Control,Adults,19.67,3662.39999999851,False,0
9494,8700,2,False,266,Control,Adults,19.67,1723.3999999985099,False,1
9495,8700,3,True,268,Control,Adults,19.67,963.8999999985099,False,0
9572,8700,0,True,437,Revaluation,Adults,19.67,712.3999999985099,True,1
9573,8700,1,True,439,Revaluation,Adults,19.67,836.6000000014901,False,1
9574,8700,2,True,441,Revaluation,Adults,19.67,392.1000000014901,False,1
9575,8700,3,True,443,Revaluation,Adults,19.67,301.29999999701977,False,1
9740,8368,0,True,261,Control,Adults,20.06,690.1000000014901,True,0
9741,8368,1,True,263,Control,Adults,20.06,1542.0,False,0
9742,8368,2,True,265,Control,Adults,20.06,692.5999999996275,False,0
9743,8368,3,True,267,Control,Adults,20.06,891.5999999996275,False,0
9820,8368,0,False,436,Revaluation,Adults,20.06,369.09999999962747,True,0
9821,8368,1,False,438,Revaluation,Adults,20.06,387.5,False,0
9822,8368,2,False,440,Revaluation,Adults,20.06,260.2999999988824,False,0
9823,8368,3,False,442,Revaluation,Adults,20.06,75.69999999925494,False,0
9988,9159,0,True,260,Control,Adolescents,15.8,653.7000000476837,True,0
9989,9159,1,True,262,Control,Adolescents,15.8,762.0,False,0
9990,9159,2,True,264,Control,Adolescents,15.8,615.2000000476837,False,0
9991,9159,3,True,266,Control,Adolescents,15.8,732.2999999523163,False,0
10068,9159,0,False,435,Revaluation,Adolescents,15.8,455.7000000476837,True,0
10069,9159,1,False,437,Revaluation,Adolescents,15.8,282.10000014305115,False,0
10070,9159,2,False,439,Revaluation,Adolescents,15.8,158.90000009536743,False,0
10071,9159,3,False,441,Revaluation,Adolescents,15.8,105.89999985694885,False,0
10236,9164,0,False,261,Revaluation,Adolescents,15.24,618.0,True,0
10237,9164,1,False,263,Revaluation,Adolescents,15.24,620.7999999998137,False,0
10238,9164,2,False,265,Revaluation,Adolescents,15.24,715.1000000005588,False,0
10239,9164,3,False,267,Revaluation,Adolescents,15.24,688.1999999992549,False,0
10316,9164,0,True,436,Control,Adolescents,15.24,907.2999999998137,True,0
10317,9164,1,True,438,Control,Adolescents,15.24,727.5,False,0
10318,9164,2,True,440,Control,Adolescents,15.24,989.2000000001863,False,0
10319,9164,3,True,442,Control,Adolescents,15.24,656.5,False,0
10484,12455,0,True,266,Control,Children,9.83,505.0,True,0
10485,12455,1,True,268,Control,Children,9.83,1629.3000001907349,False,0
10486,12455,2,True,270,Control,Children,9.83,1141.1000003814697,False,0
10487,12455,3,True,272,Control,Children,9.83,717.8999996185303,False,0
10564,12455,0,False,441,Revaluation,Children,9.83,798.2000007629395,True,0
10565,12455,1,False,443,Revaluation,Children,9.83,591.7000007629395,False,0
10566,12455,2,False,445,Revaluation,Children,9.83,812.0999994277954,False,0
10567,12455,3,False,447,Revaluation,Children,9.83,712.3000001907349,False,0
10732,8587,0,False,260,Revaluation,Children,11.74,651.3000000007451,True,0
10733,8587,1,True,262,Revaluation,Children,11.74,1152.699999999255,False,1
10734,8587,2,True,264,Revaluation,Children,11.74,1220.5,False,1
10735,8587,3,False,266,Revaluation,Children,11.74,928.1999999992549,False,0
10812,8587,0,False,435,Control,Children,11.74,382.19999999925494,True,1
10813,8587,1,True,437,Control,Children,11.74,531.0999999977648,False,0
10814,8587,2,True,439,Control,Children,11.74,321.30000000074506,False,0
10815,8587,3,True,441,Control,Children,11.74,304.3999999985099,False,0
10980,9444,0,True,260,Revaluation,Children,9.82,971.2000000001863,True,1
10981,9444,1,True,262,Revaluation,Children,9.82,937.0,False,1
10982,9444,2,False,264,Revaluation,Children,9.82,921.8000000002794,False,0
10983,9444,3,True,266,Revaluation,Children,9.82,666.0999999996275,False,1
11060,9444,0,False,435,Control,Children,9.82,1050.2999999998137,True,1
11061,9444,1,True,437,Control,Children,9.82,1474.2000000001863,False,0
11062,9444,2,False,439,Control,Children,9.82,761.2000000001863,False,1
11063,9444,3,True,441,Control,Children,9.82,347.20000000018626,False,0
11228,8687,0,False,260,Revaluation,Adults,19.34,617.5999999940395,True,0
11229,8687,1,False,262,Revaluation,Adults,19.34,766.0,False,0
11230,8687,2,False,264,Revaluation,Adults,19.34,933.4000000059605,False,0
11231,8687,3,False,266,Revaluation,Adults,19.34,955.0,False,0
11308,8687,0,True,435,Control,Adults,19.34,480.6000000089407,True,0
11309,8687,1,True,437,Control,Adults,19.34,913.7999999970198,False,0
11310,8687,2,True,439,Control,Adults,19.34,423.20000000298023,False,0
11311,8687,3,True,441,Control,Adults,19.34,500.69999998807907,False,0
11476,8599,0,True,261,Control,Children,12.69,745.0,True,0
11477,8599,1,True,263,Control,Children,12.69,547.0,False,0
11478,8599,2,True,265,Control,Children,12.69,602.0,False,0
11479,8599,3,True,267,Control,Children,12.69,521.0,False,0
11556,8599,0,True,436,Revaluation,Children,12.69,701.0,True,1
11557,8599,1,True,438,Revaluation,Children,12.69,464.0,False,1
11558,8599,2,True,440,Revaluation,Children,12.69,357.0,False,1
11559,8599,3,True,442,Revaluation,Children,12.69,376.0,False,1
11724,8734,0,True,260,Revaluation,Adults,24.0,907.0999999940395,True,1
11725,8734,1,True,262,Revaluation,Adults,24.0,1221.0,False,1
11726,8734,2,True,264,Revaluation,Adults,24.0,1443.6000000238419,False,1
11727,8734,3,False,266,Revaluation,Adults,24.0,1247.2000000178814,False,0
11804,8734,0,True,435,Control,Adults,24.0,385.0,True,0
11805,8734,1,True,437,Control,Adults,24.0,324.39999997615814,False,0
11806,8734,2,True,439,Control,Adults,24.0,389.40000000596046,False,0
11807,8734,3,True,441,Control,Adults,24.0,452.09999999403954,False,0
11972,8551,0,True,262,Control,Children,8.24,779.5999999977648,True,0
11973,8551,1,True,264,Control,Children,8.24,1048.800000000745,False,0
11974,8551,2,True,266,Control,Children,8.24,324.5,False,0
11975,8551,3,False,268,Control,Children,8.24,2329.300000000745,False,1
12052,8551,0,True,437,Revaluation,Children,8.24,624.8000000007451,True,1
12053,8551,1,True,439,Revaluation,Children,8.24,730.5,False,1
12054,8551,2,False,441,Revaluation,Children,8.24,735.0,False,0
12055,8551,3,True,443,Revaluation,Children,8.24,848.0,False,1
12220,9180,0,False,260,Control,Children,12.83,659.0,True,1
12221,9180,1,True,262,Control,Children,12.83,774.1999999880791,False,0
12222,9180,2,True,264,Control,Children,12.83,422.30000001192093,False,0
12223,9180,3,True,266,Control,Children,12.83,245.89999997615814,False,0
12300,9180,0,False,435,Revaluation,Children,12.83,307.59999999403954,True,0
12301,9180,1,True,437,Revaluation,Children,12.83,34.400000005960464,False,1
12302,9180,2,False,439,Revaluation,Children,12.83,55.400000005960464,False,0
12303,9180,3,True,441,Revaluation,Children,12.83,10.800000011920929,False,1
12468,10010,0,False,260,Revaluation,Adults,21.6,833.0999999940395,True,0
12469,10010,1,False,262,Revaluation,Adults,21.6,1545.1000000014901,False,0
12470,10010,2,True,264,Revaluation,Adults,21.6,897.3000000044703,False,1
12471,10010,3,True,266,Revaluation,Adults,21.6,1270.7000000029802,False,1
12548,10010,0,True,435,Control,Adults,21.6,799.7000000029802,True,0
12549,10010,1,False,437,Control,Adults,21.6,893.5,False,1
12550,10010,2,True,439,Control,Adults,21.6,757.3000000044703,False,0
12551,10010,3,False,441,Control,Adults,21.6,501.6000000014901,False,1
12716,9460,0,True,260,Revaluation,Adolescents,16.19,806.1999999880791,True,1
12717,9460,1,False,262,Revaluation,Adolescents,16.19,1436.0999999940395,False,0
12718,9460,2,True,264,Revaluation,Adolescents,16.19,1510.0,False,1
12719,9460,3,True,266,Revaluation,Adolescents,16.19,1826.4000000059605,False,1
12796,9460,0,True,435,Control,Adolescents,16.19,548.0,True,0
12797,9460,1,True,437,Control,Adolescents,16.19,719.5999999940395,False,0
12798,9460,2,True,439,Control,Adolescents,16.19,967.7000000178814,False,0
12799,9460,3,True,441,Control,Adolescents,16.19,839.4000000059605,False,0
12964,11122,0,False,260,Revaluation,Children,7.81,1229.699999999255,True,0
12965,11122,1,False,262,Revaluation,Children,7.81,1954.4000000022352,False,0
12966,11122,2,False,264,Revaluation,Children,7.81,977.5,False,0
12967,11122,3,False,266,Revaluation,Children,7.81,839.5,False,0
13044,11122,0,True,435,Control,Children,7.81,738.3999999985099,True,0
13045,11122,1,True,437,Control,Children,7.81,1456.1000000014901,False,0
13046,11122,2,True,439,Control,Children,7.81,740.8999999985099,False,0
13047,11122,3,True,441,Control,Children,7.81,855.3000000007451,False,0
13212,8566,0,True,268,Control,Children,10.49,313.39999997615814,True,0
13213,8566,1,True,270,Control,Children,10.49,1367.3999999761581,False,0
13214,8566,2,True,272,Control,Children,10.49,4429.699999928474,False,0
13215,8566,3,True,274,Control,Children,10.49,927.0,False,0
13292,8566,0,True,443,Revaluation,Children,10.49,804.6000000238419,True,1
13293,8566,1,True,445,Revaluation,Children,10.49,912.5,False,1
13294,8566,2,True,447,Revaluation,Children,10.49,571.7999999523163,False,1
13295,8566,3,False,449,Revaluation,Children,10.49,711.1000000238419,False,0
13460,8474,0,False,264,Control,Adults,20.67,1603.2999999970198,True,1
13461,8474,1,False,266,Control,Adults,20.67,2560.89999999851,False,1
13462,8474,2,False,268,Control,Adults,20.67,1125.4000000059605,False,1
13463,8474,3,False,270,Control,Adults,20.67,562.6000000014901,False,1
13540,8474,0,False,439,Revaluation,Adults,20.67,511.5,True,0
13541,8474,1,False,441,Revaluation,Adults,20.67,843.2999999970198,False,0
13542,8474,2,False,443,Revaluation,Adults,20.67,416.79999999701977,False,0
13543,8474,3,False,445,Revaluation,Adults,20.67,358.3999999985099,False,0
13708,8559,0,False,260,Revaluation,Children,10.18,683.9000000003725,True,0
13709,8559,1,True,262,Revaluation,Children,10.18,2084.7000000001863,False,1
13710,8559,2,False,264,Revaluation,Children,10.18,942.2999999998137,False,0
13711,8559,3,False,266,Revaluation,Children,10.18,969.0,False,0
13788,8559,0,False,435,Control,Children,10.18,921.0,True,1
13789,8559,1,True,437,Control,Children,10.18,783.0,False,0
13790,8559,2,False,439,Control,Children,10.18,523.8999999999069,False,1
13791,8559,3,True,441,Control,Children,10.18,1405.7999999998137,False,0
13956,8357,0,False,264,Revaluation,Adults,18.82,789.0,True,0
13957,8357,1,False,266,Revaluation,Adults,18.82,518.0,False,0
13958,8357,2,False,268,Revaluation,Adults,18.82,455.00000000023283,False,0
13959,8357,3,False,270,Revaluation,Adults,18.82,409.0000000001164,False,0
14036,8357,0,True,439,Control,Adults,18.82,263.0,True,0
14037,8357,1,True,441,Control,Adults,18.82,289.0,False,0
14038,8357,2,True,443,Control,Adults,18.82,64.99999999976717,False,0
14039,8357,3,True,445,Control,Adults,18.82,106.99999999976717,False,0
14204,8584,0,True,261,Control,Children,11.51,596.0,True,0
14205,8584,1,True,263,Control,Children,11.51,967.0,False,0
14206,8584,2,True,265,Control,Children,11.51,1081.0,False,0
14207,8584,3,True,267,Control,Children,11.51,647.0,False,0
14284,8584,0,False,436,Revaluation,Children,11.51,562.0,True,0
14285,8584,1,False,438,Revaluation,Children,11.51,810.0000000002328,False,0
14286,8584,2,False,440,Revaluation,Children,11.51,1167.0,False,0
14287,8584,3,False,442,Revaluation,Children,11.51,1085.0,False,0
14452,10172,0,True,264,Revaluation,Children,7.25,866.0999999977648,True,1
14453,10172,1,True,266,Revaluation,Children,7.25,1126.300000000745,False,1
14454,10172,2,True,268,Revaluation,Children,7.25,1384.8999999985099,False,1
14455,10172,3,False,270,Revaluation,Children,7.25,683.5999999977648,False,0
14532,10172,0,True,439,Control,Children,7.25,1691.800000000745,True,0
14533,10172,1,True,441,Control,Children,7.25,2449.800000000745,False,0
14534,10172,2,True,443,Control,Children,7.25,571.9000000022352,False,0
14535,10172,3,True,445,Control,Children,7.25,565.3000000007451,False,0
14700,13778,0,True,264,Control,Adults,18.21,551.5,True,0
14701,13778,1,True,266,Control,Adults,18.21,1029.2999999970198,False,0
14702,13778,2,True,268,Control,Adults,18.21,1074.5,False,0
14703,13778,3,True,270,Control,Adults,18.21,830.7999999970198,False,0
14780,13778,0,False,439,Revaluation,Adults,18.21,1291.0,True,0
14781,13778,1,False,441,Revaluation,Adults,18.21,1040.5999999940395,False,0
14782,13778,2,False,443,Revaluation,Adults,18.21,974.5999999940395,False,0
14783,13778,3,False,445,Revaluation,Adults,18.21,580.8999999910593,False,0
14948,12878,0,True,260,Control,Children,8.38,511.7000000476837,True,0
14949,12878,1,True,262,Control,Children,8.38,926.7999999523163,False,0
14950,12878,2,True,264,Control,Children,8.38,676.0999999046326,False,0
14951,12878,3,True,266,Control,Children,8.38,556.5,False,0
15028,12878,0,False,435,Revaluation,Children,8.38,2376.9000000953674,True,0
15029,12878,1,False,437,Revaluation,Children,8.38,939.2999999523163,False,0
15030,12878,2,False,439,Revaluation,Children,8.38,465.69999980926514,False,0
15031,12878,3,False,441,Revaluation,Children,8.38,469.10000014305115,False,0
15196,10037,0,True,260,Control,Children,10.75,372.5,True,0
15197,10037,1,True,262,Control,Children,10.75,1456.4000000953674,False,0
15198,10037,2,True,264,Control,Children,10.75,827.4000000953674,False,0
15199,10037,3,True,266,Control,Children,10.75,537.0,False,0
15276,10037,0,False,435,Revaluation,Children,10.75,336.90000009536743,True,0
15277,10037,1,False,437,Revaluation,Children,10.75,517.5999999046326,False,0
15278,10037,2,False,439,Revaluation,Children,10.75,401.59999990463257,False,0
15279,10037,3,False,441,Revaluation,Children,10.75,399.7000000476837,False,0
15444,14425,0,True,260,Control,Adults,18.51,451.7000000476837,True,0
15445,14425,1,False,262,Control,Adults,18.51,763.1999999284744,False,1
15446,14425,2,True,264,Control,Adults,18.51,1128.8000000715256,False,0
15447,14425,3,True,266,Control,Adults,18.51,688.3000000715256,False,0
15524,14425,0,True,435,Revaluation,Adults,18.51,311.5,True,1
15525,14425,1,False,437,Revaluation,Adults,18.51,650.7000000476837,False,0
15526,14425,2,True,439,Revaluation,Adults,18.51,255.60000002384186,False,1
15527,14425,3,True,441,Revaluation,Adults,18.51,260.1999999284744,False,1
15692,8633,0,False,266,Control,Adolescents,14.83,785.5,True,1
15693,8633,1,True,268,Control,Adolescents,14.83,794.4000000953674,False,0
15694,8633,2,True,270,Control,Adolescents,14.83,764.6000000238419,False,0
15695,8633,3,True,272,Control,Adolescents,14.83,516.2999999523163,False,0
15772,8633,0,True,441,Revaluation,Adolescents,14.83,57.200000047683716,True,1
15773,8633,1,True,443,Revaluation,Adolescents,14.83,163.30000007152557,False,1
15774,8633,2,True,445,Revaluation,Adolescents,14.83,283.09999990463257,False,1
15775,8633,3,True,447,Revaluation,Adolescents,14.83,161.80000007152557,False,1
15940,8324,0,False,260,Revaluation,Children,12.68,423.09999990463257,True,0
15941,8324,1,False,262,Revaluation,Children,12.68,611.2000000476837,False,0
15942,8324,2,False,264,Revaluation,Children,12.68,799.1000001430511,False,0
15943,8324,3,True,266,Revaluation,Children,12.68,452.09999990463257,False,1
16020,8324,0,True,435,Control,Children,12.68,311.7000000476837,True,0
16021,8324,1,True,437,Control,Children,12.68,393.0,False,0
16022,8324,2,True,439,Control,Children,12.68,302.59999990463257,False,0
16023,8324,3,True,441,Control,Children,12.68,268.09999990463257,False,0
16188,9170,0,True,262,Revaluation,Adolescents,17.92,478.5,True,1
16189,9170,1,True,264,Revaluation,Adolescents,17.92,715.0,False,1
16190,9170,2,True,266,Revaluation,Adolescents,17.92,529.2999999523163,False,1
16191,9170,3,True,268,Revaluation,Adolescents,17.92,299.40000009536743,False,1
16268,9170,0,True,437,Control,Adolescents,17.92,521.0,True,0
16269,9170,1,True,439,Control,Adolescents,17.92,590.1999999284744,False,0
16270,9170,2,True,441,Control,Adolescents,17.92,525.2000000476837,False,0
16271,9170,3,True,443,Control,Adolescents,17.92,342.6999999284744,False,0
16436,9151,0,True,263,Control,Adolescents,14.7,884.8999998569489,True,0
16437,9151,1,True,265,Control,Adolescents,14.7,1098.2000000476837,False,0
16438,9151,2,True,267,Control,Adolescents,14.7,899.7000000476837,False,0
16439,9151,3,True,269,Control,Adolescents,14.7,1388.5,False,0
16516,9151,0,True,438,Revaluation,Adolescents,14.7,497.0,True,1
16517,9151,1,True,440,Revaluation,Adolescents,14.7,428.5,False,1
16518,9151,2,True,442,Revaluation,Adolescents,14.7,416.2999999523163,False,1
16519,9151,3,True,444,Revaluation,Adolescents,14.7,299.2999999523163,False,1
16684,8615,0,False,264,Revaluation,Adolescents,13.87,469.3000000715256,True,0
16685,8615,1,True,266,Revaluation,Adolescents,13.87,697.3000000715256,False,1
16686,8615,2,False,268,Revaluation,Adolescents,13.87,599.3000000715256,False,0
16687,8615,3,True,270,Revaluation,Adolescents,13.87,510.3000000715256,False,1
16764,8615,0,False,439,Control,Adolescents,13.87,195.30000007152557,True,1
16765,8615,1,False,441,Control,Adolescents,13.87,56.39999997615814,False,1
16766,8615,2,False,443,Control,Adolescents,13.87,169.80000007152557,False,1
16767,8615,3,False,445,Control,Adolescents,13.87,16.399999976158142,False,1
16932,8325,0,False,264,Revaluation,Children,12.22,509.2999999523163,True,0
16933,8325,1,False,266,Revaluation,Children,12.22,1158.6999998092651,False,0
16934,8325,2,False,268,Revaluation,Children,12.22,1204.7000000476837,False,0
16935,8325,3,False,270,Revaluation,Children,12.22,1234.7000000476837,False,0
17012,8325,0,True,439,Control,Children,12.22,318.60000014305115,True,0
17013,8325,1,False,441,Control,Children,12.22,483.10000014305115,False,1
17014,8325,2,True,443,Control,Children,12.22,513.9000000953674,False,0
17015,8325,3,True,445,Control,Children,12.22,639.0,False,0
17180,9154,0,False,269,Revaluation,Adolescents,14.05,793.0,True,0
17181,9154,1,False,271,Revaluation,Adolescents,14.05,1655.0,False,0
17182,9154,2,False,273,Revaluation,Adolescents,14.05,1136.0,False,0
17183,9154,3,False,275,Revaluation,Adolescents,14.05,736.0,False,0
17260,9154,0,False,444,Control,Adolescents,14.05,656.0,True,1
17261,9154,1,False,446,Control,Adolescents,14.05,1199.0,False,1
17262,9154,2,False,448,Control,Adolescents,14.05,1144.0,False,1
17263,9154,3,False,450,Control,Adolescents,14.05,727.0,False,1
17428,8678,0,False,261,Revaluation,Adults,18.79,293.10000002384186,True,0
17429,8678,1,False,263,Revaluation,Adults,18.79,321.39999997615814,False,0
17430,8678,2,False,265,Revaluation,Adults,18.79,300.10000002384186,False,0
17431,8678,3,False,267,Revaluation,Adults,18.79,281.4000000357628,False,0
17508,8678,0,True,436,Control,Adults,18.79,448.39999997615814,True,0
17509,8678,1,True,438,Control,Adults,18.79,282.0999999642372,False,0
17510,8678,2,True,440,Control,Adults,18.79,230.5,False,0
17511,8678,3,True,442,Control,Adults,18.79,300.80000001192093,False,0
17676,8775,0,True,263,Revaluation,Adults,22.65,581.7999997138977,True,1
17677,8775,1,True,265,Revaluation,Adults,22.65,925.6999998092651,False,1
17678,8775,2,True,267,Revaluation,Adults,22.65,876.1999998092651,False,1
17679,8775,3,True,269,Revaluation,Adults,22.65,1010.0999999046326,False,1
17756,8775,0,True,438,Control,Adults,22.65,447.0,True,0
17757,8775,1,True,440,Control,Adults,22.65,380.2999997138977,False,0
17758,8775,2,True,442,Control,Adults,22.65,360.2000002861023,False,0
17759,8775,3,True,444,Control,Adults,22.65,469.8999996185303,False,0
17924,8589,0,True,260,Revaluation,Children,11.97,737.2000000476837,True,1
17925,8589,1,False,262,Revaluation,Children,11.97,1237.5,False,0
17926,8589,2,True,264,Revaluation,Children,11.97,1015.1000001430511,False,1
17927,8589,3,True,266,Revaluation,Children,11.97,915.4000000953674,False,1
18004,8589,0,True,435,Control,Children,11.97,489.40000009536743,True,0
18005,8589,1,True,437,Control,Children,11.97,800.0,False,0
18006,8589,2,True,439,Control,Children,11.97,460.60000014305115,False,0
18007,8589,3,True,441,Control,Children,11.97,391.0,False,0
18172,10031,0,True,262,Control,Children,8.51,832.1999999880791,True,0
18173,10031,1,True,264,Control,Children,8.51,932.6999999880791,False,0
18174,10031,2,True,266,Control,Children,8.51,581.1000000238419,False,0
18175,10031,3,True,268,Control,Children,8.51,465.5,False,0
18252,10031,0,False,437,Revaluation,Children,8.51,919.0999999642372,True,0
18253,10031,1,False,439,Revaluation,Children,8.51,1123.0999999642372,False,0
18254,10031,2,False,441,Revaluation,Children,8.51,762.3000000119209,False,0
18255,10031,3,False,443,Revaluation,Children,8.51,714.0,False,0
18420,8558,0,False,262,Revaluation,Children,9.01,499.69999999552965,True,0
18421,8558,1,False,264,Revaluation,Children,9.01,682.7999999970198,False,0
18422,8558,2,False,266,Revaluation,Children,9.01,572.4000000059605,False,0
18423,8558,3,True,268,Revaluation,Children,9.01,682.6000000014901,False,1
18500,8558,0,False,437,Control,Children,9.01,440.19999999552965,True,1
18501,8558,1,True,439,Control,Children,9.01,1722.3999999985099,False,0
18502,8558,2,True,441,Control,Children,9.01,414.8999999985099,False,0
18503,8558,3,True,443,Control,Children,9.01,310.29999999701977,False,0
18668,8706,0,False,261,Revaluation,Adults,20.97,1385.3999999910593,True,0
18669,8706,1,False,263,Revaluation,Adults,20.97,1381.7999999970198,False,0
18670,8706,2,False,265,Revaluation,Adults,20.97,1289.2000000029802,False,0
18671,8706,3,False,267,Revaluation,Adults,20.97,604.0999999940395,False,0
18748,8706,0,False,436,Control,Adults,20.97,1055.7999999970198,True,1
18749,8706,1,False,438,Control,Adults,20.97,1469.2999999970198,False,1
18750,8706,2,False,440,Control,Adults,20.97,1577.0999999940395,False,1
18751,8706,3,False,442,Control,Adults,20.97,613.2000000029802,False,1
18916,11480,0,False,263,Revaluation,Adolescents,17.28,848.0,True,0
18917,11480,1,False,265,Revaluation,Adolescents,17.28,1029.0,False,0
18918,11480,2,True,267,Revaluation,Adolescents,17.28,829.0,False,1
18919,11480,3,False,269,Revaluation,Adolescents,17.28,765.9999999997672,False,0
18996,11480,0,False,438,Control,Adolescents,17.28,959.9999999997672,True,1
18997,11480,1,True,440,Control,Adolescents,17.28,948.9999999997672,False,0
18998,11480,2,True,442,Control,Adolescents,17.28,852.0,False,0
18999,11480,3,True,444,Control,Adolescents,17.28,904.0,False,0
19164,8568,0,False,260,Revaluation,Children,10.37,1448.1999998092651,True,0
19165,8568,1,False,262,Revaluation,Children,10.37,850.5999999046326,False,0
19166,8568,2,True,264,Revaluation,Children,10.37,941.3999996185303,False,1
19167,8568,3,False,266,Revaluation,Children,10.37,735.5999999046326,False,0
19244,8568,0,False,435,Control,Children,10.37,1207.5999999046326,True,1
19245,8568,1,True,437,Control,Children,10.37,1071.0,False,0
19246,8568,2,False,439,Control,Children,10.37,1787.2999997138977,False,1
19247,8568,3,True,441,Control,Children,10.37,1368.7000002861023,False,0
19412,8735,0,True,267,Revaluation,Adults,23.51,845.8000001907349,True,1
19413,8735,1,True,269,Revaluation,Adults,23.51,676.0,False,1
19414,8735,2,True,271,Revaluation,Adults,23.51,1695.7000007629395,False,1
19415,8735,3,False,273,Revaluation,Adults,23.51,309.79999923706055,False,0
19492,8735,0,True,442,Control,Adults,23.51,607.0999994277954,True,0
19493,8735,1,True,444,Control,Adults,23.51,567.6999998092651,False,0
19494,8735,2,False,446,Control,Adults,23.51,247.60000038146973,False,1
19495,8735,3,False,448,Control,Adults,23.51,268.19999980926514,False,1
19660,8702,0,False,261,Revaluation,Adults,19.13,693.5999999046326,True,0
19661,8702,1,False,263,Revaluation,Adults,19.13,1500.3000001907349,False,0
19662,8702,2,False,265,Revaluation,Adults,19.13,2291.4000000953674,False,0
19663,8702,3,False,267,Revaluation,Adults,19.13,1217.7000002861023,False,0
19740,8702,0,True,436,Control,Adults,19.13,433.2000002861023,True,0
19741,8702,1,True,438,Control,Adults,19.13,571.2999997138977,False,0
19742,8702,2,True,440,Control,Adults,19.13,650.5999999046326,False,0
19743,8702,3,True,442,Control,Adults,19.13,659.3000001907349,False,0
19908,8779,0,True,266,Control,Adults,22.77,656.9000000059605,True,0
19909,8779,1,True,268,Control,Adults,22.77,1437.7000000029802,False,0
19910,8779,2,True,270,Control,Adults,22.77,818.5,False,0
19911,8779,3,True,272,Control,Adults,22.77,1564.2999999970198,False,0
19988,8779,0,True,441,Revaluation,Adults,22.77,750.4000000059605,True,1
19989,8779,1,True,443,Revaluation,Adults,22.77,688.7000000029802,False,1
19990,8779,2,True,445,Revaluation,Adults,22.77,537.2999999970198,False,1
19991,8779,3,True,447,Revaluation,Adults,22.77,402.29999999701977,False,1
20156,8699,0,True,264,Control,Adults,19.45,426.39999985694885,True,0
20157,8699,1,True,266,Control,Adults,19.45,891.5,False,0
20158,8699,2,True,268,Control,Adults,19.45,742.3999998569489,False,0
20159,8699,3,True,270,Control,Adults,19.45,461.7000000476837,False,0
20236,8699,0,True,439,Revaluation,Adults,19.45,597.3999998569489,True,1
20237,8699,1,True,441,Revaluation,Adults,19.45,843.4000000953674,False,1
20238,8699,2,True,443,Revaluation,Adults,19.45,438.89999985694885,False,1
20239,8699,3,True,445,Revaluation,Adults,19.45,313.60000014305115,False,1
20404,8732,0,False,262,Revaluation,Adults,23.32,804.4000000059605,True,0
20405,8732,1,False,264,Revaluation,Adults,23.32,925.3999999761581,False,0
20406,8732,2,False,266,Revaluation,Adults,23.32,1597.7999999821186,False,0
20407,8732,3,False,268,Revaluation,Adults,23.32,830.2999999821186,False,0
20484,8732,0,True,437,Control,Adults,23.32,311.09999999403954,True,0
20485,8732,1,True,439,Control,Adults,23.32,267.90000000596046,False,0
20486,8732,2,True,441,Control,Adults,23.32,304.2000000178814,False,0
20487,8732,3,True,443,Control,Adults,23.32,326.0,False,0
20652,13782,0,True,262,Revaluation,Adults,18.6,648.1000000014901,True,1
20653,13782,1,True,264,Revaluation,Adults,18.6,1265.300000000745,False,1
20654,13782,2,True,266,Revaluation,Adults,18.6,1416.0,False,1
20655,13782,3,True,268,Revaluation,Adults,18.6,1830.699999999255,False,1
20732,13782,0,True,437,Control,Adults,18.6,1018.5,True,0
20733,13782,1,True,439,Control,Adults,18.6,776.1000000014901,False,0
20734,13782,2,True,441,Control,Adults,18.6,1047.4000000022352,False,0
20735,13782,3,True,443,Control,Adults,18.6,619.8000000007451,False,0
20900,8564,0,False,262,Control,Children,10.9,614.2999999821186,True,1
20901,8564,1,False,264,Control,Children,10.9,705.5999999940395,False,1
20902,8564,2,False,266,Control,Children,10.9,402.59999999403954,False,1
20903,8564,3,False,268,Control,Children,10.9,287.2999999821186,False,1
20980,8564,0,False,437,Revaluation,Children,10.9,342.0,True,0
20981,8564,1,False,439,Revaluation,Children,10.9,305.59999999403954,False,0
20982,8564,2,False,441,Revaluation,Children,10.9,48.599999994039536,False,0
20983,8564,3,True,443,Revaluation,Children,10.9,199.2000000178814,False,1
21148,9759,0,True,264,Revaluation,Adolescents,15.24,1046.6000000238419,True,1
21149,9759,1,True,266,Revaluation,Adolescents,15.24,1148.0999999046326,False,1
21150,9759,2,True,268,Revaluation,Adolescents,15.24,289.10000002384186,False,1
21151,9759,3,True,270,Revaluation,Adolescents,15.24,245.69999992847443,False,1
21228,9759,0,True,439,Control,Adolescents,15.24,427.5,True,0
21229,9759,1,True,441,Control,Adolescents,15.24,377.39999997615814,False,0
21230,9759,2,True,443,Control,Adolescents,15.24,391.10000002384186,False,0
21231,9759,3,True,445,Control,Adolescents,15.24,270.39999997615814,False,0
21396,8171,0,False,264,Revaluation,Children,10.58,580.5999999046326,True,0
21397,8171,1,True,266,Revaluation,Children,10.58,1374.0,False,1
21398,8171,2,True,268,Revaluation,Children,10.58,1139.3999998569489,False,1
21399,8171,3,False,270,Revaluation,Children,10.58,886.5999999046326,False,0
21476,8171,0,True,439,Control,Children,10.58,488.10000014305115,True,0
21477,8171,1,True,441,Control,Children,10.58,710.6000001430511,False,0
21478,8171,2,True,443,Control,Children,10.58,601.7999999523163,False,0
21479,8171,3,True,445,Control,Children,10.58,411.0,False,0
21644,8595,0,False,263,Revaluation,Children,12.08,617.1000000014901,True,0
21645,8595,1,False,265,Revaluation,Children,12.08,1056.2999999970198,False,0
21646,8595,2,False,267,Revaluation,Children,12.08,1065.2999999970198,False,0
21647,8595,3,True,269,Revaluation,Children,12.08,1287.0,False,1
21724,8595,0,True,438,Control,Children,12.08,7.399999998509884,True,0
21725,8595,1,True,440,Control,Children,12.08,18.299999997019768,False,0
21726,8595,2,True,442,Control,Children,12.08,46.80000000447035,False,0
21727,8595,3,True,444,Control,Children,12.08,16.299999997019768,False,0
21892,9677,0,True,262,Control,Adults,21.88,546.0,True,0
21893,9677,1,True,264,Control,Adults,21.88,892.2000000178814,False,0
21894,9677,2,True,266,Control,Adults,21.88,791.5999999940395,False,0
21895,9677,3,True,268,Control,Adults,21.88,743.2999999821186,False,0
21972,9677,0,False,437,Revaluation,Adults,21.88,841.5,True,0
21973,9677,1,False,439,Revaluation,Adults,21.88,755.4000000059605,False,0
21974,9677,2,False,441,Revaluation,Adults,21.88,726.5,False,0
21975,9677,3,True,443,Revaluation,Adults,21.88,562.4000000059605,False,1
22140,8175,0,False,262,Revaluation,Children,11.64,302.2000000011176,True,0
22141,8175,1,False,264,Revaluation,Children,11.64,596.4000000003725,False,0
22142,8175,2,True,266,Revaluation,Children,11.64,567.1000000014901,False,1
22143,8175,3,False,268,Revaluation,Children,11.64,466.59999999962747,False,0
22220,8175,0,True,437,Control,Children,11.64,3271.60000000149,True,0
22221,8175,1,True,439,Control,Children,11.64,448.5,False,0
22222,8175,2,True,441,Control,Children,11.64,267.8999999985099,False,0
22223,8175,3,True,443,Control,Children,11.64,283.30000000074506,False,0
22388,8719,0,True,264,Control,Adults,21.57,627.9000000953674,True,0
22389,8719,1,True,266,Control,Adults,21.57,737.3000001907349,False,0
22390,8719,2,True,268,Control,Adults,21.57,403.5,False,0
22391,8719,3,True,270,Control,Adults,21.57,346.90000009536743,False,0
22468,8719,0,True,439,Revaluation,Adults,21.57,486.59999990463257,True,1
22469,8719,1,True,441,Revaluation,Adults,21.57,676.5,False,1
22470,8719,2,False,443,Revaluation,Adults,21.57,344.59999990463257,False,0
22471,8719,3,False,445,Revaluation,Adults,21.57,400.10000014305115,False,0
22636,8338,0,True,260,Control,Adolescents,14.02,377.2999999523163,True,0
22637,8338,1,True,262,Control,Adolescents,14.02,524.5999999046326,False,0
22638,8338,2,True,264,Control,Adolescents,14.02,356.5,False,0
22639,8338,3,True,266,Control,Adolescents,14.02,344.2000000476837,False,0
22716,8338,0,False,435,Revaluation,Adolescents,14.02,425.0,True,0
22717,8338,1,False,437,Revaluation,Adolescents,14.02,758.7000000476837,False,0
22718,8338,2,False,439,Revaluation,Adolescents,14.02,658.5,False,0
22719,8338,3,False,441,Revaluation,Adolescents,14.02,597.8999998569489,False,0
22884,10510,0,True,260,Control,Children,8.2,1255.0,True,0
22885,10510,1,True,262,Control,Children,8.2,2075.2999999970198,False,0
22886,10510,2,True,264,Control,Children,8.2,1250.6000000089407,False,0
22887,10510,3,False,266,Control,Children,8.2,2508.6000000089407,False,1
22964,10510,0,False,435,Revaluation,Children,8.2,486.1000000089407,True,0
22965,10510,1,False,437,Revaluation,Children,8.2,875.5,False,0
22966,10510,2,False,439,Revaluation,Children,8.2,801.3999999910593,False,0
22967,10510,3,False,441,Revaluation,Children,8.2,883.0999999940395,False,0
23132,8582,0,False,260,Revaluation,Children,11.62,463.80000000447035,True,0
23133,8582,1,True,262,Revaluation,Children,11.62,1019.6000000014901,False,1
23134,8582,2,False,264,Revaluation,Children,11.62,659.7999999970198,False,0
23135,8582,3,False,266,Revaluation,Children,11.62,573.1000000014901,False,0
23212,8582,0,True,435,Control,Children,11.62,27.599999994039536,True,0
23213,8582,1,True,437,Control,Children,11.62,318.8999999985099,False,0
23214,8582,2,True,439,Control,Children,11.62,344.8999999985099,False,0
23215,8582,3,True,441,Control,Children,11.62,337.30000000447035,False,0
23380,8403,0,True,260,Control,Adolescents,14.9,354.30000001192093,True,0
23381,8403,1,True,262,Control,Adolescents,14.9,688.8000000119209,False,0
23382,8403,2,True,264,Control,Adolescents,14.9,599.7000000178814,False,0
23383,8403,3,True,266,Control,Adolescents,14.9,648.6999999880791,False,0
23460,8403,0,True,435,Revaluation,Adolescents,14.9,269.90000000596046,True,1
23461,8403,1,True,437,Revaluation,Adolescents,14.9,268.40000000596046,False,1
23462,8403,2,True,439,Revaluation,Adolescents,14.9,255.90000000596046,False,1
23463,8403,3,True,441,Revaluation,Adolescents,14.9,374.40000000596046,False,1
23628,8661,0,True,262,Revaluation,Adolescents,16.49,698.0,True,1
23629,8661,1,True,264,Revaluation,Adolescents,16.49,1037.2999999523163,False,1
23630,8661,2,True,266,Revaluation,Adolescents,16.49,555.5,False,1
23631,8661,3,True,268,Revaluation,Adolescents,16.49,538.5,False,1
23708,8661,0,True,437,Control,Adolescents,16.49,422.5,True,0
23709,8661,1,True,439,Control,Adolescents,16.49,475.10000002384186,False,0
23710,8661,2,False,441,Control,Adolescents,16.49,722.3999999761581,False,1
23711,8661,3,False,443,Control,Adolescents,16.49,308.0,False,1
23876,8676,0,False,265,Revaluation,Adults,18.94,1557.5999999046326,True,0
23877,8676,1,False,267,Revaluation,Adults,18.94,715.3999998569489,False,0
23878,8676,2,False,269,Revaluation,Adults,18.94,700.4000000953674,False,0
23879,8676,3,False,271,Revaluation,Adults,18.94,962.1999998092651,False,0
23956,8676,0,False,440,Control,Adults,18.94,973.0,True,1
23957,8676,1,False,442,Control,Adults,18.94,1090.7000000476837,False,1
23958,8676,2,False,444,Control,Adults,18.94,893.2000000476837,False,1
23959,8676,3,False,446,Control,Adults,18.94,914.5,False,1
24124,10521,0,True,260,Revaluation,Adolescents,16.47,774.0,True,1
24125,10521,1,False,262,Revaluation,Adolescents,16.47,672.2000000001863,False,0
24126,10521,2,True,264,Revaluation,Adolescents,16.47,627.0999999996275,False,1
24127,10521,3,True,266,Revaluation,Adolescents,16.47,662.2999999998137,False,1
24204,10521,0,True,435,Control,Adolescents,16.47,347.09999999962747,True,0
24205,10521,1,True,437,Control,Adolescents,16.47,614.5,False,0
24206,10521,2,True,439,Control,Adolescents,16.47,395.29999999981374,False,0
24207,10521,3,True,441,Control,Adolescents,16.47,400.5,False,0
24372,8716,0,True,266,Control,Adults,21.65,806.7000000029802,True,0
24373,8716,1,True,268,Control,Adults,21.65,1583.2999999970198,False,0
24374,8716,2,False,270,Control,Adults,21.65,1371.2999999970198,False,1
24375,8716,3,False,272,Control,Adults,21.65,1768.2000000029802,False,1
24452,8716,0,False,441,Revaluation,Adults,21.65,469.40000000596046,True,0
24453,8716,1,False,443,Revaluation,Adults,21.65,946.0999999940395,False,0
24454,8716,2,True,445,Revaluation,Adults,21.65,423.3999999910593,False,1
24455,8716,3,False,447,Revaluation,Adults,21.65,627.4000000059605,False,0
24620,8377,0,True,263,Control,Adults,21.47,612.0,True,0
24621,8377,1,True,265,Control,Adults,21.47,648.0,False,0
24622,8377,2,True,267,Control,Adults,21.47,666.0,False,0
24623,8377,3,True,269,Control,Adults,21.47,467.0,False,0
24700,8377,0,True,438,Revaluation,Adults,21.47,973.0,True,1
24701,8377,1,True,440,Revaluation,Adults,21.47,793.0,False,1
24702,8377,2,False,442,Revaluation,Adults,21.47,574.0,False,0
24703,8377,3,False,444,Revaluation,Adults,21.47,323.0,False,0
24868,8201,0,False,260,Revaluation,Adults,19.34,1137.5,True,0
24869,8201,1,False,262,Revaluation,Adults,19.34,763.3999999985099,False,0
24870,8201,2,False,264,Revaluation,Adults,19.34,467.90000000037253,False,0
24871,8201,3,False,266,Revaluation,Adults,19.34,261.3999999985099,False,0
24948,8201,0,True,435,Control,Adults,19.34,1026.0999999996275,True,0
24949,8201,1,True,437,Control,Adults,19.34,686.9000000003725,False,0
24950,8201,2,True,439,Control,Adults,19.34,461.80000000074506,False,0
24951,8201,3,True,441,Control,Adults,19.34,233.69999999925494,False,0
25116,8819,0,True,266,Control,Adults,18.71,1112.8000000715256,True,0
25117,8819,1,True,268,Control,Adults,18.71,15.299999952316284,False,0
25118,8819,2,True,270,Control,Adults,18.71,559.2999999523163,False,0
25119,8819,3,True,272,Control,Adults,18.71,10.399999976158142,False,0
25196,8819,0,False,441,Revaluation,Adults,18.71,751.2999999523163,True,0
25197,8819,1,False,443,Revaluation,Adults,18.71,10.400000095367432,False,0
25198,8819,2,False,445,Revaluation,Adults,18.71,333.3000000715256,False,0
25199,8819,3,False,447,Revaluation,Adults,18.71,475.2999999523163,False,0
25364,8423,0,False,262,Revaluation,Children,9.32,371.2999999523163,True,0
25365,8423,1,False,264,Revaluation,Children,9.32,1059.7000000476837,False,0
25366,8423,2,True,266,Revaluation,Children,9.32,489.09999990463257,False,1
25367,8423,3,True,268,Revaluation,Children,9.32,437.60000002384186,False,1
25444,8423,0,True,437,Control,Children,9.32,326.6999999284744,True,0
25445,8423,1,True,439,Control,Children,9.32,354.0,False,0
25446,8423,2,True,441,Control,Children,9.32,258.60000002384186,False,0
25447,8423,3,True,443,Control,Children,9.32,56.09999990463257,False,0
25612,12605,0,True,262,Control,Adolescents,17.04,454.30000001192093,True,0
25613,12605,1,True,264,Control,Adolescents,17.04,542.8000000119209,False,0
25614,12605,2,True,266,Control,Adolescents,17.04,237.0,False,0
25615,12605,3,True,268,Control,Adolescents,17.04,223.0,False,0
25692,12605,0,True,437,Revaluation,Adolescents,17.04,353.30000001192093,True,1
25693,12605,1,True,439,Revaluation,Adolescents,17.04,117.30000001192093,False,1
25694,12605,2,True,441,Revaluation,Adolescents,17.04,140.2000000178814,False,1
25695,12605,3,True,443,Revaluation,Adolescents,17.04,162.09999999403954,False,1
25860,8392,0,True,264,Control,Children,11.08,1287.0,True,0
25861,8392,1,True,266,Control,Children,11.08,738.0,False,0
25862,8392,2,True,268,Control,Children,11.08,606.0,False,0
25863,8392,3,True,270,Control,Children,11.08,488.0,False,0
25940,8392,0,True,439,Revaluation,Children,11.08,628.0,True,1
25941,8392,1,True,441,Revaluation,Children,11.08,503.0,False,1
25942,8392,2,False,443,Revaluation,Children,11.08,428.0,False,0
25943,8392,3,True,445,Revaluation,Children,11.08,369.0,False,1
26108,8365,0,False,262,Revaluation,Adults,20.93,647.3999999985099,True,0
26109,8365,1,True,264,Revaluation,Adults,20.93,1177.7000000029802,False,1
26110,8365,2,True,266,Revaluation,Adults,20.93,1325.1999999955297,False,1
26111,8365,3,False,268,Revaluation,Adults,20.93,1349.4000000059605,False,0
26188,8365,0,True,437,Control,Adults,20.93,1034.8999999985099,True,0
26189,8365,1,True,439,Control,Adults,20.93,1418.5,False,0
26190,8365,2,False,441,Control,Adults,20.93,2293.60000000149,False,1
26191,8365,3,False,443,Control,Adults,20.93,1870.0,False,1
26356,8217,0,True,262,Revaluation,Adolescents,13.6,426.60000002384186,True,1
26357,8217,1,True,264,Revaluation,Adolescents,13.6,704.1999999880791,False,1
26358,8217,2,True,266,Revaluation,Adolescents,13.6,556.4000000059605,False,1
26359,8217,3,True,268,Revaluation,Adolescents,13.6,347.5,False,1
26436,8217,0,True,437,Control,Adolescents,13.6,454.5,True,0
26437,8217,1,True,439,Control,Adolescents,13.6,340.10000002384186,False,0
26438,8217,2,True,441,Control,Adolescents,13.6,230.5,False,0
26439,8217,3,True,443,Control,Adolescents,13.6,156.59999999403954,False,0
26604,11193,0,True,260,Revaluation,Children,7.03,592.6000000238419,True,1
26605,11193,1,True,262,Revaluation,Children,7.03,1327.9000000953674,False,1
26606,11193,2,False,264,Revaluation,Children,7.03,2613.2999999523163,False,0
26607,11193,3,True,266,Revaluation,Children,7.03,736.1000000238419,False,1
26684,11193,0,True,435,Control,Children,7.03,855.0,True,0
26685,11193,1,True,437,Control,Children,7.03,979.7000000476837,False,0
26686,11193,2,False,439,Control,Children,7.03,522.7999999523163,False,1
26687,11193,3,False,441,Control,Children,7.03,1302.2000000476837,False,1
26852,8771,0,False,261,Revaluation,Adults,22.96,545.7999999523163,True,0
26853,8771,1,False,263,Revaluation,Adults,22.96,690.0,False,0
26854,8771,2,False,265,Revaluation,Adults,22.96,1227.6999999284744,False,0
26855,8771,3,False,267,Revaluation,Adults,22.96,910.7999999523163,False,0
26932,8771,0,True,436,Control,Adults,22.96,381.40000009536743,True,0
26933,8771,1,True,438,Control,Adults,22.96,306.5,False,0
26934,8771,2,True,440,Control,Adults,22.96,365.0,False,0
26935,8771,3,True,442,Control,Adults,22.96,331.10000002384186,False,0
27100,10040,0,True,263,Control,Children,9.37,441.2999999523163,True,0
27101,10040,1,True,265,Control,Children,9.37,997.2000000476837,False,0
27102,10040,2,False,267,Control,Children,9.37,550.0,False,1
27103,10040,3,True,269,Control,Children,9.37,696.3000001907349,False,0
27180,10040,0,False,438,Revaluation,Children,9.37,279.0,True,0
27181,10040,1,True,440,Revaluation,Children,9.37,557.1000001430511,False,1
27182,10040,2,False,442,Revaluation,Children,9.37,392.90000009536743,False,0
27183,10040,3,False,444,Revaluation,Children,9.37,650.2999999523163,False,0
27348,10520,0,True,262,Control,Children,7.8,807.8000000715256,True,0
27349,10520,1,True,264,Control,Children,7.8,1021.6000000238419,False,0
27350,10520,2,True,266,Control,Children,7.8,695.2999999523163,False,0
27351,10520,3,False,268,Control,Children,7.8,472.0,False,1
27428,10520,0,True,437,Revaluation,Children,7.8,332.5,True,1
27429,10520,1,True,439,Revaluation,Children,7.8,808.8999999761581,False,1
27430,10520,2,False,441,Revaluation,Children,7.8,824.3999999761581,False,0
27431,10520,3,False,443,Revaluation,Children,7.8,645.3999999761581,False,0
27596,10038,0,False,260,Revaluation,Adults,18.05,689.0,True,0
27597,10038,1,False,262,Revaluation,Adults,18.05,688.7000000476837,False,0
27598,10038,2,False,264,Revaluation,Adults,18.05,331.5,False,0
27599,10038,3,False,266,Revaluation,Adults,18.05,413.7999999523163,False,0
27676,10038,0,True,435,Control,Adults,18.05,351.5,True,0
27677,10038,1,True,437,Control,Adults,18.05,226.39999985694885,False,0
27678,10038,2,True,439,Control,Adults,18.05,266.5,False,0
27679,10038,3,True,441,Control,Adults,18.05,386.59999990463257,False,0
27844,8468,0,True,260,Revaluation,Adults,20.64,1354.199999988079,True,1
27845,8468,1,True,262,Revaluation,Adults,20.64,1157.0,False,1
27846,8468,2,True,264,Revaluation,Adults,20.64,1575.9000000059605,False,1
27847,8468,3,True,266,Revaluation,Adults,20.64,1371.4000000059605,False,1
27924,8468,0,True,435,Control,Adults,20.64,662.3000000119209,True,0
27925,8468,1,True,437,Control,Adults,20.64,1049.5,False,0
27926,8468,2,True,439,Control,Adults,20.64,840.3000000119209,False,0
27927,8468,3,True,441,Control,Adults,20.64,590.6999999880791,False,0
28092,8320,0,True,262,Control,Children,12.56,913.5,True,0
28093,8320,1,True,264,Control,Children,12.56,1191.2000000001863,False,0
28094,8320,2,False,266,Control,Children,12.56,628.3999999999069,False,1
28095,8320,3,False,268,Control,Children,12.56,770.7999999998137,False,1
28172,8320,0,False,437,Revaluation,Children,12.56,469.60000000009313,True,0
28173,8320,1,False,439,Revaluation,Children,12.56,1202.7999999998137,False,0
28174,8320,2,False,441,Revaluation,Children,12.56,661.7000000001863,False,0
28175,8320,3,False,443,Revaluation,Children,12.56,336.29999999981374,False,0
28340,8778,0,False,264,Revaluation,Adults,22.81,1721.0,True,0
28341,8778,1,False,266,Revaluation,Adults,22.81,474.0,False,0
28342,8778,2,False,268,Revaluation,Adults,22.81,399.0,False,0
28343,8778,3,False,270,Revaluation,Adults,22.81,324.0,False,0
28420,8778,0,True,439,Control,Adults,22.81,1249.0,True,0
28421,8778,1,True,441,Control,Adults,22.81,605.0,False,0
28422,8778,2,True,443,Control,Adults,22.81,494.0,False,0
28423,8778,3,True,445,Control,Adults,22.81,467.0,False,0
28588,8624,0,True,262,Control,Adolescents,14.42,289.39999997615814,True,0
28589,8624,1,True,264,Control,Adolescents,14.42,592.8999999761581,False,0
28590,8624,2,True,266,Control,Adolescents,14.42,525.0,False,0
28591,8624,3,True,268,Control,Adolescents,14.42,404.80000001192093,False,0
28668,8624,0,True,437,Revaluation,Adolescents,14.42,308.69999998807907,True,1
28669,8624,1,True,439,Revaluation,Adolescents,14.42,512.6999999880791,False,1
28670,8624,2,False,441,Revaluation,Adolescents,14.42,529.0999999642372,False,0
28671,8624,3,False,443,Revaluation,Adolescents,14.42,519.8000000119209,False,0
28836,13403,0,True,260,Control,Children,9.25,821.2000000178814,True,0
28837,13403,1,False,262,Control,Children,9.25,1926.0999999940395,False,1
28838,13403,2,False,264,Control,Children,9.25,2497.7999999821186,False,1
28839,13403,3,False,266,Control,Children,9.25,2549.800000011921,False,1
28916,13403,0,False,435,Revaluation,Children,9.25,1106.0,True,0
28917,13403,1,True,437,Revaluation,Children,9.25,2129.199999988079,False,1
28918,13403,2,True,439,Revaluation,Children,9.25,2621.5,False,1
28919,13403,3,False,441,Revaluation,Children,9.25,3953.800000011921,False,0
29084,8619,0,False,264,Revaluation,Adolescents,13.44,383.4000005722046,True,0
29085,8619,1,False,266,Revaluation,Adolescents,13.44,1032.3999996185303,False,0
29086,8619,2,False,268,Revaluation,Adolescents,13.44,946.6000003814697,False,0
29087,8619,3,False,270,Revaluation,Adolescents,13.44,981.8999996185303,False,0
29164,8619,0,True,439,Control,Adolescents,13.44,765.0,True,0
29165,8619,1,True,441,Control,Adolescents,13.44,964.0999994277954,False,0
29166,8619,2,True,443,Control,Adolescents,13.44,783.6000003814697,False,0
29167,8619,3,True,445,Control,Adolescents,13.44,629.9000005722046,False,0
29332,10686,0,False,262,Control,Adolescents,17.14,486.0,True,1
29333,10686,1,False,264,Control,Adolescents,17.14,927.2000000476837,False,1
29334,10686,2,True,266,Control,Adolescents,17.14,1871.7999999523163,False,0
29335,10686,3,False,268,Control,Adolescents,17.14,1000.4000000953674,False,1
29412,10686,0,True,437,Revaluation,Adolescents,17.14,2268.2000000476837,True,1
29413,10686,1,False,439,Revaluation,Adolescents,17.14,1022.0,False,0
29414,10686,2,False,441,Revaluation,Adolescents,17.14,1141.1000000238419,False,0
29415,10686,3,False,443,Revaluation,Adolescents,17.14,1245.3999999761581,False,0
