,index,subject_id,task_part,rt,timeout,stimulus,environment,score,isCatch,correct,block_condition,block_order,rewardMap,trial_num,ground_truth,age,subject_condition,rest,response0,response1,is_optimal_first,is_optimal_second,categorical_age,trial_bin
1,119,10608,value training,"[804.2999999970198,718.1999999880791]",False,./assets/img/ocean/memory/25.jpg,ocean,10.0,False,False,Control,1.0,"{""ArrowUp,ArrowLeft"":23,""ArrowUp,ArrowRight"":10,""ArrowDown,ArrowLeft"":8,""ArrowDown,ArrowRight"":30}",2,,8.62,3,norest,ArrowUp,ArrowRight,False,False,Children,0
2,121,10608,value training,"[332.59999999403954,113.20000000298023]",False,./assets/img/ocean/memory/21.jpg,ocean,23.0,False,False,Control,1.0,"{""ArrowUp,ArrowLeft"":23,""ArrowUp,ArrowRight"":10,""ArrowDown,ArrowLeft"":8,""ArrowDown,ArrowRight"":30}",3,,8.62,3,norest,ArrowUp,ArrowLeft,False,False,Children,0
3,123,10608,value training,"[169.29999999701977,536.3999999910593]",False,./assets/img/ocean/memory/4.jpg,ocean,8.0,False,False,Control,1.0,"{""ArrowUp,ArrowLeft"":23,""ArrowUp,ArrowRight"":10,""ArrowDown,ArrowLeft"":8,""ArrowDown,ArrowRight"":30}",4,,8.62,3,norest,ArrowDown,ArrowLeft,True,True,Children,0
4,125,10608,value training,"[855.1999999880791,517]",False,./assets/img/ocean/memory/14.jpg,ocean,30.0,False,True,Control,1.0,"{""ArrowUp,ArrowLeft"":23,""ArrowUp,ArrowRight"":10,""ArrowDown,ArrowLeft"":8,""ArrowDown,ArrowRight"":30}",5,,8.62,3,norest,ArrowDown,ArrowRight,True,True,Children,0
6,129,10608,value training,"[404.90000000596046,197.40000000596046]",False,./assets/img/ocean/memory/4.jpg,ocean,30.0,False,True,Control,1.0,"{""ArrowUp,ArrowLeft"":23,""ArrowUp,ArrowRight"":10,""ArrowDown,ArrowLeft"":8,""ArrowDown,ArrowRight"":30}",6,,8.62,3,norest,ArrowDown,ArrowRight,True,True,Children,5
7,131,10608,value training,"[1091.800000011921,559]",False,./assets/img/ocean/memory/18.jpg,ocean,30.0,False,True,Control,1.0,"{""ArrowUp,ArrowLeft"":23,""ArrowUp,ArrowRight"":10,""ArrowDown,ArrowLeft"":8,""ArrowDown,ArrowRight"":30}",7,,8.62,3,norest,ArrowDown,ArrowRight,True,True,Children,5
8,133,10608,value training,"[665.2999999970198,582.1000000089407]",False,./assets/img/ocean/memory/0.jpg,ocean,30.0,False,True,Control,1.0,"{""ArrowUp,ArrowLeft"":23,""ArrowUp,ArrowRight"":10,""ArrowDown,ArrowLeft"":8,""ArrowDown,ArrowRight"":30}",8,,8.62,3,norest,ArrowDown,ArrowRight,True,True,Children,5
9,135,10608,value training,"[605.7000000029802,475]",False,./assets/img/ocean/memory/1.jpg,ocean,30.0,False,True,Control,1.0,"{""ArrowUp,ArrowLeft"":23,""ArrowUp,ArrowRight"":10,""ArrowDown,ArrowLeft"":8,""ArrowDown,ArrowRight"":30}",9,,8.62,3,norest,ArrowDown,ArrowRight,True,True,Children,5
10,137,10608,value training,"[617.8999999910593,353]",False,./assets/img/ocean/memory/16.jpg,ocean,30.0,False,True,Control,1.0,"{""ArrowUp,ArrowLeft"":23,""ArrowUp,ArrowRight"":10,""ArrowDown,ArrowLeft"":8,""ArrowDown,ArrowRight"":30}",10,,8.62,3,norest,ArrowDown,ArrowRight,True,True,Children,5
11,139,10608,value training,"[617.9000000059605,557.6999999880791]",False,./assets/img/ocean/memory/18.jpg,ocean,30.0,False,True,Control,1.0,"{""ArrowUp,ArrowLeft"":23,""ArrowUp,ArrowRight"":10,""ArrowDown,ArrowLeft"":8,""ArrowDown,ArrowRight"":30}",11,,8.62,3,norest,ArrowDown,ArrowRight,True,True,Children,10
12,141,10608,value training,"[908.5999999940395,432.79999999701977]",False,./assets/img/ocean/memory/31.jpg,ocean,30.0,False,True,Control,1.0,"{""ArrowUp,ArrowLeft"":23,""ArrowUp,ArrowRight"":10,""ArrowDown,ArrowLeft"":8,""ArrowDown,ArrowRight"":30}",12,,8.62,3,norest,ArrowDown,ArrowRight,True,True,Children,10
13,143,10608,value training,"[631.2999999970198,388.6000000089407]",False,./assets/img/ocean/memory/6.jpg,ocean,30.0,False,True,Control,1.0,"{""ArrowUp,ArrowLeft"":23,""ArrowUp,ArrowRight"":10,""ArrowDown,ArrowLeft"":8,""ArrowDown,ArrowRight"":30}",13,,8.62,3,norest,ArrowDown,ArrowRight,True,True,Children,10
14,145,10608,value training,"[1021.5999999940395,364]",False,./assets/img/ocean/memory/27.jpg,ocean,30.0,False,True,Control,1.0,"{""ArrowUp,ArrowLeft"":23,""ArrowUp,ArrowRight"":10,""ArrowDown,ArrowLeft"":8,""ArrowDown,ArrowRight"":30}",14,,8.62,3,norest,ArrowDown,ArrowRight,True,True,Children,10
17,151,10608,value training,"[1097.5,394.29999999701977]",False,./assets/img/ocean/memory/2.jpg,ocean,30.0,False,True,Control,1.0,"{""ArrowUp,ArrowLeft"":23,""ArrowUp,ArrowRight"":10,""ArrowDown,ArrowLeft"":8,""ArrowDown,ArrowRight"":30}",15,,8.62,3,norest,ArrowDown,ArrowRight,True,True,Children,10
18,153,10608,value training,"[1224.5,640.0999999940395]",False,./assets/img/ocean/memory/11.jpg,ocean,30.0,False,True,Control,1.0,"{""ArrowUp,ArrowLeft"":23,""ArrowUp,ArrowRight"":10,""ArrowDown,ArrowLeft"":8,""ArrowDown,ArrowRight"":30}",16,,8.62,3,norest,ArrowDown,ArrowRight,True,True,Children,15
19,155,10608,value training,"[759.7999999970198,1119.8999999910593]",False,./assets/img/ocean/memory/19.jpg,ocean,30.0,False,True,Control,1.0,"{""ArrowUp,ArrowLeft"":23,""ArrowUp,ArrowRight"":10,""ArrowDown,ArrowLeft"":8,""ArrowDown,ArrowRight"":30}",17,,8.62,3,norest,ArrowDown,ArrowRight,True,True,Children,15
20,157,10608,value training,"[732.6000000089407,502]",False,./assets/img/ocean/memory/11.jpg,ocean,30.0,False,True,Control,1.0,"{""ArrowUp,ArrowLeft"":23,""ArrowUp,ArrowRight"":10,""ArrowDown,ArrowLeft"":8,""ArrowDown,ArrowRight"":30}",18,,8.62,3,norest,ArrowDown,ArrowRight,True,True,Children,15
21,159,10608,value training,"[652.7000000029802,611.3999999910593]",False,./assets/img/ocean/memory/29.jpg,ocean,30.0,False,True,Control,1.0,"{""ArrowUp,ArrowLeft"":23,""ArrowUp,ArrowRight"":10,""ArrowDown,ArrowLeft"":8,""ArrowDown,ArrowRight"":30}",19,,8.62,3,norest,ArrowDown,ArrowRight,True,True,Children,15
22,161,10608,value training,"[627.0999999940395,370.20000000298023]",False,./assets/img/ocean/memory/7.jpg,ocean,30.0,False,True,Control,1.0,"{""ArrowUp,ArrowLeft"":23,""ArrowUp,ArrowRight"":10,""ArrowDown,ArrowLeft"":8,""ArrowDown,ArrowRight"":30}",20,,8.62,3,norest,ArrowDown,ArrowRight,True,True,Children,15
23,163,10608,value training,"[482,544.6000000089407]",False,./assets/img/ocean/memory/13.jpg,ocean,30.0,False,True,Control,1.0,"{""ArrowUp,ArrowLeft"":23,""ArrowUp,ArrowRight"":10,""ArrowDown,ArrowLeft"":8,""ArrowDown,ArrowRight"":30}",21,,8.62,3,norest,ArrowDown,ArrowRight,True,True,Children,20
24,165,10608,value training,"[913.5,1146.1000000089407]",False,./assets/img/ocean/memory/40.jpg,ocean,30.0,False,True,Control,1.0,"{""ArrowUp,ArrowLeft"":23,""ArrowUp,ArrowRight"":10,""ArrowDown,ArrowLeft"":8,""ArrowDown,ArrowRight"":30}",22,,8.62,3,norest,ArrowDown,ArrowRight,True,True,Children,20
25,167,10608,value training,"[773.5999999940395,636.5]",False,./assets/img/ocean/memory/2.jpg,ocean,30.0,False,True,Control,1.0,"{""ArrowUp,ArrowLeft"":23,""ArrowUp,ArrowRight"":10,""ArrowDown,ArrowLeft"":8,""ArrowDown,ArrowRight"":30}",23,,8.62,3,norest,ArrowDown,ArrowRight,True,True,Children,20
27,171,10608,value training,"[1189.2999999970198,562.4000000059605]",False,./assets/img/ocean/memory/21.jpg,ocean,30.0,False,True,Control,1.0,"{""ArrowUp,ArrowLeft"":23,""ArrowUp,ArrowRight"":10,""ArrowDown,ArrowLeft"":8,""ArrowDown,ArrowRight"":30}",24,,8.62,3,norest,ArrowDown,ArrowRight,True,True,Children,20
29,175,10608,value training,"[584.5,904.1999999880791]",False,./assets/img/ocean/memory/9.jpg,ocean,30.0,False,True,Control,1.0,"{""ArrowUp,ArrowLeft"":23,""ArrowUp,ArrowRight"":10,""ArrowDown,ArrowLeft"":8,""ArrowDown,ArrowRight"":30}",25,,8.62,3,norest,ArrowDown,ArrowRight,True,True,Children,20
30,177,10608,value training,"[1199.4000000059605,461.8999999910593]",False,./assets/img/ocean/memory/5.jpg,ocean,30.0,False,True,Control,1.0,"{""ArrowUp,ArrowLeft"":23,""ArrowUp,ArrowRight"":10,""ArrowDown,ArrowLeft"":8,""ArrowDown,ArrowRight"":30}",26,,8.62,3,norest,ArrowDown,ArrowRight,True,True,Children,25
31,179,10608,value training,"[840.3000000119209,575.8999999910593]",False,./assets/img/ocean/memory/0.jpg,ocean,30.0,False,True,Control,1.0,"{""ArrowUp,ArrowLeft"":23,""ArrowUp,ArrowRight"":10,""ArrowDown,ArrowLeft"":8,""ArrowDown,ArrowRight"":30}",27,,8.62,3,norest,ArrowDown,ArrowRight,True,True,Children,25
33,183,10608,value training,"[919.7999999970198,502.29999999701977]",False,./assets/img/ocean/memory/31.jpg,ocean,30.0,False,True,Control,1.0,"{""ArrowUp,ArrowLeft"":23,""ArrowUp,ArrowRight"":10,""ArrowDown,ArrowLeft"":8,""ArrowDown,ArrowRight"":30}",28,,8.62,3,norest,ArrowDown,ArrowRight,True,True,Children,25
35,187,10608,value training,"[838.7999999970198,310.29999999701977]",False,./assets/img/ocean/memory/9.jpg,ocean,30.0,False,True,Control,1.0,"{""ArrowUp,ArrowLeft"":23,""ArrowUp,ArrowRight"":10,""ArrowDown,ArrowLeft"":8,""ArrowDown,ArrowRight"":30}",29,,8.62,3,norest,ArrowDown,ArrowRight,True,True,Children,25
36,189,10608,value training,"[790.6000000089407,678.4000000059605]",False,./assets/img/ocean/memory/27.jpg,ocean,30.0,False,True,Control,1.0,"{""ArrowUp,ArrowLeft"":23,""ArrowUp,ArrowRight"":10,""ArrowDown,ArrowLeft"":8,""ArrowDown,ArrowRight"":30}",30,,8.62,3,norest,ArrowDown,ArrowRight,True,True,Children,25
37,191,10608,value training,"[653,426.1000000089407]",False,./assets/img/ocean/memory/29.jpg,ocean,30.0,False,True,Control,1.0,"{""ArrowUp,ArrowLeft"":23,""ArrowUp,ArrowRight"":10,""ArrowDown,ArrowLeft"":8,""ArrowDown,ArrowRight"":30}",31,,8.62,3,norest,ArrowDown,ArrowRight,True,True,Children,30
38,193,10608,value training,"[721.8000000119209,416.90000000596046]",False,./assets/img/ocean/memory/6.jpg,ocean,30.0,False,True,Control,1.0,"{""ArrowUp,ArrowLeft"":23,""ArrowUp,ArrowRight"":10,""ArrowDown,ArrowLeft"":8,""ArrowDown,ArrowRight"":30}",32,,8.62,3,norest,ArrowDown,ArrowRight,True,True,Children,30
39,195,10608,value training,"[593.2000000029802,793]",False,./assets/img/ocean/memory/1.jpg,ocean,30.0,False,True,Control,1.0,"{""ArrowUp,ArrowLeft"":23,""ArrowUp,ArrowRight"":10,""ArrowDown,ArrowLeft"":8,""ArrowDown,ArrowRight"":30}",33,,8.62,3,norest,ArrowDown,ArrowRight,True,True,Children,30
40,197,10608,value training,"[520,1.2000000029802322]",False,./assets/img/ocean/memory/13.jpg,ocean,30.0,False,True,Control,1.0,"{""ArrowUp,ArrowLeft"":23,""ArrowUp,ArrowRight"":10,""ArrowDown,ArrowLeft"":8,""ArrowDown,ArrowRight"":30}",34,,8.62,3,norest,ArrowDown,ArrowRight,True,True,Children,30
42,201,10608,value training,"[315.40000000596046,74]",False,./assets/img/ocean/memory/16.jpg,ocean,30.0,False,True,Control,1.0,"{""ArrowUp,ArrowLeft"":23,""ArrowUp,ArrowRight"":10,""ArrowDown,ArrowLeft"":8,""ArrowDown,ArrowRight"":30}",35,,8.62,3,norest,ArrowDown,ArrowRight,True,True,Children,30
43,203,10608,value training,"[576.5999999940395,525.4000000059605]",False,./assets/img/ocean/memory/14.jpg,ocean,30.0,False,True,Control,1.0,"{""ArrowUp,ArrowLeft"":23,""ArrowUp,ArrowRight"":10,""ArrowDown,ArrowLeft"":8,""ArrowDown,ArrowRight"":30}",36,,8.62,3,norest,ArrowDown,ArrowRight,True,True,Children,35
44,205,10608,value training,"[651.2000000029802,394]",False,./assets/img/ocean/memory/7.jpg,ocean,30.0,False,True,Control,1.0,"{""ArrowUp,ArrowLeft"":23,""ArrowUp,ArrowRight"":10,""ArrowDown,ArrowLeft"":8,""ArrowDown,ArrowRight"":30}",37,,8.62,3,norest,ArrowDown,ArrowRight,True,True,Children,35
45,207,10608,value training,"[802.2999999970198,689.6000000089407]",False,./assets/img/ocean/memory/5.jpg,ocean,30.0,False,True,Control,1.0,"{""ArrowUp,ArrowLeft"":23,""ArrowUp,ArrowRight"":10,""ArrowDown,ArrowLeft"":8,""ArrowDown,ArrowRight"":30}",38,,8.62,3,norest,ArrowDown,ArrowRight,True,True,Children,35
46,209,10608,value training,"[665.5,703.4000000059605]",False,./assets/img/ocean/memory/39.jpg,ocean,30.0,False,True,Control,1.0,"{""ArrowUp,ArrowLeft"":23,""ArrowUp,ArrowRight"":10,""ArrowDown,ArrowLeft"":8,""ArrowDown,ArrowRight"":30}",39,,8.62,3,norest,ArrowDown,ArrowRight,True,True,Children,35
47,211,10608,value training,"[734.8999999910593,926]",False,./assets/img/ocean/memory/39.jpg,ocean,30.0,False,True,Control,1.0,"{""ArrowUp,ArrowLeft"":23,""ArrowUp,ArrowRight"":10,""ArrowDown,ArrowLeft"":8,""ArrowDown,ArrowRight"":30}",40,,8.62,3,norest,ArrowDown,ArrowRight,True,True,Children,35
48,213,10608,value training,"[550.3999999910593,473.90000000596046]",False,./assets/img/ocean/memory/19.jpg,ocean,30.0,False,True,Control,1.0,"{""ArrowUp,ArrowLeft"":23,""ArrowUp,ArrowRight"":10,""ArrowDown,ArrowLeft"":8,""ArrowDown,ArrowRight"":30}",41,,8.62,3,norest,ArrowDown,ArrowRight,True,True,Children,40
49,215,10608,value training,"[502.70000000298023,485.20000000298023]",False,./assets/img/ocean/memory/25.jpg,ocean,30.0,False,True,Control,1.0,"{""ArrowUp,ArrowLeft"":23,""ArrowUp,ArrowRight"":10,""ArrowDown,ArrowLeft"":8,""ArrowDown,ArrowRight"":30}",42,,8.62,3,norest,ArrowDown,ArrowRight,True,True,Children,40
80,292,10608,value training,"[1714.2000000029802,922]",False,./assets/img/canyon/memory/25.jpg,canyon,10.0,False,False,Revaluation,2.0,"{""ArrowUp,ArrowLeft"":26,""ArrowUp,ArrowRight"":10,""ArrowDown,ArrowLeft"":5,""ArrowDown,ArrowRight"":17}",1,,8.62,3,norest,ArrowUp,ArrowRight,True,True,Children,0
82,296,10608,value training,"[778.3000000119209,296.30000001192093]",False,./assets/img/canyon/memory/5.jpg,canyon,17.0,False,False,Revaluation,2.0,"{""ArrowUp,ArrowLeft"":26,""ArrowUp,ArrowRight"":10,""ArrowDown,ArrowLeft"":5,""ArrowDown,ArrowRight"":17}",2,,8.62,3,norest,ArrowDown,ArrowRight,False,False,Children,0
83,298,10608,value training,"[222.79999999701977,114.79999999701977]",False,./assets/img/canyon/memory/21.jpg,canyon,26.0,False,True,Revaluation,2.0,"{""ArrowUp,ArrowLeft"":26,""ArrowUp,ArrowRight"":10,""ArrowDown,ArrowLeft"":5,""ArrowDown,ArrowRight"":17}",3,,8.62,3,norest,ArrowUp,ArrowLeft,True,True,Children,0
84,300,10608,value training,"[662.1000000089407,121.3999999910593]",False,./assets/img/canyon/memory/0.jpg,canyon,5.0,False,False,Revaluation,2.0,"{""ArrowUp,ArrowLeft"":26,""ArrowUp,ArrowRight"":10,""ArrowDown,ArrowLeft"":5,""ArrowDown,ArrowRight"":17}",4,,8.62,3,norest,ArrowDown,ArrowLeft,False,False,Children,0
85,302,10608,value training,"[426,41.5]",False,./assets/img/canyon/memory/11.jpg,canyon,26.0,False,True,Revaluation,2.0,"{""ArrowUp,ArrowLeft"":26,""ArrowUp,ArrowRight"":10,""ArrowDown,ArrowLeft"":5,""ArrowDown,ArrowRight"":17}",5,,8.62,3,norest,ArrowUp,ArrowLeft,True,True,Children,0
86,304,10608,value training,"[250.8999999910593,369.5]",False,./assets/img/canyon/memory/4.jpg,canyon,26.0,False,True,Revaluation,2.0,"{""ArrowUp,ArrowLeft"":26,""ArrowUp,ArrowRight"":10,""ArrowDown,ArrowLeft"":5,""ArrowDown,ArrowRight"":17}",6,,8.62,3,norest,ArrowUp,ArrowLeft,True,True,Children,5
87,306,10608,value training,"[713.7000000029802,359.6000000089407]",False,./assets/img/canyon/memory/4.jpg,canyon,26.0,False,True,Revaluation,2.0,"{""ArrowUp,ArrowLeft"":26,""ArrowUp,ArrowRight"":10,""ArrowDown,ArrowLeft"":5,""ArrowDown,ArrowRight"":17}",7,,8.62,3,norest,ArrowUp,ArrowLeft,True,True,Children,5
88,308,10608,value training,"[454.5,341.20000000298023]",False,./assets/img/canyon/memory/2.jpg,canyon,26.0,False,True,Revaluation,2.0,"{""ArrowUp,ArrowLeft"":26,""ArrowUp,ArrowRight"":10,""ArrowDown,ArrowLeft"":5,""ArrowDown,ArrowRight"":17}",8,,8.62,3,norest,ArrowUp,ArrowLeft,True,True,Children,5
90,312,10608,value training,"[227.8999999910593,794.7999999970198]",False,./assets/img/canyon/memory/1.jpg,canyon,26.0,False,True,Revaluation,2.0,"{""ArrowUp,ArrowLeft"":26,""ArrowUp,ArrowRight"":10,""ArrowDown,ArrowLeft"":5,""ArrowDown,ArrowRight"":17}",9,,8.62,3,norest,ArrowUp,ArrowLeft,True,True,Children,5
91,314,10608,value training,"[1377.7999999970198,553.5]",False,./assets/img/canyon/memory/21.jpg,canyon,26.0,False,True,Revaluation,2.0,"{""ArrowUp,ArrowLeft"":26,""ArrowUp,ArrowRight"":10,""ArrowDown,ArrowLeft"":5,""ArrowDown,ArrowRight"":17}",10,,8.62,3,norest,ArrowUp,ArrowLeft,True,True,Children,5
92,316,10608,value training,"[851.4000000059605,29.799999997019768]",False,./assets/img/canyon/memory/29.jpg,canyon,26.0,False,True,Revaluation,2.0,"{""ArrowUp,ArrowLeft"":26,""ArrowUp,ArrowRight"":10,""ArrowDown,ArrowLeft"":5,""ArrowDown,ArrowRight"":17}",11,,8.62,3,norest,ArrowUp,ArrowLeft,True,True,Children,10
93,318,10608,value training,"[355.40000000596046,27.599999994039536]",False,./assets/img/canyon/memory/7.jpg,canyon,26.0,False,True,Revaluation,2.0,"{""ArrowUp,ArrowLeft"":26,""ArrowUp,ArrowRight"":10,""ArrowDown,ArrowLeft"":5,""ArrowDown,ArrowRight"":17}",12,,8.62,3,norest,ArrowUp,ArrowLeft,True,True,Children,10
94,320,10608,value training,"[930.3000000119209,344.5]",False,./assets/img/canyon/memory/16.jpg,canyon,26.0,False,True,Revaluation,2.0,"{""ArrowUp,ArrowLeft"":26,""ArrowUp,ArrowRight"":10,""ArrowDown,ArrowLeft"":5,""ArrowDown,ArrowRight"":17}",13,,8.62,3,norest,ArrowUp,ArrowLeft,True,True,Children,10
95,322,10608,value training,"[903.9000000059605,489.6000000089407]",False,./assets/img/canyon/memory/0.jpg,canyon,26.0,False,True,Revaluation,2.0,"{""ArrowUp,ArrowLeft"":26,""ArrowUp,ArrowRight"":10,""ArrowDown,ArrowLeft"":5,""ArrowDown,ArrowRight"":17}",14,,8.62,3,norest,ArrowUp,ArrowLeft,True,True,Children,10
96,324,10608,value training,"[560.2000000029802,301.20000000298023]",False,./assets/img/canyon/memory/18.jpg,canyon,26.0,False,True,Revaluation,2.0,"{""ArrowUp,ArrowLeft"":26,""ArrowUp,ArrowRight"":10,""ArrowDown,ArrowLeft"":5,""ArrowDown,ArrowRight"":17}",15,,8.62,3,norest,ArrowUp,ArrowLeft,True,True,Children,10
97,326,10608,value training,"[428.80000001192093,315.59999999403954]",False,./assets/img/canyon/memory/16.jpg,canyon,26.0,False,True,Revaluation,2.0,"{""ArrowUp,ArrowLeft"":26,""ArrowUp,ArrowRight"":10,""ArrowDown,ArrowLeft"":5,""ArrowDown,ArrowRight"":17}",16,,8.62,3,norest,ArrowUp,ArrowLeft,True,True,Children,15
98,328,10608,value training,"[644.4000000059605,1004.2000000029802]",False,./assets/img/canyon/memory/13.jpg,canyon,26.0,False,True,Revaluation,2.0,"{""ArrowUp,ArrowLeft"":26,""ArrowUp,ArrowRight"":10,""ArrowDown,ArrowLeft"":5,""ArrowDown,ArrowRight"":17}",17,,8.62,3,norest,ArrowUp,ArrowLeft,True,True,Children,15
100,332,10608,value training,"[531.9000000059605,612.0999999940395]",False,./assets/img/canyon/memory/39.jpg,canyon,26.0,False,True,Revaluation,2.0,"{""ArrowUp,ArrowLeft"":26,""ArrowUp,ArrowRight"":10,""ArrowDown,ArrowLeft"":5,""ArrowDown,ArrowRight"":17}",18,,8.62,3,norest,ArrowUp,ArrowLeft,True,True,Children,15
101,334,10608,value training,"[629.7999999970198,651.5]",False,./assets/img/canyon/memory/5.jpg,canyon,26.0,False,True,Revaluation,2.0,"{""ArrowUp,ArrowLeft"":26,""ArrowUp,ArrowRight"":10,""ArrowDown,ArrowLeft"":5,""ArrowDown,ArrowRight"":17}",19,,8.62,3,norest,ArrowUp,ArrowLeft,True,True,Children,15
102,336,10608,value training,"[716.0999999940395,505.20000000298023]",False,./assets/img/canyon/memory/19.jpg,canyon,26.0,False,True,Revaluation,2.0,"{""ArrowUp,ArrowLeft"":26,""ArrowUp,ArrowRight"":10,""ArrowDown,ArrowLeft"":5,""ArrowDown,ArrowRight"":17}",20,,8.62,3,norest,ArrowUp,ArrowLeft,True,True,Children,15
103,338,10608,value training,"[651.7000000029802,1020.0999999940395]",False,./assets/img/canyon/memory/6.jpg,canyon,26.0,False,True,Revaluation,2.0,"{""ArrowUp,ArrowLeft"":26,""ArrowUp,ArrowRight"":10,""ArrowDown,ArrowLeft"":5,""ArrowDown,ArrowRight"":17}",21,,8.62,3,norest,ArrowUp,ArrowLeft,True,True,Children,20
104,340,10608,value training,"[633.5,664.9000000059605]",False,./assets/img/canyon/memory/40.jpg,canyon,26.0,False,True,Revaluation,2.0,"{""ArrowUp,ArrowLeft"":26,""ArrowUp,ArrowRight"":10,""ArrowDown,ArrowLeft"":5,""ArrowDown,ArrowRight"":17}",22,,8.62,3,norest,ArrowUp,ArrowLeft,True,True,Children,20
106,344,10608,value training,"[944.4000000059605,495.79999999701977]",False,./assets/img/canyon/memory/14.jpg,canyon,26.0,False,True,Revaluation,2.0,"{""ArrowUp,ArrowLeft"":26,""ArrowUp,ArrowRight"":10,""ArrowDown,ArrowLeft"":5,""ArrowDown,ArrowRight"":17}",23,,8.62,3,norest,ArrowUp,ArrowLeft,True,True,Children,20
109,350,10608,value training,"[615.5,711.9000000059605]",False,./assets/img/canyon/memory/13.jpg,canyon,26.0,False,True,Revaluation,2.0,"{""ArrowUp,ArrowLeft"":26,""ArrowUp,ArrowRight"":10,""ArrowDown,ArrowLeft"":5,""ArrowDown,ArrowRight"":17}",24,,8.62,3,norest,ArrowUp,ArrowLeft,True,True,Children,20
110,352,10608,value training,"[839.6000000089407,966.9000000059605]",False,./assets/img/canyon/memory/25.jpg,canyon,26.0,False,True,Revaluation,2.0,"{""ArrowUp,ArrowLeft"":26,""ArrowUp,ArrowRight"":10,""ArrowDown,ArrowLeft"":5,""ArrowDown,ArrowRight"":17}",25,,8.62,3,norest,ArrowUp,ArrowLeft,True,True,Children,20
111,354,10608,value training,"[714.1000000089407,1077.5]",False,./assets/img/canyon/memory/2.jpg,canyon,26.0,False,True,Revaluation,2.0,"{""ArrowUp,ArrowLeft"":26,""ArrowUp,ArrowRight"":10,""ArrowDown,ArrowLeft"":5,""ArrowDown,ArrowRight"":17}",26,,8.62,3,norest,ArrowUp,ArrowLeft,True,True,Children,25
113,358,10608,value training,"[831.0999999940395,1260.9000000059605]",False,./assets/img/canyon/memory/1.jpg,canyon,26.0,False,True,Revaluation,2.0,"{""ArrowUp,ArrowLeft"":26,""ArrowUp,ArrowRight"":10,""ArrowDown,ArrowLeft"":5,""ArrowDown,ArrowRight"":17}",27,,8.62,3,norest,ArrowUp,ArrowLeft,True,True,Children,25
114,360,10608,value training,"[802.3999999910593,737.8999999910593]",False,./assets/img/canyon/memory/27.jpg,canyon,10.0,False,False,Revaluation,2.0,"{""ArrowUp,ArrowLeft"":26,""ArrowUp,ArrowRight"":10,""ArrowDown,ArrowLeft"":5,""ArrowDown,ArrowRight"":17}",28,,8.62,3,norest,ArrowUp,ArrowRight,True,True,Children,25
115,362,10608,value training,"[664.5,1192.1000000089407]",False,./assets/img/canyon/memory/19.jpg,canyon,26.0,False,True,Revaluation,2.0,"{""ArrowUp,ArrowLeft"":26,""ArrowUp,ArrowRight"":10,""ArrowDown,ArrowLeft"":5,""ArrowDown,ArrowRight"":17}",29,,8.62,3,norest,ArrowUp,ArrowLeft,True,True,Children,25
116,364,10608,value training,"[398,1572.6000000089407]",False,./assets/img/canyon/memory/6.jpg,canyon,26.0,False,True,Revaluation,2.0,"{""ArrowUp,ArrowLeft"":26,""ArrowUp,ArrowRight"":10,""ArrowDown,ArrowLeft"":5,""ArrowDown,ArrowRight"":17}",30,,8.62,3,norest,ArrowUp,ArrowLeft,True,True,Children,25
117,366,10608,value training,"[1630,839.7000000029802]",False,./assets/img/canyon/memory/9.jpg,canyon,26.0,False,True,Revaluation,2.0,"{""ArrowUp,ArrowLeft"":26,""ArrowUp,ArrowRight"":10,""ArrowDown,ArrowLeft"":5,""ArrowDown,ArrowRight"":17}",31,,8.62,3,norest,ArrowUp,ArrowLeft,True,True,Children,30
118,368,10608,value training,"[639.6000000089407,420.09999999403954]",False,./assets/img/canyon/memory/18.jpg,canyon,26.0,False,True,Revaluation,2.0,"{""ArrowUp,ArrowLeft"":26,""ArrowUp,ArrowRight"":10,""ArrowDown,ArrowLeft"":5,""ArrowDown,ArrowRight"":17}",32,,8.62,3,norest,ArrowUp,ArrowLeft,True,True,Children,30
119,370,10608,value training,"[450,529.2999999970198]",False,./assets/img/canyon/memory/7.jpg,canyon,26.0,False,True,Revaluation,2.0,"{""ArrowUp,ArrowLeft"":26,""ArrowUp,ArrowRight"":10,""ArrowDown,ArrowLeft"":5,""ArrowDown,ArrowRight"":17}",33,,8.62,3,norest,ArrowUp,ArrowLeft,True,True,Children,30
120,372,10608,value training,"[578,199.6000000089407]",False,./assets/img/canyon/memory/9.jpg,canyon,26.0,False,True,Revaluation,2.0,"{""ArrowUp,ArrowLeft"":26,""ArrowUp,ArrowRight"":10,""ArrowDown,ArrowLeft"":5,""ArrowDown,ArrowRight"":17}",34,,8.62,3,norest,ArrowUp,ArrowLeft,True,True,Children,30
121,374,10608,value training,"[310.70000000298023,622.7000000029802]",False,./assets/img/canyon/memory/11.jpg,canyon,26.0,False,True,Revaluation,2.0,"{""ArrowUp,ArrowLeft"":26,""ArrowUp,ArrowRight"":10,""ArrowDown,ArrowLeft"":5,""ArrowDown,ArrowRight"":17}",35,,8.62,3,norest,ArrowUp,ArrowLeft,True,True,Children,30
122,376,10608,value training,"[718.8999999910593,702.4000000059605]",False,./assets/img/canyon/memory/31.jpg,canyon,26.0,False,True,Revaluation,2.0,"{""ArrowUp,ArrowLeft"":26,""ArrowUp,ArrowRight"":10,""ArrowDown,ArrowLeft"":5,""ArrowDown,ArrowRight"":17}",36,,8.62,3,norest,ArrowUp,ArrowLeft,True,True,Children,35
124,380,10608,value training,"[804.7999999970198,996.5]",False,./assets/img/canyon/memory/27.jpg,canyon,26.0,False,True,Revaluation,2.0,"{""ArrowUp,ArrowLeft"":26,""ArrowUp,ArrowRight"":10,""ArrowDown,ArrowLeft"":5,""ArrowDown,ArrowRight"":17}",37,,8.62,3,norest,ArrowUp,ArrowLeft,True,True,Children,35
125,382,10608,value training,"[516.4000000059605,635]",False,./assets/img/canyon/memory/39.jpg,canyon,26.0,False,True,Revaluation,2.0,"{""ArrowUp,ArrowLeft"":26,""ArrowUp,ArrowRight"":10,""ArrowDown,ArrowLeft"":5,""ArrowDown,ArrowRight"":17}",38,,8.62,3,norest,ArrowUp,ArrowLeft,True,True,Children,35
126,384,10608,value training,"[451.20000000298023,1193.699999988079]",False,./assets/img/canyon/memory/14.jpg,canyon,26.0,False,True,Revaluation,2.0,"{""ArrowUp,ArrowLeft"":26,""ArrowUp,ArrowRight"":10,""ArrowDown,ArrowLeft"":5,""ArrowDown,ArrowRight"":17}",39,,8.62,3,norest,ArrowUp,ArrowLeft,True,True,Children,35
127,386,10608,value training,"[1361.1000000089407,801.5]",False,./assets/img/canyon/memory/31.jpg,canyon,26.0,False,True,Revaluation,2.0,"{""ArrowUp,ArrowLeft"":26,""ArrowUp,ArrowRight"":10,""ArrowDown,ArrowLeft"":5,""ArrowDown,ArrowRight"":17}",40,,8.62,3,norest,ArrowUp,ArrowLeft,True,True,Children,35
128,388,10608,value training,"[586.5,231]",False,./assets/img/canyon/memory/29.jpg,canyon,26.0,False,True,Revaluation,2.0,"{""ArrowUp,ArrowLeft"":26,""ArrowUp,ArrowRight"":10,""ArrowDown,ArrowLeft"":5,""ArrowDown,ArrowRight"":17}",41,,8.62,3,norest,ArrowUp,ArrowLeft,True,True,Children,40
129,390,10608,value training,"[386.09999999403954,745.1000000089407]",False,./assets/img/canyon/memory/40.jpg,canyon,26.0,False,True,Revaluation,2.0,"{""ArrowUp,ArrowLeft"":26,""ArrowUp,ArrowRight"":10,""ArrowDown,ArrowLeft"":5,""ArrowDown,ArrowRight"":17}",42,,8.62,3,norest,ArrowUp,ArrowLeft,True,True,Children,40
248,119,11405,value training,"[1134.8000000002794,657.1000000000931]",False,./assets/img/canyon/memory/32.jpg,canyon,17.0,False,False,Revaluation,1.0,"{""ArrowUp,ArrowLeft"":26,""ArrowUp,ArrowRight"":10,""ArrowDown,ArrowLeft"":5,""ArrowDown,ArrowRight"":17}",1,,7.54,8,norest,ArrowDown,ArrowRight,False,False,Children,0
249,121,11405,value training,"[506.29999999981374,558.8000000002794]",False,./assets/img/canyon/memory/21.jpg,canyon,26.0,False,True,Revaluation,1.0,"{""ArrowUp,ArrowLeft"":26,""ArrowUp,ArrowRight"":10,""ArrowDown,ArrowLeft"":5,""ArrowDown,ArrowRight"":17}",2,,7.54,8,norest,ArrowUp,ArrowLeft,True,True,Children,0
250,123,11405,value training,"[472.29999999981374,387.20000000018626]",False,./assets/img/canyon/memory/3.jpg,canyon,10.0,False,False,Revaluation,1.0,"{""ArrowUp,ArrowLeft"":26,""ArrowUp,ArrowRight"":10,""ArrowDown,ArrowLeft"":5,""ArrowDown,ArrowRight"":17}",3,,7.54,8,norest,ArrowUp,ArrowRight,True,True,Children,0
251,125,11405,value training,"[377.70000000018626,365.70000000018626]",False,./assets/img/canyon/memory/34.jpg,canyon,26.0,False,True,Revaluation,1.0,"{""ArrowUp,ArrowLeft"":26,""ArrowUp,ArrowRight"":10,""ArrowDown,ArrowLeft"":5,""ArrowDown,ArrowRight"":17}",4,,7.54,8,norest,ArrowUp,ArrowLeft,True,True,Children,0
252,127,11405,value training,"[492.10000000009313,517.7000000001863]",False,./assets/img/canyon/memory/28.jpg,canyon,26.0,False,True,Revaluation,1.0,"{""ArrowUp,ArrowLeft"":26,""ArrowUp,ArrowRight"":10,""ArrowDown,ArrowLeft"":5,""ArrowDown,ArrowRight"":17}",5,,7.54,8,norest,ArrowUp,ArrowLeft,True,True,Children,0
253,129,11405,value training,"[696.1000000000931,874.1000000000931]",False,./assets/img/canyon/memory/40.jpg,canyon,5.0,False,False,Revaluation,1.0,"{""ArrowUp,ArrowLeft"":26,""ArrowUp,ArrowRight"":10,""ArrowDown,ArrowLeft"":5,""ArrowDown,ArrowRight"":17}",6,,7.54,8,norest,ArrowDown,ArrowLeft,False,False,Children,5
254,131,11405,value training,"[630.6999999997206,494.39999999990687]",False,./assets/img/canyon/memory/10.jpg,canyon,17.0,False,False,Revaluation,1.0,"{""ArrowUp,ArrowLeft"":26,""ArrowUp,ArrowRight"":10,""ArrowDown,ArrowLeft"":5,""ArrowDown,ArrowRight"":17}",7,,7.54,8,norest,ArrowDown,ArrowRight,False,False,Children,5
255,133,11405,value training,"[522.6999999997206,601.2999999998137]",False,./assets/img/canyon/memory/36.jpg,canyon,26.0,False,True,Revaluation,1.0,"{""ArrowUp,ArrowLeft"":26,""ArrowUp,ArrowRight"":10,""ArrowDown,ArrowLeft"":5,""ArrowDown,ArrowRight"":17}",8,,7.54,8,norest,ArrowUp,ArrowLeft,True,True,Children,5
256,135,11405,value training,"[377.6999999997206,580]",False,./assets/img/canyon/memory/11.jpg,canyon,10.0,False,False,Revaluation,1.0,"{""ArrowUp,ArrowLeft"":26,""ArrowUp,ArrowRight"":10,""ArrowDown,ArrowLeft"":5,""ArrowDown,ArrowRight"":17}",9,,7.54,8,norest,ArrowUp,ArrowRight,True,True,Children,5
257,137,11405,value training,"[685.2999999998137,949.9000000003725]",False,./assets/img/canyon/memory/40.jpg,canyon,10.0,False,False,Revaluation,1.0,"{""ArrowUp,ArrowLeft"":26,""ArrowUp,ArrowRight"":10,""ArrowDown,ArrowLeft"":5,""ArrowDown,ArrowRight"":17}",10,,7.54,8,norest,ArrowUp,ArrowRight,True,True,Children,5
258,139,11405,value training,"[969.3999999999069,618.5]",False,./assets/img/canyon/memory/19.jpg,canyon,26.0,False,True,Revaluation,1.0,"{""ArrowUp,ArrowLeft"":26,""ArrowUp,ArrowRight"":10,""ArrowDown,ArrowLeft"":5,""ArrowDown,ArrowRight"":17}",11,,7.54,8,norest,ArrowUp,ArrowLeft,True,True,Children,10
260,143,11405,value training,"[1294.6999999997206,773.9000000003725]",False,./assets/img/canyon/memory/21.jpg,canyon,5.0,False,False,Revaluation,1.0,"{""ArrowUp,ArrowLeft"":26,""ArrowUp,ArrowRight"":10,""ArrowDown,ArrowLeft"":5,""ArrowDown,ArrowRight"":17}",12,,7.54,8,norest,ArrowDown,ArrowLeft,False,False,Children,10
263,149,11405,value training,"[788.8999999999069,558.6999999997206]",False,./assets/img/canyon/memory/11.jpg,canyon,26.0,False,True,Revaluation,1.0,"{""ArrowUp,ArrowLeft"":26,""ArrowUp,ArrowRight"":10,""ArrowDown,ArrowLeft"":5,""ArrowDown,ArrowRight"":17}",13,,7.54,8,norest,ArrowUp,ArrowLeft,True,True,Children,10
264,151,11405,value training,"[501,615.2999999998137]",False,./assets/img/canyon/memory/34.jpg,canyon,26.0,False,True,Revaluation,1.0,"{""ArrowUp,ArrowLeft"":26,""ArrowUp,ArrowRight"":10,""ArrowDown,ArrowLeft"":5,""ArrowDown,ArrowRight"":17}",14,,7.54,8,norest,ArrowUp,ArrowLeft,True,True,Children,10
266,155,11405,value training,"[1687.2999999998137,1096.5999999996275]",False,./assets/img/canyon/memory/4.jpg,canyon,26.0,False,True,Revaluation,1.0,"{""ArrowUp,ArrowLeft"":26,""ArrowUp,ArrowRight"":10,""ArrowDown,ArrowLeft"":5,""ArrowDown,ArrowRight"":17}",15,,7.54,8,norest,ArrowUp,ArrowLeft,True,True,Children,10
267,157,11405,value training,"[701.3999999999069,480]",False,./assets/img/canyon/memory/14.jpg,canyon,26.0,False,True,Revaluation,1.0,"{""ArrowUp,ArrowLeft"":26,""ArrowUp,ArrowRight"":10,""ArrowDown,ArrowLeft"":5,""ArrowDown,ArrowRight"":17}",16,,7.54,8,norest,ArrowUp,ArrowLeft,True,True,Children,15
268,159,11405,value training,"[712.7000000001863,500.79999999981374]",False,./assets/img/canyon/memory/39.jpg,canyon,26.0,False,True,Revaluation,1.0,"{""ArrowUp,ArrowLeft"":26,""ArrowUp,ArrowRight"":10,""ArrowDown,ArrowLeft"":5,""ArrowDown,ArrowRight"":17}",17,,7.54,8,norest,ArrowUp,ArrowLeft,True,True,Children,15
269,161,11405,value training,"[652.8999999999069,496.09999999962747]",False,./assets/img/canyon/memory/13.jpg,canyon,26.0,False,True,Revaluation,1.0,"{""ArrowUp,ArrowLeft"":26,""ArrowUp,ArrowRight"":10,""ArrowDown,ArrowLeft"":5,""ArrowDown,ArrowRight"":17}",18,,7.54,8,norest,ArrowUp,ArrowLeft,True,True,Children,15
271,165,11405,value training,"[859.2999999998137,695.4000000003725]",False,./assets/img/canyon/memory/19.jpg,canyon,26.0,False,True,Revaluation,1.0,"{""ArrowUp,ArrowLeft"":26,""ArrowUp,ArrowRight"":10,""ArrowDown,ArrowLeft"":5,""ArrowDown,ArrowRight"":17}",19,,7.54,8,norest,ArrowUp,ArrowLeft,True,True,Children,15
272,167,11405,value training,"[761.8999999999069,621.1000000000931]",False,./assets/img/canyon/memory/15.jpg,canyon,26.0,False,True,Revaluation,1.0,"{""ArrowUp,ArrowLeft"":26,""ArrowUp,ArrowRight"":10,""ArrowDown,ArrowLeft"":5,""ArrowDown,ArrowRight"":17}",20,,7.54,8,norest,ArrowUp,ArrowLeft,True,True,Children,15
274,171,11405,value training,"[1218.7999999998137,472.39999999990687]",False,./assets/img/canyon/memory/9.jpg,canyon,26.0,False,True,Revaluation,1.0,"{""ArrowUp,ArrowLeft"":26,""ArrowUp,ArrowRight"":10,""ArrowDown,ArrowLeft"":5,""ArrowDown,ArrowRight"":17}",21,,7.54,8,norest,ArrowUp,ArrowLeft,True,True,Children,20
275,173,11405,value training,"[771.8999999999069,501.3000000002794]",False,./assets/img/canyon/memory/4.jpg,canyon,26.0,False,True,Revaluation,1.0,"{""ArrowUp,ArrowLeft"":26,""ArrowUp,ArrowRight"":10,""ArrowDown,ArrowLeft"":5,""ArrowDown,ArrowRight"":17}",22,,7.54,8,norest,ArrowUp,ArrowLeft,True,True,Children,20
276,175,11405,value training,"[874.8999999999069,456.3000000002794]",False,./assets/img/canyon/memory/14.jpg,canyon,26.0,False,True,Revaluation,1.0,"{""ArrowUp,ArrowLeft"":26,""ArrowUp,ArrowRight"":10,""ArrowDown,ArrowLeft"":5,""ArrowDown,ArrowRight"":17}",23,,7.54,8,norest,ArrowUp,ArrowLeft,True,True,Children,20
277,177,11405,value training,"[767.8000000002794,452.09999999962747]",False,./assets/img/canyon/memory/6.jpg,canyon,26.0,False,True,Revaluation,1.0,"{""ArrowUp,ArrowLeft"":26,""ArrowUp,ArrowRight"":10,""ArrowDown,ArrowLeft"":5,""ArrowDown,ArrowRight"":17}",24,,7.54,8,norest,ArrowUp,ArrowLeft,True,True,Children,20
278,179,11405,value training,"[587.1000000000931,498.70000000018626]",False,./assets/img/canyon/memory/27.jpg,canyon,26.0,False,True,Revaluation,1.0,"{""ArrowUp,ArrowLeft"":26,""ArrowUp,ArrowRight"":10,""ArrowDown,ArrowLeft"":5,""ArrowDown,ArrowRight"":17}",25,,7.54,8,norest,ArrowUp,ArrowLeft,True,True,Children,20
279,181,11405,value training,"[637.9000000003725,562.3999999999069]",False,./assets/img/canyon/memory/15.jpg,canyon,26.0,False,True,Revaluation,1.0,"{""ArrowUp,ArrowLeft"":26,""ArrowUp,ArrowRight"":10,""ArrowDown,ArrowLeft"":5,""ArrowDown,ArrowRight"":17}",26,,7.54,8,norest,ArrowUp,ArrowLeft,True,True,Children,25
280,183,11405,value training,"[946.7000000001863,530.9000000003725]",False,./assets/img/canyon/memory/3.jpg,canyon,26.0,False,True,Revaluation,1.0,"{""ArrowUp,ArrowLeft"":26,""ArrowUp,ArrowRight"":10,""ArrowDown,ArrowLeft"":5,""ArrowDown,ArrowRight"":17}",27,,7.54,8,norest,ArrowUp,ArrowLeft,True,True,Children,25
281,185,11405,value training,"[766,556.7999999998137]",False,./assets/img/canyon/memory/9.jpg,canyon,26.0,False,True,Revaluation,1.0,"{""ArrowUp,ArrowLeft"":26,""ArrowUp,ArrowRight"":10,""ArrowDown,ArrowLeft"":5,""ArrowDown,ArrowRight"":17}",28,,7.54,8,norest,ArrowUp,ArrowLeft,True,True,Children,25
282,187,11405,value training,"[957.8999999999069,655.2000000001863]",False,./assets/img/canyon/memory/0.jpg,canyon,26.0,False,True,Revaluation,1.0,"{""ArrowUp,ArrowLeft"":26,""ArrowUp,ArrowRight"":10,""ArrowDown,ArrowLeft"":5,""ArrowDown,ArrowRight"":17}",29,,7.54,8,norest,ArrowUp,ArrowLeft,True,True,Children,25
283,189,11405,value training,"[889.0999999996275,443.70000000018626]",False,./assets/img/canyon/memory/32.jpg,canyon,26.0,False,True,Revaluation,1.0,"{""ArrowUp,ArrowLeft"":26,""ArrowUp,ArrowRight"":10,""ArrowDown,ArrowLeft"":5,""ArrowDown,ArrowRight"":17}",30,,7.54,8,norest,ArrowUp,ArrowLeft,True,True,Children,25
284,191,11405,value training,"[764.3999999999069,505.70000000018626]",False,./assets/img/canyon/memory/12.jpg,canyon,26.0,False,True,Revaluation,1.0,"{""ArrowUp,ArrowLeft"":26,""ArrowUp,ArrowRight"":10,""ArrowDown,ArrowLeft"":5,""ArrowDown,ArrowRight"":17}",31,,7.54,8,norest,ArrowUp,ArrowLeft,True,True,Children,30
285,193,11405,value training,"[1083.2000000001863,465.79999999981374]",False,./assets/img/canyon/memory/39.jpg,canyon,26.0,False,True,Revaluation,1.0,"{""ArrowUp,ArrowLeft"":26,""ArrowUp,ArrowRight"":10,""ArrowDown,ArrowLeft"":5,""ArrowDown,ArrowRight"":17}",32,,7.54,8,norest,ArrowUp,ArrowLeft,True,True,Children,30
286,195,11405,value training,"[728.1000000000931,381]",False,./assets/img/canyon/memory/12.jpg,canyon,26.0,False,True,Revaluation,1.0,"{""ArrowUp,ArrowLeft"":26,""ArrowUp,ArrowRight"":10,""ArrowDown,ArrowLeft"":5,""ArrowDown,ArrowRight"":17}",33,,7.54,8,norest,ArrowUp,ArrowLeft,True,True,Children,30
287,197,11405,value training,"[731.1000000000931,446.60000000009313]",False,./assets/img/canyon/memory/10.jpg,canyon,26.0,False,True,Revaluation,1.0,"{""ArrowUp,ArrowLeft"":26,""ArrowUp,ArrowRight"":10,""ArrowDown,ArrowLeft"":5,""ArrowDown,ArrowRight"":17}",34,,7.54,8,norest,ArrowUp,ArrowLeft,True,True,Children,30
289,201,11405,value training,"[1263.8000000002794,444.29999999981374]",False,./assets/img/canyon/memory/27.jpg,canyon,26.0,False,True,Revaluation,1.0,"{""ArrowUp,ArrowLeft"":26,""ArrowUp,ArrowRight"":10,""ArrowDown,ArrowLeft"":5,""ArrowDown,ArrowRight"":17}",35,,7.54,8,norest,ArrowUp,ArrowLeft,True,True,Children,30
290,203,11405,value training,"[532.7999999998137,369.39999999990687]",False,./assets/img/canyon/memory/13.jpg,canyon,26.0,False,True,Revaluation,1.0,"{""ArrowUp,ArrowLeft"":26,""ArrowUp,ArrowRight"":10,""ArrowDown,ArrowLeft"":5,""ArrowDown,ArrowRight"":17}",36,,7.54,8,norest,ArrowUp,ArrowLeft,True,True,Children,35
292,207,11405,value training,"[888.8000000002794,424.5]",False,./assets/img/canyon/memory/36.jpg,canyon,26.0,False,True,Revaluation,1.0,"{""ArrowUp,ArrowLeft"":26,""ArrowUp,ArrowRight"":10,""ArrowDown,ArrowLeft"":5,""ArrowDown,ArrowRight"":17}",37,,7.54,8,norest,ArrowUp,ArrowLeft,True,True,Children,35
293,209,11405,value training,"[511.60000000009313,443.10000000009313]",False,./assets/img/canyon/memory/6.jpg,canyon,26.0,False,True,Revaluation,1.0,"{""ArrowUp,ArrowLeft"":26,""ArrowUp,ArrowRight"":10,""ArrowDown,ArrowLeft"":5,""ArrowDown,ArrowRight"":17}",38,,7.54,8,norest,ArrowUp,ArrowLeft,True,True,Children,35
294,211,11405,value training,"[924.8000000002794,464.1999999997206]",False,./assets/img/canyon/memory/33.jpg,canyon,26.0,False,True,Revaluation,1.0,"{""ArrowUp,ArrowLeft"":26,""ArrowUp,ArrowRight"":10,""ArrowDown,ArrowLeft"":5,""ArrowDown,ArrowRight"":17}",39,,7.54,8,norest,ArrowUp,ArrowLeft,True,True,Children,35
295,213,11405,value training,"[660.8999999999069,543.5]",False,./assets/img/canyon/memory/0.jpg,canyon,26.0,False,True,Revaluation,1.0,"{""ArrowUp,ArrowLeft"":26,""ArrowUp,ArrowRight"":10,""ArrowDown,ArrowLeft"":5,""ArrowDown,ArrowRight"":17}",40,,7.54,8,norest,ArrowUp,ArrowLeft,True,True,Children,35
296,215,11405,value training,"[878.8000000002794,940.1000000000931]",False,./assets/img/canyon/memory/33.jpg,canyon,26.0,False,True,Revaluation,1.0,"{""ArrowUp,ArrowLeft"":26,""ArrowUp,ArrowRight"":10,""ArrowDown,ArrowLeft"":5,""ArrowDown,ArrowRight"":17}",41,,7.54,8,norest,ArrowUp,ArrowLeft,True,True,Children,40
297,217,11405,value training,"[779.7999999998137,388.60000000009313]",False,./assets/img/canyon/memory/28.jpg,canyon,26.0,False,True,Revaluation,1.0,"{""ArrowUp,ArrowLeft"":26,""ArrowUp,ArrowRight"":10,""ArrowDown,ArrowLeft"":5,""ArrowDown,ArrowRight"":17}",42,,7.54,8,norest,ArrowUp,ArrowLeft,True,True,Children,40
328,294,11405,value training,"[1271.2999999998137,731.2000000001863]",False,./assets/img/ocean/memory/11.jpg,ocean,10.0,False,False,Control,2.0,"{""ArrowUp,ArrowLeft"":23,""ArrowUp,ArrowRight"":10,""ArrowDown,ArrowLeft"":8,""ArrowDown,ArrowRight"":30}",1,,7.54,8,norest,ArrowUp,ArrowRight,False,False,Children,0
330,298,11405,value training,"[540.1000000000931,437.60000000009313]",False,./assets/img/ocean/memory/19.jpg,ocean,23.0,False,False,Control,2.0,"{""ArrowUp,ArrowLeft"":23,""ArrowUp,ArrowRight"":10,""ArrowDown,ArrowLeft"":8,""ArrowDown,ArrowRight"":30}",2,,7.54,8,norest,ArrowUp,ArrowLeft,False,False,Children,0
331,300,11405,value training,"[654.6000000000931,711.9000000003725]",False,./assets/img/ocean/memory/10.jpg,ocean,8.0,False,False,Control,2.0,"{""ArrowUp,ArrowLeft"":23,""ArrowUp,ArrowRight"":10,""ArrowDown,ArrowLeft"":8,""ArrowDown,ArrowRight"":30}",3,,7.54,8,norest,ArrowDown,ArrowLeft,True,True,Children,0
332,302,11405,value training,"[407.3000000002794,429.70000000018626]",False,./assets/img/ocean/memory/11.jpg,ocean,30.0,False,True,Control,2.0,"{""ArrowUp,ArrowLeft"":23,""ArrowUp,ArrowRight"":10,""ArrowDown,ArrowLeft"":8,""ArrowDown,ArrowRight"":30}",4,,7.54,8,norest,ArrowDown,ArrowRight,True,True,Children,0
333,304,11405,value training,"[654.3999999999069,641.6999999997206]",False,./assets/img/ocean/memory/6.jpg,ocean,30.0,False,True,Control,2.0,"{""ArrowUp,ArrowLeft"":23,""ArrowUp,ArrowRight"":10,""ArrowDown,ArrowLeft"":8,""ArrowDown,ArrowRight"":30}",5,,7.54,8,norest,ArrowDown,ArrowRight,True,True,Children,0
334,306,11405,value training,"[508.70000000018626,421.5]",False,./assets/img/ocean/memory/0.jpg,ocean,30.0,False,True,Control,2.0,"{""ArrowUp,ArrowLeft"":23,""ArrowUp,ArrowRight"":10,""ArrowDown,ArrowLeft"":8,""ArrowDown,ArrowRight"":30}",6,,7.54,8,norest,ArrowDown,ArrowRight,True,True,Children,5
335,308,11405,value training,"[508.39999999990687,359.20000000018626]",False,./assets/img/ocean/memory/40.jpg,ocean,30.0,False,True,Control,2.0,"{""ArrowUp,ArrowLeft"":23,""ArrowUp,ArrowRight"":10,""ArrowDown,ArrowLeft"":8,""ArrowDown,ArrowRight"":30}",7,,7.54,8,norest,ArrowDown,ArrowRight,True,True,Children,5
337,312,11405,value training,"[903.7000000001863,459]",False,./assets/img/ocean/memory/15.jpg,ocean,30.0,False,True,Control,2.0,"{""ArrowUp,ArrowLeft"":23,""ArrowUp,ArrowRight"":10,""ArrowDown,ArrowLeft"":8,""ArrowDown,ArrowRight"":30}",8,,7.54,8,norest,ArrowDown,ArrowRight,True,True,Children,5
338,314,11405,value training,"[615,572.5]",False,./assets/img/ocean/memory/34.jpg,ocean,30.0,False,True,Control,2.0,"{""ArrowUp,ArrowLeft"":23,""ArrowUp,ArrowRight"":10,""ArrowDown,ArrowLeft"":8,""ArrowDown,ArrowRight"":30}",9,,7.54,8,norest,ArrowDown,ArrowRight,True,True,Children,5
339,316,11405,value training,"[911.7999999998137,406.79999999981374]",False,./assets/img/ocean/memory/10.jpg,ocean,30.0,False,True,Control,2.0,"{""ArrowUp,ArrowLeft"":23,""ArrowUp,ArrowRight"":10,""ArrowDown,ArrowLeft"":8,""ArrowDown,ArrowRight"":30}",10,,7.54,8,norest,ArrowDown,ArrowRight,True,True,Children,5
340,318,11405,value training,"[709.8000000002794,570.0999999996275]",False,./assets/img/ocean/memory/4.jpg,ocean,30.0,False,True,Control,2.0,"{""ArrowUp,ArrowLeft"":23,""ArrowUp,ArrowRight"":10,""ArrowDown,ArrowLeft"":8,""ArrowDown,ArrowRight"":30}",11,,7.54,8,norest,ArrowDown,ArrowRight,True,True,Children,10
341,320,11405,value training,"[887.6000000000931,595.6999999997206]",False,./assets/img/ocean/memory/36.jpg,ocean,30.0,False,True,Control,2.0,"{""ArrowUp,ArrowLeft"":23,""ArrowUp,ArrowRight"":10,""ArrowDown,ArrowLeft"":8,""ArrowDown,ArrowRight"":30}",12,,7.54,8,norest,ArrowDown,ArrowRight,True,True,Children,10
342,322,11405,value training,"[472.60000000009313,580.9000000003725]",False,./assets/img/ocean/memory/13.jpg,ocean,30.0,False,True,Control,2.0,"{""ArrowUp,ArrowLeft"":23,""ArrowUp,ArrowRight"":10,""ArrowDown,ArrowLeft"":8,""ArrowDown,ArrowRight"":30}",13,,7.54,8,norest,ArrowDown,ArrowRight,True,True,Children,10
343,324,11405,value training,"[781.1000000000931,621]",False,./assets/img/ocean/memory/32.jpg,ocean,30.0,False,True,Control,2.0,"{""ArrowUp,ArrowLeft"":23,""ArrowUp,ArrowRight"":10,""ArrowDown,ArrowLeft"":8,""ArrowDown,ArrowRight"":30}",14,,7.54,8,norest,ArrowDown,ArrowRight,True,True,Children,10
344,326,11405,value training,"[675.7000000001863,466]",False,./assets/img/ocean/memory/21.jpg,ocean,30.0,False,True,Control,2.0,"{""ArrowUp,ArrowLeft"":23,""ArrowUp,ArrowRight"":10,""ArrowDown,ArrowLeft"":8,""ArrowDown,ArrowRight"":30}",15,,7.54,8,norest,ArrowDown,ArrowRight,True,True,Children,10
345,328,11405,value training,"[762.2000000001863,507.1999999997206]",False,./assets/img/ocean/memory/12.jpg,ocean,30.0,False,True,Control,2.0,"{""ArrowUp,ArrowLeft"":23,""ArrowUp,ArrowRight"":10,""ArrowDown,ArrowLeft"":8,""ArrowDown,ArrowRight"":30}",16,,7.54,8,norest,ArrowDown,ArrowRight,True,True,Children,15
347,332,11405,value training,"[1221.1000000000931,1293.6999999997206]",False,./assets/img/ocean/memory/27.jpg,ocean,30.0,False,True,Control,2.0,"{""ArrowUp,ArrowLeft"":23,""ArrowUp,ArrowRight"":10,""ArrowDown,ArrowLeft"":8,""ArrowDown,ArrowRight"":30}",17,,7.54,8,norest,ArrowDown,ArrowRight,True,True,Children,15
348,334,11405,value training,"[460,343.10000000009313]",False,./assets/img/ocean/memory/32.jpg,ocean,30.0,False,True,Control,2.0,"{""ArrowUp,ArrowLeft"":23,""ArrowUp,ArrowRight"":10,""ArrowDown,ArrowLeft"":8,""ArrowDown,ArrowRight"":30}",18,,7.54,8,norest,ArrowDown,ArrowRight,True,True,Children,15
350,338,11405,value training,"[1037.7999999998137,497.10000000009313]",False,./assets/img/ocean/memory/19.jpg,ocean,30.0,False,True,Control,2.0,"{""ArrowUp,ArrowLeft"":23,""ArrowUp,ArrowRight"":10,""ArrowDown,ArrowLeft"":8,""ArrowDown,ArrowRight"":30}",19,,7.54,8,norest,ArrowDown,ArrowRight,True,True,Children,15
351,340,11405,value training,"[725.9000000003725,374.89999999990687]",False,./assets/img/ocean/memory/3.jpg,ocean,30.0,False,True,Control,2.0,"{""ArrowUp,ArrowLeft"":23,""ArrowUp,ArrowRight"":10,""ArrowDown,ArrowLeft"":8,""ArrowDown,ArrowRight"":30}",20,,7.54,8,norest,ArrowDown,ArrowRight,True,True,Children,15
352,342,11405,value training,"[982.2000000001863,510.29999999981374]",False,./assets/img/ocean/memory/21.jpg,ocean,30.0,False,True,Control,2.0,"{""ArrowUp,ArrowLeft"":23,""ArrowUp,ArrowRight"":10,""ArrowDown,ArrowLeft"":8,""ArrowDown,ArrowRight"":30}",21,,7.54,8,norest,ArrowDown,ArrowRight,True,True,Children,20
353,344,11405,value training,"[835,361.40000000037253]",False,./assets/img/ocean/memory/27.jpg,ocean,30.0,False,True,Control,2.0,"{""ArrowUp,ArrowLeft"":23,""ArrowUp,ArrowRight"":10,""ArrowDown,ArrowLeft"":8,""ArrowDown,ArrowRight"":30}",22,,7.54,8,norest,ArrowDown,ArrowRight,True,True,Children,20
354,346,11405,value training,"[496.1999999997206,435.39999999990687]",False,./assets/img/ocean/memory/33.jpg,ocean,30.0,False,True,Control,2.0,"{""ArrowUp,ArrowLeft"":23,""ArrowUp,ArrowRight"":10,""ArrowDown,ArrowLeft"":8,""ArrowDown,ArrowRight"":30}",23,,7.54,8,norest,ArrowDown,ArrowRight,True,True,Children,20
355,348,11405,value training,"[411.39999999990687,326.60000000009313]",False,./assets/img/ocean/memory/9.jpg,ocean,30.0,False,True,Control,2.0,"{""ArrowUp,ArrowLeft"":23,""ArrowUp,ArrowRight"":10,""ArrowDown,ArrowLeft"":8,""ArrowDown,ArrowRight"":30}",24,,7.54,8,norest,ArrowDown,ArrowRight,True,True,Children,20
356,350,11405,value training,"[914.1000000000931,449.5]",False,./assets/img/ocean/memory/28.jpg,ocean,30.0,False,True,Control,2.0,"{""ArrowUp,ArrowLeft"":23,""ArrowUp,ArrowRight"":10,""ArrowDown,ArrowLeft"":8,""ArrowDown,ArrowRight"":30}",25,,7.54,8,norest,ArrowDown,ArrowRight,True,True,Children,20
357,352,11405,value training,"[658.5,464.70000000018626]",False,./assets/img/ocean/memory/34.jpg,ocean,30.0,False,True,Control,2.0,"{""ArrowUp,ArrowLeft"":23,""ArrowUp,ArrowRight"":10,""ArrowDown,ArrowLeft"":8,""ArrowDown,ArrowRight"":30}",26,,7.54,8,norest,ArrowDown,ArrowRight,True,True,Children,25
359,356,11405,value training,"[1033.6000000000931,752.5]",False,./assets/img/ocean/memory/4.jpg,ocean,30.0,False,True,Control,2.0,"{""ArrowUp,ArrowLeft"":23,""ArrowUp,ArrowRight"":10,""ArrowDown,ArrowLeft"":8,""ArrowDown,ArrowRight"":30}",28,,7.54,8,norest,ArrowDown,ArrowRight,True,True,Children,25
360,358,11405,value training,"[1004.7000000001863,534.6999999997206]",False,./assets/img/ocean/memory/39.jpg,ocean,30.0,False,True,Control,2.0,"{""ArrowUp,ArrowLeft"":23,""ArrowUp,ArrowRight"":10,""ArrowDown,ArrowLeft"":8,""ArrowDown,ArrowRight"":30}",29,,7.54,8,norest,ArrowDown,ArrowRight,True,True,Children,25
361,360,11405,value training,"[372.8000000002794,347]",False,./assets/img/ocean/memory/13.jpg,ocean,30.0,False,True,Control,2.0,"{""ArrowUp,ArrowLeft"":23,""ArrowUp,ArrowRight"":10,""ArrowDown,ArrowLeft"":8,""ArrowDown,ArrowRight"":30}",30,,7.54,8,norest,ArrowDown,ArrowRight,True,True,Children,25
362,362,11405,value training,"[561.5999999996275,355]",False,./assets/img/ocean/memory/14.jpg,ocean,30.0,False,True,Control,2.0,"{""ArrowUp,ArrowLeft"":23,""ArrowUp,ArrowRight"":10,""ArrowDown,ArrowLeft"":8,""ArrowDown,ArrowRight"":30}",31,,7.54,8,norest,ArrowDown,ArrowRight,True,True,Children,30
363,364,11405,value training,"[672.7000000001863,385.70000000018626]",False,./assets/img/ocean/memory/36.jpg,ocean,30.0,False,True,Control,2.0,"{""ArrowUp,ArrowLeft"":23,""ArrowUp,ArrowRight"":10,""ArrowDown,ArrowLeft"":8,""ArrowDown,ArrowRight"":30}",32,,7.54,8,norest,ArrowDown,ArrowRight,True,True,Children,30
365,368,11405,value training,"[701,450.79999999981374]",False,./assets/img/ocean/memory/39.jpg,ocean,30.0,False,True,Control,2.0,"{""ArrowUp,ArrowLeft"":23,""ArrowUp,ArrowRight"":10,""ArrowDown,ArrowLeft"":8,""ArrowDown,ArrowRight"":30}",33,,7.54,8,norest,ArrowDown,ArrowRight,True,True,Children,30
366,370,11405,value training,"[721.3000000002794,571.1999999997206]",False,./assets/img/ocean/memory/14.jpg,ocean,30.0,False,True,Control,2.0,"{""ArrowUp,ArrowLeft"":23,""ArrowUp,ArrowRight"":10,""ArrowDown,ArrowLeft"":8,""ArrowDown,ArrowRight"":30}",34,,7.54,8,norest,ArrowDown,ArrowRight,True,True,Children,30
367,372,11405,value training,"[725.1000000000931,444.60000000009313]",False,./assets/img/ocean/memory/33.jpg,ocean,30.0,False,True,Control,2.0,"{""ArrowUp,ArrowLeft"":23,""ArrowUp,ArrowRight"":10,""ArrowDown,ArrowLeft"":8,""ArrowDown,ArrowRight"":30}",35,,7.54,8,norest,ArrowDown,ArrowRight,True,True,Children,30
370,378,11405,value training,"[989.7000000001863,658.7999999998137]",False,./assets/img/ocean/memory/12.jpg,ocean,30.0,False,True,Control,2.0,"{""ArrowUp,ArrowLeft"":23,""ArrowUp,ArrowRight"":10,""ArrowDown,ArrowLeft"":8,""ArrowDown,ArrowRight"":30}",37,,7.54,8,norest,ArrowDown,ArrowRight,True,True,Children,35
371,380,11405,value training,"[493.6999999997206,349.60000000009313]",False,./assets/img/ocean/memory/40.jpg,ocean,30.0,False,True,Control,2.0,"{""ArrowUp,ArrowLeft"":23,""ArrowUp,ArrowRight"":10,""ArrowDown,ArrowLeft"":8,""ArrowDown,ArrowRight"":30}",38,,7.54,8,norest,ArrowDown,ArrowRight,True,True,Children,35
372,382,11405,value training,"[463.10000000009313,306.20000000018626]",False,./assets/img/ocean/memory/3.jpg,ocean,30.0,False,True,Control,2.0,"{""ArrowUp,ArrowLeft"":23,""ArrowUp,ArrowRight"":10,""ArrowDown,ArrowLeft"":8,""ArrowDown,ArrowRight"":30}",39,,7.54,8,norest,ArrowDown,ArrowRight,True,True,Children,35
373,384,11405,value training,"[461.3000000002794,387.10000000009313]",False,./assets/img/ocean/memory/15.jpg,ocean,30.0,False,True,Control,2.0,"{""ArrowUp,ArrowLeft"":23,""ArrowUp,ArrowRight"":10,""ArrowDown,ArrowLeft"":8,""ArrowDown,ArrowRight"":30}",40,,7.54,8,norest,ArrowDown,ArrowRight,True,True,Children,35
375,388,11405,value training,"[889.2999999998137,387.79999999981374]",False,./assets/img/ocean/memory/6.jpg,ocean,30.0,False,True,Control,2.0,"{""ArrowUp,ArrowLeft"":23,""ArrowUp,ArrowRight"":10,""ArrowDown,ArrowLeft"":8,""ArrowDown,ArrowRight"":30}",41,,7.54,8,norest,ArrowDown,ArrowRight,True,True,Children,40
376,390,11405,value training,"[708.5,547.0999999996275]",False,./assets/img/ocean/memory/9.jpg,ocean,30.0,False,True,Control,2.0,"{""ArrowUp,ArrowLeft"":23,""ArrowUp,ArrowRight"":10,""ArrowDown,ArrowLeft"":8,""ArrowDown,ArrowRight"":30}",42,,7.54,8,norest,ArrowDown,ArrowRight,True,True,Children,40
496,117,8388,value training,"[1686.3999999985099,1036.0999999940395]",False,./assets/img/canyon/memory/11.jpg,canyon,10.0,False,False,Revaluation,1.0,"{""ArrowUp,ArrowLeft"":26,""ArrowUp,ArrowRight"":10,""ArrowDown,ArrowLeft"":5,""ArrowDown,ArrowRight"":17}",1,,8.91,8,norest,ArrowUp,ArrowRight,True,True,Children,0
497,119,8388,value training,"[537.6999999955297,771.6999999955297]",False,./assets/img/canyon/memory/37.jpg,canyon,26.0,False,True,Revaluation,1.0,"{""ArrowUp,ArrowLeft"":26,""ArrowUp,ArrowRight"":10,""ArrowDown,ArrowLeft"":5,""ArrowDown,ArrowRight"":17}",2,,8.91,8,norest,ArrowUp,ArrowLeft,True,True,Children,0
498,121,8388,value training,"[1007.0999999940395,967]",False,./assets/img/canyon/memory/15.jpg,canyon,5.0,False,False,Revaluation,1.0,"{""ArrowUp,ArrowLeft"":26,""ArrowUp,ArrowRight"":10,""ArrowDown,ArrowLeft"":5,""ArrowDown,ArrowRight"":17}",3,,8.91,8,norest,ArrowDown,ArrowLeft,False,False,Children,0
499,123,8388,value training,"[1323.6000000014901,921.8999999985099]",False,./assets/img/canyon/memory/9.jpg,canyon,17.0,False,False,Revaluation,1.0,"{""ArrowUp,ArrowLeft"":26,""ArrowUp,ArrowRight"":10,""ArrowDown,ArrowLeft"":5,""ArrowDown,ArrowRight"":17}",4,,8.91,8,norest,ArrowDown,ArrowRight,False,False,Children,0
500,125,8388,value training,"[617.2999999970198,472.3999999985099]",False,./assets/img/canyon/memory/31.jpg,canyon,26.0,False,True,Revaluation,1.0,"{""ArrowUp,ArrowLeft"":26,""ArrowUp,ArrowRight"":10,""ArrowDown,ArrowLeft"":5,""ArrowDown,ArrowRight"":17}",5,,8.91,8,norest,ArrowUp,ArrowLeft,True,True,Children,0
501,127,8388,value training,"[476.5,518.2999999970198]",False,./assets/img/canyon/memory/33.jpg,canyon,26.0,False,True,Revaluation,1.0,"{""ArrowUp,ArrowLeft"":26,""ArrowUp,ArrowRight"":10,""ArrowDown,ArrowLeft"":5,""ArrowDown,ArrowRight"":17}",6,,8.91,8,norest,ArrowUp,ArrowLeft,True,True,Children,5
502,129,8388,value training,"[521.5,662.3999999985099]",False,./assets/img/canyon/memory/31.jpg,canyon,26.0,False,True,Revaluation,1.0,"{""ArrowUp,ArrowLeft"":26,""ArrowUp,ArrowRight"":10,""ArrowDown,ArrowLeft"":5,""ArrowDown,ArrowRight"":17}",7,,8.91,8,norest,ArrowUp,ArrowLeft,True,True,Children,5
503,131,8388,value training,"[522.7999999970198,356.70000000298023]",False,./assets/img/canyon/memory/27.jpg,canyon,26.0,False,True,Revaluation,1.0,"{""ArrowUp,ArrowLeft"":26,""ArrowUp,ArrowRight"":10,""ArrowDown,ArrowLeft"":5,""ArrowDown,ArrowRight"":17}",8,,8.91,8,norest,ArrowUp,ArrowLeft,True,True,Children,5
504,133,8388,value training,"[911.1999999955297,529.7999999970198]",False,./assets/img/canyon/memory/25.jpg,canyon,26.0,False,True,Revaluation,1.0,"{""ArrowUp,ArrowLeft"":26,""ArrowUp,ArrowRight"":10,""ArrowDown,ArrowLeft"":5,""ArrowDown,ArrowRight"":17}",9,,8.91,8,norest,ArrowUp,ArrowLeft,True,True,Children,5
505,135,8388,value training,"[570.2000000029802,560.1000000014901]",False,./assets/img/canyon/memory/5.jpg,canyon,26.0,False,True,Revaluation,1.0,"{""ArrowUp,ArrowLeft"":26,""ArrowUp,ArrowRight"":10,""ArrowDown,ArrowLeft"":5,""ArrowDown,ArrowRight"":17}",10,,8.91,8,norest,ArrowUp,ArrowLeft,True,True,Children,5
506,137,8388,value training,"[730.6999999955297,697.8999999985099]",False,./assets/img/canyon/memory/5.jpg,canyon,26.0,False,True,Revaluation,1.0,"{""ArrowUp,ArrowLeft"":26,""ArrowUp,ArrowRight"":10,""ArrowDown,ArrowLeft"":5,""ArrowDown,ArrowRight"":17}",11,,8.91,8,norest,ArrowUp,ArrowLeft,True,True,Children,10
507,139,8388,value training,"[890.7000000029802,530.7999999970198]",False,./assets/img/canyon/memory/36.jpg,canyon,26.0,False,True,Revaluation,1.0,"{""ArrowUp,ArrowLeft"":26,""ArrowUp,ArrowRight"":10,""ArrowDown,ArrowLeft"":5,""ArrowDown,ArrowRight"":17}",12,,8.91,8,norest,ArrowUp,ArrowLeft,True,True,Children,10
510,145,8388,value training,"[1018.6000000014901,643.1000000014901]",False,./assets/img/canyon/memory/27.jpg,canyon,26.0,False,True,Revaluation,1.0,"{""ArrowUp,ArrowLeft"":26,""ArrowUp,ArrowRight"":10,""ArrowDown,ArrowLeft"":5,""ArrowDown,ArrowRight"":17}",13,,8.91,8,norest,ArrowUp,ArrowLeft,True,True,Children,10
512,149,8388,value training,"[973.6000000014901,1036.1999999955297]",False,./assets/img/canyon/memory/1.jpg,canyon,26.0,False,True,Revaluation,1.0,"{""ArrowUp,ArrowLeft"":26,""ArrowUp,ArrowRight"":10,""ArrowDown,ArrowLeft"":5,""ArrowDown,ArrowRight"":17}",14,,8.91,8,norest,ArrowUp,ArrowLeft,True,True,Children,10
514,153,8388,value training,"[1071.7999999970198,471.29999999701977]",False,./assets/img/canyon/memory/38.jpg,canyon,26.0,False,True,Revaluation,1.0,"{""ArrowUp,ArrowLeft"":26,""ArrowUp,ArrowRight"":10,""ArrowDown,ArrowLeft"":5,""ArrowDown,ArrowRight"":17}",15,,8.91,8,norest,ArrowUp,ArrowLeft,True,True,Children,10
515,155,8388,value training,"[806,711.8999999985099]",False,./assets/img/canyon/memory/3.jpg,canyon,26.0,False,True,Revaluation,1.0,"{""ArrowUp,ArrowLeft"":26,""ArrowUp,ArrowRight"":10,""ArrowDown,ArrowLeft"":5,""ArrowDown,ArrowRight"":17}",16,,8.91,8,norest,ArrowUp,ArrowLeft,True,True,Children,15
516,157,8388,value training,"[911.1999999955297,834.6999999955297]",False,./assets/img/canyon/memory/6.jpg,canyon,26.0,False,True,Revaluation,1.0,"{""ArrowUp,ArrowLeft"":26,""ArrowUp,ArrowRight"":10,""ArrowDown,ArrowLeft"":5,""ArrowDown,ArrowRight"":17}",17,,8.91,8,norest,ArrowUp,ArrowLeft,True,True,Children,15
518,161,8388,value training,"[800.6000000014901,560.7999999970198]",False,./assets/img/canyon/memory/37.jpg,canyon,26.0,False,True,Revaluation,1.0,"{""ArrowUp,ArrowLeft"":26,""ArrowUp,ArrowRight"":10,""ArrowDown,ArrowLeft"":5,""ArrowDown,ArrowRight"":17}",18,,8.91,8,norest,ArrowUp,ArrowLeft,True,True,Children,15
519,163,8388,value training,"[725,447.6000000014901]",False,./assets/img/canyon/memory/24.jpg,canyon,26.0,False,True,Revaluation,1.0,"{""ArrowUp,ArrowLeft"":26,""ArrowUp,ArrowRight"":10,""ArrowDown,ArrowLeft"":5,""ArrowDown,ArrowRight"":17}",19,,8.91,8,norest,ArrowUp,ArrowLeft,True,True,Children,15
520,165,8388,value training,"[681.7000000029802,342]",False,./assets/img/canyon/memory/12.jpg,canyon,26.0,False,True,Revaluation,1.0,"{""ArrowUp,ArrowLeft"":26,""ArrowUp,ArrowRight"":10,""ArrowDown,ArrowLeft"":5,""ArrowDown,ArrowRight"":17}",20,,8.91,8,norest,ArrowUp,ArrowLeft,True,True,Children,15
521,167,8388,value training,"[911.1999999955297,862.6000000014901]",False,./assets/img/canyon/memory/39.jpg,canyon,26.0,False,True,Revaluation,1.0,"{""ArrowUp,ArrowLeft"":26,""ArrowUp,ArrowRight"":10,""ArrowDown,ArrowLeft"":5,""ArrowDown,ArrowRight"":17}",21,,8.91,8,norest,ArrowUp,ArrowLeft,True,True,Children,20
522,169,8388,value training,"[1183.8000000044703,586]",False,./assets/img/canyon/memory/10.jpg,canyon,26.0,False,True,Revaluation,1.0,"{""ArrowUp,ArrowLeft"":26,""ArrowUp,ArrowRight"":10,""ArrowDown,ArrowLeft"":5,""ArrowDown,ArrowRight"":17}",22,,8.91,8,norest,ArrowUp,ArrowLeft,True,True,Children,20
523,171,8388,value training,"[773.6999999955297,871.1000000014901]",False,./assets/img/canyon/memory/8.jpg,canyon,26.0,False,True,Revaluation,1.0,"{""ArrowUp,ArrowLeft"":26,""ArrowUp,ArrowRight"":10,""ArrowDown,ArrowLeft"":5,""ArrowDown,ArrowRight"":17}",23,,8.91,8,norest,ArrowUp,ArrowLeft,True,True,Children,20
524,173,8388,value training,"[704.9000000059605,1427.1999999955297]",False,./assets/img/canyon/memory/25.jpg,canyon,5.0,False,False,Revaluation,1.0,"{""ArrowUp,ArrowLeft"":26,""ArrowUp,ArrowRight"":10,""ArrowDown,ArrowLeft"":5,""ArrowDown,ArrowRight"":17}",24,,8.91,8,norest,ArrowDown,ArrowLeft,False,False,Children,20
526,177,8388,value training,"[783,1342.1999999955297]",False,./assets/img/canyon/memory/1.jpg,canyon,26.0,False,True,Revaluation,1.0,"{""ArrowUp,ArrowLeft"":26,""ArrowUp,ArrowRight"":10,""ArrowDown,ArrowLeft"":5,""ArrowDown,ArrowRight"":17}",25,,8.91,8,norest,ArrowUp,ArrowLeft,True,True,Children,20
528,181,8388,value training,"[1221.8999999985099,610.1000000014901]",False,./assets/img/canyon/memory/39.jpg,canyon,26.0,False,True,Revaluation,1.0,"{""ArrowUp,ArrowLeft"":26,""ArrowUp,ArrowRight"":10,""ArrowDown,ArrowLeft"":5,""ArrowDown,ArrowRight"":17}",27,,8.91,8,norest,ArrowUp,ArrowLeft,True,True,Children,25
529,183,8388,value training,"[961.7999999970198,827.5]",False,./assets/img/canyon/memory/24.jpg,canyon,26.0,False,True,Revaluation,1.0,"{""ArrowUp,ArrowLeft"":26,""ArrowUp,ArrowRight"":10,""ArrowDown,ArrowLeft"":5,""ArrowDown,ArrowRight"":17}",28,,8.91,8,norest,ArrowUp,ArrowLeft,True,True,Children,25
530,185,8388,value training,"[824.1000000014901,889.8999999985099]",False,./assets/img/canyon/memory/10.jpg,canyon,26.0,False,True,Revaluation,1.0,"{""ArrowUp,ArrowLeft"":26,""ArrowUp,ArrowRight"":10,""ArrowDown,ArrowLeft"":5,""ArrowDown,ArrowRight"":17}",29,,8.91,8,norest,ArrowUp,ArrowLeft,True,True,Children,25
531,187,8388,value training,"[688,626.5]",False,./assets/img/canyon/memory/11.jpg,canyon,26.0,False,True,Revaluation,1.0,"{""ArrowUp,ArrowLeft"":26,""ArrowUp,ArrowRight"":10,""ArrowDown,ArrowLeft"":5,""ArrowDown,ArrowRight"":17}",30,,8.91,8,norest,ArrowUp,ArrowLeft,True,True,Children,25
532,189,8388,value training,"[989.5,1030.2000000029802]",False,./assets/img/canyon/memory/0.jpg,canyon,26.0,False,True,Revaluation,1.0,"{""ArrowUp,ArrowLeft"":26,""ArrowUp,ArrowRight"":10,""ArrowDown,ArrowLeft"":5,""ArrowDown,ArrowRight"":17}",31,,8.91,8,norest,ArrowUp,ArrowLeft,True,True,Children,30
533,191,8388,value training,"[725.7999999970198,920.8000000044703]",False,./assets/img/canyon/memory/38.jpg,canyon,26.0,False,True,Revaluation,1.0,"{""ArrowUp,ArrowLeft"":26,""ArrowUp,ArrowRight"":10,""ArrowDown,ArrowLeft"":5,""ArrowDown,ArrowRight"":17}",32,,8.91,8,norest,ArrowUp,ArrowLeft,True,True,Children,30
534,193,8388,value training,"[602.6000000014901,752.6999999955297]",False,./assets/img/canyon/memory/15.jpg,canyon,26.0,False,True,Revaluation,1.0,"{""ArrowUp,ArrowLeft"":26,""ArrowUp,ArrowRight"":10,""ArrowDown,ArrowLeft"":5,""ArrowDown,ArrowRight"":17}",33,,8.91,8,norest,ArrowUp,ArrowLeft,True,True,Children,30
535,195,8388,value training,"[627.6000000014901,754.5]",False,./assets/img/canyon/memory/33.jpg,canyon,26.0,False,True,Revaluation,1.0,"{""ArrowUp,ArrowLeft"":26,""ArrowUp,ArrowRight"":10,""ArrowDown,ArrowLeft"":5,""ArrowDown,ArrowRight"":17}",34,,8.91,8,norest,ArrowUp,ArrowLeft,True,True,Children,30
536,197,8388,value training,"[1047.6000000014901,981.6000000014901]",False,./assets/img/canyon/memory/36.jpg,canyon,26.0,False,True,Revaluation,1.0,"{""ArrowUp,ArrowLeft"":26,""ArrowUp,ArrowRight"":10,""ArrowDown,ArrowLeft"":5,""ArrowDown,ArrowRight"":17}",35,,8.91,8,norest,ArrowUp,ArrowLeft,True,True,Children,30
538,201,8388,value training,"[1774.5,688.3999999985099]",False,./assets/img/canyon/memory/3.jpg,canyon,26.0,False,True,Revaluation,1.0,"{""ArrowUp,ArrowLeft"":26,""ArrowUp,ArrowRight"":10,""ArrowDown,ArrowLeft"":5,""ArrowDown,ArrowRight"":17}",36,,8.91,8,norest,ArrowUp,ArrowLeft,True,True,Children,35
539,203,8388,value training,"[841.8999999985099,526.3999999985099]",False,./assets/img/canyon/memory/0.jpg,canyon,26.0,False,True,Revaluation,1.0,"{""ArrowUp,ArrowLeft"":26,""ArrowUp,ArrowRight"":10,""ArrowDown,ArrowLeft"":5,""ArrowDown,ArrowRight"":17}",37,,8.91,8,norest,ArrowUp,ArrowLeft,True,True,Children,35
540,205,8388,value training,"[891.5,549.1000000014901]",False,./assets/img/canyon/memory/9.jpg,canyon,26.0,False,True,Revaluation,1.0,"{""ArrowUp,ArrowLeft"":26,""ArrowUp,ArrowRight"":10,""ArrowDown,ArrowLeft"":5,""ArrowDown,ArrowRight"":17}",38,,8.91,8,norest,ArrowUp,ArrowLeft,True,True,Children,35
541,207,8388,value training,"[909.2999999970198,1008.2999999970198]",False,./assets/img/canyon/memory/6.jpg,canyon,26.0,False,True,Revaluation,1.0,"{""ArrowUp,ArrowLeft"":26,""ArrowUp,ArrowRight"":10,""ArrowDown,ArrowLeft"":5,""ArrowDown,ArrowRight"":17}",39,,8.91,8,norest,ArrowUp,ArrowLeft,True,True,Children,35
542,209,8388,value training,"[772.6999999955297,543.2999999970198]",False,./assets/img/canyon/memory/12.jpg,canyon,26.0,False,True,Revaluation,1.0,"{""ArrowUp,ArrowLeft"":26,""ArrowUp,ArrowRight"":10,""ArrowDown,ArrowLeft"":5,""ArrowDown,ArrowRight"":17}",40,,8.91,8,norest,ArrowUp,ArrowLeft,True,True,Children,35
544,213,8388,value training,"[823.7000000029802,1273.2999999970198]",False,./assets/img/canyon/memory/19.jpg,canyon,26.0,False,True,Revaluation,1.0,"{""ArrowUp,ArrowLeft"":26,""ArrowUp,ArrowRight"":10,""ArrowDown,ArrowLeft"":5,""ArrowDown,ArrowRight"":17}",41,,8.91,8,norest,ArrowUp,ArrowLeft,True,True,Children,40
545,215,8388,value training,"[658.1000000014901,934]",False,./assets/img/canyon/memory/8.jpg,canyon,26.0,False,True,Revaluation,1.0,"{""ArrowUp,ArrowLeft"":26,""ArrowUp,ArrowRight"":10,""ArrowDown,ArrowLeft"":5,""ArrowDown,ArrowRight"":17}",42,,8.91,8,norest,ArrowUp,ArrowLeft,True,True,Children,40
576,292,8388,value training,"[1474.8999999985099,1063.2999999970198]",False,./assets/img/ocean/memory/15.jpg,ocean,23.0,False,False,Control,2.0,"{""ArrowUp,ArrowLeft"":23,""ArrowUp,ArrowRight"":10,""ArrowDown,ArrowLeft"":8,""ArrowDown,ArrowRight"":30}",1,,8.91,8,norest,ArrowUp,ArrowLeft,False,False,Children,0
577,294,8388,value training,"[1103.8000000044703,717.8000000044703]",False,./assets/img/ocean/memory/27.jpg,ocean,10.0,False,False,Control,2.0,"{""ArrowUp,ArrowLeft"":23,""ArrowUp,ArrowRight"":10,""ArrowDown,ArrowLeft"":8,""ArrowDown,ArrowRight"":30}",2,,8.91,8,norest,ArrowUp,ArrowRight,False,False,Children,0
578,296,8388,value training,"[379.3999999985099,702.7000000029802]",False,./assets/img/ocean/memory/39.jpg,ocean,8.0,False,False,Control,2.0,"{""ArrowUp,ArrowLeft"":23,""ArrowUp,ArrowRight"":10,""ArrowDown,ArrowLeft"":8,""ArrowDown,ArrowRight"":30}",3,,8.91,8,norest,ArrowDown,ArrowLeft,True,True,Children,0
579,298,8388,value training,"[1150.1000000014901,540.3999999985099]",False,./assets/img/ocean/memory/37.jpg,ocean,30.0,False,True,Control,2.0,"{""ArrowUp,ArrowLeft"":23,""ArrowUp,ArrowRight"":10,""ArrowDown,ArrowLeft"":8,""ArrowDown,ArrowRight"":30}",4,,8.91,8,norest,ArrowDown,ArrowRight,True,True,Children,0
582,304,8388,value training,"[400.6000000014901,757.8000000044703]",False,./assets/img/ocean/memory/19.jpg,ocean,30.0,False,True,Control,2.0,"{""ArrowUp,ArrowLeft"":23,""ArrowUp,ArrowRight"":10,""ArrowDown,ArrowLeft"":8,""ArrowDown,ArrowRight"":30}",6,,8.91,8,norest,ArrowDown,ArrowRight,True,True,Children,5
584,308,8388,value training,"[1139.6999999955297,506.8999999985099]",False,./assets/img/ocean/memory/38.jpg,ocean,30.0,False,True,Control,2.0,"{""ArrowUp,ArrowLeft"":23,""ArrowUp,ArrowRight"":10,""ArrowDown,ArrowLeft"":8,""ArrowDown,ArrowRight"":30}",7,,8.91,8,norest,ArrowDown,ArrowRight,True,True,Children,5
585,310,8388,value training,"[676.1000000014901,441]",False,./assets/img/ocean/memory/36.jpg,ocean,30.0,False,True,Control,2.0,"{""ArrowUp,ArrowLeft"":23,""ArrowUp,ArrowRight"":10,""ArrowDown,ArrowLeft"":8,""ArrowDown,ArrowRight"":30}",8,,8.91,8,norest,ArrowDown,ArrowRight,True,True,Children,5
587,314,8388,value training,"[944.8000000044703,936.3999999985099]",False,./assets/img/ocean/memory/3.jpg,ocean,30.0,False,True,Control,2.0,"{""ArrowUp,ArrowLeft"":23,""ArrowUp,ArrowRight"":10,""ArrowDown,ArrowLeft"":8,""ArrowDown,ArrowRight"":30}",9,,8.91,8,norest,ArrowDown,ArrowRight,True,True,Children,5
588,316,8388,value training,"[1234.5,600.6999999955297]",False,./assets/img/ocean/memory/33.jpg,ocean,30.0,False,True,Control,2.0,"{""ArrowUp,ArrowLeft"":23,""ArrowUp,ArrowRight"":10,""ArrowDown,ArrowLeft"":8,""ArrowDown,ArrowRight"":30}",10,,8.91,8,norest,ArrowDown,ArrowRight,True,True,Children,5
589,318,8388,value training,"[716.6000000014901,1351.7999999970198]",False,./assets/img/ocean/memory/15.jpg,ocean,30.0,False,True,Control,2.0,"{""ArrowUp,ArrowLeft"":23,""ArrowUp,ArrowRight"":10,""ArrowDown,ArrowLeft"":8,""ArrowDown,ArrowRight"":30}",11,,8.91,8,norest,ArrowDown,ArrowRight,True,True,Children,10
590,320,8388,value training,"[1388.7000000029802,743.8999999985099]",False,./assets/img/ocean/memory/38.jpg,ocean,30.0,False,True,Control,2.0,"{""ArrowUp,ArrowLeft"":23,""ArrowUp,ArrowRight"":10,""ArrowDown,ArrowLeft"":8,""ArrowDown,ArrowRight"":30}",12,,8.91,8,norest,ArrowDown,ArrowRight,True,True,Children,10
591,322,8388,value training,"[1162.1999999955297,1031.5]",False,./assets/img/ocean/memory/24.jpg,ocean,30.0,False,True,Control,2.0,"{""ArrowUp,ArrowLeft"":23,""ArrowUp,ArrowRight"":10,""ArrowDown,ArrowLeft"":8,""ArrowDown,ArrowRight"":30}",13,,8.91,8,norest,ArrowDown,ArrowRight,True,True,Children,10
592,324,8388,value training,"[615.6000000014901,347.5]",False,./assets/img/ocean/memory/19.jpg,ocean,30.0,False,True,Control,2.0,"{""ArrowUp,ArrowLeft"":23,""ArrowUp,ArrowRight"":10,""ArrowDown,ArrowLeft"":8,""ArrowDown,ArrowRight"":30}",14,,8.91,8,norest,ArrowDown,ArrowRight,True,True,Children,10
593,326,8388,value training,"[699.2000000029802,874.6999999955297]",False,./assets/img/ocean/memory/37.jpg,ocean,30.0,False,True,Control,2.0,"{""ArrowUp,ArrowLeft"":23,""ArrowUp,ArrowRight"":10,""ArrowDown,ArrowLeft"":8,""ArrowDown,ArrowRight"":30}",15,,8.91,8,norest,ArrowDown,ArrowRight,True,True,Children,10
594,328,8388,value training,"[1283.7000000029802,1175.0999999940395]",False,./assets/img/ocean/memory/33.jpg,ocean,30.0,False,True,Control,2.0,"{""ArrowUp,ArrowLeft"":23,""ArrowUp,ArrowRight"":10,""ArrowDown,ArrowLeft"":8,""ArrowDown,ArrowRight"":30}",16,,8.91,8,norest,ArrowDown,ArrowRight,True,True,Children,15
595,330,8388,value training,"[1316.8000000044703,1008]",False,./assets/img/ocean/memory/12.jpg,ocean,30.0,False,True,Control,2.0,"{""ArrowUp,ArrowLeft"":23,""ArrowUp,ArrowRight"":10,""ArrowDown,ArrowLeft"":8,""ArrowDown,ArrowRight"":30}",17,,8.91,8,norest,ArrowDown,ArrowRight,True,True,Children,15
598,336,8388,value training,"[1688.2000000029802,747]",False,./assets/img/ocean/memory/25.jpg,ocean,30.0,False,True,Control,2.0,"{""ArrowUp,ArrowLeft"":23,""ArrowUp,ArrowRight"":10,""ArrowDown,ArrowLeft"":8,""ArrowDown,ArrowRight"":30}",19,,8.91,8,norest,ArrowDown,ArrowRight,True,True,Children,15
599,338,8388,value training,"[833.8000000044703,623.4000000059605]",False,./assets/img/ocean/memory/36.jpg,ocean,30.0,False,True,Control,2.0,"{""ArrowUp,ArrowLeft"":23,""ArrowUp,ArrowRight"":10,""ArrowDown,ArrowLeft"":8,""ArrowDown,ArrowRight"":30}",20,,8.91,8,norest,ArrowDown,ArrowRight,True,True,Children,15
600,340,8388,value training,"[803.4000000059605,476.90000000596046]",False,./assets/img/ocean/memory/8.jpg,ocean,30.0,False,True,Control,2.0,"{""ArrowUp,ArrowLeft"":23,""ArrowUp,ArrowRight"":10,""ArrowDown,ArrowLeft"":8,""ArrowDown,ArrowRight"":30}",21,,8.91,8,norest,ArrowDown,ArrowRight,True,True,Children,20
601,342,8388,value training,"[754.3000000044703,1430.3999999985099]",False,./assets/img/ocean/memory/10.jpg,ocean,30.0,False,True,Control,2.0,"{""ArrowUp,ArrowLeft"":23,""ArrowUp,ArrowRight"":10,""ArrowDown,ArrowLeft"":8,""ArrowDown,ArrowRight"":30}",22,,8.91,8,norest,ArrowDown,ArrowRight,True,True,Children,20
602,344,8388,value training,"[748.5,925.2999999970198]",False,./assets/img/ocean/memory/3.jpg,ocean,30.0,False,True,Control,2.0,"{""ArrowUp,ArrowLeft"":23,""ArrowUp,ArrowRight"":10,""ArrowDown,ArrowLeft"":8,""ArrowDown,ArrowRight"":30}",23,,8.91,8,norest,ArrowDown,ArrowRight,True,True,Children,20
603,346,8388,value training,"[659.8999999985099,1246.5]",False,./assets/img/ocean/memory/9.jpg,ocean,30.0,False,True,Control,2.0,"{""ArrowUp,ArrowLeft"":23,""ArrowUp,ArrowRight"":10,""ArrowDown,ArrowLeft"":8,""ArrowDown,ArrowRight"":30}",24,,8.91,8,norest,ArrowDown,ArrowRight,True,True,Children,20
604,348,8388,value training,"[1288,609.2000000029802]",False,./assets/img/ocean/memory/24.jpg,ocean,30.0,False,True,Control,2.0,"{""ArrowUp,ArrowLeft"":23,""ArrowUp,ArrowRight"":10,""ArrowDown,ArrowLeft"":8,""ArrowDown,ArrowRight"":30}",25,,8.91,8,norest,ArrowDown,ArrowRight,True,True,Children,20
606,352,8388,value training,"[1579.9000000059605,757.4000000059605]",False,./assets/img/ocean/memory/27.jpg,ocean,30.0,False,True,Control,2.0,"{""ArrowUp,ArrowLeft"":23,""ArrowUp,ArrowRight"":10,""ArrowDown,ArrowLeft"":8,""ArrowDown,ArrowRight"":30}",26,,8.91,8,norest,ArrowDown,ArrowRight,True,True,Children,25
607,354,8388,value training,"[876.2999999970198,804.2000000029802]",False,./assets/img/ocean/memory/0.jpg,ocean,30.0,False,True,Control,2.0,"{""ArrowUp,ArrowLeft"":23,""ArrowUp,ArrowRight"":10,""ArrowDown,ArrowLeft"":8,""ArrowDown,ArrowRight"":30}",27,,8.91,8,norest,ArrowDown,ArrowRight,True,True,Children,25
608,356,8388,value training,"[602.3999999985099,659.1999999955297]",False,./assets/img/ocean/memory/0.jpg,ocean,30.0,False,True,Control,2.0,"{""ArrowUp,ArrowLeft"":23,""ArrowUp,ArrowRight"":10,""ArrowDown,ArrowLeft"":8,""ArrowDown,ArrowRight"":30}",28,,8.91,8,norest,ArrowDown,ArrowRight,True,True,Children,25
613,366,8388,value training,"[1428.1000000014901,480.20000000298023]",False,./assets/img/ocean/memory/11.jpg,ocean,30.0,False,True,Control,2.0,"{""ArrowUp,ArrowLeft"":23,""ArrowUp,ArrowRight"":10,""ArrowDown,ArrowLeft"":8,""ArrowDown,ArrowRight"":30}",31,,8.91,8,norest,ArrowDown,ArrowRight,True,True,Children,30
614,368,8388,value training,"[752.6000000014901,540]",False,./assets/img/ocean/memory/10.jpg,ocean,30.0,False,True,Control,2.0,"{""ArrowUp,ArrowLeft"":23,""ArrowUp,ArrowRight"":10,""ArrowDown,ArrowLeft"":8,""ArrowDown,ArrowRight"":30}",32,,8.91,8,norest,ArrowDown,ArrowRight,True,True,Children,30
615,370,8388,value training,"[585.3000000044703,1406.6999999955297]",False,./assets/img/ocean/memory/6.jpg,ocean,30.0,False,True,Control,2.0,"{""ArrowUp,ArrowLeft"":23,""ArrowUp,ArrowRight"":10,""ArrowDown,ArrowLeft"":8,""ArrowDown,ArrowRight"":30}",33,,8.91,8,norest,ArrowDown,ArrowRight,True,True,Children,30
616,372,8388,value training,"[869.3000000044703,544.3999999985099]",False,./assets/img/ocean/memory/5.jpg,ocean,30.0,False,True,Control,2.0,"{""ArrowUp,ArrowLeft"":23,""ArrowUp,ArrowRight"":10,""ArrowDown,ArrowLeft"":8,""ArrowDown,ArrowRight"":30}",34,,8.91,8,norest,ArrowDown,ArrowRight,True,True,Children,30
617,374,8388,value training,"[956.3000000044703,788.5]",False,./assets/img/ocean/memory/6.jpg,ocean,30.0,False,True,Control,2.0,"{""ArrowUp,ArrowLeft"":23,""ArrowUp,ArrowRight"":10,""ArrowDown,ArrowLeft"":8,""ArrowDown,ArrowRight"":30}",35,,8.91,8,norest,ArrowDown,ArrowRight,True,True,Children,30
618,376,8388,value training,"[1171.2999999970198,676]",False,./assets/img/ocean/memory/11.jpg,ocean,30.0,False,True,Control,2.0,"{""ArrowUp,ArrowLeft"":23,""ArrowUp,ArrowRight"":10,""ArrowDown,ArrowLeft"":8,""ArrowDown,ArrowRight"":30}",36,,8.91,8,norest,ArrowDown,ArrowRight,True,True,Children,35
619,378,8388,value training,"[1153.6000000014901,793.2000000029802]",False,./assets/img/ocean/memory/9.jpg,ocean,30.0,False,True,Control,2.0,"{""ArrowUp,ArrowLeft"":23,""ArrowUp,ArrowRight"":10,""ArrowDown,ArrowLeft"":8,""ArrowDown,ArrowRight"":30}",37,,8.91,8,norest,ArrowDown,ArrowRight,True,True,Children,35
620,380,8388,value training,"[488.3999999985099,511.70000000298023]",False,./assets/img/ocean/memory/39.jpg,ocean,30.0,False,True,Control,2.0,"{""ArrowUp,ArrowLeft"":23,""ArrowUp,ArrowRight"":10,""ArrowDown,ArrowLeft"":8,""ArrowDown,ArrowRight"":30}",38,,8.91,8,norest,ArrowDown,ArrowRight,True,True,Children,35
621,382,8388,value training,"[1251.1999999955297,667.2999999970198]",False,./assets/img/ocean/memory/5.jpg,ocean,30.0,False,True,Control,2.0,"{""ArrowUp,ArrowLeft"":23,""ArrowUp,ArrowRight"":10,""ArrowDown,ArrowLeft"":8,""ArrowDown,ArrowRight"":30}",39,,8.91,8,norest,ArrowDown,ArrowRight,True,True,Children,35
623,386,8388,value training,"[1132.8000000044703,504.19999999552965]",False,./assets/img/ocean/memory/1.jpg,ocean,30.0,False,True,Control,2.0,"{""ArrowUp,ArrowLeft"":23,""ArrowUp,ArrowRight"":10,""ArrowDown,ArrowLeft"":8,""ArrowDown,ArrowRight"":30}",40,,8.91,8,norest,ArrowDown,ArrowRight,True,True,Children,35
624,388,8388,value training,"[891.2000000029802,702.1000000014901]",False,./assets/img/ocean/memory/25.jpg,ocean,30.0,False,True,Control,2.0,"{""ArrowUp,ArrowLeft"":23,""ArrowUp,ArrowRight"":10,""ArrowDown,ArrowLeft"":8,""ArrowDown,ArrowRight"":30}",41,,8.91,8,norest,ArrowDown,ArrowRight,True,True,Children,40
625,390,8388,value training,"[889.3999999985099,662.3000000044703]",False,./assets/img/ocean/memory/8.jpg,ocean,30.0,False,True,Control,2.0,"{""ArrowUp,ArrowLeft"":23,""ArrowUp,ArrowRight"":10,""ArrowDown,ArrowLeft"":8,""ArrowDown,ArrowRight"":30}",42,,8.91,8,norest,ArrowDown,ArrowRight,True,True,Children,40
744,119,8211,value training,"[956.8999999761581,528.3000000119209]",False,./assets/img/canyon/memory/36.jpg,canyon,10.0,False,False,Control,1.0,"{""ArrowUp,ArrowLeft"":23,""ArrowUp,ArrowRight"":10,""ArrowDown,ArrowLeft"":8,""ArrowDown,ArrowRight"":30}",1,,22.45,7,norest,ArrowUp,ArrowRight,False,False,Adults,0
745,121,8211,value training,"[689.3000000119209,371]",False,./assets/img/canyon/memory/10.jpg,canyon,23.0,False,False,Control,1.0,"{""ArrowUp,ArrowLeft"":23,""ArrowUp,ArrowRight"":10,""ArrowDown,ArrowLeft"":8,""ArrowDown,ArrowRight"":30}",2,,22.45,7,norest,ArrowUp,ArrowLeft,False,False,Adults,0
746,123,8211,value training,"[261.39999997615814,363.69999998807907]",False,./assets/img/canyon/memory/10.jpg,canyon,8.0,False,False,Control,1.0,"{""ArrowUp,ArrowLeft"":23,""ArrowUp,ArrowRight"":10,""ArrowDown,ArrowLeft"":8,""ArrowDown,ArrowRight"":30}",3,,22.45,7,norest,ArrowDown,ArrowLeft,True,True,Adults,0
747,125,8211,value training,"[453.80000001192093,286.4000000357628]",False,./assets/img/canyon/memory/4.jpg,canyon,30.0,False,True,Control,1.0,"{""ArrowUp,ArrowLeft"":23,""ArrowUp,ArrowRight"":10,""ArrowDown,ArrowLeft"":8,""ArrowDown,ArrowRight"":30}",4,,22.45,7,norest,ArrowDown,ArrowRight,True,True,Adults,0
748,127,8211,value training,"[877.8000000119209,360.2000000476837]",False,./assets/img/canyon/memory/26.jpg,canyon,23.0,False,False,Control,1.0,"{""ArrowUp,ArrowLeft"":23,""ArrowUp,ArrowRight"":10,""ArrowDown,ArrowLeft"":8,""ArrowDown,ArrowRight"":30}",5,,22.45,7,norest,ArrowUp,ArrowLeft,False,False,Adults,0
750,131,8211,value training,"[717.3999999761581,363.69999998807907]",False,./assets/img/canyon/memory/20.jpg,canyon,30.0,False,True,Control,1.0,"{""ArrowUp,ArrowLeft"":23,""ArrowUp,ArrowRight"":10,""ArrowDown,ArrowLeft"":8,""ArrowDown,ArrowRight"":30}",6,,22.45,7,norest,ArrowDown,ArrowRight,True,True,Adults,5
751,133,8211,value training,"[490.80000001192093,386.39999997615814]",False,./assets/img/canyon/memory/12.jpg,canyon,30.0,False,True,Control,1.0,"{""ArrowUp,ArrowLeft"":23,""ArrowUp,ArrowRight"":10,""ArrowDown,ArrowLeft"":8,""ArrowDown,ArrowRight"":30}",7,,22.45,7,norest,ArrowDown,ArrowRight,True,True,Adults,5
753,137,8211,value training,"[406.7000000476837,309.69999998807907]",False,./assets/img/canyon/memory/0.jpg,canyon,30.0,False,True,Control,1.0,"{""ArrowUp,ArrowLeft"":23,""ArrowUp,ArrowRight"":10,""ArrowDown,ArrowLeft"":8,""ArrowDown,ArrowRight"":30}",8,,22.45,7,norest,ArrowDown,ArrowRight,True,True,Adults,5
754,139,8211,value training,"[677.5,383.7999999523163]",False,./assets/img/canyon/memory/26.jpg,canyon,30.0,False,True,Control,1.0,"{""ArrowUp,ArrowLeft"":23,""ArrowUp,ArrowRight"":10,""ArrowDown,ArrowLeft"":8,""ArrowDown,ArrowRight"":30}",9,,22.45,7,norest,ArrowDown,ArrowRight,True,True,Adults,5
755,141,8211,value training,"[1119,341.30000001192093]",False,./assets/img/canyon/memory/35.jpg,canyon,30.0,False,True,Control,1.0,"{""ArrowUp,ArrowLeft"":23,""ArrowUp,ArrowRight"":10,""ArrowDown,ArrowLeft"":8,""ArrowDown,ArrowRight"":30}",10,,22.45,7,norest,ArrowDown,ArrowRight,True,True,Adults,5
756,143,8211,value training,"[770.9000000357628,319.4000000357628]",False,./assets/img/canyon/memory/32.jpg,canyon,30.0,False,True,Control,1.0,"{""ArrowUp,ArrowLeft"":23,""ArrowUp,ArrowRight"":10,""ArrowDown,ArrowLeft"":8,""ArrowDown,ArrowRight"":30}",11,,22.45,7,norest,ArrowDown,ArrowRight,True,True,Adults,10
757,145,8211,value training,"[713.6999999880791,273.10000002384186]",False,./assets/img/canyon/memory/9.jpg,canyon,30.0,False,True,Control,1.0,"{""ArrowUp,ArrowLeft"":23,""ArrowUp,ArrowRight"":10,""ArrowDown,ArrowLeft"":8,""ArrowDown,ArrowRight"":30}",12,,22.45,7,norest,ArrowDown,ArrowRight,True,True,Adults,10
760,151,8211,value training,"[625.7999999523163,349.10000002384186]",False,./assets/img/canyon/memory/36.jpg,canyon,30.0,False,True,Control,1.0,"{""ArrowUp,ArrowLeft"":23,""ArrowUp,ArrowRight"":10,""ArrowDown,ArrowLeft"":8,""ArrowDown,ArrowRight"":30}",13,,22.45,7,norest,ArrowDown,ArrowRight,True,True,Adults,10
761,153,8211,value training,"[847.7000000476837,292.39999997615814]",False,./assets/img/canyon/memory/17.jpg,canyon,30.0,False,True,Control,1.0,"{""ArrowUp,ArrowLeft"":23,""ArrowUp,ArrowRight"":10,""ArrowDown,ArrowLeft"":8,""ArrowDown,ArrowRight"":30}",14,,22.45,7,norest,ArrowDown,ArrowRight,True,True,Adults,10
763,157,8211,value training,"[620.6999999880791,269.39999997615814]",False,./assets/img/canyon/memory/12.jpg,canyon,30.0,False,True,Control,1.0,"{""ArrowUp,ArrowLeft"":23,""ArrowUp,ArrowRight"":10,""ArrowDown,ArrowLeft"":8,""ArrowDown,ArrowRight"":30}",15,,22.45,7,norest,ArrowDown,ArrowRight,True,True,Adults,10
764,159,8211,value training,"[583.6000000238419,297.10000002384186]",False,./assets/img/canyon/memory/8.jpg,canyon,30.0,False,True,Control,1.0,"{""ArrowUp,ArrowLeft"":23,""ArrowUp,ArrowRight"":10,""ArrowDown,ArrowLeft"":8,""ArrowDown,ArrowRight"":30}",16,,22.45,7,norest,ArrowDown,ArrowRight,True,True,Adults,15
765,161,8211,value training,"[587.5999999642372,577.8000000119209]",False,./assets/img/canyon/memory/2.jpg,canyon,30.0,False,True,Control,1.0,"{""ArrowUp,ArrowLeft"":23,""ArrowUp,ArrowRight"":10,""ArrowDown,ArrowLeft"":8,""ArrowDown,ArrowRight"":30}",17,,22.45,7,norest,ArrowDown,ArrowRight,True,True,Adults,15
766,163,8211,value training,"[438.80000001192093,273.5999999642372]",False,./assets/img/canyon/memory/13.jpg,canyon,30.0,False,True,Control,1.0,"{""ArrowUp,ArrowLeft"":23,""ArrowUp,ArrowRight"":10,""ArrowDown,ArrowLeft"":8,""ArrowDown,ArrowRight"":30}",18,,22.45,7,norest,ArrowDown,ArrowRight,True,True,Adults,15
767,165,8211,value training,"[863.5,279.60000002384186]",False,./assets/img/canyon/memory/0.jpg,canyon,30.0,False,True,Control,1.0,"{""ArrowUp,ArrowLeft"":23,""ArrowUp,ArrowRight"":10,""ArrowDown,ArrowLeft"":8,""ArrowDown,ArrowRight"":30}",19,,22.45,7,norest,ArrowDown,ArrowRight,True,True,Adults,15
768,167,8211,value training,"[811.8000000119209,237.30000001192093]",False,./assets/img/canyon/memory/35.jpg,canyon,30.0,False,True,Control,1.0,"{""ArrowUp,ArrowLeft"":23,""ArrowUp,ArrowRight"":10,""ArrowDown,ArrowLeft"":8,""ArrowDown,ArrowRight"":30}",20,,22.45,7,norest,ArrowDown,ArrowRight,True,True,Adults,15
769,169,8211,value training,"[643.8000000119209,301.30000001192093]",False,./assets/img/canyon/memory/9.jpg,canyon,30.0,False,True,Control,1.0,"{""ArrowUp,ArrowLeft"":23,""ArrowUp,ArrowRight"":10,""ArrowDown,ArrowLeft"":8,""ArrowDown,ArrowRight"":30}",21,,22.45,7,norest,ArrowDown,ArrowRight,True,True,Adults,20
770,171,8211,value training,"[584.2999999523163,234.0999999642372]",False,./assets/img/canyon/memory/16.jpg,canyon,30.0,False,True,Control,1.0,"{""ArrowUp,ArrowLeft"":23,""ArrowUp,ArrowRight"":10,""ArrowDown,ArrowLeft"":8,""ArrowDown,ArrowRight"":30}",22,,22.45,7,norest,ArrowDown,ArrowRight,True,True,Adults,20
772,175,8211,value training,"[354.39999997615814,266.19999998807907]",False,./assets/img/canyon/memory/3.jpg,canyon,30.0,False,True,Control,1.0,"{""ArrowUp,ArrowLeft"":23,""ArrowUp,ArrowRight"":10,""ArrowDown,ArrowLeft"":8,""ArrowDown,ArrowRight"":30}",23,,22.45,7,norest,ArrowDown,ArrowRight,True,True,Adults,20
773,177,8211,value training,"[408.89999997615814,259.5]",False,./assets/img/canyon/memory/38.jpg,canyon,30.0,False,True,Control,1.0,"{""ArrowUp,ArrowLeft"":23,""ArrowUp,ArrowRight"":10,""ArrowDown,ArrowLeft"":8,""ArrowDown,ArrowRight"":30}",24,,22.45,7,norest,ArrowDown,ArrowRight,True,True,Adults,20
774,179,8211,value training,"[480.10000002384186,277.69999998807907]",False,./assets/img/canyon/memory/1.jpg,canyon,30.0,False,True,Control,1.0,"{""ArrowUp,ArrowLeft"":23,""ArrowUp,ArrowRight"":10,""ArrowDown,ArrowLeft"":8,""ArrowDown,ArrowRight"":30}",25,,22.45,7,norest,ArrowDown,ArrowRight,True,True,Adults,20
775,181,8211,value training,"[400.80000001192093,286.10000002384186]",False,./assets/img/canyon/memory/32.jpg,canyon,30.0,False,True,Control,1.0,"{""ArrowUp,ArrowLeft"":23,""ArrowUp,ArrowRight"":10,""ArrowDown,ArrowLeft"":8,""ArrowDown,ArrowRight"":30}",26,,22.45,7,norest,ArrowDown,ArrowRight,True,True,Adults,25
777,185,8211,value training,"[401.39999997615814,279.30000001192093]",False,./assets/img/canyon/memory/31.jpg,canyon,30.0,False,True,Control,1.0,"{""ArrowUp,ArrowLeft"":23,""ArrowUp,ArrowRight"":10,""ArrowDown,ArrowLeft"":8,""ArrowDown,ArrowRight"":30}",27,,22.45,7,norest,ArrowDown,ArrowRight,True,True,Adults,25
778,187,8211,value training,"[457.19999998807907,293.10000002384186]",False,./assets/img/canyon/memory/8.jpg,canyon,30.0,False,True,Control,1.0,"{""ArrowUp,ArrowLeft"":23,""ArrowUp,ArrowRight"":10,""ArrowDown,ArrowLeft"":8,""ArrowDown,ArrowRight"":30}",28,,22.45,7,norest,ArrowDown,ArrowRight,True,True,Adults,25
779,189,8211,value training,"[506.0999999642372,280]",False,./assets/img/canyon/memory/38.jpg,canyon,30.0,False,True,Control,1.0,"{""ArrowUp,ArrowLeft"":23,""ArrowUp,ArrowRight"":10,""ArrowDown,ArrowLeft"":8,""ArrowDown,ArrowRight"":30}",29,,22.45,7,norest,ArrowDown,ArrowRight,True,True,Adults,25
780,191,8211,value training,"[581.8000000119209,267.19999998807907]",False,./assets/img/canyon/memory/3.jpg,canyon,30.0,False,True,Control,1.0,"{""ArrowUp,ArrowLeft"":23,""ArrowUp,ArrowRight"":10,""ArrowDown,ArrowLeft"":8,""ArrowDown,ArrowRight"":30}",30,,22.45,7,norest,ArrowDown,ArrowRight,True,True,Adults,25
781,193,8211,value training,"[632.8000000119209,254]",False,./assets/img/canyon/memory/2.jpg,canyon,30.0,False,True,Control,1.0,"{""ArrowUp,ArrowLeft"":23,""ArrowUp,ArrowRight"":10,""ArrowDown,ArrowLeft"":8,""ArrowDown,ArrowRight"":30}",31,,22.45,7,norest,ArrowDown,ArrowRight,True,True,Adults,30
783,197,8211,value training,"[731.0999999642372,287.9000000357628]",False,./assets/img/canyon/memory/15.jpg,canyon,30.0,False,True,Control,1.0,"{""ArrowUp,ArrowLeft"":23,""ArrowUp,ArrowRight"":10,""ArrowDown,ArrowLeft"":8,""ArrowDown,ArrowRight"":30}",32,,22.45,7,norest,ArrowDown,ArrowRight,True,True,Adults,30
784,199,8211,value training,"[592.5,259.89999997615814]",False,./assets/img/canyon/memory/13.jpg,canyon,30.0,False,True,Control,1.0,"{""ArrowUp,ArrowLeft"":23,""ArrowUp,ArrowRight"":10,""ArrowDown,ArrowLeft"":8,""ArrowDown,ArrowRight"":30}",33,,22.45,7,norest,ArrowDown,ArrowRight,True,True,Adults,30
785,201,8211,value training,"[619.3999999761581,223.10000002384186]",False,./assets/img/canyon/memory/16.jpg,canyon,30.0,False,True,Control,1.0,"{""ArrowUp,ArrowLeft"":23,""ArrowUp,ArrowRight"":10,""ArrowDown,ArrowLeft"":8,""ArrowDown,ArrowRight"":30}",34,,22.45,7,norest,ArrowDown,ArrowRight,True,True,Adults,30
786,203,8211,value training,"[653.1999999880791,238.60000002384186]",False,./assets/img/canyon/memory/20.jpg,canyon,30.0,False,True,Control,1.0,"{""ArrowUp,ArrowLeft"":23,""ArrowUp,ArrowRight"":10,""ArrowDown,ArrowLeft"":8,""ArrowDown,ArrowRight"":30}",35,,22.45,7,norest,ArrowDown,ArrowRight,True,True,Adults,30
787,205,8211,value training,"[460.80000001192093,232.19999998807907]",False,./assets/img/canyon/memory/4.jpg,canyon,30.0,False,True,Control,1.0,"{""ArrowUp,ArrowLeft"":23,""ArrowUp,ArrowRight"":10,""ArrowDown,ArrowLeft"":8,""ArrowDown,ArrowRight"":30}",36,,22.45,7,norest,ArrowDown,ArrowRight,True,True,Adults,35
788,207,8211,value training,"[858.6999999880791,246.30000001192093]",False,./assets/img/canyon/memory/39.jpg,canyon,30.0,False,True,Control,1.0,"{""ArrowUp,ArrowLeft"":23,""ArrowUp,ArrowRight"":10,""ArrowDown,ArrowLeft"":8,""ArrowDown,ArrowRight"":30}",37,,22.45,7,norest,ArrowDown,ArrowRight,True,True,Adults,35
789,209,8211,value training,"[566.8999999761581,225.89999997615814]",False,./assets/img/canyon/memory/39.jpg,canyon,30.0,False,True,Control,1.0,"{""ArrowUp,ArrowLeft"":23,""ArrowUp,ArrowRight"":10,""ArrowDown,ArrowLeft"":8,""ArrowDown,ArrowRight"":30}",38,,22.45,7,norest,ArrowDown,ArrowRight,True,True,Adults,35
790,211,8211,value training,"[391.39999997615814,534.8999999761581]",False,./assets/img/canyon/memory/31.jpg,canyon,30.0,False,True,Control,1.0,"{""ArrowUp,ArrowLeft"":23,""ArrowUp,ArrowRight"":10,""ArrowDown,ArrowLeft"":8,""ArrowDown,ArrowRight"":30}",39,,22.45,7,norest,ArrowDown,ArrowRight,True,True,Adults,35
791,213,8211,value training,"[383.80000001192093,246.0999999642372]",False,./assets/img/canyon/memory/15.jpg,canyon,30.0,False,True,Control,1.0,"{""ArrowUp,ArrowLeft"":23,""ArrowUp,ArrowRight"":10,""ArrowDown,ArrowLeft"":8,""ArrowDown,ArrowRight"":30}",40,,22.45,7,norest,ArrowDown,ArrowRight,True,True,Adults,35
792,215,8211,value training,"[532.8000000119209,255.69999998807907]",False,./assets/img/canyon/memory/17.jpg,canyon,30.0,False,True,Control,1.0,"{""ArrowUp,ArrowLeft"":23,""ArrowUp,ArrowRight"":10,""ArrowDown,ArrowLeft"":8,""ArrowDown,ArrowRight"":30}",41,,22.45,7,norest,ArrowDown,ArrowRight,True,True,Adults,40
793,217,8211,value training,"[545.1000000238419,278.9000000357628]",False,./assets/img/canyon/memory/1.jpg,canyon,30.0,False,True,Control,1.0,"{""ArrowUp,ArrowLeft"":23,""ArrowUp,ArrowRight"":10,""ArrowDown,ArrowLeft"":8,""ArrowDown,ArrowRight"":30}",42,,22.45,7,norest,ArrowDown,ArrowRight,True,True,Adults,40
824,294,8211,value training,"[901.7999999523163,546.8999999761581]",False,./assets/img/ocean/memory/4.jpg,ocean,17.0,False,False,Revaluation,2.0,"{""ArrowUp,ArrowLeft"":26,""ArrowUp,ArrowRight"":10,""ArrowDown,ArrowLeft"":5,""ArrowDown,ArrowRight"":17}",1,,22.45,7,norest,ArrowDown,ArrowRight,False,False,Adults,0
825,296,8211,value training,"[241.39999997615814,306.60000002384186]",False,./assets/img/ocean/memory/9.jpg,ocean,5.0,False,False,Revaluation,2.0,"{""ArrowUp,ArrowLeft"":26,""ArrowUp,ArrowRight"":10,""ArrowDown,ArrowLeft"":5,""ArrowDown,ArrowRight"":17}",2,,22.45,7,norest,ArrowDown,ArrowLeft,False,False,Adults,0
827,300,8211,value training,"[540.6999999880791,401.80000001192093]",False,./assets/img/ocean/memory/13.jpg,ocean,10.0,False,False,Revaluation,2.0,"{""ArrowUp,ArrowLeft"":26,""ArrowUp,ArrowRight"":10,""ArrowDown,ArrowLeft"":5,""ArrowDown,ArrowRight"":17}",3,,22.45,7,norest,ArrowUp,ArrowRight,True,True,Adults,0
830,306,8211,value training,"[558.5,313.0999999642372]",False,./assets/img/ocean/memory/2.jpg,ocean,26.0,False,True,Revaluation,2.0,"{""ArrowUp,ArrowLeft"":26,""ArrowUp,ArrowRight"":10,""ArrowDown,ArrowLeft"":5,""ArrowDown,ArrowRight"":17}",4,,22.45,7,norest,ArrowUp,ArrowLeft,True,True,Adults,0
831,308,8211,value training,"[617.0999999642372,580.8000000119209]",False,./assets/img/ocean/memory/3.jpg,ocean,26.0,False,True,Revaluation,2.0,"{""ArrowUp,ArrowLeft"":26,""ArrowUp,ArrowRight"":10,""ArrowDown,ArrowLeft"":5,""ArrowDown,ArrowRight"":17}",5,,22.45,7,norest,ArrowUp,ArrowLeft,True,True,Adults,0
832,310,8211,value training,"[819.6999999880791,297.69999998807907]",False,./assets/img/ocean/memory/31.jpg,ocean,26.0,False,True,Revaluation,2.0,"{""ArrowUp,ArrowLeft"":26,""ArrowUp,ArrowRight"":10,""ArrowDown,ArrowLeft"":5,""ArrowDown,ArrowRight"":17}",6,,22.45,7,norest,ArrowUp,ArrowLeft,True,True,Adults,5
833,312,8211,value training,"[550.4000000357628,254.5]",False,./assets/img/ocean/memory/39.jpg,ocean,26.0,False,True,Revaluation,2.0,"{""ArrowUp,ArrowLeft"":26,""ArrowUp,ArrowRight"":10,""ArrowDown,ArrowLeft"":5,""ArrowDown,ArrowRight"":17}",7,,22.45,7,norest,ArrowUp,ArrowLeft,True,True,Adults,5
834,314,8211,value training,"[513.8000000119209,226.9000000357628]",False,./assets/img/ocean/memory/1.jpg,ocean,26.0,False,True,Revaluation,2.0,"{""ArrowUp,ArrowLeft"":26,""ArrowUp,ArrowRight"":10,""ArrowDown,ArrowLeft"":5,""ArrowDown,ArrowRight"":17}",8,,22.45,7,norest,ArrowUp,ArrowLeft,True,True,Adults,5
835,316,8211,value training,"[606.7000000476837,359.39999997615814]",False,./assets/img/ocean/memory/36.jpg,ocean,26.0,False,True,Revaluation,2.0,"{""ArrowUp,ArrowLeft"":26,""ArrowUp,ArrowRight"":10,""ArrowDown,ArrowLeft"":5,""ArrowDown,ArrowRight"":17}",9,,22.45,7,norest,ArrowUp,ArrowLeft,True,True,Adults,5
836,318,8211,value training,"[526.3999999761581,267.39999997615814]",False,./assets/img/ocean/memory/36.jpg,ocean,26.0,False,True,Revaluation,2.0,"{""ArrowUp,ArrowLeft"":26,""ArrowUp,ArrowRight"":10,""ArrowDown,ArrowLeft"":5,""ArrowDown,ArrowRight"":17}",10,,22.45,7,norest,ArrowUp,ArrowLeft,True,True,Adults,5
838,322,8211,value training,"[735.7000000476837,310.80000001192093]",False,./assets/img/ocean/memory/20.jpg,ocean,26.0,False,True,Revaluation,2.0,"{""ArrowUp,ArrowLeft"":26,""ArrowUp,ArrowRight"":10,""ArrowDown,ArrowLeft"":5,""ArrowDown,ArrowRight"":17}",11,,22.45,7,norest,ArrowUp,ArrowLeft,True,True,Adults,10
839,324,8211,value training,"[487.5,270.60000002384186]",False,./assets/img/ocean/memory/17.jpg,ocean,26.0,False,True,Revaluation,2.0,"{""ArrowUp,ArrowLeft"":26,""ArrowUp,ArrowRight"":10,""ArrowDown,ArrowLeft"":5,""ArrowDown,ArrowRight"":17}",12,,22.45,7,norest,ArrowUp,ArrowLeft,True,True,Adults,10
840,326,8211,value training,"[471.5,244.80000001192093]",False,./assets/img/ocean/memory/12.jpg,ocean,26.0,False,True,Revaluation,2.0,"{""ArrowUp,ArrowLeft"":26,""ArrowUp,ArrowRight"":10,""ArrowDown,ArrowLeft"":5,""ArrowDown,ArrowRight"":17}",13,,22.45,7,norest,ArrowUp,ArrowLeft,True,True,Adults,10
841,328,8211,value training,"[667.3000000119209,283.5999999642372]",False,./assets/img/ocean/memory/32.jpg,ocean,26.0,False,True,Revaluation,2.0,"{""ArrowUp,ArrowLeft"":26,""ArrowUp,ArrowRight"":10,""ArrowDown,ArrowLeft"":5,""ArrowDown,ArrowRight"":17}",14,,22.45,7,norest,ArrowUp,ArrowLeft,True,True,Adults,10
842,330,8211,value training,"[408.9000000357628,200.5999999642372]",False,./assets/img/ocean/memory/1.jpg,ocean,26.0,False,True,Revaluation,2.0,"{""ArrowUp,ArrowLeft"":26,""ArrowUp,ArrowRight"":10,""ArrowDown,ArrowLeft"":5,""ArrowDown,ArrowRight"":17}",15,,22.45,7,norest,ArrowUp,ArrowLeft,True,True,Adults,10
843,332,8211,value training,"[561.6000000238419,206.80000001192093]",False,./assets/img/ocean/memory/8.jpg,ocean,26.0,False,True,Revaluation,2.0,"{""ArrowUp,ArrowLeft"":26,""ArrowUp,ArrowRight"":10,""ArrowDown,ArrowLeft"":5,""ArrowDown,ArrowRight"":17}",16,,22.45,7,norest,ArrowUp,ArrowLeft,True,True,Adults,15
844,334,8211,value training,"[531.3000000119209,274.5999999642372]",False,./assets/img/ocean/memory/4.jpg,ocean,26.0,False,True,Revaluation,2.0,"{""ArrowUp,ArrowLeft"":26,""ArrowUp,ArrowRight"":10,""ArrowDown,ArrowLeft"":5,""ArrowDown,ArrowRight"":17}",17,,22.45,7,norest,ArrowUp,ArrowLeft,True,True,Adults,15
845,336,8211,value training,"[655,229.19999998807907]",False,./assets/img/ocean/memory/10.jpg,ocean,26.0,False,True,Revaluation,2.0,"{""ArrowUp,ArrowLeft"":26,""ArrowUp,ArrowRight"":10,""ArrowDown,ArrowLeft"":5,""ArrowDown,ArrowRight"":17}",18,,22.45,7,norest,ArrowUp,ArrowLeft,True,True,Adults,15
846,338,8211,value training,"[473.7000000476837,176.60000002384186]",False,./assets/img/ocean/memory/17.jpg,ocean,26.0,False,True,Revaluation,2.0,"{""ArrowUp,ArrowLeft"":26,""ArrowUp,ArrowRight"":10,""ArrowDown,ArrowLeft"":5,""ArrowDown,ArrowRight"":17}",19,,22.45,7,norest,ArrowUp,ArrowLeft,True,True,Adults,15
848,342,8211,value training,"[584.8999999761581,308.69999998807907]",False,./assets/img/ocean/memory/9.jpg,ocean,26.0,False,True,Revaluation,2.0,"{""ArrowUp,ArrowLeft"":26,""ArrowUp,ArrowRight"":10,""ArrowDown,ArrowLeft"":5,""ArrowDown,ArrowRight"":17}",20,,22.45,7,norest,ArrowUp,ArrowLeft,True,True,Adults,15
850,346,8211,value training,"[592.9000000357628,224.0999999642372]",False,./assets/img/ocean/memory/38.jpg,ocean,26.0,False,True,Revaluation,2.0,"{""ArrowUp,ArrowLeft"":26,""ArrowUp,ArrowRight"":10,""ArrowDown,ArrowLeft"":5,""ArrowDown,ArrowRight"":17}",21,,22.45,7,norest,ArrowUp,ArrowLeft,True,True,Adults,20
851,348,8211,value training,"[681,356]",False,./assets/img/ocean/memory/20.jpg,ocean,26.0,False,True,Revaluation,2.0,"{""ArrowUp,ArrowLeft"":26,""ArrowUp,ArrowRight"":10,""ArrowDown,ArrowLeft"":5,""ArrowDown,ArrowRight"":17}",22,,22.45,7,norest,ArrowUp,ArrowLeft,True,True,Adults,20
852,350,8211,value training,"[513.6999999880791,254]",False,./assets/img/ocean/memory/16.jpg,ocean,26.0,False,True,Revaluation,2.0,"{""ArrowUp,ArrowLeft"":26,""ArrowUp,ArrowRight"":10,""ArrowDown,ArrowLeft"":5,""ArrowDown,ArrowRight"":17}",23,,22.45,7,norest,ArrowUp,ArrowLeft,True,True,Adults,20
853,352,8211,value training,"[475.9000000357628,225.89999997615814]",False,./assets/img/ocean/memory/3.jpg,ocean,26.0,False,True,Revaluation,2.0,"{""ArrowUp,ArrowLeft"":26,""ArrowUp,ArrowRight"":10,""ArrowDown,ArrowLeft"":5,""ArrowDown,ArrowRight"":17}",24,,22.45,7,norest,ArrowUp,ArrowLeft,True,True,Adults,20
854,354,8211,value training,"[566.3000000119209,246.5999999642372]",False,./assets/img/ocean/memory/35.jpg,ocean,26.0,False,True,Revaluation,2.0,"{""ArrowUp,ArrowLeft"":26,""ArrowUp,ArrowRight"":10,""ArrowDown,ArrowLeft"":5,""ArrowDown,ArrowRight"":17}",25,,22.45,7,norest,ArrowUp,ArrowLeft,True,True,Adults,20
856,358,8211,value training,"[517.3000000119209,225.30000001192093]",False,./assets/img/ocean/memory/15.jpg,ocean,26.0,False,True,Revaluation,2.0,"{""ArrowUp,ArrowLeft"":26,""ArrowUp,ArrowRight"":10,""ArrowDown,ArrowLeft"":5,""ArrowDown,ArrowRight"":17}",26,,22.45,7,norest,ArrowUp,ArrowLeft,True,True,Adults,25
858,362,8211,value training,"[542.3000000119209,301.30000001192093]",False,./assets/img/ocean/memory/10.jpg,ocean,26.0,False,True,Revaluation,2.0,"{""ArrowUp,ArrowLeft"":26,""ArrowUp,ArrowRight"":10,""ArrowDown,ArrowLeft"":5,""ArrowDown,ArrowRight"":17}",27,,22.45,7,norest,ArrowUp,ArrowLeft,True,True,Adults,25
859,364,8211,value training,"[435.89999997615814,285.2000000476837]",False,./assets/img/ocean/memory/16.jpg,ocean,26.0,False,True,Revaluation,2.0,"{""ArrowUp,ArrowLeft"":26,""ArrowUp,ArrowRight"":10,""ArrowDown,ArrowLeft"":5,""ArrowDown,ArrowRight"":17}",28,,22.45,7,norest,ArrowUp,ArrowLeft,True,True,Adults,25
860,366,8211,value training,"[599,352.19999998807907]",False,./assets/img/ocean/memory/13.jpg,ocean,26.0,False,True,Revaluation,2.0,"{""ArrowUp,ArrowLeft"":26,""ArrowUp,ArrowRight"":10,""ArrowDown,ArrowLeft"":5,""ArrowDown,ArrowRight"":17}",29,,22.45,7,norest,ArrowUp,ArrowLeft,True,True,Adults,25
861,368,8211,value training,"[437.5,243.39999997615814]",False,./assets/img/ocean/memory/15.jpg,ocean,26.0,False,True,Revaluation,2.0,"{""ArrowUp,ArrowLeft"":26,""ArrowUp,ArrowRight"":10,""ArrowDown,ArrowLeft"":5,""ArrowDown,ArrowRight"":17}",30,,22.45,7,norest,ArrowUp,ArrowLeft,True,True,Adults,25
862,370,8211,value training,"[400.0999999642372,256.5]",False,./assets/img/ocean/memory/32.jpg,ocean,26.0,False,True,Revaluation,2.0,"{""ArrowUp,ArrowLeft"":26,""ArrowUp,ArrowRight"":10,""ArrowDown,ArrowLeft"":5,""ArrowDown,ArrowRight"":17}",31,,22.45,7,norest,ArrowUp,ArrowLeft,True,True,Adults,30
863,372,8211,value training,"[410.5999999642372,209.80000001192093]",False,./assets/img/ocean/memory/12.jpg,ocean,26.0,False,True,Revaluation,2.0,"{""ArrowUp,ArrowLeft"":26,""ArrowUp,ArrowRight"":10,""ArrowDown,ArrowLeft"":5,""ArrowDown,ArrowRight"":17}",32,,22.45,7,norest,ArrowUp,ArrowLeft,True,True,Adults,30
864,374,8211,value training,"[401.60000002384186,280.89999997615814]",False,./assets/img/ocean/memory/39.jpg,ocean,26.0,False,True,Revaluation,2.0,"{""ArrowUp,ArrowLeft"":26,""ArrowUp,ArrowRight"":10,""ArrowDown,ArrowLeft"":5,""ArrowDown,ArrowRight"":17}",33,,22.45,7,norest,ArrowUp,ArrowLeft,True,True,Adults,30
865,376,8211,value training,"[491.69999998807907,224.20000004768372]",False,./assets/img/ocean/memory/31.jpg,ocean,26.0,False,True,Revaluation,2.0,"{""ArrowUp,ArrowLeft"":26,""ArrowUp,ArrowRight"":10,""ArrowDown,ArrowLeft"":5,""ArrowDown,ArrowRight"":17}",34,,22.45,7,norest,ArrowUp,ArrowLeft,True,True,Adults,30
866,378,8211,value training,"[424.19999998807907,230.30000001192093]",False,./assets/img/ocean/memory/8.jpg,ocean,26.0,False,True,Revaluation,2.0,"{""ArrowUp,ArrowLeft"":26,""ArrowUp,ArrowRight"":10,""ArrowDown,ArrowLeft"":5,""ArrowDown,ArrowRight"":17}",35,,22.45,7,norest,ArrowUp,ArrowLeft,True,True,Adults,30
867,380,8211,value training,"[441.80000001192093,237]",False,./assets/img/ocean/memory/26.jpg,ocean,26.0,False,True,Revaluation,2.0,"{""ArrowUp,ArrowLeft"":26,""ArrowUp,ArrowRight"":10,""ArrowDown,ArrowLeft"":5,""ArrowDown,ArrowRight"":17}",36,,22.45,7,norest,ArrowUp,ArrowLeft,True,True,Adults,35
868,382,8211,value training,"[412.0999999642372,213.89999997615814]",False,./assets/img/ocean/memory/26.jpg,ocean,26.0,False,True,Revaluation,2.0,"{""ArrowUp,ArrowLeft"":26,""ArrowUp,ArrowRight"":10,""ArrowDown,ArrowLeft"":5,""ArrowDown,ArrowRight"":17}",37,,22.45,7,norest,ArrowUp,ArrowLeft,True,True,Adults,35
