,level_0,index,subject_id,task_part,timeout,stimulus,environment,score,isCatch,correct,block_condition,block_order,rewardMap,trial_num,ground_truth,age,gender,subject_condition,rest,rt0,rt1,response0,response1,is_optimal_first,is_optimal_second,optimal_score,categorical_age,trial_bin,is_optimal
0,0,119,9888,value training,False,./assets/img/ocean/memory/17.jpg,ocean,30.0,False,True,original,1.0,"{""ArrowUp,ArrowLeft"":23,""ArrowUp,ArrowRight"":10,""ArrowDown,ArrowLeft"":8,""ArrowDown,ArrowRight"":30}",1,,7.05,Male,3,norest,1261.199999988079,991.1000000238419,ArrowDown,ArrowRight,True,True,30.0,Children,0,True
1,1,121,9888,value training,False,./assets/img/ocean/memory/19.jpg,ocean,10.0,False,False,original,1.0,"{""ArrowUp,ArrowLeft"":23,""ArrowUp,ArrowRight"":10,""ArrowDown,ArrowLeft"":8,""ArrowDown,ArrowRight"":30}",2,,7.05,Male,3,norest,1142.800000011921,936.8000000119209,ArrowUp,ArrowRight,False,False,30.0,Children,0,False
2,2,123,9888,value training,False,./assets/img/ocean/memory/33.jpg,ocean,23.0,False,False,original,1.0,"{""ArrowUp,ArrowLeft"":23,""ArrowUp,ArrowRight"":10,""ArrowDown,ArrowLeft"":8,""ArrowDown,ArrowRight"":30}",3,,7.05,Male,3,norest,1072.6000000238419,1001.5,ArrowUp,ArrowLeft,False,True,30.0,Children,0,False
3,3,125,9888,value training,False,./assets/img/ocean/memory/16.jpg,ocean,30.0,False,True,original,1.0,"{""ArrowUp,ArrowLeft"":23,""ArrowUp,ArrowRight"":10,""ArrowDown,ArrowLeft"":8,""ArrowDown,ArrowRight"":30}",4,,7.05,Male,3,norest,1232.300000011921,650.6000000238419,ArrowDown,ArrowRight,True,True,30.0,Children,0,True
4,4,127,9888,value training,False,./assets/img/ocean/memory/23.jpg,ocean,30.0,False,True,original,1.0,"{""ArrowUp,ArrowLeft"":23,""ArrowUp,ArrowRight"":10,""ArrowDown,ArrowLeft"":8,""ArrowDown,ArrowRight"":30}",5,,7.05,Male,3,norest,1104.5999999642372,532.5,ArrowDown,ArrowRight,True,True,30.0,Children,0,True
5,5,129,9888,value training,False,./assets/img/ocean/memory/41.jpg,ocean,30.0,False,True,original,1.0,"{""ArrowUp,ArrowLeft"":23,""ArrowUp,ArrowRight"":10,""ArrowDown,ArrowLeft"":8,""ArrowDown,ArrowRight"":30}",6,,7.05,Male,3,norest,914.3999999761581,1045.0,ArrowDown,ArrowRight,True,True,30.0,Children,5,True
9,9,137,9888,value training,False,./assets/img/ocean/memory/1.jpg,ocean,30.0,False,True,original,1.0,"{""ArrowUp,ArrowLeft"":23,""ArrowUp,ArrowRight"":10,""ArrowDown,ArrowLeft"":8,""ArrowDown,ArrowRight"":30}",8,,7.05,Male,3,norest,841.9000000357628,747.0999999642372,ArrowDown,ArrowRight,True,True,30.0,Children,5,True
10,10,139,9888,value training,False,./assets/img/ocean/memory/18.jpg,ocean,30.0,False,True,original,1.0,"{""ArrowUp,ArrowLeft"":23,""ArrowUp,ArrowRight"":10,""ArrowDown,ArrowLeft"":8,""ArrowDown,ArrowRight"":30}",9,,7.05,Male,3,norest,672.1999999880791,522.8999999761581,ArrowDown,ArrowRight,True,True,30.0,Children,5,True
11,11,141,9888,value training,False,./assets/img/ocean/memory/30.jpg,ocean,30.0,False,True,original,1.0,"{""ArrowUp,ArrowLeft"":23,""ArrowUp,ArrowRight"":10,""ArrowDown,ArrowLeft"":8,""ArrowDown,ArrowRight"":30}",10,,7.05,Male,3,norest,1866.0,1073.6000000238419,ArrowDown,ArrowRight,True,True,30.0,Children,5,True
13,13,145,9888,value training,False,./assets/img/ocean/memory/30.jpg,ocean,30.0,False,True,original,1.0,"{""ArrowUp,ArrowLeft"":23,""ArrowUp,ArrowRight"":10,""ArrowDown,ArrowLeft"":8,""ArrowDown,ArrowRight"":30}",11,,7.05,Male,3,norest,1579.5,639.2000000476837,ArrowDown,ArrowRight,True,True,30.0,Children,10,True
14,14,147,9888,value training,False,./assets/img/ocean/memory/17.jpg,ocean,30.0,False,True,original,1.0,"{""ArrowUp,ArrowLeft"":23,""ArrowUp,ArrowRight"":10,""ArrowDown,ArrowLeft"":8,""ArrowDown,ArrowRight"":30}",12,,7.05,Male,3,norest,885.0,687.1999999880791,ArrowDown,ArrowRight,True,True,30.0,Children,10,True
15,15,149,9888,value training,False,./assets/img/ocean/memory/23.jpg,ocean,30.0,False,True,original,1.0,"{""ArrowUp,ArrowLeft"":23,""ArrowUp,ArrowRight"":10,""ArrowDown,ArrowLeft"":8,""ArrowDown,ArrowRight"":30}",13,,7.05,Male,3,norest,1271.300000011921,818.2000000476837,ArrowDown,ArrowRight,True,True,30.0,Children,10,True
16,16,151,9888,value training,False,./assets/img/ocean/memory/33.jpg,ocean,30.0,False,True,original,1.0,"{""ArrowUp,ArrowLeft"":23,""ArrowUp,ArrowRight"":10,""ArrowDown,ArrowLeft"":8,""ArrowDown,ArrowRight"":30}",14,,7.05,Male,3,norest,1273.7999999523163,659.6000000238419,ArrowDown,ArrowRight,True,True,30.0,Children,10,True
17,17,153,9888,value training,False,./assets/img/ocean/memory/0.jpg,ocean,30.0,False,True,original,1.0,"{""ArrowUp,ArrowLeft"":23,""ArrowUp,ArrowRight"":10,""ArrowDown,ArrowLeft"":8,""ArrowDown,ArrowRight"":30}",15,,7.05,Male,3,norest,1244.5999999642372,677.1000000238419,ArrowDown,ArrowRight,True,True,30.0,Children,10,True
18,18,155,9888,value training,False,./assets/img/ocean/memory/39.jpg,ocean,30.0,False,True,original,1.0,"{""ArrowUp,ArrowLeft"":23,""ArrowUp,ArrowRight"":10,""ArrowDown,ArrowLeft"":8,""ArrowDown,ArrowRight"":30}",16,,7.05,Male,3,norest,1037.3999999761581,536.0999999642372,ArrowDown,ArrowRight,True,True,30.0,Children,15,True
19,19,157,9888,value training,False,./assets/img/ocean/memory/21.jpg,ocean,30.0,False,True,original,1.0,"{""ArrowUp,ArrowLeft"":23,""ArrowUp,ArrowRight"":10,""ArrowDown,ArrowLeft"":8,""ArrowDown,ArrowRight"":30}",17,,7.05,Male,3,norest,1075.800000011921,581.5,ArrowDown,ArrowRight,True,True,30.0,Children,15,True
21,21,161,9888,value training,False,./assets/img/ocean/memory/36.jpg,ocean,30.0,False,True,original,1.0,"{""ArrowUp,ArrowLeft"":23,""ArrowUp,ArrowRight"":10,""ArrowDown,ArrowLeft"":8,""ArrowDown,ArrowRight"":30}",19,,7.05,Male,3,norest,701.0,488.19999998807907,ArrowDown,ArrowRight,True,True,30.0,Children,15,True
22,22,163,9888,value training,False,./assets/img/ocean/memory/10.jpg,ocean,30.0,False,True,original,1.0,"{""ArrowUp,ArrowLeft"":23,""ArrowUp,ArrowRight"":10,""ArrowDown,ArrowLeft"":8,""ArrowDown,ArrowRight"":30}",20,,7.05,Male,3,norest,1542.699999988079,1201.199999988079,ArrowDown,ArrowRight,True,True,30.0,Children,15,True
23,23,165,9888,value training,False,./assets/img/ocean/memory/1.jpg,ocean,30.0,False,True,original,1.0,"{""ArrowUp,ArrowLeft"":23,""ArrowUp,ArrowRight"":10,""ArrowDown,ArrowLeft"":8,""ArrowDown,ArrowRight"":30}",21,,7.05,Male,3,norest,1344.0999999642372,672.3999999761581,ArrowDown,ArrowRight,True,True,30.0,Children,20,True
24,24,167,9888,value training,False,./assets/img/ocean/memory/16.jpg,ocean,30.0,False,True,original,1.0,"{""ArrowUp,ArrowLeft"":23,""ArrowUp,ArrowRight"":10,""ArrowDown,ArrowLeft"":8,""ArrowDown,ArrowRight"":30}",22,,7.05,Male,3,norest,669.9000000357628,577.3000000119209,ArrowDown,ArrowRight,True,True,30.0,Children,20,True
25,25,169,9888,value training,False,./assets/img/ocean/memory/14.jpg,ocean,30.0,False,True,original,1.0,"{""ArrowUp,ArrowLeft"":23,""ArrowUp,ArrowRight"":10,""ArrowDown,ArrowLeft"":8,""ArrowDown,ArrowRight"":30}",23,,7.05,Male,3,norest,567.3000000119209,585.0999999642372,ArrowDown,ArrowRight,True,True,30.0,Children,20,True
26,26,171,9888,value training,False,./assets/img/ocean/memory/14.jpg,ocean,30.0,False,True,original,1.0,"{""ArrowUp,ArrowLeft"":23,""ArrowUp,ArrowRight"":10,""ArrowDown,ArrowLeft"":8,""ArrowDown,ArrowRight"":30}",24,,7.05,Male,3,norest,739.1000000238419,781.0,ArrowDown,ArrowRight,True,True,30.0,Children,20,True
27,27,173,9888,value training,False,./assets/img/ocean/memory/10.jpg,ocean,30.0,False,True,original,1.0,"{""ArrowUp,ArrowLeft"":23,""ArrowUp,ArrowRight"":10,""ArrowDown,ArrowLeft"":8,""ArrowDown,ArrowRight"":30}",25,,7.05,Male,3,norest,577.0999999642372,771.0,ArrowDown,ArrowRight,True,True,30.0,Children,20,True
28,28,175,9888,value training,False,./assets/img/ocean/memory/8.jpg,ocean,30.0,False,True,original,1.0,"{""ArrowUp,ArrowLeft"":23,""ArrowUp,ArrowRight"":10,""ArrowDown,ArrowLeft"":8,""ArrowDown,ArrowRight"":30}",26,,7.05,Male,3,norest,1269.199999988079,943.6000000238419,ArrowDown,ArrowRight,True,True,30.0,Children,25,True
30,30,179,9888,value training,False,./assets/img/ocean/memory/39.jpg,ocean,30.0,False,True,original,1.0,"{""ArrowUp,ArrowLeft"":23,""ArrowUp,ArrowRight"":10,""ArrowDown,ArrowLeft"":8,""ArrowDown,ArrowRight"":30}",27,,7.05,Male,3,norest,1221.8999999761581,687.1999999880791,ArrowDown,ArrowRight,True,True,30.0,Children,25,True
31,31,181,9888,value training,False,./assets/img/ocean/memory/35.jpg,ocean,30.0,False,True,original,1.0,"{""ArrowUp,ArrowLeft"":23,""ArrowUp,ArrowRight"":10,""ArrowDown,ArrowLeft"":8,""ArrowDown,ArrowRight"":30}",28,,7.05,Male,3,norest,928.6999999880791,538.0999999642372,ArrowDown,ArrowRight,True,True,30.0,Children,25,True
33,33,185,9888,value training,False,./assets/img/ocean/memory/35.jpg,ocean,30.0,False,True,original,1.0,"{""ArrowUp,ArrowLeft"":23,""ArrowUp,ArrowRight"":10,""ArrowDown,ArrowLeft"":8,""ArrowDown,ArrowRight"":30}",29,,7.05,Male,3,norest,1201.800000011921,601.3999999761581,ArrowDown,ArrowRight,True,True,30.0,Children,25,True
35,35,189,9888,value training,False,./assets/img/ocean/memory/25.jpg,ocean,30.0,False,True,original,1.0,"{""ArrowUp,ArrowLeft"":23,""ArrowUp,ArrowRight"":10,""ArrowDown,ArrowLeft"":8,""ArrowDown,ArrowRight"":30}",30,,7.05,Male,3,norest,1317.199999988079,446.9000000357628,ArrowDown,ArrowRight,True,True,30.0,Children,25,True
36,36,191,9888,value training,False,./assets/img/ocean/memory/27.jpg,ocean,30.0,False,True,original,1.0,"{""ArrowUp,ArrowLeft"":23,""ArrowUp,ArrowRight"":10,""ArrowDown,ArrowLeft"":8,""ArrowDown,ArrowRight"":30}",31,,7.05,Male,3,norest,1051.199999988079,749.8000000119209,ArrowDown,ArrowRight,True,True,30.0,Children,30,True
37,37,193,9888,value training,False,./assets/img/ocean/memory/26.jpg,ocean,30.0,False,True,original,1.0,"{""ArrowUp,ArrowLeft"":23,""ArrowUp,ArrowRight"":10,""ArrowDown,ArrowLeft"":8,""ArrowDown,ArrowRight"":30}",32,,7.05,Male,3,norest,1652.9000000357628,870.0,ArrowDown,ArrowRight,True,True,30.0,Children,30,True
38,38,195,9888,value training,False,./assets/img/ocean/memory/27.jpg,ocean,30.0,False,True,original,1.0,"{""ArrowUp,ArrowLeft"":23,""ArrowUp,ArrowRight"":10,""ArrowDown,ArrowLeft"":8,""ArrowDown,ArrowRight"":30}",33,,7.05,Male,3,norest,665.8000000119209,475.30000001192093,ArrowDown,ArrowRight,True,True,30.0,Children,30,True
40,40,199,9888,value training,False,./assets/img/ocean/memory/18.jpg,ocean,30.0,False,True,original,1.0,"{""ArrowUp,ArrowLeft"":23,""ArrowUp,ArrowRight"":10,""ArrowDown,ArrowLeft"":8,""ArrowDown,ArrowRight"":30}",34,,7.05,Male,3,norest,1449.4000000357628,529.5,ArrowDown,ArrowRight,True,True,30.0,Children,30,True
42,42,203,9888,value training,False,./assets/img/ocean/memory/41.jpg,ocean,30.0,False,True,original,1.0,"{""ArrowUp,ArrowLeft"":23,""ArrowUp,ArrowRight"":10,""ArrowDown,ArrowLeft"":8,""ArrowDown,ArrowRight"":30}",36,,7.05,Male,3,norest,820.6999999880791,534.3999999761581,ArrowDown,ArrowRight,True,True,30.0,Children,35,True
43,43,205,9888,value training,False,./assets/img/ocean/memory/19.jpg,ocean,30.0,False,True,original,1.0,"{""ArrowUp,ArrowLeft"":23,""ArrowUp,ArrowRight"":10,""ArrowDown,ArrowLeft"":8,""ArrowDown,ArrowRight"":30}",37,,7.05,Male,3,norest,1252.699999988079,237.10000002384186,ArrowDown,ArrowRight,True,True,30.0,Children,35,True
44,44,207,9888,value training,False,./assets/img/ocean/memory/21.jpg,ocean,30.0,False,True,original,1.0,"{""ArrowUp,ArrowLeft"":23,""ArrowUp,ArrowRight"":10,""ArrowDown,ArrowLeft"":8,""ArrowDown,ArrowRight"":30}",38,,7.05,Male,3,norest,1473.5999999642372,915.0,ArrowDown,ArrowRight,True,True,30.0,Children,35,True
45,45,209,9888,value training,False,./assets/img/ocean/memory/25.jpg,ocean,30.0,False,True,original,1.0,"{""ArrowUp,ArrowLeft"":23,""ArrowUp,ArrowRight"":10,""ArrowDown,ArrowLeft"":8,""ArrowDown,ArrowRight"":30}",39,,7.05,Male,3,norest,1043.3999999761581,692.6000000238419,ArrowDown,ArrowRight,True,True,30.0,Children,35,True
46,46,211,9888,value training,False,./assets/img/ocean/memory/9.jpg,ocean,30.0,False,True,original,1.0,"{""ArrowUp,ArrowLeft"":23,""ArrowUp,ArrowRight"":10,""ArrowDown,ArrowLeft"":8,""ArrowDown,ArrowRight"":30}",40,,7.05,Male,3,norest,1145.8999999761581,516.1999999880791,ArrowDown,ArrowRight,True,True,30.0,Children,35,True
47,47,213,9888,value training,False,./assets/img/ocean/memory/36.jpg,ocean,30.0,False,True,original,1.0,"{""ArrowUp,ArrowLeft"":23,""ArrowUp,ArrowRight"":10,""ArrowDown,ArrowLeft"":8,""ArrowDown,ArrowRight"":30}",41,,7.05,Male,3,norest,622.0,622.6999999880791,ArrowDown,ArrowRight,True,True,30.0,Children,40,True
48,48,215,9888,value training,False,./assets/img/ocean/memory/26.jpg,ocean,30.0,False,True,original,1.0,"{""ArrowUp,ArrowLeft"":23,""ArrowUp,ArrowRight"":10,""ArrowDown,ArrowLeft"":8,""ArrowDown,ArrowRight"":30}",42,,7.05,Male,3,norest,931.9000000357628,653.3999999761581,ArrowDown,ArrowRight,True,True,30.0,Children,40,True
80,80,294,9888,value training,False,./assets/img/canyon/memory/10.jpg,canyon,17.0,False,False,revaluation,2.0,"{""ArrowUp,ArrowLeft"":26,""ArrowUp,ArrowRight"":10,""ArrowDown,ArrowLeft"":5,""ArrowDown,ArrowRight"":17}",1,,7.05,Male,3,norest,1400.0,1076.3999999761581,ArrowDown,ArrowRight,False,True,26.0,Children,0,False
81,81,296,9888,value training,False,./assets/img/canyon/memory/21.jpg,canyon,5.0,False,False,revaluation,2.0,"{""ArrowUp,ArrowLeft"":26,""ArrowUp,ArrowRight"":10,""ArrowDown,ArrowLeft"":5,""ArrowDown,ArrowRight"":17}",2,,7.05,Male,3,norest,754.0,739.5999999642372,ArrowDown,ArrowLeft,False,False,26.0,Children,0,False
82,82,298,9888,value training,False,./assets/img/canyon/memory/1.jpg,canyon,10.0,False,False,revaluation,2.0,"{""ArrowUp,ArrowLeft"":26,""ArrowUp,ArrowRight"":10,""ArrowDown,ArrowLeft"":5,""ArrowDown,ArrowRight"":17}",3,,7.05,Male,3,norest,1662.3999999761581,1511.9000000357628,ArrowUp,ArrowRight,True,False,26.0,Children,0,False
83,83,300,9888,value training,False,./assets/img/canyon/memory/23.jpg,canyon,26.0,False,True,revaluation,2.0,"{""ArrowUp,ArrowLeft"":26,""ArrowUp,ArrowRight"":10,""ArrowDown,ArrowLeft"":5,""ArrowDown,ArrowRight"":17}",4,,7.05,Male,3,norest,1014.5,1192.9000000357628,ArrowUp,ArrowLeft,True,True,26.0,Children,0,True
84,84,302,9888,value training,False,./assets/img/canyon/memory/39.jpg,canyon,26.0,False,True,revaluation,2.0,"{""ArrowUp,ArrowLeft"":26,""ArrowUp,ArrowRight"":10,""ArrowDown,ArrowLeft"":5,""ArrowDown,ArrowRight"":17}",5,,7.05,Male,3,norest,920.9000000357628,841.4000000357628,ArrowUp,ArrowLeft,True,True,26.0,Children,0,True
85,85,304,9888,value training,False,./assets/img/canyon/memory/23.jpg,canyon,26.0,False,True,revaluation,2.0,"{""ArrowUp,ArrowLeft"":26,""ArrowUp,ArrowRight"":10,""ArrowDown,ArrowLeft"":5,""ArrowDown,ArrowRight"":17}",6,,7.05,Male,3,norest,702.5999999642372,689.0,ArrowUp,ArrowLeft,True,True,26.0,Children,5,True
86,86,306,9888,value training,False,./assets/img/canyon/memory/26.jpg,canyon,26.0,False,True,revaluation,2.0,"{""ArrowUp,ArrowLeft"":26,""ArrowUp,ArrowRight"":10,""ArrowDown,ArrowLeft"":5,""ArrowDown,ArrowRight"":17}",7,,7.05,Male,3,norest,998.3999999761581,752.1999999880791,ArrowUp,ArrowLeft,True,True,26.0,Children,5,True
87,87,308,9888,value training,False,./assets/img/canyon/memory/18.jpg,canyon,26.0,False,True,revaluation,2.0,"{""ArrowUp,ArrowLeft"":26,""ArrowUp,ArrowRight"":10,""ArrowDown,ArrowLeft"":5,""ArrowDown,ArrowRight"":17}",8,,7.05,Male,3,norest,708.1999999880791,961.3999999761581,ArrowUp,ArrowLeft,True,True,26.0,Children,5,True
88,88,310,9888,value training,False,./assets/img/canyon/memory/33.jpg,canyon,26.0,False,True,revaluation,2.0,"{""ArrowUp,ArrowLeft"":26,""ArrowUp,ArrowRight"":10,""ArrowDown,ArrowLeft"":5,""ArrowDown,ArrowRight"":17}",9,,7.05,Male,3,norest,559.3999999761581,1279.3999999761581,ArrowUp,ArrowLeft,True,True,26.0,Children,5,True
89,89,312,9888,value training,False,./assets/img/canyon/memory/33.jpg,canyon,26.0,False,True,revaluation,2.0,"{""ArrowUp,ArrowLeft"":26,""ArrowUp,ArrowRight"":10,""ArrowDown,ArrowLeft"":5,""ArrowDown,ArrowRight"":17}",10,,7.05,Male,3,norest,974.7000000476837,873.0,ArrowUp,ArrowLeft,True,True,26.0,Children,5,True
90,90,314,9888,value training,False,./assets/img/canyon/memory/14.jpg,canyon,26.0,False,True,revaluation,2.0,"{""ArrowUp,ArrowLeft"":26,""ArrowUp,ArrowRight"":10,""ArrowDown,ArrowLeft"":5,""ArrowDown,ArrowRight"":17}",11,,7.05,Male,3,norest,551.6000000238419,626.8000000119209,ArrowUp,ArrowLeft,True,True,26.0,Children,10,True
91,91,316,9888,value training,False,./assets/img/canyon/memory/36.jpg,canyon,26.0,False,True,revaluation,2.0,"{""ArrowUp,ArrowLeft"":26,""ArrowUp,ArrowRight"":10,""ArrowDown,ArrowLeft"":5,""ArrowDown,ArrowRight"":17}",12,,7.05,Male,3,norest,1049.1000000238419,582.0,ArrowUp,ArrowLeft,True,True,26.0,Children,10,True
92,92,318,9888,value training,False,./assets/img/canyon/memory/27.jpg,canyon,26.0,False,True,revaluation,2.0,"{""ArrowUp,ArrowLeft"":26,""ArrowUp,ArrowRight"":10,""ArrowDown,ArrowLeft"":5,""ArrowDown,ArrowRight"":17}",13,,7.05,Male,3,norest,1928.300000011921,1579.3999999761581,ArrowUp,ArrowLeft,True,True,26.0,Children,10,True
93,93,320,9888,value training,False,./assets/img/canyon/memory/36.jpg,canyon,26.0,False,True,revaluation,2.0,"{""ArrowUp,ArrowLeft"":26,""ArrowUp,ArrowRight"":10,""ArrowDown,ArrowLeft"":5,""ArrowDown,ArrowRight"":17}",14,,7.05,Male,3,norest,639.3999999761581,650.4000000357628,ArrowUp,ArrowLeft,True,True,26.0,Children,10,True
94,94,322,9888,value training,False,./assets/img/canyon/memory/0.jpg,canyon,26.0,False,True,revaluation,2.0,"{""ArrowUp,ArrowLeft"":26,""ArrowUp,ArrowRight"":10,""ArrowDown,ArrowLeft"":5,""ArrowDown,ArrowRight"":17}",15,,7.05,Male,3,norest,1383.6000000238419,833.6000000238419,ArrowUp,ArrowLeft,True,True,26.0,Children,10,True
95,95,324,9888,value training,False,./assets/img/canyon/memory/41.jpg,canyon,26.0,False,True,revaluation,2.0,"{""ArrowUp,ArrowLeft"":26,""ArrowUp,ArrowRight"":10,""ArrowDown,ArrowLeft"":5,""ArrowDown,ArrowRight"":17}",16,,7.05,Male,3,norest,1440.199999988079,795.1000000238419,ArrowUp,ArrowLeft,True,True,26.0,Children,15,True
97,97,328,9888,value training,False,./assets/img/canyon/memory/30.jpg,canyon,26.0,False,True,revaluation,2.0,"{""ArrowUp,ArrowLeft"":26,""ArrowUp,ArrowRight"":10,""ArrowDown,ArrowLeft"":5,""ArrowDown,ArrowRight"":17}",17,,7.05,Male,3,norest,1463.9000000357628,858.3000000119209,ArrowUp,ArrowLeft,True,True,26.0,Children,15,True
98,98,330,9888,value training,False,./assets/img/canyon/memory/30.jpg,canyon,26.0,False,True,revaluation,2.0,"{""ArrowUp,ArrowLeft"":26,""ArrowUp,ArrowRight"":10,""ArrowDown,ArrowLeft"":5,""ArrowDown,ArrowRight"":17}",18,,7.05,Male,3,norest,1543.800000011921,1162.800000011921,ArrowUp,ArrowLeft,True,True,26.0,Children,15,True
99,99,332,9888,value training,False,./assets/img/canyon/memory/26.jpg,canyon,26.0,False,True,revaluation,2.0,"{""ArrowUp,ArrowLeft"":26,""ArrowUp,ArrowRight"":10,""ArrowDown,ArrowLeft"":5,""ArrowDown,ArrowRight"":17}",19,,7.05,Male,3,norest,1161.0,779.1999999880791,ArrowUp,ArrowLeft,True,True,26.0,Children,15,True
101,101,336,9888,value training,False,./assets/img/canyon/memory/8.jpg,canyon,26.0,False,True,revaluation,2.0,"{""ArrowUp,ArrowLeft"":26,""ArrowUp,ArrowRight"":10,""ArrowDown,ArrowLeft"":5,""ArrowDown,ArrowRight"":17}",20,,7.05,Male,3,norest,1386.8999999761581,966.6999999880791,ArrowUp,ArrowLeft,True,True,26.0,Children,15,True
102,102,338,9888,value training,False,./assets/img/canyon/memory/35.jpg,canyon,26.0,False,True,revaluation,2.0,"{""ArrowUp,ArrowLeft"":26,""ArrowUp,ArrowRight"":10,""ArrowDown,ArrowLeft"":5,""ArrowDown,ArrowRight"":17}",21,,7.05,Male,3,norest,1377.8999999761581,1172.0,ArrowUp,ArrowLeft,True,True,26.0,Children,20,True
103,103,340,9888,value training,False,./assets/img/canyon/memory/0.jpg,canyon,26.0,False,True,revaluation,2.0,"{""ArrowUp,ArrowLeft"":26,""ArrowUp,ArrowRight"":10,""ArrowDown,ArrowLeft"":5,""ArrowDown,ArrowRight"":17}",22,,7.05,Male,3,norest,1208.8999999761581,1404.300000011921,ArrowUp,ArrowLeft,True,True,26.0,Children,20,True
104,104,342,9888,value training,False,./assets/img/canyon/memory/16.jpg,canyon,26.0,False,True,revaluation,2.0,"{""ArrowUp,ArrowLeft"":26,""ArrowUp,ArrowRight"":10,""ArrowDown,ArrowLeft"":5,""ArrowDown,ArrowRight"":17}",23,,7.05,Male,3,norest,1689.3999999761581,1275.1000000238419,ArrowUp,ArrowLeft,True,True,26.0,Children,20,True
105,105,344,9888,value training,False,./assets/img/canyon/memory/1.jpg,canyon,26.0,False,True,revaluation,2.0,"{""ArrowUp,ArrowLeft"":26,""ArrowUp,ArrowRight"":10,""ArrowDown,ArrowLeft"":5,""ArrowDown,ArrowRight"":17}",24,,7.05,Male,3,norest,1110.8999999761581,921.8000000119209,ArrowUp,ArrowLeft,True,True,26.0,Children,20,True
106,106,346,9888,value training,False,./assets/img/canyon/memory/27.jpg,canyon,26.0,False,True,revaluation,2.0,"{""ArrowUp,ArrowLeft"":26,""ArrowUp,ArrowRight"":10,""ArrowDown,ArrowLeft"":5,""ArrowDown,ArrowRight"":17}",25,,7.05,Male,3,norest,1700.5,1071.0,ArrowUp,ArrowLeft,True,True,26.0,Children,20,True
107,107,348,9888,value training,False,./assets/img/canyon/memory/19.jpg,canyon,26.0,False,True,revaluation,2.0,"{""ArrowUp,ArrowLeft"":26,""ArrowUp,ArrowRight"":10,""ArrowDown,ArrowLeft"":5,""ArrowDown,ArrowRight"":17}",26,,7.05,Male,3,norest,1328.199999988079,890.2999999523163,ArrowUp,ArrowLeft,True,True,26.0,Children,25,True
108,108,350,9888,value training,False,./assets/img/canyon/memory/18.jpg,canyon,26.0,False,True,revaluation,2.0,"{""ArrowUp,ArrowLeft"":26,""ArrowUp,ArrowRight"":10,""ArrowDown,ArrowLeft"":5,""ArrowDown,ArrowRight"":17}",27,,7.05,Male,3,norest,1092.9000000357628,559.0999999642372,ArrowUp,ArrowLeft,True,True,26.0,Children,25,True
109,109,352,9888,value training,False,./assets/img/canyon/memory/17.jpg,canyon,26.0,False,True,revaluation,2.0,"{""ArrowUp,ArrowLeft"":26,""ArrowUp,ArrowRight"":10,""ArrowDown,ArrowLeft"":5,""ArrowDown,ArrowRight"":17}",28,,7.05,Male,3,norest,1196.5,805.1000000238419,ArrowUp,ArrowLeft,True,True,26.0,Children,25,True
112,112,358,9888,value training,False,./assets/img/canyon/memory/16.jpg,canyon,26.0,False,True,revaluation,2.0,"{""ArrowUp,ArrowLeft"":26,""ArrowUp,ArrowRight"":10,""ArrowDown,ArrowLeft"":5,""ArrowDown,ArrowRight"":17}",29,,7.05,Male,3,norest,1143.5,648.8000000119209,ArrowUp,ArrowLeft,True,True,26.0,Children,25,True
113,113,360,9888,value training,False,./assets/img/canyon/memory/21.jpg,canyon,26.0,False,True,revaluation,2.0,"{""ArrowUp,ArrowLeft"":26,""ArrowUp,ArrowRight"":10,""ArrowDown,ArrowLeft"":5,""ArrowDown,ArrowRight"":17}",30,,7.05,Male,3,norest,1022.4000000357628,993.4000000357628,ArrowUp,ArrowLeft,True,True,26.0,Children,25,True
114,114,362,9888,value training,False,./assets/img/canyon/memory/10.jpg,canyon,26.0,False,True,revaluation,2.0,"{""ArrowUp,ArrowLeft"":26,""ArrowUp,ArrowRight"":10,""ArrowDown,ArrowLeft"":5,""ArrowDown,ArrowRight"":17}",31,,7.05,Male,3,norest,1009.3000000119209,699.5,ArrowUp,ArrowLeft,True,True,26.0,Children,30,True
115,115,364,9888,value training,False,./assets/img/canyon/memory/8.jpg,canyon,26.0,False,True,revaluation,2.0,"{""ArrowUp,ArrowLeft"":26,""ArrowUp,ArrowRight"":10,""ArrowDown,ArrowLeft"":5,""ArrowDown,ArrowRight"":17}",32,,7.05,Male,3,norest,819.1000000238419,639.8000000119209,ArrowUp,ArrowLeft,True,True,26.0,Children,30,True
116,116,366,9888,value training,False,./assets/img/canyon/memory/35.jpg,canyon,26.0,False,True,revaluation,2.0,"{""ArrowUp,ArrowLeft"":26,""ArrowUp,ArrowRight"":10,""ArrowDown,ArrowLeft"":5,""ArrowDown,ArrowRight"":17}",33,,7.05,Male,3,norest,1482.199999988079,1267.5,ArrowUp,ArrowLeft,True,True,26.0,Children,30,True
119,119,372,9888,value training,False,./assets/img/canyon/memory/25.jpg,canyon,26.0,False,True,revaluation,2.0,"{""ArrowUp,ArrowLeft"":26,""ArrowUp,ArrowRight"":10,""ArrowDown,ArrowLeft"":5,""ArrowDown,ArrowRight"":17}",34,,7.05,Male,3,norest,1385.2999999523163,1313.5,ArrowUp,ArrowLeft,True,True,26.0,Children,30,True
122,122,378,9888,value training,False,./assets/img/canyon/memory/14.jpg,canyon,26.0,False,True,revaluation,2.0,"{""ArrowUp,ArrowLeft"":26,""ArrowUp,ArrowRight"":10,""ArrowDown,ArrowLeft"":5,""ArrowDown,ArrowRight"":17}",36,,7.05,Male,3,norest,1040.0999999642372,609.8000000119209,ArrowUp,ArrowLeft,True,True,26.0,Children,35,True
124,124,382,9888,value training,False,./assets/img/canyon/memory/17.jpg,canyon,26.0,False,True,revaluation,2.0,"{""ArrowUp,ArrowLeft"":26,""ArrowUp,ArrowRight"":10,""ArrowDown,ArrowLeft"":5,""ArrowDown,ArrowRight"":17}",38,,7.05,Male,3,norest,794.5,428.80000001192093,ArrowUp,ArrowLeft,True,True,26.0,Children,35,True
125,125,384,9888,value training,False,./assets/img/canyon/memory/9.jpg,canyon,26.0,False,True,revaluation,2.0,"{""ArrowUp,ArrowLeft"":26,""ArrowUp,ArrowRight"":10,""ArrowDown,ArrowLeft"":5,""ArrowDown,ArrowRight"":17}",39,,7.05,Male,3,norest,624.8999999761581,541.0,ArrowUp,ArrowLeft,True,True,26.0,Children,35,True
126,126,386,9888,value training,False,./assets/img/canyon/memory/9.jpg,canyon,26.0,False,True,revaluation,2.0,"{""ArrowUp,ArrowLeft"":26,""ArrowUp,ArrowRight"":10,""ArrowDown,ArrowLeft"":5,""ArrowDown,ArrowRight"":17}",40,,7.05,Male,3,norest,489.30000001192093,626.8999999761581,ArrowUp,ArrowLeft,True,True,26.0,Children,35,True
127,127,388,9888,value training,False,./assets/img/canyon/memory/39.jpg,canyon,26.0,False,True,revaluation,2.0,"{""ArrowUp,ArrowLeft"":26,""ArrowUp,ArrowRight"":10,""ArrowDown,ArrowLeft"":5,""ArrowDown,ArrowRight"":17}",41,,7.05,Male,3,norest,714.2999999523163,1034.3999999761581,ArrowUp,ArrowLeft,True,True,26.0,Children,40,True
129,129,392,9888,value training,False,./assets/img/canyon/memory/41.jpg,canyon,26.0,False,True,revaluation,2.0,"{""ArrowUp,ArrowLeft"":26,""ArrowUp,ArrowRight"":10,""ArrowDown,ArrowLeft"":5,""ArrowDown,ArrowRight"":17}",42,,7.05,Male,3,norest,1338.8999999761581,603.3000000119209,ArrowUp,ArrowLeft,True,True,26.0,Children,40,True
248,0,123,8200,value training,False,./assets/img/ocean/memory/35.jpg,ocean,10.0,False,False,revaluation,1.0,"{""ArrowUp,ArrowLeft"":23,""ArrowUp,ArrowRight"":10,""ArrowDown,ArrowLeft"":8,""ArrowDown,ArrowRight"":30}",1,,19.77,Male,2,norest,923.4000000059605,419.69999998807907,ArrowUp,ArrowRight,False,False,30.0,Adults,0,False
249,1,125,8200,value training,False,./assets/img/ocean/memory/38.jpg,ocean,30.0,False,True,revaluation,1.0,"{""ArrowUp,ArrowLeft"":23,""ArrowUp,ArrowRight"":10,""ArrowDown,ArrowLeft"":8,""ArrowDown,ArrowRight"":30}",2,,19.77,Male,2,norest,1809.4000000059605,521.3000000119209,ArrowDown,ArrowRight,True,True,30.0,Adults,0,True
251,3,129,8200,value training,False,./assets/img/ocean/memory/29.jpg,ocean,23.0,False,False,revaluation,1.0,"{""ArrowUp,ArrowLeft"":23,""ArrowUp,ArrowRight"":10,""ArrowDown,ArrowLeft"":8,""ArrowDown,ArrowRight"":30}",3,,19.77,Male,2,norest,841.1999999880791,649.0999999940395,ArrowUp,ArrowLeft,False,True,30.0,Adults,0,False
252,4,131,8200,value training,False,./assets/img/ocean/memory/0.jpg,ocean,10.0,False,False,revaluation,1.0,"{""ArrowUp,ArrowLeft"":23,""ArrowUp,ArrowRight"":10,""ArrowDown,ArrowLeft"":8,""ArrowDown,ArrowRight"":30}",4,,19.77,Male,2,norest,1149.300000011921,557.0,ArrowUp,ArrowRight,False,False,30.0,Adults,0,False
253,5,133,8200,value training,False,./assets/img/ocean/memory/1.jpg,ocean,10.0,False,False,revaluation,1.0,"{""ArrowUp,ArrowLeft"":23,""ArrowUp,ArrowRight"":10,""ArrowDown,ArrowLeft"":8,""ArrowDown,ArrowRight"":30}",5,,19.77,Male,2,norest,604.5999999940395,1.300000011920929,ArrowUp,ArrowRight,False,False,30.0,Adults,0,False
255,7,137,8200,value training,False,./assets/img/ocean/memory/22.jpg,ocean,30.0,False,True,revaluation,1.0,"{""ArrowUp,ArrowLeft"":23,""ArrowUp,ArrowRight"":10,""ArrowDown,ArrowLeft"":8,""ArrowDown,ArrowRight"":30}",6,,19.77,Male,2,norest,772.5999999940395,345.80000001192093,ArrowDown,ArrowRight,True,True,30.0,Adults,5,True
256,8,139,8200,value training,False,./assets/img/ocean/memory/38.jpg,ocean,30.0,False,True,revaluation,1.0,"{""ArrowUp,ArrowLeft"":23,""ArrowUp,ArrowRight"":10,""ArrowDown,ArrowLeft"":8,""ArrowDown,ArrowRight"":30}",7,,19.77,Male,2,norest,486.69999998807907,284.5,ArrowDown,ArrowRight,True,True,30.0,Adults,5,True
257,9,141,8200,value training,False,./assets/img/ocean/memory/34.jpg,ocean,30.0,False,True,revaluation,1.0,"{""ArrowUp,ArrowLeft"":23,""ArrowUp,ArrowRight"":10,""ArrowDown,ArrowLeft"":8,""ArrowDown,ArrowRight"":30}",8,,19.77,Male,2,norest,889.7999999821186,347.40000000596046,ArrowDown,ArrowRight,True,True,30.0,Adults,5,True
258,10,143,8200,value training,False,./assets/img/ocean/memory/40.jpg,ocean,30.0,False,True,revaluation,1.0,"{""ArrowUp,ArrowLeft"":23,""ArrowUp,ArrowRight"":10,""ArrowDown,ArrowLeft"":8,""ArrowDown,ArrowRight"":30}",9,,19.77,Male,2,norest,853.1000000238419,249.40000000596046,ArrowDown,ArrowRight,True,True,30.0,Adults,5,True
259,11,145,8200,value training,False,./assets/img/ocean/memory/22.jpg,ocean,30.0,False,True,revaluation,1.0,"{""ArrowUp,ArrowLeft"":23,""ArrowUp,ArrowRight"":10,""ArrowDown,ArrowLeft"":8,""ArrowDown,ArrowRight"":30}",10,,19.77,Male,2,norest,406.5,699.0999999940395,ArrowDown,ArrowRight,True,True,30.0,Adults,5,True
260,12,147,8200,value training,False,./assets/img/ocean/memory/13.jpg,ocean,30.0,False,True,revaluation,1.0,"{""ArrowUp,ArrowLeft"":23,""ArrowUp,ArrowRight"":10,""ArrowDown,ArrowLeft"":8,""ArrowDown,ArrowRight"":30}",11,,19.77,Male,2,norest,935.7999999821186,418.7999999821186,ArrowDown,ArrowRight,True,True,30.0,Adults,10,True
263,15,153,8200,value training,False,./assets/img/ocean/memory/23.jpg,ocean,30.0,False,True,revaluation,1.0,"{""ArrowUp,ArrowLeft"":23,""ArrowUp,ArrowRight"":10,""ArrowDown,ArrowLeft"":8,""ArrowDown,ArrowRight"":30}",13,,19.77,Male,2,norest,505.60000002384186,243.39999997615814,ArrowDown,ArrowRight,True,True,30.0,Adults,10,True
264,16,155,8200,value training,False,./assets/img/ocean/memory/12.jpg,ocean,30.0,False,True,revaluation,1.0,"{""ArrowUp,ArrowLeft"":23,""ArrowUp,ArrowRight"":10,""ArrowDown,ArrowLeft"":8,""ArrowDown,ArrowRight"":30}",14,,19.77,Male,2,norest,409.10000002384186,178.2000000178814,ArrowDown,ArrowRight,True,True,30.0,Adults,10,True
265,17,157,8200,value training,False,./assets/img/ocean/memory/1.jpg,ocean,30.0,False,True,revaluation,1.0,"{""ArrowUp,ArrowLeft"":23,""ArrowUp,ArrowRight"":10,""ArrowDown,ArrowLeft"":8,""ArrowDown,ArrowRight"":30}",15,,19.77,Male,2,norest,254.0,287.59999999403954,ArrowDown,ArrowRight,True,True,30.0,Adults,10,True
267,19,161,8200,value training,False,./assets/img/ocean/memory/23.jpg,ocean,30.0,False,True,revaluation,1.0,"{""ArrowUp,ArrowLeft"":23,""ArrowUp,ArrowRight"":10,""ArrowDown,ArrowLeft"":8,""ArrowDown,ArrowRight"":30}",16,,19.77,Male,2,norest,1279.2999999821186,734.9000000059605,ArrowDown,ArrowRight,True,True,30.0,Adults,15,True
270,22,167,8200,value training,False,./assets/img/ocean/memory/3.jpg,ocean,30.0,False,True,revaluation,1.0,"{""ArrowUp,ArrowLeft"":23,""ArrowUp,ArrowRight"":10,""ArrowDown,ArrowLeft"":8,""ArrowDown,ArrowRight"":30}",17,,19.77,Male,2,norest,1008.3000000119209,331.5,ArrowDown,ArrowRight,True,True,30.0,Adults,15,True
271,23,169,8200,value training,False,./assets/img/ocean/memory/19.jpg,ocean,30.0,False,True,revaluation,1.0,"{""ArrowUp,ArrowLeft"":23,""ArrowUp,ArrowRight"":10,""ArrowDown,ArrowLeft"":8,""ArrowDown,ArrowRight"":30}",18,,19.77,Male,2,norest,1195.1000000238419,709.0,ArrowDown,ArrowRight,True,True,30.0,Adults,15,True
272,24,171,8200,value training,False,./assets/img/ocean/memory/34.jpg,ocean,30.0,False,True,revaluation,1.0,"{""ArrowUp,ArrowLeft"":23,""ArrowUp,ArrowRight"":10,""ArrowDown,ArrowLeft"":8,""ArrowDown,ArrowRight"":30}",19,,19.77,Male,2,norest,670.0999999940395,224.5,ArrowDown,ArrowRight,True,True,30.0,Adults,15,True
273,25,173,8200,value training,False,./assets/img/ocean/memory/27.jpg,ocean,30.0,False,True,revaluation,1.0,"{""ArrowUp,ArrowLeft"":23,""ArrowUp,ArrowRight"":10,""ArrowDown,ArrowLeft"":8,""ArrowDown,ArrowRight"":30}",20,,19.77,Male,2,norest,673.2999999821186,452.59999999403954,ArrowDown,ArrowRight,True,True,30.0,Adults,15,True
274,26,175,8200,value training,False,./assets/img/ocean/memory/29.jpg,ocean,8.0,False,False,revaluation,1.0,"{""ArrowUp,ArrowLeft"":23,""ArrowUp,ArrowRight"":10,""ArrowDown,ArrowLeft"":8,""ArrowDown,ArrowRight"":30}",21,,19.77,Male,2,norest,525.0999999940395,335.2000000178814,ArrowDown,ArrowLeft,True,False,30.0,Adults,20,False
275,27,177,8200,value training,False,./assets/img/ocean/memory/10.jpg,ocean,30.0,False,True,revaluation,1.0,"{""ArrowUp,ArrowLeft"":23,""ArrowUp,ArrowRight"":10,""ArrowDown,ArrowLeft"":8,""ArrowDown,ArrowRight"":30}",22,,19.77,Male,2,norest,783.9000000059605,544.0,ArrowDown,ArrowRight,True,True,30.0,Adults,20,True
276,28,179,8200,value training,False,./assets/img/ocean/memory/41.jpg,ocean,30.0,False,True,revaluation,1.0,"{""ArrowUp,ArrowLeft"":23,""ArrowUp,ArrowRight"":10,""ArrowDown,ArrowLeft"":8,""ArrowDown,ArrowRight"":30}",23,,19.77,Male,2,norest,445.10000002384186,208.90000000596046,ArrowDown,ArrowRight,True,True,30.0,Adults,20,True
277,29,181,8200,value training,False,./assets/img/ocean/memory/40.jpg,ocean,30.0,False,True,revaluation,1.0,"{""ArrowUp,ArrowLeft"":23,""ArrowUp,ArrowRight"":10,""ArrowDown,ArrowLeft"":8,""ArrowDown,ArrowRight"":30}",24,,19.77,Male,2,norest,507.90000000596046,1214.0,ArrowDown,ArrowRight,True,True,30.0,Adults,20,True
278,30,183,8200,value training,False,./assets/img/ocean/memory/30.jpg,ocean,30.0,False,True,revaluation,1.0,"{""ArrowUp,ArrowLeft"":23,""ArrowUp,ArrowRight"":10,""ArrowDown,ArrowLeft"":8,""ArrowDown,ArrowRight"":30}",25,,19.77,Male,2,norest,63.0,234.0,ArrowDown,ArrowRight,True,True,30.0,Adults,20,True
279,31,185,8200,value training,False,./assets/img/ocean/memory/4.jpg,ocean,30.0,False,True,revaluation,1.0,"{""ArrowUp,ArrowLeft"":23,""ArrowUp,ArrowRight"":10,""ArrowDown,ArrowLeft"":8,""ArrowDown,ArrowRight"":30}",26,,19.77,Male,2,norest,773.4000000059605,406.40000000596046,ArrowDown,ArrowRight,True,True,30.0,Adults,25,True
280,32,187,8200,value training,False,./assets/img/ocean/memory/41.jpg,ocean,30.0,False,True,revaluation,1.0,"{""ArrowUp,ArrowLeft"":23,""ArrowUp,ArrowRight"":10,""ArrowDown,ArrowLeft"":8,""ArrowDown,ArrowRight"":30}",27,,19.77,Male,2,norest,518.5,344.60000002384186,ArrowDown,ArrowRight,True,True,30.0,Adults,25,True
281,33,189,8200,value training,False,./assets/img/ocean/memory/27.jpg,ocean,30.0,False,True,revaluation,1.0,"{""ArrowUp,ArrowLeft"":23,""ArrowUp,ArrowRight"":10,""ArrowDown,ArrowLeft"":8,""ArrowDown,ArrowRight"":30}",28,,19.77,Male,2,norest,522.2999999821186,539.2999999821186,ArrowDown,ArrowRight,True,True,30.0,Adults,25,True
282,34,191,8200,value training,False,./assets/img/ocean/memory/8.jpg,ocean,30.0,False,True,revaluation,1.0,"{""ArrowUp,ArrowLeft"":23,""ArrowUp,ArrowRight"":10,""ArrowDown,ArrowLeft"":8,""ArrowDown,ArrowRight"":30}",29,,19.77,Male,2,norest,549.5999999940395,533.5,ArrowDown,ArrowRight,True,True,30.0,Adults,25,True
283,35,193,8200,value training,False,./assets/img/ocean/memory/11.jpg,ocean,30.0,False,True,revaluation,1.0,"{""ArrowUp,ArrowLeft"":23,""ArrowUp,ArrowRight"":10,""ArrowDown,ArrowLeft"":8,""ArrowDown,ArrowRight"":30}",30,,19.77,Male,2,norest,542.8000000119209,348.19999998807907,ArrowDown,ArrowRight,True,True,30.0,Adults,25,True
284,36,195,8200,value training,False,./assets/img/ocean/memory/7.jpg,ocean,30.0,False,True,revaluation,1.0,"{""ArrowUp,ArrowLeft"":23,""ArrowUp,ArrowRight"":10,""ArrowDown,ArrowLeft"":8,""ArrowDown,ArrowRight"":30}",31,,19.77,Male,2,norest,952.7999999821186,472.69999998807907,ArrowDown,ArrowRight,True,True,30.0,Adults,30,True
285,37,197,8200,value training,False,./assets/img/ocean/memory/3.jpg,ocean,30.0,False,True,revaluation,1.0,"{""ArrowUp,ArrowLeft"":23,""ArrowUp,ArrowRight"":10,""ArrowDown,ArrowLeft"":8,""ArrowDown,ArrowRight"":30}",32,,19.77,Male,2,norest,436.69999998807907,842.8000000119209,ArrowDown,ArrowRight,True,True,30.0,Adults,30,True
286,38,199,8200,value training,False,./assets/img/ocean/memory/4.jpg,ocean,30.0,False,True,revaluation,1.0,"{""ArrowUp,ArrowLeft"":23,""ArrowUp,ArrowRight"":10,""ArrowDown,ArrowLeft"":8,""ArrowDown,ArrowRight"":30}",33,,19.77,Male,2,norest,594.2000000178814,349.59999999403954,ArrowDown,ArrowRight,True,True,30.0,Adults,30,True
287,39,201,8200,value training,False,./assets/img/ocean/memory/30.jpg,ocean,30.0,False,True,revaluation,1.0,"{""ArrowUp,ArrowLeft"":23,""ArrowUp,ArrowRight"":10,""ArrowDown,ArrowLeft"":8,""ArrowDown,ArrowRight"":30}",34,,19.77,Male,2,norest,1235.9000000059605,258.30000001192093,ArrowDown,ArrowRight,True,True,30.0,Adults,30,True
288,40,203,8200,value training,False,./assets/img/ocean/memory/8.jpg,ocean,30.0,False,True,revaluation,1.0,"{""ArrowUp,ArrowLeft"":23,""ArrowUp,ArrowRight"":10,""ArrowDown,ArrowLeft"":8,""ArrowDown,ArrowRight"":30}",35,,19.77,Male,2,norest,704.7000000178814,254.69999998807907,ArrowDown,ArrowRight,True,True,30.0,Adults,30,True
289,41,205,8200,value training,False,./assets/img/ocean/memory/13.jpg,ocean,30.0,False,True,revaluation,1.0,"{""ArrowUp,ArrowLeft"":23,""ArrowUp,ArrowRight"":10,""ArrowDown,ArrowLeft"":8,""ArrowDown,ArrowRight"":30}",36,,19.77,Male,2,norest,855.1000000238419,463.0,ArrowDown,ArrowRight,True,True,30.0,Adults,35,True
290,42,207,8200,value training,False,./assets/img/ocean/memory/19.jpg,ocean,30.0,False,True,revaluation,1.0,"{""ArrowUp,ArrowLeft"":23,""ArrowUp,ArrowRight"":10,""ArrowDown,ArrowLeft"":8,""ArrowDown,ArrowRight"":30}",37,,19.77,Male,2,norest,612.2999999821186,305.2999999821186,ArrowDown,ArrowRight,True,True,30.0,Adults,35,True
291,43,209,8200,value training,False,./assets/img/ocean/memory/12.jpg,ocean,30.0,False,True,revaluation,1.0,"{""ArrowUp,ArrowLeft"":23,""ArrowUp,ArrowRight"":10,""ArrowDown,ArrowLeft"":8,""ArrowDown,ArrowRight"":30}",38,,19.77,Male,2,norest,563.5,285.59999999403954,ArrowDown,ArrowRight,True,True,30.0,Adults,35,True
292,44,211,8200,value training,False,./assets/img/ocean/memory/10.jpg,ocean,30.0,False,True,revaluation,1.0,"{""ArrowUp,ArrowLeft"":23,""ArrowUp,ArrowRight"":10,""ArrowDown,ArrowLeft"":8,""ArrowDown,ArrowRight"":30}",39,,19.77,Male,2,norest,443.40000000596046,22.5,ArrowDown,ArrowRight,True,True,30.0,Adults,35,True
293,45,213,8200,value training,False,./assets/img/ocean/memory/11.jpg,ocean,30.0,False,True,revaluation,1.0,"{""ArrowUp,ArrowLeft"":23,""ArrowUp,ArrowRight"":10,""ArrowDown,ArrowLeft"":8,""ArrowDown,ArrowRight"":30}",40,,19.77,Male,2,norest,599.5999999940395,384.60000002384186,ArrowDown,ArrowRight,True,True,30.0,Adults,35,True
295,47,217,8200,value training,False,./assets/img/ocean/memory/7.jpg,ocean,30.0,False,True,revaluation,1.0,"{""ArrowUp,ArrowLeft"":23,""ArrowUp,ArrowRight"":10,""ArrowDown,ArrowLeft"":8,""ArrowDown,ArrowRight"":30}",41,,19.77,Male,2,norest,1483.4000000059605,503.90000000596046,ArrowDown,ArrowRight,True,True,30.0,Adults,40,True
297,49,221,8200,value training,False,./assets/img/ocean/memory/35.jpg,ocean,30.0,False,True,revaluation,1.0,"{""ArrowUp,ArrowLeft"":23,""ArrowUp,ArrowRight"":10,""ArrowDown,ArrowLeft"":8,""ArrowDown,ArrowRight"":30}",42,,19.77,Male,2,norest,507.2999999821186,720.5999999940395,ArrowDown,ArrowRight,True,True,30.0,Adults,40,True
328,80,298,8200,value training,False,./assets/img/canyon/memory/1.jpg,canyon,10.0,False,False,original,2.0,"{""ArrowUp,ArrowLeft"":26,""ArrowUp,ArrowRight"":10,""ArrowDown,ArrowLeft"":5,""ArrowDown,ArrowRight"":17}",1,,19.77,Male,2,norest,523.1999999880791,392.89999997615814,ArrowUp,ArrowRight,True,False,26.0,Adults,0,False
329,81,300,8200,value training,False,./assets/img/canyon/memory/7.jpg,canyon,5.0,False,False,original,2.0,"{""ArrowUp,ArrowLeft"":26,""ArrowUp,ArrowRight"":10,""ArrowDown,ArrowLeft"":5,""ArrowDown,ArrowRight"":17}",2,,19.77,Male,2,norest,952.0,364.0,ArrowDown,ArrowLeft,False,False,26.0,Adults,0,False
330,82,302,8200,value training,False,./assets/img/canyon/memory/0.jpg,canyon,26.0,False,True,original,2.0,"{""ArrowUp,ArrowLeft"":26,""ArrowUp,ArrowRight"":10,""ArrowDown,ArrowLeft"":5,""ArrowDown,ArrowRight"":17}",3,,19.77,Male,2,norest,506.0,311.0,ArrowUp,ArrowLeft,True,True,26.0,Adults,0,True
331,83,304,8200,value training,False,./assets/img/canyon/memory/19.jpg,canyon,17.0,False,False,original,2.0,"{""ArrowUp,ArrowLeft"":26,""ArrowUp,ArrowRight"":10,""ArrowDown,ArrowLeft"":5,""ArrowDown,ArrowRight"":17}",4,,19.77,Male,2,norest,422.19999998807907,288.0,ArrowDown,ArrowRight,False,True,26.0,Adults,0,False
333,85,308,8200,value training,False,./assets/img/canyon/memory/29.jpg,canyon,26.0,False,True,original,2.0,"{""ArrowUp,ArrowLeft"":26,""ArrowUp,ArrowRight"":10,""ArrowDown,ArrowLeft"":5,""ArrowDown,ArrowRight"":17}",5,,19.77,Male,2,norest,906.6999999880791,339.39999997615814,ArrowUp,ArrowLeft,True,True,26.0,Adults,0,True
334,86,310,8200,value training,False,./assets/img/canyon/memory/22.jpg,canyon,26.0,False,True,original,2.0,"{""ArrowUp,ArrowLeft"":26,""ArrowUp,ArrowRight"":10,""ArrowDown,ArrowLeft"":5,""ArrowDown,ArrowRight"":17}",6,,19.77,Male,2,norest,631.9000000059605,291.30000001192093,ArrowUp,ArrowLeft,True,True,26.0,Adults,5,True
335,87,312,8200,value training,False,./assets/img/canyon/memory/13.jpg,canyon,26.0,False,True,original,2.0,"{""ArrowUp,ArrowLeft"":26,""ArrowUp,ArrowRight"":10,""ArrowDown,ArrowLeft"":5,""ArrowDown,ArrowRight"":17}",7,,19.77,Male,2,norest,429.0,426.90000000596046,ArrowUp,ArrowLeft,True,True,26.0,Adults,5,True
336,88,314,8200,value training,False,./assets/img/canyon/memory/22.jpg,canyon,26.0,False,True,original,2.0,"{""ArrowUp,ArrowLeft"":26,""ArrowUp,ArrowRight"":10,""ArrowDown,ArrowLeft"":5,""ArrowDown,ArrowRight"":17}",8,,19.77,Male,2,norest,282.2999999821186,257.19999998807907,ArrowUp,ArrowLeft,True,True,26.0,Adults,5,True
338,90,318,8200,value training,False,./assets/img/canyon/memory/41.jpg,canyon,26.0,False,True,original,2.0,"{""ArrowUp,ArrowLeft"":26,""ArrowUp,ArrowRight"":10,""ArrowDown,ArrowLeft"":5,""ArrowDown,ArrowRight"":17}",9,,19.77,Male,2,norest,936.1999999880791,1597.4000000059605,ArrowUp,ArrowLeft,True,True,26.0,Adults,5,True
339,91,320,8200,value training,False,./assets/img/canyon/memory/34.jpg,canyon,26.0,False,True,original,2.0,"{""ArrowUp,ArrowLeft"":26,""ArrowUp,ArrowRight"":10,""ArrowDown,ArrowLeft"":5,""ArrowDown,ArrowRight"":17}",10,,19.77,Male,2,norest,376.69999998807907,297.59999999403954,ArrowUp,ArrowLeft,True,True,26.0,Adults,5,True
340,92,322,8200,value training,False,./assets/img/canyon/memory/12.jpg,canyon,26.0,False,True,original,2.0,"{""ArrowUp,ArrowLeft"":26,""ArrowUp,ArrowRight"":10,""ArrowDown,ArrowLeft"":5,""ArrowDown,ArrowRight"":17}",11,,19.77,Male,2,norest,590.8000000119209,310.09999999403954,ArrowUp,ArrowLeft,True,True,26.0,Adults,10,True
341,93,324,8200,value training,False,./assets/img/canyon/memory/3.jpg,canyon,26.0,False,True,original,2.0,"{""ArrowUp,ArrowLeft"":26,""ArrowUp,ArrowRight"":10,""ArrowDown,ArrowLeft"":5,""ArrowDown,ArrowRight"":17}",12,,19.77,Male,2,norest,470.0,442.69999998807907,ArrowUp,ArrowLeft,True,True,26.0,Adults,10,True
344,96,330,8200,value training,False,./assets/img/canyon/memory/19.jpg,canyon,26.0,False,True,original,2.0,"{""ArrowUp,ArrowLeft"":26,""ArrowUp,ArrowRight"":10,""ArrowDown,ArrowLeft"":5,""ArrowDown,ArrowRight"":17}",14,,19.77,Male,2,norest,445.60000002384186,275.69999998807907,ArrowUp,ArrowLeft,True,True,26.0,Adults,10,True
345,97,332,8200,value training,False,./assets/img/canyon/memory/30.jpg,canyon,26.0,False,True,original,2.0,"{""ArrowUp,ArrowLeft"":26,""ArrowUp,ArrowRight"":10,""ArrowDown,ArrowLeft"":5,""ArrowDown,ArrowRight"":17}",15,,19.77,Male,2,norest,1100.2000000178814,1569.5,ArrowUp,ArrowLeft,True,True,26.0,Adults,10,True
346,98,334,8200,value training,False,./assets/img/canyon/memory/8.jpg,canyon,26.0,False,True,original,2.0,"{""ArrowUp,ArrowLeft"":26,""ArrowUp,ArrowRight"":10,""ArrowDown,ArrowLeft"":5,""ArrowDown,ArrowRight"":17}",16,,19.77,Male,2,norest,384.09999999403954,485.40000000596046,ArrowUp,ArrowLeft,True,True,26.0,Adults,15,True
349,101,340,8200,value training,False,./assets/img/canyon/memory/10.jpg,canyon,26.0,False,True,original,2.0,"{""ArrowUp,ArrowLeft"":26,""ArrowUp,ArrowRight"":10,""ArrowDown,ArrowLeft"":5,""ArrowDown,ArrowRight"":17}",18,,19.77,Male,2,norest,1951.199999988079,463.80000001192093,ArrowUp,ArrowLeft,True,True,26.0,Adults,15,True
350,102,342,8200,value training,False,./assets/img/canyon/memory/1.jpg,canyon,26.0,False,True,original,2.0,"{""ArrowUp,ArrowLeft"":26,""ArrowUp,ArrowRight"":10,""ArrowDown,ArrowLeft"":5,""ArrowDown,ArrowRight"":17}",19,,19.77,Male,2,norest,207.2000000178814,109.09999999403954,ArrowUp,ArrowLeft,True,True,26.0,Adults,15,True
351,103,344,8200,value training,False,./assets/img/canyon/memory/38.jpg,canyon,26.0,False,True,original,2.0,"{""ArrowUp,ArrowLeft"":26,""ArrowUp,ArrowRight"":10,""ArrowDown,ArrowLeft"":5,""ArrowDown,ArrowRight"":17}",20,,19.77,Male,2,norest,408.30000001192093,533.0999999940395,ArrowUp,ArrowLeft,True,True,26.0,Adults,15,True
353,105,348,8200,value training,False,./assets/img/canyon/memory/12.jpg,canyon,26.0,False,True,original,2.0,"{""ArrowUp,ArrowLeft"":26,""ArrowUp,ArrowRight"":10,""ArrowDown,ArrowLeft"":5,""ArrowDown,ArrowRight"":17}",22,,19.77,Male,2,norest,695.0,328.5,ArrowUp,ArrowLeft,True,True,26.0,Adults,20,True
354,106,350,8200,value training,False,./assets/img/canyon/memory/35.jpg,canyon,26.0,False,True,original,2.0,"{""ArrowUp,ArrowLeft"":26,""ArrowUp,ArrowRight"":10,""ArrowDown,ArrowLeft"":5,""ArrowDown,ArrowRight"":17}",23,,19.77,Male,2,norest,383.59999999403954,354.59999999403954,ArrowUp,ArrowLeft,True,True,26.0,Adults,20,True
355,107,352,8200,value training,False,./assets/img/canyon/memory/8.jpg,canyon,26.0,False,True,original,2.0,"{""ArrowUp,ArrowLeft"":26,""ArrowUp,ArrowRight"":10,""ArrowDown,ArrowLeft"":5,""ArrowDown,ArrowRight"":17}",24,,19.77,Male,2,norest,534.4000000059605,539.6000000238419,ArrowUp,ArrowLeft,True,True,26.0,Adults,20,True
356,108,354,8200,value training,False,./assets/img/canyon/memory/35.jpg,canyon,26.0,False,True,original,2.0,"{""ArrowUp,ArrowLeft"":26,""ArrowUp,ArrowRight"":10,""ArrowDown,ArrowLeft"":5,""ArrowDown,ArrowRight"":17}",25,,19.77,Male,2,norest,293.7000000178814,409.7000000178814,ArrowUp,ArrowLeft,True,True,26.0,Adults,20,True
358,110,358,8200,value training,False,./assets/img/canyon/memory/30.jpg,canyon,26.0,False,True,original,2.0,"{""ArrowUp,ArrowLeft"":26,""ArrowUp,ArrowRight"":10,""ArrowDown,ArrowLeft"":5,""ArrowDown,ArrowRight"":17}",26,,19.77,Male,2,norest,427.7999999821186,829.6999999880791,ArrowUp,ArrowLeft,True,True,26.0,Adults,25,True
359,111,360,8200,value training,False,./assets/img/canyon/memory/4.jpg,canyon,26.0,False,True,original,2.0,"{""ArrowUp,ArrowLeft"":26,""ArrowUp,ArrowRight"":10,""ArrowDown,ArrowLeft"":5,""ArrowDown,ArrowRight"":17}",27,,19.77,Male,2,norest,579.9000000059605,483.5,ArrowUp,ArrowLeft,True,True,26.0,Adults,25,True
360,112,362,8200,value training,False,./assets/img/canyon/memory/11.jpg,canyon,26.0,False,True,original,2.0,"{""ArrowUp,ArrowLeft"":26,""ArrowUp,ArrowRight"":10,""ArrowDown,ArrowLeft"":5,""ArrowDown,ArrowRight"":17}",28,,19.77,Male,2,norest,846.2000000178814,557.4000000059605,ArrowUp,ArrowLeft,True,True,26.0,Adults,25,True
361,113,364,8200,value training,False,./assets/img/canyon/memory/7.jpg,canyon,26.0,False,True,original,2.0,"{""ArrowUp,ArrowLeft"":26,""ArrowUp,ArrowRight"":10,""ArrowDown,ArrowLeft"":5,""ArrowDown,ArrowRight"":17}",29,,19.77,Male,2,norest,503.90000000596046,1121.0,ArrowUp,ArrowLeft,True,True,26.0,Adults,25,True
362,114,366,8200,value training,False,./assets/img/canyon/memory/0.jpg,canyon,26.0,False,True,original,2.0,"{""ArrowUp,ArrowLeft"":26,""ArrowUp,ArrowRight"":10,""ArrowDown,ArrowLeft"":5,""ArrowDown,ArrowRight"":17}",30,,19.77,Male,2,norest,477.40000000596046,290.7000000178814,ArrowUp,ArrowLeft,True,True,26.0,Adults,25,True
363,115,368,8200,value training,False,./assets/img/canyon/memory/40.jpg,canyon,26.0,False,True,original,2.0,"{""ArrowUp,ArrowLeft"":26,""ArrowUp,ArrowRight"":10,""ArrowDown,ArrowLeft"":5,""ArrowDown,ArrowRight"":17}",31,,19.77,Male,2,norest,759.1000000238419,393.40000000596046,ArrowUp,ArrowLeft,True,True,26.0,Adults,30,True
364,116,370,8200,value training,False,./assets/img/canyon/memory/38.jpg,canyon,26.0,False,True,original,2.0,"{""ArrowUp,ArrowLeft"":26,""ArrowUp,ArrowRight"":10,""ArrowDown,ArrowLeft"":5,""ArrowDown,ArrowRight"":17}",32,,19.77,Male,2,norest,498.39999997615814,626.2999999821186,ArrowUp,ArrowLeft,True,True,26.0,Adults,30,True
365,117,372,8200,value training,False,./assets/img/canyon/memory/41.jpg,canyon,26.0,False,True,original,2.0,"{""ArrowUp,ArrowLeft"":26,""ArrowUp,ArrowRight"":10,""ArrowDown,ArrowLeft"":5,""ArrowDown,ArrowRight"":17}",33,,19.77,Male,2,norest,433.80000001192093,469.90000000596046,ArrowUp,ArrowLeft,True,True,26.0,Adults,30,True
367,119,376,8200,value training,False,./assets/img/canyon/memory/3.jpg,canyon,26.0,False,True,original,2.0,"{""ArrowUp,ArrowLeft"":26,""ArrowUp,ArrowRight"":10,""ArrowDown,ArrowLeft"":5,""ArrowDown,ArrowRight"":17}",34,,19.77,Male,2,norest,849.9000000059605,717.1999999880791,ArrowUp,ArrowLeft,True,True,26.0,Adults,30,True
368,120,378,8200,value training,False,./assets/img/canyon/memory/27.jpg,canyon,26.0,False,True,original,2.0,"{""ArrowUp,ArrowLeft"":26,""ArrowUp,ArrowRight"":10,""ArrowDown,ArrowLeft"":5,""ArrowDown,ArrowRight"":17}",35,,19.77,Male,2,norest,348.40000000596046,160.2999999821186,ArrowUp,ArrowLeft,True,True,26.0,Adults,30,True
369,121,380,8200,value training,False,./assets/img/canyon/memory/23.jpg,canyon,26.0,False,True,original,2.0,"{""ArrowUp,ArrowLeft"":26,""ArrowUp,ArrowRight"":10,""ArrowDown,ArrowLeft"":5,""ArrowDown,ArrowRight"":17}",36,,19.77,Male,2,norest,369.59999999403954,320.5,ArrowUp,ArrowLeft,True,True,26.0,Adults,35,True
370,122,382,8200,value training,False,./assets/img/canyon/memory/11.jpg,canyon,26.0,False,True,original,2.0,"{""ArrowUp,ArrowLeft"":26,""ArrowUp,ArrowRight"":10,""ArrowDown,ArrowLeft"":5,""ArrowDown,ArrowRight"":17}",37,,19.77,Male,2,norest,898.5999999940395,591.0999999940395,ArrowUp,ArrowLeft,True,True,26.0,Adults,35,True
372,124,386,8200,value training,False,./assets/img/canyon/memory/13.jpg,canyon,26.0,False,True,original,2.0,"{""ArrowUp,ArrowLeft"":26,""ArrowUp,ArrowRight"":10,""ArrowDown,ArrowLeft"":5,""ArrowDown,ArrowRight"":17}",38,,19.77,Male,2,norest,1173.699999988079,335.09999999403954,ArrowUp,ArrowLeft,True,True,26.0,Adults,35,True
373,125,388,8200,value training,False,./assets/img/canyon/memory/27.jpg,canyon,26.0,False,True,original,2.0,"{""ArrowUp,ArrowLeft"":26,""ArrowUp,ArrowRight"":10,""ArrowDown,ArrowLeft"":5,""ArrowDown,ArrowRight"":17}",39,,19.77,Male,2,norest,425.59999999403954,1724.4000000059605,ArrowUp,ArrowLeft,True,True,26.0,Adults,35,True
374,126,390,8200,value training,False,./assets/img/canyon/memory/40.jpg,canyon,26.0,False,True,original,2.0,"{""ArrowUp,ArrowLeft"":26,""ArrowUp,ArrowRight"":10,""ArrowDown,ArrowLeft"":5,""ArrowDown,ArrowRight"":17}",40,,19.77,Male,2,norest,729.6999999880791,513.1999999880791,ArrowUp,ArrowLeft,True,True,26.0,Adults,35,True
375,127,392,8200,value training,False,./assets/img/canyon/memory/4.jpg,canyon,26.0,False,True,original,2.0,"{""ArrowUp,ArrowLeft"":26,""ArrowUp,ArrowRight"":10,""ArrowDown,ArrowLeft"":5,""ArrowDown,ArrowRight"":17}",41,,19.77,Male,2,norest,466.19999998807907,280.0,ArrowUp,ArrowLeft,True,True,26.0,Adults,40,True
377,129,396,8200,value training,False,./assets/img/canyon/memory/10.jpg,canyon,26.0,False,True,original,2.0,"{""ArrowUp,ArrowLeft"":26,""ArrowUp,ArrowRight"":10,""ArrowDown,ArrowLeft"":5,""ArrowDown,ArrowRight"":17}",42,,19.77,Male,2,norest,779.9000000059605,598.0,ArrowUp,ArrowLeft,True,True,26.0,Adults,40,True
496,0,125,8566,value training,False,./assets/img/ocean/memory/15.jpg,ocean,17.0,False,False,original,1.0,"{""ArrowUp,ArrowLeft"":26,""ArrowUp,ArrowRight"":10,""ArrowDown,ArrowLeft"":5,""ArrowDown,ArrowRight"":17}",1,,10.49,Male,1,norest,1549.3999999761581,788.6000000238419,ArrowDown,ArrowRight,False,True,26.0,Children,0,False
497,1,127,8566,value training,False,./assets/img/ocean/memory/40.jpg,ocean,26.0,False,True,original,1.0,"{""ArrowUp,ArrowLeft"":26,""ArrowUp,ArrowRight"":10,""ArrowDown,ArrowLeft"":5,""ArrowDown,ArrowRight"":17}",2,,10.49,Male,1,norest,411.0,526.1000000238419,ArrowUp,ArrowLeft,True,True,26.0,Children,0,True
498,2,129,8566,value training,False,./assets/img/ocean/memory/17.jpg,ocean,10.0,False,False,original,1.0,"{""ArrowUp,ArrowLeft"":26,""ArrowUp,ArrowRight"":10,""ArrowDown,ArrowLeft"":5,""ArrowDown,ArrowRight"":17}",3,,10.49,Male,1,norest,166.60000002384186,477.3000000715256,ArrowUp,ArrowRight,True,False,26.0,Children,0,False
500,4,133,8566,value training,False,./assets/img/ocean/memory/1.jpg,ocean,26.0,False,True,original,1.0,"{""ArrowUp,ArrowLeft"":26,""ArrowUp,ArrowRight"":10,""ArrowDown,ArrowLeft"":5,""ArrowDown,ArrowRight"":17}",4,,10.49,Male,1,norest,1109.7000000476837,555.8999999761581,ArrowUp,ArrowLeft,True,True,26.0,Children,0,True
502,6,137,8566,value training,False,./assets/img/ocean/memory/14.jpg,ocean,17.0,False,False,original,1.0,"{""ArrowUp,ArrowLeft"":26,""ArrowUp,ArrowRight"":10,""ArrowDown,ArrowLeft"":5,""ArrowDown,ArrowRight"":17}",5,,10.49,Male,1,norest,789.7000000476837,698.5,ArrowDown,ArrowRight,False,True,26.0,Children,0,False
503,7,139,8566,value training,False,./assets/img/ocean/memory/9.jpg,ocean,5.0,False,False,original,1.0,"{""ArrowUp,ArrowLeft"":26,""ArrowUp,ArrowRight"":10,""ArrowDown,ArrowLeft"":5,""ArrowDown,ArrowRight"":17}",6,,10.49,Male,1,norest,421.3000000715256,460.8000000715256,ArrowDown,ArrowLeft,False,False,26.0,Children,5,False
504,8,141,8566,value training,False,./assets/img/ocean/memory/6.jpg,ocean,26.0,False,True,original,1.0,"{""ArrowUp,ArrowLeft"":26,""ArrowUp,ArrowRight"":10,""ArrowDown,ArrowLeft"":5,""ArrowDown,ArrowRight"":17}",7,,10.49,Male,1,norest,783.7000000476837,552.5999999046326,ArrowUp,ArrowLeft,True,True,26.0,Children,5,True
505,9,143,8566,value training,False,./assets/img/ocean/memory/3.jpg,ocean,10.0,False,False,original,1.0,"{""ArrowUp,ArrowLeft"":26,""ArrowUp,ArrowRight"":10,""ArrowDown,ArrowLeft"":5,""ArrowDown,ArrowRight"":17}",8,,10.49,Male,1,norest,985.0,764.1000000238419,ArrowUp,ArrowRight,True,False,26.0,Children,5,False
506,10,145,8566,value training,False,./assets/img/ocean/memory/29.jpg,ocean,26.0,False,True,original,1.0,"{""ArrowUp,ArrowLeft"":26,""ArrowUp,ArrowRight"":10,""ArrowDown,ArrowLeft"":5,""ArrowDown,ArrowRight"":17}",9,,10.49,Male,1,norest,816.6999999284744,925.8999999761581,ArrowUp,ArrowLeft,True,True,26.0,Children,5,True
507,11,147,8566,value training,False,./assets/img/ocean/memory/13.jpg,ocean,26.0,False,True,original,1.0,"{""ArrowUp,ArrowLeft"":26,""ArrowUp,ArrowRight"":10,""ArrowDown,ArrowLeft"":5,""ArrowDown,ArrowRight"":17}",10,,10.49,Male,1,norest,887.3999999761581,376.0,ArrowUp,ArrowLeft,True,True,26.0,Children,5,True
508,12,149,8566,value training,False,./assets/img/ocean/memory/10.jpg,ocean,26.0,False,True,original,1.0,"{""ArrowUp,ArrowLeft"":26,""ArrowUp,ArrowRight"":10,""ArrowDown,ArrowLeft"":5,""ArrowDown,ArrowRight"":17}",11,,10.49,Male,1,norest,608.0,426.0,ArrowUp,ArrowLeft,True,True,26.0,Children,10,True
509,13,151,8566,value training,False,./assets/img/ocean/memory/40.jpg,ocean,26.0,False,True,original,1.0,"{""ArrowUp,ArrowLeft"":26,""ArrowUp,ArrowRight"":10,""ArrowDown,ArrowLeft"":5,""ArrowDown,ArrowRight"":17}",12,,10.49,Male,1,norest,1010.5,499.60000002384186,ArrowUp,ArrowLeft,True,True,26.0,Children,10,True
510,14,153,8566,value training,False,./assets/img/ocean/memory/28.jpg,ocean,26.0,False,True,original,1.0,"{""ArrowUp,ArrowLeft"":26,""ArrowUp,ArrowRight"":10,""ArrowDown,ArrowLeft"":5,""ArrowDown,ArrowRight"":17}",13,,10.49,Male,1,norest,779.9000000953674,778.8000000715256,ArrowUp,ArrowLeft,True,True,26.0,Children,10,True
511,15,155,8566,value training,False,./assets/img/ocean/memory/41.jpg,ocean,26.0,False,True,original,1.0,"{""ArrowUp,ArrowLeft"":26,""ArrowUp,ArrowRight"":10,""ArrowDown,ArrowLeft"":5,""ArrowDown,ArrowRight"":17}",14,,10.49,Male,1,norest,1020.8999999761581,800.2999999523163,ArrowUp,ArrowLeft,True,True,26.0,Children,10,True
512,16,157,8566,value training,False,./assets/img/ocean/memory/9.jpg,ocean,26.0,False,True,original,1.0,"{""ArrowUp,ArrowLeft"":26,""ArrowUp,ArrowRight"":10,""ArrowDown,ArrowLeft"":5,""ArrowDown,ArrowRight"":17}",15,,10.49,Male,1,norest,1157.8999999761581,636.3999999761581,ArrowUp,ArrowLeft,True,True,26.0,Children,10,True
513,17,159,8566,value training,False,./assets/img/ocean/memory/1.jpg,ocean,26.0,False,True,original,1.0,"{""ArrowUp,ArrowLeft"":26,""ArrowUp,ArrowRight"":10,""ArrowDown,ArrowLeft"":5,""ArrowDown,ArrowRight"":17}",16,,10.49,Male,1,norest,1299.3000000715256,327.09999990463257,ArrowUp,ArrowLeft,True,True,26.0,Children,15,True
514,18,161,8566,value training,False,./assets/img/ocean/memory/0.jpg,ocean,26.0,False,True,original,1.0,"{""ArrowUp,ArrowLeft"":26,""ArrowUp,ArrowRight"":10,""ArrowDown,ArrowLeft"":5,""ArrowDown,ArrowRight"":17}",17,,10.49,Male,1,norest,750.0,618.8999999761581,ArrowUp,ArrowLeft,True,True,26.0,Children,15,True
515,19,163,8566,value training,False,./assets/img/ocean/memory/25.jpg,ocean,26.0,False,True,original,1.0,"{""ArrowUp,ArrowLeft"":26,""ArrowUp,ArrowRight"":10,""ArrowDown,ArrowLeft"":5,""ArrowDown,ArrowRight"":17}",18,,10.49,Male,1,norest,614.7000000476837,492.39999997615814,ArrowUp,ArrowLeft,True,True,26.0,Children,15,True
516,20,165,8566,value training,False,./assets/img/ocean/memory/14.jpg,ocean,26.0,False,True,original,1.0,"{""ArrowUp,ArrowLeft"":26,""ArrowUp,ArrowRight"":10,""ArrowDown,ArrowLeft"":5,""ArrowDown,ArrowRight"":17}",19,,10.49,Male,1,norest,735.5,464.10000002384186,ArrowUp,ArrowLeft,True,True,26.0,Children,15,True
518,22,169,8566,value training,False,./assets/img/ocean/memory/25.jpg,ocean,26.0,False,True,original,1.0,"{""ArrowUp,ArrowLeft"":26,""ArrowUp,ArrowRight"":10,""ArrowDown,ArrowLeft"":5,""ArrowDown,ArrowRight"":17}",20,,10.49,Male,1,norest,669.7999999523163,1068.8999999761581,ArrowUp,ArrowLeft,True,True,26.0,Children,15,True
519,23,171,8566,value training,False,./assets/img/ocean/memory/15.jpg,ocean,26.0,False,True,original,1.0,"{""ArrowUp,ArrowLeft"":26,""ArrowUp,ArrowRight"":10,""ArrowDown,ArrowLeft"":5,""ArrowDown,ArrowRight"":17}",21,,10.49,Male,1,norest,1557.6999999284744,1077.4000000953674,ArrowUp,ArrowLeft,True,True,26.0,Children,20,True
523,27,179,8566,value training,False,./assets/img/ocean/memory/28.jpg,ocean,26.0,False,True,original,1.0,"{""ArrowUp,ArrowLeft"":26,""ArrowUp,ArrowRight"":10,""ArrowDown,ArrowLeft"":5,""ArrowDown,ArrowRight"":17}",22,,10.49,Male,1,norest,1987.6000000238419,847.5,ArrowUp,ArrowLeft,True,True,26.0,Children,20,True
526,30,185,8566,value training,False,./assets/img/ocean/memory/6.jpg,ocean,26.0,False,True,original,1.0,"{""ArrowUp,ArrowLeft"":26,""ArrowUp,ArrowRight"":10,""ArrowDown,ArrowLeft"":5,""ArrowDown,ArrowRight"":17}",24,,10.49,Male,1,norest,903.6000000238419,463.3000000715256,ArrowUp,ArrowLeft,True,True,26.0,Children,20,True
527,31,187,8566,value training,False,./assets/img/ocean/memory/13.jpg,ocean,26.0,False,True,original,1.0,"{""ArrowUp,ArrowLeft"":26,""ArrowUp,ArrowRight"":10,""ArrowDown,ArrowLeft"":5,""ArrowDown,ArrowRight"":17}",25,,10.49,Male,1,norest,775.1000000238419,626.5,ArrowUp,ArrowLeft,True,True,26.0,Children,20,True
528,32,189,8566,value training,False,./assets/img/ocean/memory/2.jpg,ocean,26.0,False,True,original,1.0,"{""ArrowUp,ArrowLeft"":26,""ArrowUp,ArrowRight"":10,""ArrowDown,ArrowLeft"":5,""ArrowDown,ArrowRight"":17}",26,,10.49,Male,1,norest,817.2999999523163,486.09999990463257,ArrowUp,ArrowLeft,True,True,26.0,Children,25,True
529,33,191,8566,value training,False,./assets/img/ocean/memory/33.jpg,ocean,26.0,False,True,original,1.0,"{""ArrowUp,ArrowLeft"":26,""ArrowUp,ArrowRight"":10,""ArrowDown,ArrowLeft"":5,""ArrowDown,ArrowRight"":17}",27,,10.49,Male,1,norest,678.0,818.0,ArrowUp,ArrowLeft,True,True,26.0,Children,25,True
530,34,193,8566,value training,False,./assets/img/ocean/memory/19.jpg,ocean,26.0,False,True,original,1.0,"{""ArrowUp,ArrowLeft"":26,""ArrowUp,ArrowRight"":10,""ArrowDown,ArrowLeft"":5,""ArrowDown,ArrowRight"":17}",28,,10.49,Male,1,norest,932.5999999046326,631.5,ArrowUp,ArrowLeft,True,True,26.0,Children,25,True
531,35,195,8566,value training,False,./assets/img/ocean/memory/8.jpg,ocean,26.0,False,True,original,1.0,"{""ArrowUp,ArrowLeft"":26,""ArrowUp,ArrowRight"":10,""ArrowDown,ArrowLeft"":5,""ArrowDown,ArrowRight"":17}",29,,10.49,Male,1,norest,873.0,592.0,ArrowUp,ArrowLeft,True,True,26.0,Children,25,True
532,36,197,8566,value training,False,./assets/img/ocean/memory/41.jpg,ocean,26.0,False,True,original,1.0,"{""ArrowUp,ArrowLeft"":26,""ArrowUp,ArrowRight"":10,""ArrowDown,ArrowLeft"":5,""ArrowDown,ArrowRight"":17}",30,,10.49,Male,1,norest,1034.3000000715256,494.0,ArrowUp,ArrowLeft,True,True,26.0,Children,25,True
533,37,199,8566,value training,False,./assets/img/ocean/memory/10.jpg,ocean,26.0,False,True,original,1.0,"{""ArrowUp,ArrowLeft"":26,""ArrowUp,ArrowRight"":10,""ArrowDown,ArrowLeft"":5,""ArrowDown,ArrowRight"":17}",31,,10.49,Male,1,norest,896.8000000715256,615.6000000238419,ArrowUp,ArrowLeft,True,True,26.0,Children,30,True
534,38,201,8566,value training,False,./assets/img/ocean/memory/8.jpg,ocean,26.0,False,True,original,1.0,"{""ArrowUp,ArrowLeft"":26,""ArrowUp,ArrowRight"":10,""ArrowDown,ArrowLeft"":5,""ArrowDown,ArrowRight"":17}",32,,10.49,Male,1,norest,624.7999999523163,1563.7999999523163,ArrowUp,ArrowLeft,True,True,26.0,Children,30,True
535,39,203,8566,value training,False,./assets/img/ocean/memory/3.jpg,ocean,26.0,False,True,original,1.0,"{""ArrowUp,ArrowLeft"":26,""ArrowUp,ArrowRight"":10,""ArrowDown,ArrowLeft"":5,""ArrowDown,ArrowRight"":17}",33,,10.49,Male,1,norest,177.70000004768372,376.60000002384186,ArrowUp,ArrowLeft,True,True,26.0,Children,30,True
536,40,205,8566,value training,False,./assets/img/ocean/memory/33.jpg,ocean,26.0,False,True,original,1.0,"{""ArrowUp,ArrowLeft"":26,""ArrowUp,ArrowRight"":10,""ArrowDown,ArrowLeft"":5,""ArrowDown,ArrowRight"":17}",34,,10.49,Male,1,norest,969.0,208.20000004768372,ArrowUp,ArrowLeft,True,True,26.0,Children,30,True
537,41,207,8566,value training,False,./assets/img/ocean/memory/17.jpg,ocean,26.0,False,True,original,1.0,"{""ArrowUp,ArrowLeft"":26,""ArrowUp,ArrowRight"":10,""ArrowDown,ArrowLeft"":5,""ArrowDown,ArrowRight"":17}",35,,10.49,Male,1,norest,811.1000000238419,158.70000004768372,ArrowUp,ArrowLeft,True,True,26.0,Children,30,True
538,42,209,8566,value training,False,./assets/img/ocean/memory/29.jpg,ocean,26.0,False,True,original,1.0,"{""ArrowUp,ArrowLeft"":26,""ArrowUp,ArrowRight"":10,""ArrowDown,ArrowLeft"":5,""ArrowDown,ArrowRight"":17}",36,,10.49,Male,1,norest,870.7000000476837,308.89999997615814,ArrowUp,ArrowLeft,True,True,26.0,Children,35,True
539,43,211,8566,value training,False,./assets/img/ocean/memory/19.jpg,ocean,26.0,False,True,original,1.0,"{""ArrowUp,ArrowLeft"":26,""ArrowUp,ArrowRight"":10,""ArrowDown,ArrowLeft"":5,""ArrowDown,ArrowRight"":17}",37,,10.49,Male,1,norest,1013.1999999284744,232.10000002384186,ArrowUp,ArrowLeft,True,True,26.0,Children,35,True
540,44,213,8566,value training,False,./assets/img/ocean/memory/0.jpg,ocean,26.0,False,True,original,1.0,"{""ArrowUp,ArrowLeft"":26,""ArrowUp,ArrowRight"":10,""ArrowDown,ArrowLeft"":5,""ArrowDown,ArrowRight"":17}",38,,10.49,Male,1,norest,914.5999999046326,424.6999999284744,ArrowUp,ArrowLeft,True,True,26.0,Children,35,True
541,45,215,8566,value training,False,./assets/img/ocean/memory/37.jpg,ocean,26.0,False,True,original,1.0,"{""ArrowUp,ArrowLeft"":26,""ArrowUp,ArrowRight"":10,""ArrowDown,ArrowLeft"":5,""ArrowDown,ArrowRight"":17}",39,,10.49,Male,1,norest,1397.5,606.6999999284744,ArrowUp,ArrowLeft,True,True,26.0,Children,35,True
543,47,219,8566,value training,False,./assets/img/ocean/memory/39.jpg,ocean,26.0,False,True,original,1.0,"{""ArrowUp,ArrowLeft"":26,""ArrowUp,ArrowRight"":10,""ArrowDown,ArrowLeft"":5,""ArrowDown,ArrowRight"":17}",40,,10.49,Male,1,norest,1041.3999999761581,51.10000002384186,ArrowUp,ArrowLeft,True,True,26.0,Children,35,True
544,48,221,8566,value training,False,./assets/img/ocean/memory/39.jpg,ocean,26.0,False,True,original,1.0,"{""ArrowUp,ArrowLeft"":26,""ArrowUp,ArrowRight"":10,""ArrowDown,ArrowLeft"":5,""ArrowDown,ArrowRight"":17}",41,,10.49,Male,1,norest,1193.6999999284744,362.6999999284744,ArrowUp,ArrowLeft,True,True,26.0,Children,40,True
545,49,223,8566,value training,False,./assets/img/ocean/memory/37.jpg,ocean,26.0,False,True,original,1.0,"{""ArrowUp,ArrowLeft"":26,""ArrowUp,ArrowRight"":10,""ArrowDown,ArrowLeft"":5,""ArrowDown,ArrowRight"":17}",42,,10.49,Male,1,norest,876.3000000715256,465.3000000715256,ArrowUp,ArrowLeft,True,True,26.0,Children,40,True
577,81,302,8566,value training,False,./assets/img/canyon/memory/25.jpg,canyon,23.0,False,False,revaluation,2.0,"{""ArrowUp,ArrowLeft"":23,""ArrowUp,ArrowRight"":10,""ArrowDown,ArrowLeft"":8,""ArrowDown,ArrowRight"":30}",1,,10.49,Male,1,norest,790.0,667.1000000238419,ArrowUp,ArrowLeft,False,True,30.0,Children,0,False
580,84,308,8566,value training,False,./assets/img/canyon/memory/37.jpg,canyon,10.0,False,False,revaluation,2.0,"{""ArrowUp,ArrowLeft"":23,""ArrowUp,ArrowRight"":10,""ArrowDown,ArrowLeft"":8,""ArrowDown,ArrowRight"":30}",2,,10.49,Male,1,norest,846.3000000715256,442.89999997615814,ArrowUp,ArrowRight,False,False,30.0,Children,0,False
581,85,310,8566,value training,False,./assets/img/canyon/memory/3.jpg,canyon,23.0,False,False,revaluation,2.0,"{""ArrowUp,ArrowLeft"":23,""ArrowUp,ArrowRight"":10,""ArrowDown,ArrowLeft"":8,""ArrowDown,ArrowRight"":30}",3,,10.49,Male,1,norest,827.0999999046326,396.5,ArrowUp,ArrowLeft,False,True,30.0,Children,0,False
582,86,312,8566,value training,False,./assets/img/canyon/memory/29.jpg,canyon,23.0,False,False,revaluation,2.0,"{""ArrowUp,ArrowLeft"":23,""ArrowUp,ArrowRight"":10,""ArrowDown,ArrowLeft"":8,""ArrowDown,ArrowRight"":30}",4,,10.49,Male,1,norest,1118.8999999761581,478.7999999523163,ArrowUp,ArrowLeft,False,True,30.0,Children,0,False
583,87,314,8566,value training,False,./assets/img/canyon/memory/15.jpg,canyon,23.0,False,False,revaluation,2.0,"{""ArrowUp,ArrowLeft"":23,""ArrowUp,ArrowRight"":10,""ArrowDown,ArrowLeft"":8,""ArrowDown,ArrowRight"":30}",5,,10.49,Male,1,norest,1440.0,738.2000000476837,ArrowUp,ArrowLeft,False,True,30.0,Children,0,False
585,89,318,8566,value training,False,./assets/img/canyon/memory/6.jpg,canyon,30.0,False,True,revaluation,2.0,"{""ArrowUp,ArrowLeft"":23,""ArrowUp,ArrowRight"":10,""ArrowDown,ArrowLeft"":8,""ArrowDown,ArrowRight"":30}",6,,10.49,Male,1,norest,563.8999999761581,531.6999999284744,ArrowDown,ArrowRight,True,True,30.0,Children,5,True
586,90,320,8566,value training,False,./assets/img/canyon/memory/10.jpg,canyon,8.0,False,False,revaluation,2.0,"{""ArrowUp,ArrowLeft"":23,""ArrowUp,ArrowRight"":10,""ArrowDown,ArrowLeft"":8,""ArrowDown,ArrowRight"":30}",7,,10.49,Male,1,norest,1319.6000000238419,509.0,ArrowDown,ArrowLeft,True,False,30.0,Children,5,False
587,91,322,8566,value training,False,./assets/img/canyon/memory/6.jpg,canyon,30.0,False,True,revaluation,2.0,"{""ArrowUp,ArrowLeft"":23,""ArrowUp,ArrowRight"":10,""ArrowDown,ArrowLeft"":8,""ArrowDown,ArrowRight"":30}",8,,10.49,Male,1,norest,821.6000000238419,339.40000009536743,ArrowDown,ArrowRight,True,True,30.0,Children,5,True
590,94,328,8566,value training,False,./assets/img/canyon/memory/40.jpg,canyon,30.0,False,True,revaluation,2.0,"{""ArrowUp,ArrowLeft"":23,""ArrowUp,ArrowRight"":10,""ArrowDown,ArrowLeft"":8,""ArrowDown,ArrowRight"":30}",9,,10.49,Male,1,norest,539.2000000476837,977.3999999761581,ArrowDown,ArrowRight,True,True,30.0,Children,5,True
591,95,330,8566,value training,False,./assets/img/canyon/memory/41.jpg,canyon,30.0,False,True,revaluation,2.0,"{""ArrowUp,ArrowLeft"":23,""ArrowUp,ArrowRight"":10,""ArrowDown,ArrowLeft"":8,""ArrowDown,ArrowRight"":30}",10,,10.49,Male,1,norest,1628.7999999523163,388.2999999523163,ArrowDown,ArrowRight,True,True,30.0,Children,5,True
592,96,332,8566,value training,False,./assets/img/canyon/memory/28.jpg,canyon,30.0,False,True,revaluation,2.0,"{""ArrowUp,ArrowLeft"":23,""ArrowUp,ArrowRight"":10,""ArrowDown,ArrowLeft"":8,""ArrowDown,ArrowRight"":30}",11,,10.49,Male,1,norest,1311.8000000715256,581.5999999046326,ArrowDown,ArrowRight,True,True,30.0,Children,10,True
594,98,336,8566,value training,False,./assets/img/canyon/memory/17.jpg,canyon,8.0,False,False,revaluation,2.0,"{""ArrowUp,ArrowLeft"":23,""ArrowUp,ArrowRight"":10,""ArrowDown,ArrowLeft"":8,""ArrowDown,ArrowRight"":30}",12,,10.49,Male,1,norest,646.8000000715256,635.4000000953674,ArrowDown,ArrowLeft,True,False,30.0,Children,10,False
595,99,338,8566,value training,False,./assets/img/canyon/memory/29.jpg,canyon,30.0,False,True,revaluation,2.0,"{""ArrowUp,ArrowLeft"":23,""ArrowUp,ArrowRight"":10,""ArrowDown,ArrowLeft"":8,""ArrowDown,ArrowRight"":30}",13,,10.49,Male,1,norest,1428.0,131.60000002384186,ArrowDown,ArrowRight,True,True,30.0,Children,10,True
596,100,340,8566,value training,False,./assets/img/canyon/memory/19.jpg,canyon,30.0,False,True,revaluation,2.0,"{""ArrowUp,ArrowLeft"":23,""ArrowUp,ArrowRight"":10,""ArrowDown,ArrowLeft"":8,""ArrowDown,ArrowRight"":30}",14,,10.49,Male,1,norest,830.5,570.0,ArrowDown,ArrowRight,True,True,30.0,Children,10,True
597,101,342,8566,value training,False,./assets/img/canyon/memory/1.jpg,canyon,30.0,False,True,revaluation,2.0,"{""ArrowUp,ArrowLeft"":23,""ArrowUp,ArrowRight"":10,""ArrowDown,ArrowLeft"":8,""ArrowDown,ArrowRight"":30}",15,,10.49,Male,1,norest,1212.0,1361.3000000715256,ArrowDown,ArrowRight,True,True,30.0,Children,10,True
598,102,344,8566,value training,False,./assets/img/canyon/memory/14.jpg,canyon,30.0,False,True,revaluation,2.0,"{""ArrowUp,ArrowLeft"":23,""ArrowUp,ArrowRight"":10,""ArrowDown,ArrowLeft"":8,""ArrowDown,ArrowRight"":30}",16,,10.49,Male,1,norest,1214.6999999284744,272.5,ArrowDown,ArrowRight,True,True,30.0,Children,15,True
599,103,346,8566,value training,False,./assets/img/canyon/memory/2.jpg,canyon,30.0,False,True,revaluation,2.0,"{""ArrowUp,ArrowLeft"":23,""ArrowUp,ArrowRight"":10,""ArrowDown,ArrowLeft"":8,""ArrowDown,ArrowRight"":30}",17,,10.49,Male,1,norest,824.7999999523163,843.8000000715256,ArrowDown,ArrowRight,True,True,30.0,Children,15,True
600,104,348,8566,value training,False,./assets/img/canyon/memory/25.jpg,canyon,30.0,False,True,revaluation,2.0,"{""ArrowUp,ArrowLeft"":23,""ArrowUp,ArrowRight"":10,""ArrowDown,ArrowLeft"":8,""ArrowDown,ArrowRight"":30}",18,,10.49,Male,1,norest,1444.5,292.2000000476837,ArrowDown,ArrowRight,True,True,30.0,Children,15,True
602,106,352,8566,value training,False,./assets/img/canyon/memory/14.jpg,canyon,30.0,False,True,revaluation,2.0,"{""ArrowUp,ArrowLeft"":23,""ArrowUp,ArrowRight"":10,""ArrowDown,ArrowLeft"":8,""ArrowDown,ArrowRight"":30}",19,,10.49,Male,1,norest,754.8999999761581,311.90000009536743,ArrowDown,ArrowRight,True,True,30.0,Children,15,True
603,107,354,8566,value training,False,./assets/img/canyon/memory/33.jpg,canyon,30.0,False,True,revaluation,2.0,"{""ArrowUp,ArrowLeft"":23,""ArrowUp,ArrowRight"":10,""ArrowDown,ArrowLeft"":8,""ArrowDown,ArrowRight"":30}",20,,10.49,Male,1,norest,884.2999999523163,863.1000000238419,ArrowDown,ArrowRight,True,True,30.0,Children,15,True
604,108,356,8566,value training,False,./assets/img/canyon/memory/0.jpg,canyon,30.0,False,True,revaluation,2.0,"{""ArrowUp,ArrowLeft"":23,""ArrowUp,ArrowRight"":10,""ArrowDown,ArrowLeft"":8,""ArrowDown,ArrowRight"":30}",21,,10.49,Male,1,norest,812.2999999523163,221.80000007152557,ArrowDown,ArrowRight,True,True,30.0,Children,20,True
605,109,358,8566,value training,False,./assets/img/canyon/memory/10.jpg,canyon,30.0,False,True,revaluation,2.0,"{""ArrowUp,ArrowLeft"":23,""ArrowUp,ArrowRight"":10,""ArrowDown,ArrowLeft"":8,""ArrowDown,ArrowRight"":30}",22,,10.49,Male,1,norest,1003.7999999523163,823.2000000476837,ArrowDown,ArrowRight,True,True,30.0,Children,20,True
606,110,360,8566,value training,False,./assets/img/canyon/memory/2.jpg,canyon,30.0,False,True,revaluation,2.0,"{""ArrowUp,ArrowLeft"":23,""ArrowUp,ArrowRight"":10,""ArrowDown,ArrowLeft"":8,""ArrowDown,ArrowRight"":30}",23,,10.49,Male,1,norest,760.6999999284744,899.2000000476837,ArrowDown,ArrowRight,True,True,30.0,Children,20,True
607,111,362,8566,value training,False,./assets/img/canyon/memory/8.jpg,canyon,30.0,False,True,revaluation,2.0,"{""ArrowUp,ArrowLeft"":23,""ArrowUp,ArrowRight"":10,""ArrowDown,ArrowLeft"":8,""ArrowDown,ArrowRight"":30}",24,,10.49,Male,1,norest,797.3999999761581,375.09999990463257,ArrowDown,ArrowRight,True,True,30.0,Children,20,True
608,112,364,8566,value training,False,./assets/img/canyon/memory/9.jpg,canyon,30.0,False,True,revaluation,2.0,"{""ArrowUp,ArrowLeft"":23,""ArrowUp,ArrowRight"":10,""ArrowDown,ArrowLeft"":8,""ArrowDown,ArrowRight"":30}",25,,10.49,Male,1,norest,979.7000000476837,558.8000000715256,ArrowDown,ArrowRight,True,True,30.0,Children,20,True
609,113,366,8566,value training,False,./assets/img/canyon/memory/13.jpg,canyon,30.0,False,True,revaluation,2.0,"{""ArrowUp,ArrowLeft"":23,""ArrowUp,ArrowRight"":10,""ArrowDown,ArrowLeft"":8,""ArrowDown,ArrowRight"":30}",26,,10.49,Male,1,norest,641.5,500.1999999284744,ArrowDown,ArrowRight,True,True,30.0,Children,25,True
610,114,368,8566,value training,False,./assets/img/canyon/memory/13.jpg,canyon,30.0,False,True,revaluation,2.0,"{""ArrowUp,ArrowLeft"":23,""ArrowUp,ArrowRight"":10,""ArrowDown,ArrowLeft"":8,""ArrowDown,ArrowRight"":30}",27,,10.49,Male,1,norest,882.8999999761581,492.0,ArrowDown,ArrowRight,True,True,30.0,Children,25,True
611,115,370,8566,value training,False,./assets/img/canyon/memory/8.jpg,canyon,30.0,False,True,revaluation,2.0,"{""ArrowUp,ArrowLeft"":23,""ArrowUp,ArrowRight"":10,""ArrowDown,ArrowLeft"":8,""ArrowDown,ArrowRight"":30}",28,,10.49,Male,1,norest,894.1999999284744,672.2000000476837,ArrowDown,ArrowRight,True,True,30.0,Children,25,True
612,116,372,8566,value training,False,./assets/img/canyon/memory/39.jpg,canyon,30.0,False,True,revaluation,2.0,"{""ArrowUp,ArrowLeft"":23,""ArrowUp,ArrowRight"":10,""ArrowDown,ArrowLeft"":8,""ArrowDown,ArrowRight"":30}",29,,10.49,Male,1,norest,973.2000000476837,1541.5,ArrowDown,ArrowRight,True,True,30.0,Children,25,True
613,117,374,8566,value training,False,./assets/img/canyon/memory/39.jpg,canyon,30.0,False,True,revaluation,2.0,"{""ArrowUp,ArrowLeft"":23,""ArrowUp,ArrowRight"":10,""ArrowDown,ArrowLeft"":8,""ArrowDown,ArrowRight"":30}",30,,10.49,Male,1,norest,702.2000000476837,851.7999999523163,ArrowDown,ArrowRight,True,True,30.0,Children,25,True
614,118,376,8566,value training,False,./assets/img/canyon/memory/15.jpg,canyon,30.0,False,True,revaluation,2.0,"{""ArrowUp,ArrowLeft"":23,""ArrowUp,ArrowRight"":10,""ArrowDown,ArrowLeft"":8,""ArrowDown,ArrowRight"":30}",31,,10.49,Male,1,norest,603.0,451.8000000715256,ArrowDown,ArrowRight,True,True,30.0,Children,30,True
615,119,378,8566,value training,False,./assets/img/canyon/memory/1.jpg,canyon,30.0,False,True,revaluation,2.0,"{""ArrowUp,ArrowLeft"":23,""ArrowUp,ArrowRight"":10,""ArrowDown,ArrowLeft"":8,""ArrowDown,ArrowRight"":30}",32,,10.49,Male,1,norest,664.0,432.8000000715256,ArrowDown,ArrowRight,True,True,30.0,Children,30,True
616,120,380,8566,value training,False,./assets/img/canyon/memory/40.jpg,canyon,30.0,False,True,revaluation,2.0,"{""ArrowUp,ArrowLeft"":23,""ArrowUp,ArrowRight"":10,""ArrowDown,ArrowLeft"":8,""ArrowDown,ArrowRight"":30}",33,,10.49,Male,1,norest,485.10000002384186,544.5,ArrowDown,ArrowRight,True,True,30.0,Children,30,True
617,121,382,8566,value training,False,./assets/img/canyon/memory/9.jpg,canyon,30.0,False,True,revaluation,2.0,"{""ArrowUp,ArrowLeft"":23,""ArrowUp,ArrowRight"":10,""ArrowDown,ArrowLeft"":8,""ArrowDown,ArrowRight"":30}",34,,10.49,Male,1,norest,807.7000000476837,516.5,ArrowDown,ArrowRight,True,True,30.0,Children,30,True
618,122,384,8566,value training,False,./assets/img/canyon/memory/33.jpg,canyon,30.0,False,True,revaluation,2.0,"{""ArrowUp,ArrowLeft"":23,""ArrowUp,ArrowRight"":10,""ArrowDown,ArrowLeft"":8,""ArrowDown,ArrowRight"":30}",35,,10.49,Male,1,norest,861.7999999523163,600.8999999761581,ArrowDown,ArrowRight,True,True,30.0,Children,30,True
619,123,386,8566,value training,False,./assets/img/canyon/memory/28.jpg,canyon,30.0,False,True,revaluation,2.0,"{""ArrowUp,ArrowLeft"":23,""ArrowUp,ArrowRight"":10,""ArrowDown,ArrowLeft"":8,""ArrowDown,ArrowRight"":30}",36,,10.49,Male,1,norest,622.7999999523163,372.39999997615814,ArrowDown,ArrowRight,True,True,30.0,Children,35,True
620,124,388,8566,value training,False,./assets/img/canyon/memory/3.jpg,canyon,30.0,False,True,revaluation,2.0,"{""ArrowUp,ArrowLeft"":23,""ArrowUp,ArrowRight"":10,""ArrowDown,ArrowLeft"":8,""ArrowDown,ArrowRight"":30}",37,,10.49,Male,1,norest,905.1999999284744,763.5,ArrowDown,ArrowRight,True,True,30.0,Children,35,True
621,125,390,8566,value training,False,./assets/img/canyon/memory/0.jpg,canyon,30.0,False,True,revaluation,2.0,"{""ArrowUp,ArrowLeft"":23,""ArrowUp,ArrowRight"":10,""ArrowDown,ArrowLeft"":8,""ArrowDown,ArrowRight"":30}",38,,10.49,Male,1,norest,645.3000000715256,35.0,ArrowDown,ArrowRight,True,True,30.0,Children,35,True
622,126,392,8566,value training,False,./assets/img/canyon/memory/17.jpg,canyon,30.0,False,True,revaluation,2.0,"{""ArrowUp,ArrowLeft"":23,""ArrowUp,ArrowRight"":10,""ArrowDown,ArrowLeft"":8,""ArrowDown,ArrowRight"":30}",39,,10.49,Male,1,norest,867.6000000238419,716.9000000953674,ArrowDown,ArrowRight,True,True,30.0,Children,35,True
623,127,394,8566,value training,False,./assets/img/canyon/memory/19.jpg,canyon,30.0,False,True,revaluation,2.0,"{""ArrowUp,ArrowLeft"":23,""ArrowUp,ArrowRight"":10,""ArrowDown,ArrowLeft"":8,""ArrowDown,ArrowRight"":30}",40,,10.49,Male,1,norest,378.60000002384186,417.7999999523163,ArrowDown,ArrowRight,True,True,30.0,Children,35,True
624,128,396,8566,value training,False,./assets/img/canyon/memory/37.jpg,canyon,30.0,False,True,revaluation,2.0,"{""ArrowUp,ArrowLeft"":23,""ArrowUp,ArrowRight"":10,""ArrowDown,ArrowLeft"":8,""ArrowDown,ArrowRight"":30}",41,,10.49,Male,1,norest,751.0,1829.3999999761581,ArrowDown,ArrowRight,True,True,30.0,Children,40,True
625,129,398,8566,value training,False,./assets/img/canyon/memory/41.jpg,canyon,30.0,False,True,revaluation,2.0,"{""ArrowUp,ArrowLeft"":23,""ArrowUp,ArrowRight"":10,""ArrowDown,ArrowLeft"":8,""ArrowDown,ArrowRight"":30}",42,,10.49,Male,1,norest,822.0999999046326,781.0,ArrowDown,ArrowRight,True,True,30.0,Children,40,True
744,0,118,8599,value training,False,./assets/img/canyon/memory/41.jpg,canyon,26.0,False,True,original,1.0,"{""ArrowUp,ArrowLeft"":26,""ArrowUp,ArrowRight"":10,""ArrowDown,ArrowLeft"":5,""ArrowDown,ArrowRight"":17}",1,,12.69,Female,5,norest,1218.0,648.0,ArrowUp,ArrowLeft,True,True,26.0,Children,0,True
745,1,120,8599,value training,False,./assets/img/canyon/memory/33.jpg,canyon,10.0,False,False,original,1.0,"{""ArrowUp,ArrowLeft"":26,""ArrowUp,ArrowRight"":10,""ArrowDown,ArrowLeft"":5,""ArrowDown,ArrowRight"":17}",2,,12.69,Female,5,norest,550.0,345.0,ArrowUp,ArrowRight,True,False,26.0,Children,0,False
746,2,122,8599,value training,False,./assets/img/canyon/memory/0.jpg,canyon,5.0,False,False,original,1.0,"{""ArrowUp,ArrowLeft"":26,""ArrowUp,ArrowRight"":10,""ArrowDown,ArrowLeft"":5,""ArrowDown,ArrowRight"":17}",3,,12.69,Female,5,norest,361.0,331.9999999998836,ArrowDown,ArrowLeft,False,False,26.0,Children,0,False
749,5,128,8599,value training,False,./assets/img/canyon/memory/36.jpg,canyon,17.0,False,False,original,1.0,"{""ArrowUp,ArrowLeft"":26,""ArrowUp,ArrowRight"":10,""ArrowDown,ArrowLeft"":5,""ArrowDown,ArrowRight"":17}",4,,12.69,Female,5,norest,919.0,575.0,ArrowDown,ArrowRight,False,True,26.0,Children,0,False
750,6,130,8599,value training,False,./assets/img/canyon/memory/6.jpg,canyon,26.0,False,True,original,1.0,"{""ArrowUp,ArrowLeft"":26,""ArrowUp,ArrowRight"":10,""ArrowDown,ArrowLeft"":5,""ArrowDown,ArrowRight"":17}",5,,12.69,Female,5,norest,817.0,478.9999999998836,ArrowUp,ArrowLeft,True,True,26.0,Children,0,True
752,8,134,8599,value training,False,./assets/img/canyon/memory/38.jpg,canyon,26.0,False,True,original,1.0,"{""ArrowUp,ArrowLeft"":26,""ArrowUp,ArrowRight"":10,""ArrowDown,ArrowLeft"":5,""ArrowDown,ArrowRight"":17}",6,,12.69,Female,5,norest,642.0,432.0,ArrowUp,ArrowLeft,True,True,26.0,Children,5,True
753,9,136,8599,value training,False,./assets/img/canyon/memory/33.jpg,canyon,26.0,False,True,original,1.0,"{""ArrowUp,ArrowLeft"":26,""ArrowUp,ArrowRight"":10,""ArrowDown,ArrowLeft"":5,""ArrowDown,ArrowRight"":17}",7,,12.69,Female,5,norest,487.0000000001164,469.9999999998836,ArrowUp,ArrowLeft,True,True,26.0,Children,5,True
754,10,138,8599,value training,False,./assets/img/canyon/memory/36.jpg,canyon,26.0,False,True,original,1.0,"{""ArrowUp,ArrowLeft"":26,""ArrowUp,ArrowRight"":10,""ArrowDown,ArrowLeft"":5,""ArrowDown,ArrowRight"":17}",8,,12.69,Female,5,norest,807.0,537.0,ArrowUp,ArrowLeft,True,True,26.0,Children,5,True
755,11,140,8599,value training,False,./assets/img/canyon/memory/41.jpg,canyon,26.0,False,True,original,1.0,"{""ArrowUp,ArrowLeft"":26,""ArrowUp,ArrowRight"":10,""ArrowDown,ArrowLeft"":5,""ArrowDown,ArrowRight"":17}",9,,12.69,Female,5,norest,438.0,460.0,ArrowUp,ArrowLeft,True,True,26.0,Children,5,True
757,13,144,8599,value training,False,./assets/img/canyon/memory/35.jpg,canyon,26.0,False,True,original,1.0,"{""ArrowUp,ArrowLeft"":26,""ArrowUp,ArrowRight"":10,""ArrowDown,ArrowLeft"":5,""ArrowDown,ArrowRight"":17}",10,,12.69,Female,5,norest,736.9999999998836,886.0,ArrowUp,ArrowLeft,True,True,26.0,Children,5,True
758,14,146,8599,value training,False,./assets/img/canyon/memory/8.jpg,canyon,26.0,False,True,original,1.0,"{""ArrowUp,ArrowLeft"":26,""ArrowUp,ArrowRight"":10,""ArrowDown,ArrowLeft"":5,""ArrowDown,ArrowRight"":17}",11,,12.69,Female,5,norest,774.0,434.0,ArrowUp,ArrowLeft,True,True,26.0,Children,10,True
759,15,148,8599,value training,False,./assets/img/canyon/memory/20.jpg,canyon,26.0,False,True,original,1.0,"{""ArrowUp,ArrowLeft"":26,""ArrowUp,ArrowRight"":10,""ArrowDown,ArrowLeft"":5,""ArrowDown,ArrowRight"":17}",12,,12.69,Female,5,norest,1029.9999999998836,1090.0,ArrowUp,ArrowLeft,True,True,26.0,Children,10,True
760,16,150,8599,value training,False,./assets/img/canyon/memory/30.jpg,canyon,26.0,False,True,original,1.0,"{""ArrowUp,ArrowLeft"":26,""ArrowUp,ArrowRight"":10,""ArrowDown,ArrowLeft"":5,""ArrowDown,ArrowRight"":17}",13,,12.69,Female,5,norest,1207.0,788.0,ArrowUp,ArrowLeft,True,True,26.0,Children,10,True
761,17,152,8599,value training,False,./assets/img/canyon/memory/16.jpg,canyon,26.0,False,True,original,1.0,"{""ArrowUp,ArrowLeft"":26,""ArrowUp,ArrowRight"":10,""ArrowDown,ArrowLeft"":5,""ArrowDown,ArrowRight"":17}",14,,12.69,Female,5,norest,497.0000000001164,546.0,ArrowUp,ArrowLeft,True,True,26.0,Children,10,True
762,18,154,8599,value training,False,./assets/img/canyon/memory/38.jpg,canyon,26.0,False,True,original,1.0,"{""ArrowUp,ArrowLeft"":26,""ArrowUp,ArrowRight"":10,""ArrowDown,ArrowLeft"":5,""ArrowDown,ArrowRight"":17}",15,,12.69,Female,5,norest,537.0,410.0,ArrowUp,ArrowLeft,True,True,26.0,Children,10,True
763,19,156,8599,value training,False,./assets/img/canyon/memory/20.jpg,canyon,26.0,False,True,original,1.0,"{""ArrowUp,ArrowLeft"":26,""ArrowUp,ArrowRight"":10,""ArrowDown,ArrowLeft"":5,""ArrowDown,ArrowRight"":17}",16,,12.69,Female,5,norest,547.0000000001164,496.0000000001164,ArrowUp,ArrowLeft,True,True,26.0,Children,15,True
765,21,160,8599,value training,False,./assets/img/canyon/memory/15.jpg,canyon,26.0,False,True,original,1.0,"{""ArrowUp,ArrowLeft"":26,""ArrowUp,ArrowRight"":10,""ArrowDown,ArrowLeft"":5,""ArrowDown,ArrowRight"":17}",17,,12.69,Female,5,norest,658.0000000001164,667.0000000001164,ArrowUp,ArrowLeft,True,True,26.0,Children,15,True
766,22,162,8599,value training,False,./assets/img/canyon/memory/1.jpg,canyon,26.0,False,True,original,1.0,"{""ArrowUp,ArrowLeft"":26,""ArrowUp,ArrowRight"":10,""ArrowDown,ArrowLeft"":5,""ArrowDown,ArrowRight"":17}",18,,12.69,Female,5,norest,612.0,491.0,ArrowUp,ArrowLeft,True,True,26.0,Children,15,True
767,23,164,8599,value training,False,./assets/img/canyon/memory/6.jpg,canyon,26.0,False,True,original,1.0,"{""ArrowUp,ArrowLeft"":26,""ArrowUp,ArrowRight"":10,""ArrowDown,ArrowLeft"":5,""ArrowDown,ArrowRight"":17}",19,,12.69,Female,5,norest,494.0,518.0,ArrowUp,ArrowLeft,True,True,26.0,Children,15,True
768,24,166,8599,value training,False,./assets/img/canyon/memory/32.jpg,canyon,26.0,False,True,original,1.0,"{""ArrowUp,ArrowLeft"":26,""ArrowUp,ArrowRight"":10,""ArrowDown,ArrowLeft"":5,""ArrowDown,ArrowRight"":17}",20,,12.69,Female,5,norest,591.0000000002328,548.0,ArrowUp,ArrowLeft,True,True,26.0,Children,15,True
770,26,170,8599,value training,False,./assets/img/canyon/memory/34.jpg,canyon,26.0,False,True,original,1.0,"{""ArrowUp,ArrowLeft"":26,""ArrowUp,ArrowRight"":10,""ArrowDown,ArrowLeft"":5,""ArrowDown,ArrowRight"":17}",21,,12.69,Female,5,norest,503.0,366.0,ArrowUp,ArrowLeft,True,True,26.0,Children,20,True
771,27,172,8599,value training,False,./assets/img/canyon/memory/12.jpg,canyon,26.0,False,True,original,1.0,"{""ArrowUp,ArrowLeft"":26,""ArrowUp,ArrowRight"":10,""ArrowDown,ArrowLeft"":5,""ArrowDown,ArrowRight"":17}",22,,12.69,Female,5,norest,290.0,436.0,ArrowUp,ArrowLeft,True,True,26.0,Children,20,True
772,28,174,8599,value training,False,./assets/img/canyon/memory/40.jpg,canyon,26.0,False,True,original,1.0,"{""ArrowUp,ArrowLeft"":26,""ArrowUp,ArrowRight"":10,""ArrowDown,ArrowLeft"":5,""ArrowDown,ArrowRight"":17}",23,,12.69,Female,5,norest,562.0,799.0,ArrowUp,ArrowLeft,True,True,26.0,Children,20,True
773,29,176,8599,value training,False,./assets/img/canyon/memory/35.jpg,canyon,26.0,False,True,original,1.0,"{""ArrowUp,ArrowLeft"":26,""ArrowUp,ArrowRight"":10,""ArrowDown,ArrowLeft"":5,""ArrowDown,ArrowRight"":17}",24,,12.69,Female,5,norest,602.0,377.0,ArrowUp,ArrowLeft,True,True,26.0,Children,20,True
774,30,178,8599,value training,False,./assets/img/canyon/memory/10.jpg,canyon,26.0,False,True,original,1.0,"{""ArrowUp,ArrowLeft"":26,""ArrowUp,ArrowRight"":10,""ArrowDown,ArrowLeft"":5,""ArrowDown,ArrowRight"":17}",25,,12.69,Female,5,norest,835.0,478.00000000023283,ArrowUp,ArrowLeft,True,True,26.0,Children,20,True
775,31,180,8599,value training,False,./assets/img/canyon/memory/10.jpg,canyon,26.0,False,True,original,1.0,"{""ArrowUp,ArrowLeft"":26,""ArrowUp,ArrowRight"":10,""ArrowDown,ArrowLeft"":5,""ArrowDown,ArrowRight"":17}",26,,12.69,Female,5,norest,615.0,500.0,ArrowUp,ArrowLeft,True,True,26.0,Children,25,True
776,32,182,8599,value training,False,./assets/img/canyon/memory/31.jpg,canyon,26.0,False,True,original,1.0,"{""ArrowUp,ArrowLeft"":26,""ArrowUp,ArrowRight"":10,""ArrowDown,ArrowLeft"":5,""ArrowDown,ArrowRight"":17}",27,,12.69,Female,5,norest,664.0,450.0,ArrowUp,ArrowLeft,True,True,26.0,Children,25,True
778,34,186,8599,value training,False,./assets/img/canyon/memory/1.jpg,canyon,26.0,False,True,original,1.0,"{""ArrowUp,ArrowLeft"":26,""ArrowUp,ArrowRight"":10,""ArrowDown,ArrowLeft"":5,""ArrowDown,ArrowRight"":17}",28,,12.69,Female,5,norest,628.0,687.0,ArrowUp,ArrowLeft,True,True,26.0,Children,25,True
779,35,188,8599,value training,False,./assets/img/canyon/memory/40.jpg,canyon,26.0,False,True,original,1.0,"{""ArrowUp,ArrowLeft"":26,""ArrowUp,ArrowRight"":10,""ArrowDown,ArrowLeft"":5,""ArrowDown,ArrowRight"":17}",29,,12.69,Female,5,norest,713.0,832.0,ArrowUp,ArrowLeft,True,True,26.0,Children,25,True
780,36,190,8599,value training,False,./assets/img/canyon/memory/31.jpg,canyon,26.0,False,True,original,1.0,"{""ArrowUp,ArrowLeft"":26,""ArrowUp,ArrowRight"":10,""ArrowDown,ArrowLeft"":5,""ArrowDown,ArrowRight"":17}",30,,12.69,Female,5,norest,361.99999999976717,475.0,ArrowUp,ArrowLeft,True,True,26.0,Children,25,True
781,37,192,8599,value training,False,./assets/img/canyon/memory/0.jpg,canyon,26.0,False,True,original,1.0,"{""ArrowUp,ArrowLeft"":26,""ArrowUp,ArrowRight"":10,""ArrowDown,ArrowLeft"":5,""ArrowDown,ArrowRight"":17}",31,,12.69,Female,5,norest,674.0,613.0,ArrowUp,ArrowLeft,True,True,26.0,Children,30,True
782,38,194,8599,value training,False,./assets/img/canyon/memory/32.jpg,canyon,26.0,False,True,original,1.0,"{""ArrowUp,ArrowLeft"":26,""ArrowUp,ArrowRight"":10,""ArrowDown,ArrowLeft"":5,""ArrowDown,ArrowRight"":17}",32,,12.69,Female,5,norest,669.0,823.0,ArrowUp,ArrowLeft,True,True,26.0,Children,30,True
783,39,196,8599,value training,False,./assets/img/canyon/memory/37.jpg,canyon,26.0,False,True,original,1.0,"{""ArrowUp,ArrowLeft"":26,""ArrowUp,ArrowRight"":10,""ArrowDown,ArrowLeft"":5,""ArrowDown,ArrowRight"":17}",33,,12.69,Female,5,norest,454.99999999976717,432.0,ArrowUp,ArrowLeft,True,True,26.0,Children,30,True
784,40,198,8599,value training,False,./assets/img/canyon/memory/30.jpg,canyon,26.0,False,True,original,1.0,"{""ArrowUp,ArrowLeft"":26,""ArrowUp,ArrowRight"":10,""ArrowDown,ArrowLeft"":5,""ArrowDown,ArrowRight"":17}",34,,12.69,Female,5,norest,481.0,619.0000000002328,ArrowUp,ArrowLeft,True,True,26.0,Children,30,True
785,41,200,8599,value training,False,./assets/img/canyon/memory/37.jpg,canyon,26.0,False,True,original,1.0,"{""ArrowUp,ArrowLeft"":26,""ArrowUp,ArrowRight"":10,""ArrowDown,ArrowLeft"":5,""ArrowDown,ArrowRight"":17}",35,,12.69,Female,5,norest,575.0,546.0,ArrowUp,ArrowLeft,True,True,26.0,Children,30,True
786,42,202,8599,value training,False,./assets/img/canyon/memory/39.jpg,canyon,26.0,False,True,original,1.0,"{""ArrowUp,ArrowLeft"":26,""ArrowUp,ArrowRight"":10,""ArrowDown,ArrowLeft"":5,""ArrowDown,ArrowRight"":17}",36,,12.69,Female,5,norest,1107.9999999997672,767.0,ArrowUp,ArrowLeft,True,True,26.0,Children,35,True
787,43,204,8599,value training,False,./assets/img/canyon/memory/8.jpg,canyon,26.0,False,True,original,1.0,"{""ArrowUp,ArrowLeft"":26,""ArrowUp,ArrowRight"":10,""ArrowDown,ArrowLeft"":5,""ArrowDown,ArrowRight"":17}",37,,12.69,Female,5,norest,497.0,749.0,ArrowUp,ArrowLeft,True,True,26.0,Children,35,True
788,44,206,8599,value training,False,./assets/img/canyon/memory/15.jpg,canyon,26.0,False,True,original,1.0,"{""ArrowUp,ArrowLeft"":26,""ArrowUp,ArrowRight"":10,""ArrowDown,ArrowLeft"":5,""ArrowDown,ArrowRight"":17}",38,,12.69,Female,5,norest,662.0,743.0,ArrowUp,ArrowLeft,True,True,26.0,Children,35,True
789,45,208,8599,value training,False,./assets/img/canyon/memory/34.jpg,canyon,26.0,False,True,original,1.0,"{""ArrowUp,ArrowLeft"":26,""ArrowUp,ArrowRight"":10,""ArrowDown,ArrowLeft"":5,""ArrowDown,ArrowRight"":17}",39,,12.69,Female,5,norest,959.0,952.0,ArrowUp,ArrowLeft,True,True,26.0,Children,35,True
790,46,210,8599,value training,False,./assets/img/canyon/memory/12.jpg,canyon,26.0,False,True,original,1.0,"{""ArrowUp,ArrowLeft"":26,""ArrowUp,ArrowRight"":10,""ArrowDown,ArrowLeft"":5,""ArrowDown,ArrowRight"":17}",40,,12.69,Female,5,norest,979.0,841.0,ArrowUp,ArrowLeft,True,True,26.0,Children,35,True
792,48,214,8599,value training,False,./assets/img/canyon/memory/16.jpg,canyon,26.0,False,True,original,1.0,"{""ArrowUp,ArrowLeft"":26,""ArrowUp,ArrowRight"":10,""ArrowDown,ArrowLeft"":5,""ArrowDown,ArrowRight"":17}",41,,12.69,Female,5,norest,548.0,990.0,ArrowUp,ArrowLeft,True,True,26.0,Children,40,True
793,49,216,8599,value training,False,./assets/img/canyon/memory/39.jpg,canyon,26.0,False,True,original,1.0,"{""ArrowUp,ArrowLeft"":26,""ArrowUp,ArrowRight"":10,""ArrowDown,ArrowLeft"":5,""ArrowDown,ArrowRight"":17}",42,,12.69,Female,5,norest,620.0,730.0,ArrowUp,ArrowLeft,True,True,26.0,Children,40,True
824,80,293,8599,value training,False,./assets/img/ocean/memory/36.jpg,ocean,8.0,False,False,revaluation,2.0,"{""ArrowUp,ArrowLeft"":23,""ArrowUp,ArrowRight"":10,""ArrowDown,ArrowLeft"":8,""ArrowDown,ArrowRight"":30}",1,,12.69,Female,5,norest,1012.9999999997672,552.9999999997672,ArrowDown,ArrowLeft,True,False,30.0,Children,0,False
826,82,297,8599,value training,False,./assets/img/ocean/memory/10.jpg,ocean,30.0,False,True,revaluation,2.0,"{""ArrowUp,ArrowLeft"":23,""ArrowUp,ArrowRight"":10,""ArrowDown,ArrowLeft"":8,""ArrowDown,ArrowRight"":30}",2,,12.69,Female,5,norest,594.0000000002328,436.0,ArrowDown,ArrowRight,True,True,30.0,Children,0,True
827,83,299,8599,value training,False,./assets/img/ocean/memory/38.jpg,ocean,10.0,False,False,revaluation,2.0,"{""ArrowUp,ArrowLeft"":23,""ArrowUp,ArrowRight"":10,""ArrowDown,ArrowLeft"":8,""ArrowDown,ArrowRight"":30}",3,,12.69,Female,5,norest,493.0,502.0,ArrowUp,ArrowRight,False,False,30.0,Children,0,False
829,85,303,8599,value training,False,./assets/img/ocean/memory/15.jpg,ocean,23.0,False,False,revaluation,2.0,"{""ArrowUp,ArrowLeft"":23,""ArrowUp,ArrowRight"":10,""ArrowDown,ArrowLeft"":8,""ArrowDown,ArrowRight"":30}",4,,12.69,Female,5,norest,770.0,563.0,ArrowUp,ArrowLeft,False,True,30.0,Children,0,False
830,86,305,8599,value training,False,./assets/img/ocean/memory/31.jpg,ocean,30.0,False,True,revaluation,2.0,"{""ArrowUp,ArrowLeft"":23,""ArrowUp,ArrowRight"":10,""ArrowDown,ArrowLeft"":8,""ArrowDown,ArrowRight"":30}",5,,12.69,Female,5,norest,1075.9999999997672,602.9999999997672,ArrowDown,ArrowRight,True,True,30.0,Children,0,True
831,87,307,8599,value training,False,./assets/img/ocean/memory/41.jpg,ocean,30.0,False,True,revaluation,2.0,"{""ArrowUp,ArrowLeft"":23,""ArrowUp,ArrowRight"":10,""ArrowDown,ArrowLeft"":8,""ArrowDown,ArrowRight"":30}",6,,12.69,Female,5,norest,1298.0,765.0,ArrowDown,ArrowRight,True,True,30.0,Children,5,True
832,88,309,8599,value training,False,./assets/img/ocean/memory/34.jpg,ocean,30.0,False,True,revaluation,2.0,"{""ArrowUp,ArrowLeft"":23,""ArrowUp,ArrowRight"":10,""ArrowDown,ArrowLeft"":8,""ArrowDown,ArrowRight"":30}",7,,12.69,Female,5,norest,712.0,804.0000000002328,ArrowDown,ArrowRight,True,True,30.0,Children,5,True
835,91,315,8599,value training,False,./assets/img/ocean/memory/20.jpg,ocean,30.0,False,True,revaluation,2.0,"{""ArrowUp,ArrowLeft"":23,""ArrowUp,ArrowRight"":10,""ArrowDown,ArrowLeft"":8,""ArrowDown,ArrowRight"":30}",8,,12.69,Female,5,norest,921.0000000002328,651.0,ArrowDown,ArrowRight,True,True,30.0,Children,5,True
836,92,317,8599,value training,False,./assets/img/ocean/memory/39.jpg,ocean,30.0,False,True,revaluation,2.0,"{""ArrowUp,ArrowLeft"":23,""ArrowUp,ArrowRight"":10,""ArrowDown,ArrowLeft"":8,""ArrowDown,ArrowRight"":30}",9,,12.69,Female,5,norest,606.0,426.0,ArrowDown,ArrowRight,True,True,30.0,Children,5,True
837,93,319,8599,value training,False,./assets/img/ocean/memory/15.jpg,ocean,30.0,False,True,revaluation,2.0,"{""ArrowUp,ArrowLeft"":23,""ArrowUp,ArrowRight"":10,""ArrowDown,ArrowLeft"":8,""ArrowDown,ArrowRight"":30}",10,,12.69,Female,5,norest,816.0,400.0,ArrowDown,ArrowRight,True,True,30.0,Children,5,True
838,94,321,8599,value training,False,./assets/img/ocean/memory/0.jpg,ocean,30.0,False,True,revaluation,2.0,"{""ArrowUp,ArrowLeft"":23,""ArrowUp,ArrowRight"":10,""ArrowDown,ArrowLeft"":8,""ArrowDown,ArrowRight"":30}",11,,12.69,Female,5,norest,595.0,365.0,ArrowDown,ArrowRight,True,True,30.0,Children,10,True
839,95,323,8599,value training,False,./assets/img/ocean/memory/37.jpg,ocean,30.0,False,True,revaluation,2.0,"{""ArrowUp,ArrowLeft"":23,""ArrowUp,ArrowRight"":10,""ArrowDown,ArrowLeft"":8,""ArrowDown,ArrowRight"":30}",12,,12.69,Female,5,norest,452.0,589.0,ArrowDown,ArrowRight,True,True,30.0,Children,10,True
840,96,325,8599,value training,False,./assets/img/ocean/memory/37.jpg,ocean,30.0,False,True,revaluation,2.0,"{""ArrowUp,ArrowLeft"":23,""ArrowUp,ArrowRight"":10,""ArrowDown,ArrowLeft"":8,""ArrowDown,ArrowRight"":30}",13,,12.69,Female,5,norest,480.0,504.0,ArrowDown,ArrowRight,True,True,30.0,Children,10,True
841,97,327,8599,value training,False,./assets/img/ocean/memory/1.jpg,ocean,30.0,False,True,revaluation,2.0,"{""ArrowUp,ArrowLeft"":23,""ArrowUp,ArrowRight"":10,""ArrowDown,ArrowLeft"":8,""ArrowDown,ArrowRight"":30}",14,,12.69,Female,5,norest,568.0,359.00000000023283,ArrowDown,ArrowRight,True,True,30.0,Children,10,True
842,98,329,8599,value training,False,./assets/img/ocean/memory/12.jpg,ocean,30.0,False,True,revaluation,2.0,"{""ArrowUp,ArrowLeft"":23,""ArrowUp,ArrowRight"":10,""ArrowDown,ArrowLeft"":8,""ArrowDown,ArrowRight"":30}",15,,12.69,Female,5,norest,593.0,787.0000000002328,ArrowDown,ArrowRight,True,True,30.0,Children,10,True
844,100,333,8599,value training,False,./assets/img/ocean/memory/6.jpg,ocean,30.0,False,True,revaluation,2.0,"{""ArrowUp,ArrowLeft"":23,""ArrowUp,ArrowRight"":10,""ArrowDown,ArrowLeft"":8,""ArrowDown,ArrowRight"":30}",16,,12.69,Female,5,norest,596.0,574.0,ArrowDown,ArrowRight,True,True,30.0,Children,15,True
845,101,335,8599,value training,False,./assets/img/ocean/memory/6.jpg,ocean,30.0,False,True,revaluation,2.0,"{""ArrowUp,ArrowLeft"":23,""ArrowUp,ArrowRight"":10,""ArrowDown,ArrowLeft"":8,""ArrowDown,ArrowRight"":30}",17,,12.69,Female,5,norest,571.9999999997672,720.0,ArrowDown,ArrowRight,True,True,30.0,Children,15,True
846,102,337,8599,value training,False,./assets/img/ocean/memory/40.jpg,ocean,30.0,False,True,revaluation,2.0,"{""ArrowUp,ArrowLeft"":23,""ArrowUp,ArrowRight"":10,""ArrowDown,ArrowLeft"":8,""ArrowDown,ArrowRight"":30}",18,,12.69,Female,5,norest,508.0,1104.9999999997672,ArrowDown,ArrowRight,True,True,30.0,Children,15,True
847,103,339,8599,value training,False,./assets/img/ocean/memory/38.jpg,ocean,30.0,False,True,revaluation,2.0,"{""ArrowUp,ArrowLeft"":23,""ArrowUp,ArrowRight"":10,""ArrowDown,ArrowLeft"":8,""ArrowDown,ArrowRight"":30}",19,,12.69,Female,5,norest,590.0000000002328,705.0000000002328,ArrowDown,ArrowRight,True,True,30.0,Children,15,True
848,104,341,8599,value training,False,./assets/img/ocean/memory/34.jpg,ocean,30.0,False,True,revaluation,2.0,"{""ArrowUp,ArrowLeft"":23,""ArrowUp,ArrowRight"":10,""ArrowDown,ArrowLeft"":8,""ArrowDown,ArrowRight"":30}",20,,12.69,Female,5,norest,605.0,547.0,ArrowDown,ArrowRight,True,True,30.0,Children,15,True
849,105,343,8599,value training,False,./assets/img/ocean/memory/30.jpg,ocean,30.0,False,True,revaluation,2.0,"{""ArrowUp,ArrowLeft"":23,""ArrowUp,ArrowRight"":10,""ArrowDown,ArrowLeft"":8,""ArrowDown,ArrowRight"":30}",21,,12.69,Female,5,norest,810.9999999997672,622.0,ArrowDown,ArrowRight,True,True,30.0,Children,20,True
850,106,345,8599,value training,False,./assets/img/ocean/memory/39.jpg,ocean,30.0,False,True,revaluation,2.0,"{""ArrowUp,ArrowLeft"":23,""ArrowUp,ArrowRight"":10,""ArrowDown,ArrowLeft"":8,""ArrowDown,ArrowRight"":30}",22,,12.69,Female,5,norest,673.0,435.00000000023283,ArrowDown,ArrowRight,True,True,30.0,Children,20,True
851,107,347,8599,value training,False,./assets/img/ocean/memory/8.jpg,ocean,30.0,False,True,revaluation,2.0,"{""ArrowUp,ArrowLeft"":23,""ArrowUp,ArrowRight"":10,""ArrowDown,ArrowLeft"":8,""ArrowDown,ArrowRight"":30}",23,,12.69,Female,5,norest,639.0,640.0,ArrowDown,ArrowRight,True,True,30.0,Children,20,True
853,109,351,8599,value training,False,./assets/img/ocean/memory/10.jpg,ocean,30.0,False,True,revaluation,2.0,"{""ArrowUp,ArrowLeft"":23,""ArrowUp,ArrowRight"":10,""ArrowDown,ArrowLeft"":8,""ArrowDown,ArrowRight"":30}",24,,12.69,Female,5,norest,915.0,558.0,ArrowDown,ArrowRight,True,True,30.0,Children,20,True
854,110,353,8599,value training,False,./assets/img/ocean/memory/1.jpg,ocean,30.0,False,True,revaluation,2.0,"{""ArrowUp,ArrowLeft"":23,""ArrowUp,ArrowRight"":10,""ArrowDown,ArrowLeft"":8,""ArrowDown,ArrowRight"":30}",25,,12.69,Female,5,norest,671.0,602.0,ArrowDown,ArrowRight,True,True,30.0,Children,20,True
856,112,357,8599,value training,False,./assets/img/ocean/memory/33.jpg,ocean,30.0,False,True,revaluation,2.0,"{""ArrowUp,ArrowLeft"":23,""ArrowUp,ArrowRight"":10,""ArrowDown,ArrowLeft"":8,""ArrowDown,ArrowRight"":30}",26,,12.69,Female,5,norest,768.0,536.9999999997672,ArrowDown,ArrowRight,True,True,30.0,Children,25,True
857,113,359,8599,value training,False,./assets/img/ocean/memory/40.jpg,ocean,30.0,False,True,revaluation,2.0,"{""ArrowUp,ArrowLeft"":23,""ArrowUp,ArrowRight"":10,""ArrowDown,ArrowLeft"":8,""ArrowDown,ArrowRight"":30}",27,,12.69,Female,5,norest,785.0,689.0,ArrowDown,ArrowRight,True,True,30.0,Children,25,True
