,level_0,index,subject_id,task_part,timeout,stimulus,environment,score,isCatch,correct,block_condition,block_order,rewardMap,trial_num,ground_truth,age,gender,subject_condition,rest,rt0,rt1,response0,response1,is_optimal_first,is_optimal_second,optimal_score,categorical_age,trial_bin,is_optimal
1,1,119,9180,value training,False,./assets/img/canyon/memory/36.jpg,canyon,10.0,False,False,original,1.0,"{""ArrowUp,ArrowLeft"":23,""ArrowUp,ArrowRight"":10,""ArrowDown,ArrowLeft"":8,""ArrowDown,ArrowRight"":30}",1,,12.83,Male,7,norest,714.8000000119209,420.09999999403954,ArrowUp,ArrowRight,False,False,30.0,Children,0,False
2,2,121,9180,value training,False,./assets/img/canyon/memory/40.jpg,canyon,23.0,False,False,original,1.0,"{""ArrowUp,ArrowLeft"":23,""ArrowUp,ArrowRight"":10,""ArrowDown,ArrowLeft"":8,""ArrowDown,ArrowRight"":30}",2,,12.83,Male,7,norest,708.6999999880791,292.69999998807907,ArrowUp,ArrowLeft,False,True,30.0,Children,0,False
3,3,123,9180,value training,False,./assets/img/canyon/memory/34.jpg,canyon,8.0,False,False,original,1.0,"{""ArrowUp,ArrowLeft"":23,""ArrowUp,ArrowRight"":10,""ArrowDown,ArrowLeft"":8,""ArrowDown,ArrowRight"":30}",3,,12.83,Male,7,norest,599.5,434.0,ArrowDown,ArrowLeft,True,False,30.0,Children,0,False
6,6,129,9180,value training,False,./assets/img/canyon/memory/22.jpg,canyon,30.0,False,True,original,1.0,"{""ArrowUp,ArrowLeft"":23,""ArrowUp,ArrowRight"":10,""ArrowDown,ArrowLeft"":8,""ArrowDown,ArrowRight"":30}",4,,12.83,Male,7,norest,531.0,452.5,ArrowDown,ArrowRight,True,True,30.0,Children,0,True
7,7,131,9180,value training,False,./assets/img/canyon/memory/37.jpg,canyon,30.0,False,True,original,1.0,"{""ArrowUp,ArrowLeft"":23,""ArrowUp,ArrowRight"":10,""ArrowDown,ArrowLeft"":8,""ArrowDown,ArrowRight"":30}",5,,12.83,Male,7,norest,566.2999999821186,380.40000000596046,ArrowDown,ArrowRight,True,True,30.0,Children,0,True
8,8,133,9180,value training,False,./assets/img/canyon/memory/11.jpg,canyon,30.0,False,True,original,1.0,"{""ArrowUp,ArrowLeft"":23,""ArrowUp,ArrowRight"":10,""ArrowDown,ArrowLeft"":8,""ArrowDown,ArrowRight"":30}",6,,12.83,Male,7,norest,531.3000000119209,433.7999999821186,ArrowDown,ArrowRight,True,True,30.0,Children,5,True
9,9,135,9180,value training,False,./assets/img/canyon/memory/18.jpg,canyon,30.0,False,True,original,1.0,"{""ArrowUp,ArrowLeft"":23,""ArrowUp,ArrowRight"":10,""ArrowDown,ArrowLeft"":8,""ArrowDown,ArrowRight"":30}",7,,12.83,Male,7,norest,640.9000000059605,339.5,ArrowDown,ArrowRight,True,True,30.0,Children,5,True
10,10,137,9180,value training,False,./assets/img/canyon/memory/11.jpg,canyon,30.0,False,True,original,1.0,"{""ArrowUp,ArrowLeft"":23,""ArrowUp,ArrowRight"":10,""ArrowDown,ArrowLeft"":8,""ArrowDown,ArrowRight"":30}",8,,12.83,Male,7,norest,530.5999999940395,480.30000001192093,ArrowDown,ArrowRight,True,True,30.0,Children,5,True
11,11,139,9180,value training,False,./assets/img/canyon/memory/39.jpg,canyon,30.0,False,True,original,1.0,"{""ArrowUp,ArrowLeft"":23,""ArrowUp,ArrowRight"":10,""ArrowDown,ArrowLeft"":8,""ArrowDown,ArrowRight"":30}",9,,12.83,Male,7,norest,807.2999999821186,551.0999999940395,ArrowDown,ArrowRight,True,True,30.0,Children,5,True
12,12,141,9180,value training,False,./assets/img/canyon/memory/20.jpg,canyon,30.0,False,True,original,1.0,"{""ArrowUp,ArrowLeft"":23,""ArrowUp,ArrowRight"":10,""ArrowDown,ArrowLeft"":8,""ArrowDown,ArrowRight"":30}",10,,12.83,Male,7,norest,556.8000000119209,499.69999998807907,ArrowDown,ArrowRight,True,True,30.0,Children,5,True
13,13,143,9180,value training,False,./assets/img/canyon/memory/16.jpg,canyon,30.0,False,True,original,1.0,"{""ArrowUp,ArrowLeft"":23,""ArrowUp,ArrowRight"":10,""ArrowDown,ArrowLeft"":8,""ArrowDown,ArrowRight"":30}",11,,12.83,Male,7,norest,555.5,850.0,ArrowDown,ArrowRight,True,True,30.0,Children,10,True
14,14,145,9180,value training,False,./assets/img/canyon/memory/0.jpg,canyon,30.0,False,True,original,1.0,"{""ArrowUp,ArrowLeft"":23,""ArrowUp,ArrowRight"":10,""ArrowDown,ArrowLeft"":8,""ArrowDown,ArrowRight"":30}",12,,12.83,Male,7,norest,561.0,175.19999998807907,ArrowDown,ArrowRight,True,True,30.0,Children,10,True
15,15,147,9180,value training,False,./assets/img/canyon/memory/16.jpg,canyon,30.0,False,True,original,1.0,"{""ArrowUp,ArrowLeft"":23,""ArrowUp,ArrowRight"":10,""ArrowDown,ArrowLeft"":8,""ArrowDown,ArrowRight"":30}",13,,12.83,Male,7,norest,373.59999999403954,613.0,ArrowDown,ArrowRight,True,True,30.0,Children,10,True
16,16,149,9180,value training,False,./assets/img/canyon/memory/41.jpg,canyon,30.0,False,True,original,1.0,"{""ArrowUp,ArrowLeft"":23,""ArrowUp,ArrowRight"":10,""ArrowDown,ArrowLeft"":8,""ArrowDown,ArrowRight"":30}",14,,12.83,Male,7,norest,470.39999997615814,236.5,ArrowDown,ArrowRight,True,True,30.0,Children,10,True
17,17,151,9180,value training,False,./assets/img/canyon/memory/34.jpg,canyon,30.0,False,True,original,1.0,"{""ArrowUp,ArrowLeft"":23,""ArrowUp,ArrowRight"":10,""ArrowDown,ArrowLeft"":8,""ArrowDown,ArrowRight"":30}",15,,12.83,Male,7,norest,438.40000000596046,556.6999999880791,ArrowDown,ArrowRight,True,True,30.0,Children,10,True
18,18,153,9180,value training,False,./assets/img/canyon/memory/20.jpg,canyon,30.0,False,True,original,1.0,"{""ArrowUp,ArrowLeft"":23,""ArrowUp,ArrowRight"":10,""ArrowDown,ArrowLeft"":8,""ArrowDown,ArrowRight"":30}",16,,12.83,Male,7,norest,898.5,208.7000000178814,ArrowDown,ArrowRight,True,True,30.0,Children,15,True
19,19,155,9180,value training,False,./assets/img/canyon/memory/12.jpg,canyon,30.0,False,True,original,1.0,"{""ArrowUp,ArrowLeft"":23,""ArrowUp,ArrowRight"":10,""ArrowDown,ArrowLeft"":8,""ArrowDown,ArrowRight"":30}",17,,12.83,Male,7,norest,558.7999999821186,357.40000000596046,ArrowDown,ArrowRight,True,True,30.0,Children,15,True
20,20,157,9180,value training,False,./assets/img/canyon/memory/29.jpg,canyon,30.0,False,True,original,1.0,"{""ArrowUp,ArrowLeft"":23,""ArrowUp,ArrowRight"":10,""ArrowDown,ArrowLeft"":8,""ArrowDown,ArrowRight"":30}",18,,12.83,Male,7,norest,684.4000000059605,619.0,ArrowDown,ArrowRight,True,True,30.0,Children,15,True
21,21,159,9180,value training,False,./assets/img/canyon/memory/22.jpg,canyon,30.0,False,True,original,1.0,"{""ArrowUp,ArrowLeft"":23,""ArrowUp,ArrowRight"":10,""ArrowDown,ArrowLeft"":8,""ArrowDown,ArrowRight"":30}",19,,12.83,Male,7,norest,536.2000000178814,871.4000000059605,ArrowDown,ArrowRight,True,True,30.0,Children,15,True
23,23,163,9180,value training,False,./assets/img/canyon/memory/41.jpg,canyon,30.0,False,True,original,1.0,"{""ArrowUp,ArrowLeft"":23,""ArrowUp,ArrowRight"":10,""ArrowDown,ArrowLeft"":8,""ArrowDown,ArrowRight"":30}",20,,12.83,Male,7,norest,582.1000000238419,213.0,ArrowDown,ArrowRight,True,True,30.0,Children,15,True
24,24,165,9180,value training,False,./assets/img/canyon/memory/40.jpg,canyon,30.0,False,True,original,1.0,"{""ArrowUp,ArrowLeft"":23,""ArrowUp,ArrowRight"":10,""ArrowDown,ArrowLeft"":8,""ArrowDown,ArrowRight"":30}",21,,12.83,Male,7,norest,419.2000000178814,129.7999999821186,ArrowDown,ArrowRight,True,True,30.0,Children,20,True
25,25,167,9180,value training,False,./assets/img/canyon/memory/6.jpg,canyon,30.0,False,True,original,1.0,"{""ArrowUp,ArrowLeft"":23,""ArrowUp,ArrowRight"":10,""ArrowDown,ArrowLeft"":8,""ArrowDown,ArrowRight"":30}",22,,12.83,Male,7,norest,400.80000001192093,479.30000001192093,ArrowDown,ArrowRight,True,True,30.0,Children,20,True
26,26,169,9180,value training,False,./assets/img/canyon/memory/30.jpg,canyon,30.0,False,True,original,1.0,"{""ArrowUp,ArrowLeft"":23,""ArrowUp,ArrowRight"":10,""ArrowDown,ArrowLeft"":8,""ArrowDown,ArrowRight"":30}",23,,12.83,Male,7,norest,712.1000000238419,1286.0999999940395,ArrowDown,ArrowRight,True,True,30.0,Children,20,True
27,27,171,9180,value training,False,./assets/img/canyon/memory/30.jpg,canyon,30.0,False,True,original,1.0,"{""ArrowUp,ArrowLeft"":23,""ArrowUp,ArrowRight"":10,""ArrowDown,ArrowLeft"":8,""ArrowDown,ArrowRight"":30}",24,,12.83,Male,7,norest,694.2999999821186,1132.5,ArrowDown,ArrowRight,True,True,30.0,Children,20,True
28,28,173,9180,value training,False,./assets/img/canyon/memory/17.jpg,canyon,30.0,False,True,original,1.0,"{""ArrowUp,ArrowLeft"":23,""ArrowUp,ArrowRight"":10,""ArrowDown,ArrowLeft"":8,""ArrowDown,ArrowRight"":30}",25,,12.83,Male,7,norest,835.3000000119209,1434.0,ArrowDown,ArrowRight,True,True,30.0,Children,20,True
29,29,175,9180,value training,False,./assets/img/canyon/memory/35.jpg,canyon,30.0,False,True,original,1.0,"{""ArrowUp,ArrowLeft"":23,""ArrowUp,ArrowRight"":10,""ArrowDown,ArrowLeft"":8,""ArrowDown,ArrowRight"":30}",26,,12.83,Male,7,norest,745.3999999761581,719.4000000059605,ArrowDown,ArrowRight,True,True,30.0,Children,25,True
30,30,177,9180,value training,False,./assets/img/canyon/memory/5.jpg,canyon,30.0,False,True,original,1.0,"{""ArrowUp,ArrowLeft"":23,""ArrowUp,ArrowRight"":10,""ArrowDown,ArrowLeft"":8,""ArrowDown,ArrowRight"":30}",27,,12.83,Male,7,norest,421.7000000178814,846.4000000059605,ArrowDown,ArrowRight,True,True,30.0,Children,25,True
31,31,179,9180,value training,False,./assets/img/canyon/memory/6.jpg,canyon,30.0,False,True,original,1.0,"{""ArrowUp,ArrowLeft"":23,""ArrowUp,ArrowRight"":10,""ArrowDown,ArrowLeft"":8,""ArrowDown,ArrowRight"":30}",28,,12.83,Male,7,norest,427.0,386.09999999403954,ArrowDown,ArrowRight,True,True,30.0,Children,25,True
32,32,181,9180,value training,False,./assets/img/canyon/memory/2.jpg,canyon,30.0,False,True,original,1.0,"{""ArrowUp,ArrowLeft"":23,""ArrowUp,ArrowRight"":10,""ArrowDown,ArrowLeft"":8,""ArrowDown,ArrowRight"":30}",29,,12.83,Male,7,norest,632.4000000059605,1896.1000000238419,ArrowDown,ArrowRight,True,True,30.0,Children,25,True
33,33,183,9180,value training,False,./assets/img/canyon/memory/0.jpg,canyon,30.0,False,True,original,1.0,"{""ArrowUp,ArrowLeft"":23,""ArrowUp,ArrowRight"":10,""ArrowDown,ArrowLeft"":8,""ArrowDown,ArrowRight"":30}",30,,12.83,Male,7,norest,429.7999999821186,773.4000000059605,ArrowDown,ArrowRight,True,True,30.0,Children,25,True
34,34,185,9180,value training,False,./assets/img/canyon/memory/39.jpg,canyon,30.0,False,True,original,1.0,"{""ArrowUp,ArrowLeft"":23,""ArrowUp,ArrowRight"":10,""ArrowDown,ArrowLeft"":8,""ArrowDown,ArrowRight"":30}",31,,12.83,Male,7,norest,741.4000000059605,605.3000000119209,ArrowDown,ArrowRight,True,True,30.0,Children,30,True
36,36,189,9180,value training,False,./assets/img/canyon/memory/37.jpg,canyon,30.0,False,True,original,1.0,"{""ArrowUp,ArrowLeft"":23,""ArrowUp,ArrowRight"":10,""ArrowDown,ArrowLeft"":8,""ArrowDown,ArrowRight"":30}",32,,12.83,Male,7,norest,457.40000000596046,592.1999999880791,ArrowDown,ArrowRight,True,True,30.0,Children,30,True
37,37,191,9180,value training,False,./assets/img/canyon/memory/2.jpg,canyon,30.0,False,True,original,1.0,"{""ArrowUp,ArrowLeft"":23,""ArrowUp,ArrowRight"":10,""ArrowDown,ArrowLeft"":8,""ArrowDown,ArrowRight"":30}",33,,12.83,Male,7,norest,573.5999999940395,580.0999999940395,ArrowDown,ArrowRight,True,True,30.0,Children,30,True
38,38,193,9180,value training,False,./assets/img/canyon/memory/18.jpg,canyon,30.0,False,True,original,1.0,"{""ArrowUp,ArrowLeft"":23,""ArrowUp,ArrowRight"":10,""ArrowDown,ArrowLeft"":8,""ArrowDown,ArrowRight"":30}",34,,12.83,Male,7,norest,522.3999999761581,512.9000000059605,ArrowDown,ArrowRight,True,True,30.0,Children,30,True
40,40,197,9180,value training,False,./assets/img/canyon/memory/5.jpg,canyon,30.0,False,True,original,1.0,"{""ArrowUp,ArrowLeft"":23,""ArrowUp,ArrowRight"":10,""ArrowDown,ArrowLeft"":8,""ArrowDown,ArrowRight"":30}",35,,12.83,Male,7,norest,854.4000000059605,1173.5999999940395,ArrowDown,ArrowRight,True,True,30.0,Children,30,True
41,41,199,9180,value training,False,./assets/img/canyon/memory/1.jpg,canyon,30.0,False,True,original,1.0,"{""ArrowUp,ArrowLeft"":23,""ArrowUp,ArrowRight"":10,""ArrowDown,ArrowLeft"":8,""ArrowDown,ArrowRight"":30}",36,,12.83,Male,7,norest,1065.699999988079,560.5,ArrowDown,ArrowRight,True,True,30.0,Children,35,True
42,42,201,9180,value training,False,./assets/img/canyon/memory/36.jpg,canyon,30.0,False,True,original,1.0,"{""ArrowUp,ArrowLeft"":23,""ArrowUp,ArrowRight"":10,""ArrowDown,ArrowLeft"":8,""ArrowDown,ArrowRight"":30}",37,,12.83,Male,7,norest,633.9000000059605,560.1999999880791,ArrowDown,ArrowRight,True,True,30.0,Children,35,True
45,45,207,9180,value training,False,./assets/img/canyon/memory/29.jpg,canyon,30.0,False,True,original,1.0,"{""ArrowUp,ArrowLeft"":23,""ArrowUp,ArrowRight"":10,""ArrowDown,ArrowLeft"":8,""ArrowDown,ArrowRight"":30}",39,,12.83,Male,7,norest,461.2999999821186,676.7999999821186,ArrowDown,ArrowRight,True,True,30.0,Children,35,True
46,46,209,9180,value training,False,./assets/img/canyon/memory/17.jpg,canyon,30.0,False,True,original,1.0,"{""ArrowUp,ArrowLeft"":23,""ArrowUp,ArrowRight"":10,""ArrowDown,ArrowLeft"":8,""ArrowDown,ArrowRight"":30}",40,,12.83,Male,7,norest,443.80000001192093,291.19999998807907,ArrowDown,ArrowRight,True,True,30.0,Children,35,True
48,48,213,9180,value training,False,./assets/img/canyon/memory/35.jpg,canyon,30.0,False,True,original,1.0,"{""ArrowUp,ArrowLeft"":23,""ArrowUp,ArrowRight"":10,""ArrowDown,ArrowLeft"":8,""ArrowDown,ArrowRight"":30}",41,,12.83,Male,7,norest,471.59999999403954,525.0999999940395,ArrowDown,ArrowRight,True,True,30.0,Children,40,True
49,49,215,9180,value training,False,./assets/img/canyon/memory/12.jpg,canyon,30.0,False,True,original,1.0,"{""ArrowUp,ArrowLeft"":23,""ArrowUp,ArrowRight"":10,""ArrowDown,ArrowLeft"":8,""ArrowDown,ArrowRight"":30}",42,,12.83,Male,7,norest,454.2999999821186,630.8000000119209,ArrowDown,ArrowRight,True,True,30.0,Children,40,True
80,80,292,9180,value training,False,./assets/img/ocean/memory/0.jpg,ocean,26.0,False,True,revaluation,2.0,"{""ArrowUp,ArrowLeft"":26,""ArrowUp,ArrowRight"":10,""ArrowDown,ArrowLeft"":5,""ArrowDown,ArrowRight"":17}",1,,12.83,Male,7,norest,754.6999999880791,303.69999998807907,ArrowUp,ArrowLeft,True,True,26.0,Children,0,True
81,81,294,9180,value training,False,./assets/img/ocean/memory/18.jpg,ocean,10.0,False,False,revaluation,2.0,"{""ArrowUp,ArrowLeft"":26,""ArrowUp,ArrowRight"":10,""ArrowDown,ArrowLeft"":5,""ArrowDown,ArrowRight"":17}",2,,12.83,Male,7,norest,532.5999999940395,289.40000000596046,ArrowUp,ArrowRight,True,False,26.0,Children,0,False
82,82,296,9180,value training,False,./assets/img/ocean/memory/40.jpg,ocean,17.0,False,False,revaluation,2.0,"{""ArrowUp,ArrowLeft"":26,""ArrowUp,ArrowRight"":10,""ArrowDown,ArrowLeft"":5,""ArrowDown,ArrowRight"":17}",3,,12.83,Male,7,norest,607.1000000238419,575.0,ArrowDown,ArrowRight,False,True,26.0,Children,0,False
84,84,300,9180,value training,False,./assets/img/ocean/memory/22.jpg,ocean,5.0,False,False,revaluation,2.0,"{""ArrowUp,ArrowLeft"":26,""ArrowUp,ArrowRight"":10,""ArrowDown,ArrowLeft"":5,""ArrowDown,ArrowRight"":17}",4,,12.83,Male,7,norest,435.5,321.09999999403954,ArrowDown,ArrowLeft,False,False,26.0,Children,0,False
85,85,302,9180,value training,False,./assets/img/ocean/memory/11.jpg,ocean,26.0,False,True,revaluation,2.0,"{""ArrowUp,ArrowLeft"":26,""ArrowUp,ArrowRight"":10,""ArrowDown,ArrowLeft"":5,""ArrowDown,ArrowRight"":17}",5,,12.83,Male,7,norest,36.900000005960464,316.0,ArrowUp,ArrowLeft,True,True,26.0,Children,0,True
86,86,304,9180,value training,False,./assets/img/ocean/memory/2.jpg,ocean,26.0,False,True,revaluation,2.0,"{""ArrowUp,ArrowLeft"":26,""ArrowUp,ArrowRight"":10,""ArrowDown,ArrowLeft"":5,""ArrowDown,ArrowRight"":17}",6,,12.83,Male,7,norest,385.40000000596046,465.30000001192093,ArrowUp,ArrowLeft,True,True,26.0,Children,5,True
88,88,308,9180,value training,False,./assets/img/ocean/memory/20.jpg,ocean,26.0,False,True,revaluation,2.0,"{""ArrowUp,ArrowLeft"":26,""ArrowUp,ArrowRight"":10,""ArrowDown,ArrowLeft"":5,""ArrowDown,ArrowRight"":17}",7,,12.83,Male,7,norest,366.09999999403954,524.9000000059605,ArrowUp,ArrowLeft,True,True,26.0,Children,5,True
89,89,310,9180,value training,False,./assets/img/ocean/memory/12.jpg,ocean,26.0,False,True,revaluation,2.0,"{""ArrowUp,ArrowLeft"":26,""ArrowUp,ArrowRight"":10,""ArrowDown,ArrowLeft"":5,""ArrowDown,ArrowRight"":17}",8,,12.83,Male,7,norest,555.8999999761581,578.5999999940395,ArrowUp,ArrowLeft,True,True,26.0,Children,5,True
90,90,312,9180,value training,False,./assets/img/ocean/memory/39.jpg,ocean,26.0,False,True,revaluation,2.0,"{""ArrowUp,ArrowLeft"":26,""ArrowUp,ArrowRight"":10,""ArrowDown,ArrowLeft"":5,""ArrowDown,ArrowRight"":17}",9,,12.83,Male,7,norest,481.69999998807907,761.9000000059605,ArrowUp,ArrowLeft,True,True,26.0,Children,5,True
91,91,314,9180,value training,False,./assets/img/ocean/memory/5.jpg,ocean,26.0,False,True,revaluation,2.0,"{""ArrowUp,ArrowLeft"":26,""ArrowUp,ArrowRight"":10,""ArrowDown,ArrowLeft"":5,""ArrowDown,ArrowRight"":17}",10,,12.83,Male,7,norest,497.40000000596046,367.60000002384186,ArrowUp,ArrowLeft,True,True,26.0,Children,5,True
93,93,318,9180,value training,False,./assets/img/ocean/memory/30.jpg,ocean,26.0,False,True,revaluation,2.0,"{""ArrowUp,ArrowLeft"":26,""ArrowUp,ArrowRight"":10,""ArrowDown,ArrowLeft"":5,""ArrowDown,ArrowRight"":17}",11,,12.83,Male,7,norest,571.5,217.80000001192093,ArrowUp,ArrowLeft,True,True,26.0,Children,10,True
94,94,320,9180,value training,False,./assets/img/ocean/memory/34.jpg,ocean,26.0,False,True,revaluation,2.0,"{""ArrowUp,ArrowLeft"":26,""ArrowUp,ArrowRight"":10,""ArrowDown,ArrowLeft"":5,""ArrowDown,ArrowRight"":17}",12,,12.83,Male,7,norest,480.80000001192093,464.09999999403954,ArrowUp,ArrowLeft,True,True,26.0,Children,10,True
95,95,322,9180,value training,False,./assets/img/ocean/memory/36.jpg,ocean,26.0,False,True,revaluation,2.0,"{""ArrowUp,ArrowLeft"":26,""ArrowUp,ArrowRight"":10,""ArrowDown,ArrowLeft"":5,""ArrowDown,ArrowRight"":17}",13,,12.83,Male,7,norest,525.8000000119209,591.0999999940395,ArrowUp,ArrowLeft,True,True,26.0,Children,10,True
96,96,324,9180,value training,False,./assets/img/ocean/memory/5.jpg,ocean,26.0,False,True,revaluation,2.0,"{""ArrowUp,ArrowLeft"":26,""ArrowUp,ArrowRight"":10,""ArrowDown,ArrowLeft"":5,""ArrowDown,ArrowRight"":17}",14,,12.83,Male,7,norest,541.6999999880791,324.7000000178814,ArrowUp,ArrowLeft,True,True,26.0,Children,10,True
97,97,326,9180,value training,False,./assets/img/ocean/memory/6.jpg,ocean,26.0,False,True,revaluation,2.0,"{""ArrowUp,ArrowLeft"":26,""ArrowUp,ArrowRight"":10,""ArrowDown,ArrowLeft"":5,""ArrowDown,ArrowRight"":17}",15,,12.83,Male,7,norest,516.7999999821186,507.7000000178814,ArrowUp,ArrowLeft,True,True,26.0,Children,10,True
98,98,328,9180,value training,False,./assets/img/ocean/memory/12.jpg,ocean,26.0,False,True,revaluation,2.0,"{""ArrowUp,ArrowLeft"":26,""ArrowUp,ArrowRight"":10,""ArrowDown,ArrowLeft"":5,""ArrowDown,ArrowRight"":17}",16,,12.83,Male,7,norest,564.0999999940395,1071.199999988079,ArrowUp,ArrowLeft,True,True,26.0,Children,15,True
99,99,330,9180,value training,False,./assets/img/ocean/memory/36.jpg,ocean,26.0,False,True,revaluation,2.0,"{""ArrowUp,ArrowLeft"":26,""ArrowUp,ArrowRight"":10,""ArrowDown,ArrowLeft"":5,""ArrowDown,ArrowRight"":17}",17,,12.83,Male,7,norest,518.7000000178814,637.5999999940395,ArrowUp,ArrowLeft,True,True,26.0,Children,15,True
100,100,332,9180,value training,False,./assets/img/ocean/memory/35.jpg,ocean,26.0,False,True,revaluation,2.0,"{""ArrowUp,ArrowLeft"":26,""ArrowUp,ArrowRight"":10,""ArrowDown,ArrowLeft"":5,""ArrowDown,ArrowRight"":17}",18,,12.83,Male,7,norest,524.3000000119209,867.3000000119209,ArrowUp,ArrowLeft,True,True,26.0,Children,15,True
101,101,334,9180,value training,False,./assets/img/ocean/memory/17.jpg,ocean,26.0,False,True,revaluation,2.0,"{""ArrowUp,ArrowLeft"":26,""ArrowUp,ArrowRight"":10,""ArrowDown,ArrowLeft"":5,""ArrowDown,ArrowRight"":17}",19,,12.83,Male,7,norest,552.2000000178814,1175.5999999940395,ArrowUp,ArrowLeft,True,True,26.0,Children,15,True
102,102,336,9180,value training,False,./assets/img/ocean/memory/39.jpg,ocean,26.0,False,True,revaluation,2.0,"{""ArrowUp,ArrowLeft"":26,""ArrowUp,ArrowRight"":10,""ArrowDown,ArrowLeft"":5,""ArrowDown,ArrowRight"":17}",20,,12.83,Male,7,norest,654.5999999940395,989.3999999761581,ArrowUp,ArrowLeft,True,True,26.0,Children,15,True
103,103,338,9180,value training,False,./assets/img/ocean/memory/41.jpg,ocean,26.0,False,True,revaluation,2.0,"{""ArrowUp,ArrowLeft"":26,""ArrowUp,ArrowRight"":10,""ArrowDown,ArrowLeft"":5,""ArrowDown,ArrowRight"":17}",21,,12.83,Male,7,norest,619.4000000059605,1057.5,ArrowUp,ArrowLeft,True,True,26.0,Children,20,True
104,104,340,9180,value training,False,./assets/img/ocean/memory/41.jpg,ocean,26.0,False,True,revaluation,2.0,"{""ArrowUp,ArrowLeft"":26,""ArrowUp,ArrowRight"":10,""ArrowDown,ArrowLeft"":5,""ArrowDown,ArrowRight"":17}",22,,12.83,Male,7,norest,624.9000000059605,616.0,ArrowUp,ArrowLeft,True,True,26.0,Children,20,True
105,105,342,9180,value training,False,./assets/img/ocean/memory/1.jpg,ocean,26.0,False,True,revaluation,2.0,"{""ArrowUp,ArrowLeft"":26,""ArrowUp,ArrowRight"":10,""ArrowDown,ArrowLeft"":5,""ArrowDown,ArrowRight"":17}",23,,12.83,Male,7,norest,460.80000001192093,1092.300000011921,ArrowUp,ArrowLeft,True,True,26.0,Children,20,True
106,106,344,9180,value training,False,./assets/img/ocean/memory/2.jpg,ocean,26.0,False,True,revaluation,2.0,"{""ArrowUp,ArrowLeft"":26,""ArrowUp,ArrowRight"":10,""ArrowDown,ArrowLeft"":5,""ArrowDown,ArrowRight"":17}",24,,12.83,Male,7,norest,666.4000000059605,577.0999999940395,ArrowUp,ArrowLeft,True,True,26.0,Children,20,True
107,107,346,9180,value training,False,./assets/img/ocean/memory/11.jpg,ocean,26.0,False,True,revaluation,2.0,"{""ArrowUp,ArrowLeft"":26,""ArrowUp,ArrowRight"":10,""ArrowDown,ArrowLeft"":5,""ArrowDown,ArrowRight"":17}",25,,12.83,Male,7,norest,727.1999999880791,429.09999999403954,ArrowUp,ArrowLeft,True,True,26.0,Children,20,True
108,108,348,9180,value training,False,./assets/img/ocean/memory/16.jpg,ocean,26.0,False,True,revaluation,2.0,"{""ArrowUp,ArrowLeft"":26,""ArrowUp,ArrowRight"":10,""ArrowDown,ArrowLeft"":5,""ArrowDown,ArrowRight"":17}",26,,12.83,Male,7,norest,444.5,1595.2999999821186,ArrowUp,ArrowLeft,True,True,26.0,Children,25,True
112,112,356,9180,value training,False,./assets/img/ocean/memory/35.jpg,ocean,26.0,False,True,revaluation,2.0,"{""ArrowUp,ArrowLeft"":26,""ArrowUp,ArrowRight"":10,""ArrowDown,ArrowLeft"":5,""ArrowDown,ArrowRight"":17}",27,,12.83,Male,7,norest,543.8999999761581,494.80000001192093,ArrowUp,ArrowLeft,True,True,26.0,Children,25,True
113,113,358,9180,value training,False,./assets/img/ocean/memory/18.jpg,ocean,26.0,False,True,revaluation,2.0,"{""ArrowUp,ArrowLeft"":26,""ArrowUp,ArrowRight"":10,""ArrowDown,ArrowLeft"":5,""ArrowDown,ArrowRight"":17}",28,,12.83,Male,7,norest,590.9000000059605,374.5,ArrowUp,ArrowLeft,True,True,26.0,Children,25,True
115,115,362,9180,value training,False,./assets/img/ocean/memory/30.jpg,ocean,26.0,False,True,revaluation,2.0,"{""ArrowUp,ArrowLeft"":26,""ArrowUp,ArrowRight"":10,""ArrowDown,ArrowLeft"":5,""ArrowDown,ArrowRight"":17}",29,,12.83,Male,7,norest,531.9000000059605,1339.9000000059605,ArrowUp,ArrowLeft,True,True,26.0,Children,25,True
116,116,364,9180,value training,False,./assets/img/ocean/memory/29.jpg,ocean,26.0,False,True,revaluation,2.0,"{""ArrowUp,ArrowLeft"":26,""ArrowUp,ArrowRight"":10,""ArrowDown,ArrowLeft"":5,""ArrowDown,ArrowRight"":17}",30,,12.83,Male,7,norest,571.0999999940395,578.0999999940395,ArrowUp,ArrowLeft,True,True,26.0,Children,25,True
117,117,366,9180,value training,False,./assets/img/ocean/memory/16.jpg,ocean,26.0,False,True,revaluation,2.0,"{""ArrowUp,ArrowLeft"":26,""ArrowUp,ArrowRight"":10,""ArrowDown,ArrowLeft"":5,""ArrowDown,ArrowRight"":17}",31,,12.83,Male,7,norest,679.5999999940395,623.9000000059605,ArrowUp,ArrowLeft,True,True,26.0,Children,30,True
118,118,368,9180,value training,False,./assets/img/ocean/memory/6.jpg,ocean,26.0,False,True,revaluation,2.0,"{""ArrowUp,ArrowLeft"":26,""ArrowUp,ArrowRight"":10,""ArrowDown,ArrowLeft"":5,""ArrowDown,ArrowRight"":17}",32,,12.83,Male,7,norest,566.2999999821186,596.6999999880791,ArrowUp,ArrowLeft,True,True,26.0,Children,30,True
120,120,372,9180,value training,False,./assets/img/ocean/memory/17.jpg,ocean,26.0,False,True,revaluation,2.0,"{""ArrowUp,ArrowLeft"":26,""ArrowUp,ArrowRight"":10,""ArrowDown,ArrowLeft"":5,""ArrowDown,ArrowRight"":17}",33,,12.83,Male,7,norest,458.30000001192093,585.7999999821186,ArrowUp,ArrowLeft,True,True,26.0,Children,30,True
121,121,374,9180,value training,False,./assets/img/ocean/memory/40.jpg,ocean,26.0,False,True,revaluation,2.0,"{""ArrowUp,ArrowLeft"":26,""ArrowUp,ArrowRight"":10,""ArrowDown,ArrowLeft"":5,""ArrowDown,ArrowRight"":17}",34,,12.83,Male,7,norest,613.5999999940395,1989.0,ArrowUp,ArrowLeft,True,True,26.0,Children,30,True
122,122,376,9180,value training,False,./assets/img/ocean/memory/37.jpg,ocean,26.0,False,True,revaluation,2.0,"{""ArrowUp,ArrowLeft"":26,""ArrowUp,ArrowRight"":10,""ArrowDown,ArrowLeft"":5,""ArrowDown,ArrowRight"":17}",35,,12.83,Male,7,norest,453.40000000596046,548.1999999880791,ArrowUp,ArrowLeft,True,True,26.0,Children,30,True
123,123,378,9180,value training,False,./assets/img/ocean/memory/29.jpg,ocean,26.0,False,True,revaluation,2.0,"{""ArrowUp,ArrowLeft"":26,""ArrowUp,ArrowRight"":10,""ArrowDown,ArrowLeft"":5,""ArrowDown,ArrowRight"":17}",36,,12.83,Male,7,norest,483.09999999403954,445.39999997615814,ArrowUp,ArrowLeft,True,True,26.0,Children,35,True
124,124,380,9180,value training,False,./assets/img/ocean/memory/0.jpg,ocean,26.0,False,True,revaluation,2.0,"{""ArrowUp,ArrowLeft"":26,""ArrowUp,ArrowRight"":10,""ArrowDown,ArrowLeft"":5,""ArrowDown,ArrowRight"":17}",37,,12.83,Male,7,norest,265.40000000596046,256.89999997615814,ArrowUp,ArrowLeft,True,True,26.0,Children,35,True
125,125,382,9180,value training,False,./assets/img/ocean/memory/1.jpg,ocean,26.0,False,True,revaluation,2.0,"{""ArrowUp,ArrowLeft"":26,""ArrowUp,ArrowRight"":10,""ArrowDown,ArrowLeft"":5,""ArrowDown,ArrowRight"":17}",38,,12.83,Male,7,norest,369.09999999403954,679.3000000119209,ArrowUp,ArrowLeft,True,True,26.0,Children,35,True
126,126,384,9180,value training,False,./assets/img/ocean/memory/20.jpg,ocean,26.0,False,True,revaluation,2.0,"{""ArrowUp,ArrowLeft"":26,""ArrowUp,ArrowRight"":10,""ArrowDown,ArrowLeft"":5,""ArrowDown,ArrowRight"":17}",39,,12.83,Male,7,norest,503.09999999403954,525.2999999821186,ArrowUp,ArrowLeft,True,True,26.0,Children,35,True
127,127,386,9180,value training,False,./assets/img/ocean/memory/22.jpg,ocean,26.0,False,True,revaluation,2.0,"{""ArrowUp,ArrowLeft"":26,""ArrowUp,ArrowRight"":10,""ArrowDown,ArrowLeft"":5,""ArrowDown,ArrowRight"":17}",40,,12.83,Male,7,norest,372.59999999403954,1074.5999999940395,ArrowUp,ArrowLeft,True,True,26.0,Children,35,True
128,128,388,9180,value training,False,./assets/img/ocean/memory/34.jpg,ocean,26.0,False,True,revaluation,2.0,"{""ArrowUp,ArrowLeft"":26,""ArrowUp,ArrowRight"":10,""ArrowDown,ArrowLeft"":5,""ArrowDown,ArrowRight"":17}",41,,12.83,Male,7,norest,400.09999999403954,479.19999998807907,ArrowUp,ArrowLeft,True,True,26.0,Children,40,True
129,129,390,9180,value training,False,./assets/img/ocean/memory/37.jpg,ocean,26.0,False,True,revaluation,2.0,"{""ArrowUp,ArrowLeft"":26,""ArrowUp,ArrowRight"":10,""ArrowDown,ArrowLeft"":5,""ArrowDown,ArrowRight"":17}",42,,12.83,Male,7,norest,422.0,1165.2000000178814,ArrowUp,ArrowLeft,True,True,26.0,Children,40,True
248,0,119,8175,value training,False,./assets/img/ocean/memory/14.jpg,ocean,10.0,False,False,revaluation,1.0,"{""ArrowUp,ArrowLeft"":26,""ArrowUp,ArrowRight"":10,""ArrowDown,ArrowLeft"":5,""ArrowDown,ArrowRight"":17}",1,,11.64,Female,4,norest,836.5,713.2999999988824,ArrowUp,ArrowRight,True,False,26.0,Children,0,False
250,2,123,8175,value training,False,./assets/img/ocean/memory/3.jpg,ocean,5.0,False,False,revaluation,1.0,"{""ArrowUp,ArrowLeft"":26,""ArrowUp,ArrowRight"":10,""ArrowDown,ArrowLeft"":5,""ArrowDown,ArrowRight"":17}",2,,11.64,Female,4,norest,834.8999999985099,1129.6000000014901,ArrowDown,ArrowLeft,False,False,26.0,Children,0,False
252,4,127,8175,value training,False,./assets/img/ocean/memory/23.jpg,ocean,17.0,False,False,revaluation,1.0,"{""ArrowUp,ArrowLeft"":26,""ArrowUp,ArrowRight"":10,""ArrowDown,ArrowLeft"":5,""ArrowDown,ArrowRight"":17}",4,,11.64,Female,4,norest,1000.0999999996275,560.1999999992549,ArrowDown,ArrowRight,False,True,26.0,Children,0,False
253,5,129,8175,value training,False,./assets/img/ocean/memory/28.jpg,ocean,10.0,False,False,revaluation,1.0,"{""ArrowUp,ArrowLeft"":26,""ArrowUp,ArrowRight"":10,""ArrowDown,ArrowLeft"":5,""ArrowDown,ArrowRight"":17}",5,,11.64,Female,4,norest,705.3000000007451,522.8000000007451,ArrowUp,ArrowRight,True,False,26.0,Children,0,False
255,7,133,8175,value training,False,./assets/img/ocean/memory/6.jpg,ocean,17.0,False,False,revaluation,1.0,"{""ArrowUp,ArrowLeft"":26,""ArrowUp,ArrowRight"":10,""ArrowDown,ArrowLeft"":5,""ArrowDown,ArrowRight"":17}",6,,11.64,Female,4,norest,444.80000000074506,566.4000000003725,ArrowDown,ArrowRight,False,True,26.0,Children,5,False
258,10,139,8175,value training,False,./assets/img/ocean/memory/2.jpg,ocean,10.0,False,False,revaluation,1.0,"{""ArrowUp,ArrowLeft"":26,""ArrowUp,ArrowRight"":10,""ArrowDown,ArrowLeft"":5,""ArrowDown,ArrowRight"":17}",8,,11.64,Female,4,norest,462.0,363.5,ArrowUp,ArrowRight,True,False,26.0,Children,5,False
259,11,141,8175,value training,False,./assets/img/ocean/memory/21.jpg,ocean,26.0,False,True,revaluation,1.0,"{""ArrowUp,ArrowLeft"":26,""ArrowUp,ArrowRight"":10,""ArrowDown,ArrowLeft"":5,""ArrowDown,ArrowRight"":17}",9,,11.64,Female,4,norest,594.4000000003725,642.6000000014901,ArrowUp,ArrowLeft,True,True,26.0,Children,5,True
260,12,143,8175,value training,False,./assets/img/ocean/memory/16.jpg,ocean,5.0,False,False,revaluation,1.0,"{""ArrowUp,ArrowLeft"":26,""ArrowUp,ArrowRight"":10,""ArrowDown,ArrowLeft"":5,""ArrowDown,ArrowRight"":17}",10,,11.64,Female,4,norest,642.8000000007451,386.59999999962747,ArrowDown,ArrowLeft,False,False,26.0,Children,5,False
261,13,145,8175,value training,False,./assets/img/ocean/memory/6.jpg,ocean,26.0,False,True,revaluation,1.0,"{""ArrowUp,ArrowLeft"":26,""ArrowUp,ArrowRight"":10,""ArrowDown,ArrowLeft"":5,""ArrowDown,ArrowRight"":17}",11,,11.64,Female,4,norest,445.2000000011176,728.0999999996275,ArrowUp,ArrowLeft,True,True,26.0,Children,10,True
262,14,147,8175,value training,False,./assets/img/ocean/memory/11.jpg,ocean,17.0,False,False,revaluation,1.0,"{""ArrowUp,ArrowLeft"":26,""ArrowUp,ArrowRight"":10,""ArrowDown,ArrowLeft"":5,""ArrowDown,ArrowRight"":17}",12,,11.64,Female,4,norest,389.7999999988824,1116.699999999255,ArrowDown,ArrowRight,False,True,26.0,Children,10,False
266,18,155,8175,value training,False,./assets/img/ocean/memory/26.jpg,ocean,26.0,False,True,revaluation,1.0,"{""ArrowUp,ArrowLeft"":26,""ArrowUp,ArrowRight"":10,""ArrowDown,ArrowLeft"":5,""ArrowDown,ArrowRight"":17}",14,,11.64,Female,4,norest,519.0,411.40000000037253,ArrowUp,ArrowLeft,True,True,26.0,Children,10,True
267,19,157,8175,value training,False,./assets/img/ocean/memory/16.jpg,ocean,26.0,False,True,revaluation,1.0,"{""ArrowUp,ArrowLeft"":26,""ArrowUp,ArrowRight"":10,""ArrowDown,ArrowLeft"":5,""ArrowDown,ArrowRight"":17}",15,,11.64,Female,4,norest,527.0,371.7999999988824,ArrowUp,ArrowLeft,True,True,26.0,Children,10,True
268,20,159,8175,value training,False,./assets/img/ocean/memory/18.jpg,ocean,26.0,False,True,revaluation,1.0,"{""ArrowUp,ArrowLeft"":26,""ArrowUp,ArrowRight"":10,""ArrowDown,ArrowLeft"":5,""ArrowDown,ArrowRight"":17}",16,,11.64,Female,4,norest,581.6999999992549,336.80000000074506,ArrowUp,ArrowLeft,True,True,26.0,Children,15,True
269,21,161,8175,value training,False,./assets/img/ocean/memory/15.jpg,ocean,26.0,False,True,revaluation,1.0,"{""ArrowUp,ArrowLeft"":26,""ArrowUp,ArrowRight"":10,""ArrowDown,ArrowLeft"":5,""ArrowDown,ArrowRight"":17}",17,,11.64,Female,4,norest,344.19999999925494,448.19999999925494,ArrowUp,ArrowLeft,True,True,26.0,Children,15,True
270,22,163,8175,value training,False,./assets/img/ocean/memory/2.jpg,ocean,26.0,False,True,revaluation,1.0,"{""ArrowUp,ArrowLeft"":26,""ArrowUp,ArrowRight"":10,""ArrowDown,ArrowLeft"":5,""ArrowDown,ArrowRight"":17}",18,,11.64,Female,4,norest,567.2999999988824,659.6000000014901,ArrowUp,ArrowLeft,True,True,26.0,Children,15,True
272,24,167,8175,value training,False,./assets/img/ocean/memory/1.jpg,ocean,26.0,False,True,revaluation,1.0,"{""ArrowUp,ArrowLeft"":26,""ArrowUp,ArrowRight"":10,""ArrowDown,ArrowLeft"":5,""ArrowDown,ArrowRight"":17}",19,,11.64,Female,4,norest,741.2000000011176,394.09999999962747,ArrowUp,ArrowLeft,True,True,26.0,Children,15,True
273,25,169,8175,value training,False,./assets/img/ocean/memory/18.jpg,ocean,17.0,False,False,revaluation,1.0,"{""ArrowUp,ArrowLeft"":26,""ArrowUp,ArrowRight"":10,""ArrowDown,ArrowLeft"":5,""ArrowDown,ArrowRight"":17}",20,,11.64,Female,4,norest,958.1999999992549,421.69999999925494,ArrowDown,ArrowRight,False,True,26.0,Children,15,False
274,26,171,8175,value training,False,./assets/img/ocean/memory/22.jpg,ocean,26.0,False,True,revaluation,1.0,"{""ArrowUp,ArrowLeft"":26,""ArrowUp,ArrowRight"":10,""ArrowDown,ArrowLeft"":5,""ArrowDown,ArrowRight"":17}",21,,11.64,Female,4,norest,519.4000000003725,374.5,ArrowUp,ArrowLeft,True,True,26.0,Children,20,True
275,27,173,8175,value training,False,./assets/img/ocean/memory/40.jpg,ocean,26.0,False,True,revaluation,1.0,"{""ArrowUp,ArrowLeft"":26,""ArrowUp,ArrowRight"":10,""ArrowDown,ArrowLeft"":5,""ArrowDown,ArrowRight"":17}",22,,11.64,Female,4,norest,618.7000000011176,549.2000000011176,ArrowUp,ArrowLeft,True,True,26.0,Children,20,True
276,28,175,8175,value training,False,./assets/img/ocean/memory/30.jpg,ocean,26.0,False,True,revaluation,1.0,"{""ArrowUp,ArrowLeft"":26,""ArrowUp,ArrowRight"":10,""ArrowDown,ArrowLeft"":5,""ArrowDown,ArrowRight"":17}",23,,11.64,Female,4,norest,524.6999999992549,452.69999999925494,ArrowUp,ArrowLeft,True,True,26.0,Children,20,True
277,29,177,8175,value training,False,./assets/img/ocean/memory/3.jpg,ocean,26.0,False,True,revaluation,1.0,"{""ArrowUp,ArrowLeft"":26,""ArrowUp,ArrowRight"":10,""ArrowDown,ArrowLeft"":5,""ArrowDown,ArrowRight"":17}",24,,11.64,Female,4,norest,552.8000000007451,332.59999999962747,ArrowUp,ArrowLeft,True,True,26.0,Children,20,True
278,30,179,8175,value training,False,./assets/img/ocean/memory/30.jpg,ocean,26.0,False,True,revaluation,1.0,"{""ArrowUp,ArrowLeft"":26,""ArrowUp,ArrowRight"":10,""ArrowDown,ArrowLeft"":5,""ArrowDown,ArrowRight"":17}",25,,11.64,Female,4,norest,400.0,426.2000000011176,ArrowUp,ArrowLeft,True,True,26.0,Children,20,True
279,31,181,8175,value training,False,./assets/img/ocean/memory/21.jpg,ocean,26.0,False,True,revaluation,1.0,"{""ArrowUp,ArrowLeft"":26,""ArrowUp,ArrowRight"":10,""ArrowDown,ArrowLeft"":5,""ArrowDown,ArrowRight"":17}",26,,11.64,Female,4,norest,479.19999999925494,544.3000000007451,ArrowUp,ArrowLeft,True,True,26.0,Children,25,True
280,32,183,8175,value training,False,./assets/img/ocean/memory/8.jpg,ocean,26.0,False,True,revaluation,1.0,"{""ArrowUp,ArrowLeft"":26,""ArrowUp,ArrowRight"":10,""ArrowDown,ArrowLeft"":5,""ArrowDown,ArrowRight"":17}",27,,11.64,Female,4,norest,495.69999999925494,587.8000000007451,ArrowUp,ArrowLeft,True,True,26.0,Children,25,True
281,33,185,8175,value training,False,./assets/img/ocean/memory/11.jpg,ocean,26.0,False,True,revaluation,1.0,"{""ArrowUp,ArrowLeft"":26,""ArrowUp,ArrowRight"":10,""ArrowDown,ArrowLeft"":5,""ArrowDown,ArrowRight"":17}",28,,11.64,Female,4,norest,987.1000000014901,492.59999999962747,ArrowUp,ArrowLeft,True,True,26.0,Children,25,True
282,34,187,8175,value training,False,./assets/img/ocean/memory/28.jpg,ocean,26.0,False,True,revaluation,1.0,"{""ArrowUp,ArrowLeft"":26,""ArrowUp,ArrowRight"":10,""ArrowDown,ArrowLeft"":5,""ArrowDown,ArrowRight"":17}",29,,11.64,Female,4,norest,405.5,399.59999999962747,ArrowUp,ArrowLeft,True,True,26.0,Children,25,True
283,35,189,8175,value training,False,./assets/img/ocean/memory/20.jpg,ocean,26.0,False,True,revaluation,1.0,"{""ArrowUp,ArrowLeft"":26,""ArrowUp,ArrowRight"":10,""ArrowDown,ArrowLeft"":5,""ArrowDown,ArrowRight"":17}",30,,11.64,Female,4,norest,1227.699999999255,885.9000000003725,ArrowUp,ArrowLeft,True,True,26.0,Children,25,True
284,36,191,8175,value training,False,./assets/img/ocean/memory/23.jpg,ocean,26.0,False,True,revaluation,1.0,"{""ArrowUp,ArrowLeft"":26,""ArrowUp,ArrowRight"":10,""ArrowDown,ArrowLeft"":5,""ArrowDown,ArrowRight"":17}",31,,11.64,Female,4,norest,542.0999999996275,529.6000000014901,ArrowUp,ArrowLeft,True,True,26.0,Children,30,True
285,37,193,8175,value training,False,./assets/img/ocean/memory/13.jpg,ocean,26.0,False,True,revaluation,1.0,"{""ArrowUp,ArrowLeft"":26,""ArrowUp,ArrowRight"":10,""ArrowDown,ArrowLeft"":5,""ArrowDown,ArrowRight"":17}",32,,11.64,Female,4,norest,443.7000000011176,425.0,ArrowUp,ArrowLeft,True,True,26.0,Children,30,True
286,38,195,8175,value training,False,./assets/img/ocean/memory/14.jpg,ocean,26.0,False,True,revaluation,1.0,"{""ArrowUp,ArrowLeft"":26,""ArrowUp,ArrowRight"":10,""ArrowDown,ArrowLeft"":5,""ArrowDown,ArrowRight"":17}",33,,11.64,Female,4,norest,528.1999999992549,916.5,ArrowUp,ArrowLeft,True,True,26.0,Children,30,True
287,39,197,8175,value training,False,./assets/img/ocean/memory/41.jpg,ocean,26.0,False,True,revaluation,1.0,"{""ArrowUp,ArrowLeft"":26,""ArrowUp,ArrowRight"":10,""ArrowDown,ArrowLeft"":5,""ArrowDown,ArrowRight"":17}",34,,11.64,Female,4,norest,606.5,353.90000000037253,ArrowUp,ArrowLeft,True,True,26.0,Children,30,True
288,40,199,8175,value training,False,./assets/img/ocean/memory/0.jpg,ocean,26.0,False,True,revaluation,1.0,"{""ArrowUp,ArrowLeft"":26,""ArrowUp,ArrowRight"":10,""ArrowDown,ArrowLeft"":5,""ArrowDown,ArrowRight"":17}",35,,11.64,Female,4,norest,767.2000000011176,503.0,ArrowUp,ArrowLeft,True,True,26.0,Children,30,True
289,41,201,8175,value training,False,./assets/img/ocean/memory/0.jpg,ocean,26.0,False,True,revaluation,1.0,"{""ArrowUp,ArrowLeft"":26,""ArrowUp,ArrowRight"":10,""ArrowDown,ArrowLeft"":5,""ArrowDown,ArrowRight"":17}",36,,11.64,Female,4,norest,420.7999999988824,616.6000000014901,ArrowUp,ArrowLeft,True,True,26.0,Children,35,True
290,42,203,8175,value training,False,./assets/img/ocean/memory/8.jpg,ocean,26.0,False,True,revaluation,1.0,"{""ArrowUp,ArrowLeft"":26,""ArrowUp,ArrowRight"":10,""ArrowDown,ArrowLeft"":5,""ArrowDown,ArrowRight"":17}",37,,11.64,Female,4,norest,499.7999999988824,992.5,ArrowUp,ArrowLeft,True,True,26.0,Children,35,True
292,44,207,8175,value training,False,./assets/img/ocean/memory/41.jpg,ocean,26.0,False,True,revaluation,1.0,"{""ArrowUp,ArrowLeft"":26,""ArrowUp,ArrowRight"":10,""ArrowDown,ArrowLeft"":5,""ArrowDown,ArrowRight"":17}",38,,11.64,Female,4,norest,620.5,326.6000000014901,ArrowUp,ArrowLeft,True,True,26.0,Children,35,True
293,45,209,8175,value training,False,./assets/img/ocean/memory/40.jpg,ocean,26.0,False,True,revaluation,1.0,"{""ArrowUp,ArrowLeft"":26,""ArrowUp,ArrowRight"":10,""ArrowDown,ArrowLeft"":5,""ArrowDown,ArrowRight"":17}",39,,11.64,Female,4,norest,528.6999999992549,227.30000000074506,ArrowUp,ArrowLeft,True,True,26.0,Children,35,True
295,47,213,8175,value training,False,./assets/img/ocean/memory/26.jpg,ocean,26.0,False,True,revaluation,1.0,"{""ArrowUp,ArrowLeft"":26,""ArrowUp,ArrowRight"":10,""ArrowDown,ArrowLeft"":5,""ArrowDown,ArrowRight"":17}",40,,11.64,Female,4,norest,498.1000000014901,832.0999999996275,ArrowUp,ArrowLeft,True,True,26.0,Children,35,True
296,48,215,8175,value training,False,./assets/img/ocean/memory/1.jpg,ocean,26.0,False,True,revaluation,1.0,"{""ArrowUp,ArrowLeft"":26,""ArrowUp,ArrowRight"":10,""ArrowDown,ArrowLeft"":5,""ArrowDown,ArrowRight"":17}",41,,11.64,Female,4,norest,631.7999999988824,603.5,ArrowUp,ArrowLeft,True,True,26.0,Children,40,True
297,49,217,8175,value training,False,./assets/img/ocean/memory/22.jpg,ocean,26.0,False,True,revaluation,1.0,"{""ArrowUp,ArrowLeft"":26,""ArrowUp,ArrowRight"":10,""ArrowDown,ArrowLeft"":5,""ArrowDown,ArrowRight"":17}",42,,11.64,Female,4,norest,562.5,697.8000000007451,ArrowUp,ArrowLeft,True,True,26.0,Children,40,True
328,80,294,8175,value training,False,./assets/img/canyon/memory/21.jpg,canyon,30.0,False,True,original,2.0,"{""ArrowUp,ArrowLeft"":23,""ArrowUp,ArrowRight"":10,""ArrowDown,ArrowLeft"":8,""ArrowDown,ArrowRight"":30}",1,,11.64,Female,4,norest,754.5999999996275,449.59999999962747,ArrowDown,ArrowRight,True,True,30.0,Children,0,True
329,81,296,8175,value training,False,./assets/img/canyon/memory/8.jpg,canyon,10.0,False,False,original,2.0,"{""ArrowUp,ArrowLeft"":23,""ArrowUp,ArrowRight"":10,""ArrowDown,ArrowLeft"":8,""ArrowDown,ArrowRight"":30}",2,,11.64,Female,4,norest,1864.1000000014901,613.0,ArrowUp,ArrowRight,False,False,30.0,Children,0,False
330,82,298,8175,value training,False,./assets/img/canyon/memory/0.jpg,canyon,30.0,False,True,original,2.0,"{""ArrowUp,ArrowLeft"":23,""ArrowUp,ArrowRight"":10,""ArrowDown,ArrowLeft"":8,""ArrowDown,ArrowRight"":30}",3,,11.64,Female,4,norest,345.5,305.0,ArrowDown,ArrowRight,True,True,30.0,Children,0,True
331,83,300,8175,value training,False,./assets/img/canyon/memory/20.jpg,canyon,30.0,False,True,original,2.0,"{""ArrowUp,ArrowLeft"":23,""ArrowUp,ArrowRight"":10,""ArrowDown,ArrowLeft"":8,""ArrowDown,ArrowRight"":30}",4,,11.64,Female,4,norest,338.30000000074506,1320.2000000011176,ArrowDown,ArrowRight,True,True,30.0,Children,0,True
332,84,302,8175,value training,False,./assets/img/canyon/memory/26.jpg,canyon,30.0,False,True,original,2.0,"{""ArrowUp,ArrowLeft"":23,""ArrowUp,ArrowRight"":10,""ArrowDown,ArrowLeft"":8,""ArrowDown,ArrowRight"":30}",5,,11.64,Female,4,norest,928.0,334.5,ArrowDown,ArrowRight,True,True,30.0,Children,0,True
333,85,304,8175,value training,False,./assets/img/canyon/memory/41.jpg,canyon,30.0,False,True,original,2.0,"{""ArrowUp,ArrowLeft"":23,""ArrowUp,ArrowRight"":10,""ArrowDown,ArrowLeft"":8,""ArrowDown,ArrowRight"":30}",6,,11.64,Female,4,norest,532.5999999996275,238.0,ArrowDown,ArrowRight,True,True,30.0,Children,5,True
334,86,306,8175,value training,False,./assets/img/canyon/memory/6.jpg,canyon,30.0,False,True,original,2.0,"{""ArrowUp,ArrowLeft"":23,""ArrowUp,ArrowRight"":10,""ArrowDown,ArrowLeft"":8,""ArrowDown,ArrowRight"":30}",7,,11.64,Female,4,norest,444.30000000074506,893.3000000007451,ArrowDown,ArrowRight,True,True,30.0,Children,5,True
335,87,308,8175,value training,False,./assets/img/canyon/memory/41.jpg,canyon,30.0,False,True,original,2.0,"{""ArrowUp,ArrowLeft"":23,""ArrowUp,ArrowRight"":10,""ArrowDown,ArrowLeft"":8,""ArrowDown,ArrowRight"":30}",8,,11.64,Female,4,norest,1606.0999999996275,439.7999999988824,ArrowDown,ArrowRight,True,True,30.0,Children,5,True
336,88,310,8175,value training,False,./assets/img/canyon/memory/2.jpg,canyon,30.0,False,True,original,2.0,"{""ArrowUp,ArrowLeft"":23,""ArrowUp,ArrowRight"":10,""ArrowDown,ArrowLeft"":8,""ArrowDown,ArrowRight"":30}",9,,11.64,Female,4,norest,369.3999999985099,719.2000000011176,ArrowDown,ArrowRight,True,True,30.0,Children,5,True
337,89,312,8175,value training,False,./assets/img/canyon/memory/14.jpg,canyon,30.0,False,True,original,2.0,"{""ArrowUp,ArrowLeft"":23,""ArrowUp,ArrowRight"":10,""ArrowDown,ArrowLeft"":8,""ArrowDown,ArrowRight"":30}",10,,11.64,Female,4,norest,601.0,212.0,ArrowDown,ArrowRight,True,True,30.0,Children,5,True
338,90,314,8175,value training,False,./assets/img/canyon/memory/15.jpg,canyon,30.0,False,True,original,2.0,"{""ArrowUp,ArrowLeft"":23,""ArrowUp,ArrowRight"":10,""ArrowDown,ArrowLeft"":8,""ArrowDown,ArrowRight"":30}",11,,11.64,Female,4,norest,592.5,496.80000000074506,ArrowDown,ArrowRight,True,True,30.0,Children,10,True
339,91,316,8175,value training,False,./assets/img/canyon/memory/14.jpg,canyon,30.0,False,True,original,2.0,"{""ArrowUp,ArrowLeft"":23,""ArrowUp,ArrowRight"":10,""ArrowDown,ArrowLeft"":8,""ArrowDown,ArrowRight"":30}",12,,11.64,Female,4,norest,462.69999999925494,446.80000000074506,ArrowDown,ArrowRight,True,True,30.0,Children,10,True
340,92,318,8175,value training,False,./assets/img/canyon/memory/23.jpg,canyon,30.0,False,True,original,2.0,"{""ArrowUp,ArrowLeft"":23,""ArrowUp,ArrowRight"":10,""ArrowDown,ArrowLeft"":8,""ArrowDown,ArrowRight"":30}",13,,11.64,Female,4,norest,600.2999999988824,202.10000000149012,ArrowDown,ArrowRight,True,True,30.0,Children,10,True
341,93,320,8175,value training,False,./assets/img/canyon/memory/1.jpg,canyon,30.0,False,True,original,2.0,"{""ArrowUp,ArrowLeft"":23,""ArrowUp,ArrowRight"":10,""ArrowDown,ArrowLeft"":8,""ArrowDown,ArrowRight"":30}",14,,11.64,Female,4,norest,491.2000000011176,386.2000000011176,ArrowDown,ArrowRight,True,True,30.0,Children,10,True
342,94,322,8175,value training,False,./assets/img/canyon/memory/11.jpg,canyon,30.0,False,True,original,2.0,"{""ArrowUp,ArrowLeft"":23,""ArrowUp,ArrowRight"":10,""ArrowDown,ArrowLeft"":8,""ArrowDown,ArrowRight"":30}",15,,11.64,Female,4,norest,441.0,622.3000000007451,ArrowDown,ArrowRight,True,True,30.0,Children,10,True
343,95,324,8175,value training,False,./assets/img/canyon/memory/28.jpg,canyon,30.0,False,True,original,2.0,"{""ArrowUp,ArrowLeft"":23,""ArrowUp,ArrowRight"":10,""ArrowDown,ArrowLeft"":8,""ArrowDown,ArrowRight"":30}",16,,11.64,Female,4,norest,422.5,951.6000000014901,ArrowDown,ArrowRight,True,True,30.0,Children,15,True
344,96,326,8175,value training,False,./assets/img/canyon/memory/30.jpg,canyon,30.0,False,True,original,2.0,"{""ArrowUp,ArrowLeft"":23,""ArrowUp,ArrowRight"":10,""ArrowDown,ArrowLeft"":8,""ArrowDown,ArrowRight"":30}",17,,11.64,Female,4,norest,1002.9000000003725,417.40000000037253,ArrowDown,ArrowRight,True,True,30.0,Children,15,True
346,98,330,8175,value training,False,./assets/img/canyon/memory/2.jpg,canyon,30.0,False,True,original,2.0,"{""ArrowUp,ArrowLeft"":23,""ArrowUp,ArrowRight"":10,""ArrowDown,ArrowLeft"":8,""ArrowDown,ArrowRight"":30}",18,,11.64,Female,4,norest,601.9000000003725,390.30000000074506,ArrowDown,ArrowRight,True,True,30.0,Children,15,True
348,100,334,8175,value training,False,./assets/img/canyon/memory/0.jpg,canyon,30.0,False,True,original,2.0,"{""ArrowUp,ArrowLeft"":23,""ArrowUp,ArrowRight"":10,""ArrowDown,ArrowLeft"":8,""ArrowDown,ArrowRight"":30}",19,,11.64,Female,4,norest,412.59999999962747,362.5,ArrowDown,ArrowRight,True,True,30.0,Children,15,True
351,103,340,8175,value training,False,./assets/img/canyon/memory/3.jpg,canyon,30.0,False,True,original,2.0,"{""ArrowUp,ArrowLeft"":23,""ArrowUp,ArrowRight"":10,""ArrowDown,ArrowLeft"":8,""ArrowDown,ArrowRight"":30}",20,,11.64,Female,4,norest,607.5,327.0,ArrowDown,ArrowRight,True,True,30.0,Children,15,True
353,105,344,8175,value training,False,./assets/img/canyon/memory/21.jpg,canyon,30.0,False,True,original,2.0,"{""ArrowUp,ArrowLeft"":23,""ArrowUp,ArrowRight"":10,""ArrowDown,ArrowLeft"":8,""ArrowDown,ArrowRight"":30}",21,,11.64,Female,4,norest,1036.5,346.7999999988824,ArrowDown,ArrowRight,True,True,30.0,Children,20,True
354,106,346,8175,value training,False,./assets/img/canyon/memory/16.jpg,canyon,30.0,False,True,original,2.0,"{""ArrowUp,ArrowLeft"":23,""ArrowUp,ArrowRight"":10,""ArrowDown,ArrowLeft"":8,""ArrowDown,ArrowRight"":30}",22,,11.64,Female,4,norest,550.5,710.3999999985099,ArrowDown,ArrowRight,True,True,30.0,Children,20,True
355,107,348,8175,value training,False,./assets/img/canyon/memory/18.jpg,canyon,30.0,False,True,original,2.0,"{""ArrowUp,ArrowLeft"":23,""ArrowUp,ArrowRight"":10,""ArrowDown,ArrowLeft"":8,""ArrowDown,ArrowRight"":30}",23,,11.64,Female,4,norest,493.7000000011176,719.5,ArrowDown,ArrowRight,True,True,30.0,Children,20,True
356,108,350,8175,value training,False,./assets/img/canyon/memory/40.jpg,canyon,30.0,False,True,original,2.0,"{""ArrowUp,ArrowLeft"":23,""ArrowUp,ArrowRight"":10,""ArrowDown,ArrowLeft"":8,""ArrowDown,ArrowRight"":30}",24,,11.64,Female,4,norest,594.6000000014901,636.7000000011176,ArrowDown,ArrowRight,True,True,30.0,Children,20,True
357,109,352,8175,value training,False,./assets/img/canyon/memory/23.jpg,canyon,30.0,False,True,original,2.0,"{""ArrowUp,ArrowLeft"":23,""ArrowUp,ArrowRight"":10,""ArrowDown,ArrowLeft"":8,""ArrowDown,ArrowRight"":30}",25,,11.64,Female,4,norest,867.6999999992549,587.7000000011176,ArrowDown,ArrowRight,True,True,30.0,Children,20,True
358,110,354,8175,value training,False,./assets/img/canyon/memory/30.jpg,canyon,30.0,False,True,original,2.0,"{""ArrowUp,ArrowLeft"":23,""ArrowUp,ArrowRight"":10,""ArrowDown,ArrowLeft"":8,""ArrowDown,ArrowRight"":30}",26,,11.64,Female,4,norest,721.2999999988824,1293.8999999985099,ArrowDown,ArrowRight,True,True,30.0,Children,25,True
359,111,356,8175,value training,False,./assets/img/canyon/memory/3.jpg,canyon,30.0,False,True,original,2.0,"{""ArrowUp,ArrowLeft"":23,""ArrowUp,ArrowRight"":10,""ArrowDown,ArrowLeft"":8,""ArrowDown,ArrowRight"":30}",27,,11.64,Female,4,norest,640.7999999988824,1156.8999999985099,ArrowDown,ArrowRight,True,True,30.0,Children,25,True
360,112,358,8175,value training,False,./assets/img/canyon/memory/26.jpg,canyon,30.0,False,True,original,2.0,"{""ArrowUp,ArrowLeft"":23,""ArrowUp,ArrowRight"":10,""ArrowDown,ArrowLeft"":8,""ArrowDown,ArrowRight"":30}",28,,11.64,Female,4,norest,1127.800000000745,755.6999999992549,ArrowDown,ArrowRight,True,True,30.0,Children,25,True
361,113,360,8175,value training,False,./assets/img/canyon/memory/16.jpg,canyon,30.0,False,True,original,2.0,"{""ArrowUp,ArrowLeft"":23,""ArrowUp,ArrowRight"":10,""ArrowDown,ArrowLeft"":8,""ArrowDown,ArrowRight"":30}",29,,11.64,Female,4,norest,439.30000000074506,493.09999999962747,ArrowDown,ArrowRight,True,True,30.0,Children,25,True
362,114,362,8175,value training,False,./assets/img/canyon/memory/8.jpg,canyon,30.0,False,True,original,2.0,"{""ArrowUp,ArrowLeft"":23,""ArrowUp,ArrowRight"":10,""ArrowDown,ArrowLeft"":8,""ArrowDown,ArrowRight"":30}",30,,11.64,Female,4,norest,504.1000000014901,622.8000000007451,ArrowDown,ArrowRight,True,True,30.0,Children,25,True
363,115,364,8175,value training,False,./assets/img/canyon/memory/18.jpg,canyon,30.0,False,True,original,2.0,"{""ArrowUp,ArrowLeft"":23,""ArrowUp,ArrowRight"":10,""ArrowDown,ArrowLeft"":8,""ArrowDown,ArrowRight"":30}",31,,11.64,Female,4,norest,488.09999999962747,711.8000000007451,ArrowDown,ArrowRight,True,True,30.0,Children,30,True
364,116,366,8175,value training,False,./assets/img/canyon/memory/6.jpg,canyon,30.0,False,True,original,2.0,"{""ArrowUp,ArrowLeft"":23,""ArrowUp,ArrowRight"":10,""ArrowDown,ArrowLeft"":8,""ArrowDown,ArrowRight"":30}",32,,11.64,Female,4,norest,565.0999999996275,1226.300000000745,ArrowDown,ArrowRight,True,True,30.0,Children,30,True
367,119,372,8175,value training,False,./assets/img/canyon/memory/22.jpg,canyon,30.0,False,True,original,2.0,"{""ArrowUp,ArrowLeft"":23,""ArrowUp,ArrowRight"":10,""ArrowDown,ArrowLeft"":8,""ArrowDown,ArrowRight"":30}",33,,11.64,Female,4,norest,806.1999999992549,634.0999999996275,ArrowDown,ArrowRight,True,True,30.0,Children,30,True
368,120,374,8175,value training,False,./assets/img/canyon/memory/22.jpg,canyon,30.0,False,True,original,2.0,"{""ArrowUp,ArrowLeft"":23,""ArrowUp,ArrowRight"":10,""ArrowDown,ArrowLeft"":8,""ArrowDown,ArrowRight"":30}",34,,11.64,Female,4,norest,739.5,659.4000000003725,ArrowDown,ArrowRight,True,True,30.0,Children,30,True
369,121,376,8175,value training,False,./assets/img/canyon/memory/13.jpg,canyon,30.0,False,True,original,2.0,"{""ArrowUp,ArrowLeft"":23,""ArrowUp,ArrowRight"":10,""ArrowDown,ArrowLeft"":8,""ArrowDown,ArrowRight"":30}",35,,11.64,Female,4,norest,419.5,607.3000000007451,ArrowDown,ArrowRight,True,True,30.0,Children,30,True
370,122,378,8175,value training,False,./assets/img/canyon/memory/11.jpg,canyon,30.0,False,True,original,2.0,"{""ArrowUp,ArrowLeft"":23,""ArrowUp,ArrowRight"":10,""ArrowDown,ArrowLeft"":8,""ArrowDown,ArrowRight"":30}",36,,11.64,Female,4,norest,611.1000000014901,429.40000000037253,ArrowDown,ArrowRight,True,True,30.0,Children,35,True
371,123,380,8175,value training,False,./assets/img/canyon/memory/28.jpg,canyon,30.0,False,True,original,2.0,"{""ArrowUp,ArrowLeft"":23,""ArrowUp,ArrowRight"":10,""ArrowDown,ArrowLeft"":8,""ArrowDown,ArrowRight"":30}",37,,11.64,Female,4,norest,538.0999999996275,203.30000000074506,ArrowDown,ArrowRight,True,True,30.0,Children,35,True
373,125,384,8175,value training,False,./assets/img/canyon/memory/40.jpg,canyon,30.0,False,True,original,2.0,"{""ArrowUp,ArrowLeft"":23,""ArrowUp,ArrowRight"":10,""ArrowDown,ArrowLeft"":8,""ArrowDown,ArrowRight"":30}",38,,11.64,Female,4,norest,406.30000000074506,591.4000000003725,ArrowDown,ArrowRight,True,True,30.0,Children,35,True
374,126,386,8175,value training,False,./assets/img/canyon/memory/1.jpg,canyon,30.0,False,True,original,2.0,"{""ArrowUp,ArrowLeft"":23,""ArrowUp,ArrowRight"":10,""ArrowDown,ArrowLeft"":8,""ArrowDown,ArrowRight"":30}",39,,11.64,Female,4,norest,674.8999999985099,356.90000000037253,ArrowDown,ArrowRight,True,True,30.0,Children,35,True
375,127,388,8175,value training,False,./assets/img/canyon/memory/15.jpg,canyon,30.0,False,True,original,2.0,"{""ArrowUp,ArrowLeft"":23,""ArrowUp,ArrowRight"":10,""ArrowDown,ArrowLeft"":8,""ArrowDown,ArrowRight"":30}",40,,11.64,Female,4,norest,463.30000000074506,324.2000000011176,ArrowDown,ArrowRight,True,True,30.0,Children,35,True
376,128,390,8175,value training,False,./assets/img/canyon/memory/20.jpg,canyon,30.0,False,True,original,2.0,"{""ArrowUp,ArrowLeft"":23,""ArrowUp,ArrowRight"":10,""ArrowDown,ArrowLeft"":8,""ArrowDown,ArrowRight"":30}",41,,11.64,Female,4,norest,488.2999999988824,748.0,ArrowDown,ArrowRight,True,True,30.0,Children,40,True
377,129,392,8175,value training,False,./assets/img/canyon/memory/13.jpg,canyon,30.0,False,True,original,2.0,"{""ArrowUp,ArrowLeft"":23,""ArrowUp,ArrowRight"":10,""ArrowDown,ArrowLeft"":8,""ArrowDown,ArrowRight"":30}",42,,11.64,Female,4,norest,648.6999999992549,697.0999999996275,ArrowDown,ArrowRight,True,True,30.0,Children,40,True
496,0,117,10510,value training,False,./assets/img/ocean/memory/35.jpg,ocean,8.0,False,False,original,1.0,"{""ArrowUp,ArrowLeft"":23,""ArrowUp,ArrowRight"":10,""ArrowDown,ArrowLeft"":8,""ArrowDown,ArrowRight"":30}",1,,8.2,Male,3,norest,1361.9000000059605,803.8000000119209,ArrowDown,ArrowLeft,True,False,30.0,Children,0,False
497,1,119,10510,value training,False,./assets/img/ocean/memory/41.jpg,ocean,8.0,False,False,original,1.0,"{""ArrowUp,ArrowLeft"":23,""ArrowUp,ArrowRight"":10,""ArrowDown,ArrowLeft"":8,""ArrowDown,ArrowRight"":30}",2,,8.2,Male,3,norest,1029.2999999970198,608.9000000059605,ArrowDown,ArrowLeft,True,False,30.0,Children,0,False
498,2,121,10510,value training,False,./assets/img/ocean/memory/37.jpg,ocean,23.0,False,False,original,1.0,"{""ArrowUp,ArrowLeft"":23,""ArrowUp,ArrowRight"":10,""ArrowDown,ArrowLeft"":8,""ArrowDown,ArrowRight"":30}",3,,8.2,Male,3,norest,928.5999999940395,1212.5,ArrowUp,ArrowLeft,False,True,30.0,Children,0,False
499,3,123,10510,value training,False,./assets/img/ocean/memory/33.jpg,ocean,8.0,False,False,original,1.0,"{""ArrowUp,ArrowLeft"":23,""ArrowUp,ArrowRight"":10,""ArrowDown,ArrowLeft"":8,""ArrowDown,ArrowRight"":30}",4,,8.2,Male,3,norest,1252.9000000059605,655.0999999940395,ArrowDown,ArrowLeft,True,False,30.0,Children,0,False
501,5,127,10510,value training,False,./assets/img/ocean/memory/33.jpg,ocean,8.0,False,False,original,1.0,"{""ArrowUp,ArrowLeft"":23,""ArrowUp,ArrowRight"":10,""ArrowDown,ArrowLeft"":8,""ArrowDown,ArrowRight"":30}",5,,8.2,Male,3,norest,738.9000000059605,509.09999999403954,ArrowDown,ArrowLeft,True,False,30.0,Children,0,False
502,6,129,10510,value training,False,./assets/img/ocean/memory/7.jpg,ocean,30.0,False,True,original,1.0,"{""ArrowUp,ArrowLeft"":23,""ArrowUp,ArrowRight"":10,""ArrowDown,ArrowLeft"":8,""ArrowDown,ArrowRight"":30}",6,,8.2,Male,3,norest,1185.2000000029802,585.5,ArrowDown,ArrowRight,True,True,30.0,Children,5,True
503,7,131,10510,value training,False,./assets/img/ocean/memory/0.jpg,ocean,23.0,False,False,original,1.0,"{""ArrowUp,ArrowLeft"":23,""ArrowUp,ArrowRight"":10,""ArrowDown,ArrowLeft"":8,""ArrowDown,ArrowRight"":30}",7,,8.2,Male,3,norest,1032.7000000029802,1044.300000011921,ArrowUp,ArrowLeft,False,True,30.0,Children,5,False
504,8,133,10510,value training,False,./assets/img/ocean/memory/1.jpg,ocean,30.0,False,True,original,1.0,"{""ArrowUp,ArrowLeft"":23,""ArrowUp,ArrowRight"":10,""ArrowDown,ArrowLeft"":8,""ArrowDown,ArrowRight"":30}",8,,8.2,Male,3,norest,726.1000000089407,732.5,ArrowDown,ArrowRight,True,True,30.0,Children,5,True
505,9,135,10510,value training,False,./assets/img/ocean/memory/12.jpg,ocean,30.0,False,True,original,1.0,"{""ArrowUp,ArrowLeft"":23,""ArrowUp,ArrowRight"":10,""ArrowDown,ArrowLeft"":8,""ArrowDown,ArrowRight"":30}",9,,8.2,Male,3,norest,890.0,929.2000000029802,ArrowDown,ArrowRight,True,True,30.0,Children,5,True
506,10,137,10510,value training,False,./assets/img/ocean/memory/27.jpg,ocean,30.0,False,True,original,1.0,"{""ArrowUp,ArrowLeft"":23,""ArrowUp,ArrowRight"":10,""ArrowDown,ArrowLeft"":8,""ArrowDown,ArrowRight"":30}",10,,8.2,Male,3,norest,1009.1000000089407,666.7999999970198,ArrowDown,ArrowRight,True,True,30.0,Children,5,True
507,11,139,10510,value training,False,./assets/img/ocean/memory/8.jpg,ocean,30.0,False,True,original,1.0,"{""ArrowUp,ArrowLeft"":23,""ArrowUp,ArrowRight"":10,""ArrowDown,ArrowLeft"":8,""ArrowDown,ArrowRight"":30}",11,,8.2,Male,3,norest,655.7999999970198,943.8000000119209,ArrowDown,ArrowRight,True,True,30.0,Children,10,True
508,12,141,10510,value training,False,./assets/img/ocean/memory/3.jpg,ocean,30.0,False,True,original,1.0,"{""ArrowUp,ArrowLeft"":23,""ArrowUp,ArrowRight"":10,""ArrowDown,ArrowLeft"":8,""ArrowDown,ArrowRight"":30}",12,,8.2,Male,3,norest,750.0,404.70000000298023,ArrowDown,ArrowRight,True,True,30.0,Children,10,True
509,13,143,10510,value training,False,./assets/img/ocean/memory/32.jpg,ocean,8.0,False,False,original,1.0,"{""ArrowUp,ArrowLeft"":23,""ArrowUp,ArrowRight"":10,""ArrowDown,ArrowLeft"":8,""ArrowDown,ArrowRight"":30}",13,,8.2,Male,3,norest,1092.0,566.9000000059605,ArrowDown,ArrowLeft,True,False,30.0,Children,10,False
510,14,145,10510,value training,False,./assets/img/ocean/memory/34.jpg,ocean,30.0,False,True,original,1.0,"{""ArrowUp,ArrowLeft"":23,""ArrowUp,ArrowRight"":10,""ArrowDown,ArrowLeft"":8,""ArrowDown,ArrowRight"":30}",14,,8.2,Male,3,norest,613.4000000059605,588.7999999970198,ArrowDown,ArrowRight,True,True,30.0,Children,10,True
511,15,147,10510,value training,False,./assets/img/ocean/memory/2.jpg,ocean,10.0,False,False,original,1.0,"{""ArrowUp,ArrowLeft"":23,""ArrowUp,ArrowRight"":10,""ArrowDown,ArrowLeft"":8,""ArrowDown,ArrowRight"":30}",15,,8.2,Male,3,norest,378.19999998807907,562.5999999940395,ArrowUp,ArrowRight,False,False,30.0,Children,10,False
512,16,149,10510,value training,False,./assets/img/ocean/memory/30.jpg,ocean,30.0,False,True,original,1.0,"{""ArrowUp,ArrowLeft"":23,""ArrowUp,ArrowRight"":10,""ArrowDown,ArrowLeft"":8,""ArrowDown,ArrowRight"":30}",16,,8.2,Male,3,norest,952.5999999940395,443.20000000298023,ArrowDown,ArrowRight,True,True,30.0,Children,15,True
513,17,151,10510,value training,False,./assets/img/ocean/memory/12.jpg,ocean,30.0,False,True,original,1.0,"{""ArrowUp,ArrowLeft"":23,""ArrowUp,ArrowRight"":10,""ArrowDown,ArrowLeft"":8,""ArrowDown,ArrowRight"":30}",17,,8.2,Male,3,norest,847.2000000029802,376.90000000596046,ArrowDown,ArrowRight,True,True,30.0,Children,15,True
514,18,153,10510,value training,False,./assets/img/ocean/memory/27.jpg,ocean,30.0,False,True,original,1.0,"{""ArrowUp,ArrowLeft"":23,""ArrowUp,ArrowRight"":10,""ArrowDown,ArrowLeft"":8,""ArrowDown,ArrowRight"":30}",18,,8.2,Male,3,norest,804.7999999970198,954.5999999940395,ArrowDown,ArrowRight,True,True,30.0,Children,15,True
515,19,155,10510,value training,False,./assets/img/ocean/memory/1.jpg,ocean,30.0,False,True,original,1.0,"{""ArrowUp,ArrowLeft"":23,""ArrowUp,ArrowRight"":10,""ArrowDown,ArrowLeft"":8,""ArrowDown,ArrowRight"":30}",19,,8.2,Male,3,norest,841.4000000059605,478.3999999910593,ArrowDown,ArrowRight,True,True,30.0,Children,15,True
516,20,157,10510,value training,False,./assets/img/ocean/memory/29.jpg,ocean,30.0,False,True,original,1.0,"{""ArrowUp,ArrowLeft"":23,""ArrowUp,ArrowRight"":10,""ArrowDown,ArrowLeft"":8,""ArrowDown,ArrowRight"":30}",20,,8.2,Male,3,norest,647.2999999970198,500.79999999701977,ArrowDown,ArrowRight,True,True,30.0,Children,15,True
517,21,159,10510,value training,False,./assets/img/ocean/memory/13.jpg,ocean,30.0,False,True,original,1.0,"{""ArrowUp,ArrowLeft"":23,""ArrowUp,ArrowRight"":10,""ArrowDown,ArrowLeft"":8,""ArrowDown,ArrowRight"":30}",21,,8.2,Male,3,norest,675.2999999970198,478.0,ArrowDown,ArrowRight,True,True,30.0,Children,20,True
518,22,161,10510,value training,False,./assets/img/ocean/memory/41.jpg,ocean,30.0,False,True,original,1.0,"{""ArrowUp,ArrowLeft"":23,""ArrowUp,ArrowRight"":10,""ArrowDown,ArrowLeft"":8,""ArrowDown,ArrowRight"":30}",22,,8.2,Male,3,norest,598.2000000029802,602.0,ArrowDown,ArrowRight,True,True,30.0,Children,20,True
521,25,167,10510,value training,False,./assets/img/ocean/memory/17.jpg,ocean,30.0,False,True,original,1.0,"{""ArrowUp,ArrowLeft"":23,""ArrowUp,ArrowRight"":10,""ArrowDown,ArrowLeft"":8,""ArrowDown,ArrowRight"":30}",23,,8.2,Male,3,norest,1134.5,744.9000000059605,ArrowDown,ArrowRight,True,True,30.0,Children,20,True
522,26,169,10510,value training,False,./assets/img/ocean/memory/2.jpg,ocean,30.0,False,True,original,1.0,"{""ArrowUp,ArrowLeft"":23,""ArrowUp,ArrowRight"":10,""ArrowDown,ArrowLeft"":8,""ArrowDown,ArrowRight"":30}",24,,8.2,Male,3,norest,764.0,720.4000000059605,ArrowDown,ArrowRight,True,True,30.0,Children,20,True
523,27,171,10510,value training,False,./assets/img/ocean/memory/32.jpg,ocean,30.0,False,True,original,1.0,"{""ArrowUp,ArrowLeft"":23,""ArrowUp,ArrowRight"":10,""ArrowDown,ArrowLeft"":8,""ArrowDown,ArrowRight"":30}",25,,8.2,Male,3,norest,836.9000000059605,541.4000000059605,ArrowDown,ArrowRight,True,True,30.0,Children,20,True
525,29,175,10510,value training,False,./assets/img/ocean/memory/28.jpg,ocean,30.0,False,True,original,1.0,"{""ArrowUp,ArrowLeft"":23,""ArrowUp,ArrowRight"":10,""ArrowDown,ArrowLeft"":8,""ArrowDown,ArrowRight"":30}",26,,8.2,Male,3,norest,1129.5,513.7000000029802,ArrowDown,ArrowRight,True,True,30.0,Children,25,True
526,30,177,10510,value training,False,./assets/img/ocean/memory/17.jpg,ocean,30.0,False,True,original,1.0,"{""ArrowUp,ArrowLeft"":23,""ArrowUp,ArrowRight"":10,""ArrowDown,ArrowLeft"":8,""ArrowDown,ArrowRight"":30}",27,,8.2,Male,3,norest,654.9000000059605,299.3999999910593,ArrowDown,ArrowRight,True,True,30.0,Children,25,True
527,31,179,10510,value training,False,./assets/img/ocean/memory/0.jpg,ocean,30.0,False,True,original,1.0,"{""ArrowUp,ArrowLeft"":23,""ArrowUp,ArrowRight"":10,""ArrowDown,ArrowLeft"":8,""ArrowDown,ArrowRight"":30}",28,,8.2,Male,3,norest,657.6999999880791,405.70000000298023,ArrowDown,ArrowRight,True,True,30.0,Children,25,True
529,33,183,10510,value training,False,./assets/img/ocean/memory/37.jpg,ocean,30.0,False,True,original,1.0,"{""ArrowUp,ArrowLeft"":23,""ArrowUp,ArrowRight"":10,""ArrowDown,ArrowLeft"":8,""ArrowDown,ArrowRight"":30}",29,,8.2,Male,3,norest,727.2000000029802,410.0,ArrowDown,ArrowRight,True,True,30.0,Children,25,True
530,34,185,10510,value training,False,./assets/img/ocean/memory/31.jpg,ocean,30.0,False,True,original,1.0,"{""ArrowUp,ArrowLeft"":23,""ArrowUp,ArrowRight"":10,""ArrowDown,ArrowLeft"":8,""ArrowDown,ArrowRight"":30}",30,,8.2,Male,3,norest,1216.5999999940395,510.19999998807907,ArrowDown,ArrowRight,True,True,30.0,Children,25,True
531,35,187,10510,value training,False,./assets/img/ocean/memory/8.jpg,ocean,30.0,False,True,original,1.0,"{""ArrowUp,ArrowLeft"":23,""ArrowUp,ArrowRight"":10,""ArrowDown,ArrowLeft"":8,""ArrowDown,ArrowRight"":30}",31,,8.2,Male,3,norest,550.5,947.0999999940395,ArrowDown,ArrowRight,True,True,30.0,Children,30,True
535,39,195,10510,value training,False,./assets/img/ocean/memory/30.jpg,ocean,30.0,False,True,original,1.0,"{""ArrowUp,ArrowLeft"":23,""ArrowUp,ArrowRight"":10,""ArrowDown,ArrowLeft"":8,""ArrowDown,ArrowRight"":30}",32,,8.2,Male,3,norest,933.3999999910593,1245.7000000029802,ArrowDown,ArrowRight,True,True,30.0,Children,30,True
536,40,197,10510,value training,False,./assets/img/ocean/memory/29.jpg,ocean,30.0,False,True,original,1.0,"{""ArrowUp,ArrowLeft"":23,""ArrowUp,ArrowRight"":10,""ArrowDown,ArrowLeft"":8,""ArrowDown,ArrowRight"":30}",33,,8.2,Male,3,norest,515.1000000089407,501.69999998807907,ArrowDown,ArrowRight,True,True,30.0,Children,30,True
537,41,199,10510,value training,False,./assets/img/ocean/memory/31.jpg,ocean,30.0,False,True,original,1.0,"{""ArrowUp,ArrowLeft"":23,""ArrowUp,ArrowRight"":10,""ArrowDown,ArrowLeft"":8,""ArrowDown,ArrowRight"":30}",34,,8.2,Male,3,norest,817.3000000119209,538.8000000119209,ArrowDown,ArrowRight,True,True,30.0,Children,30,True
538,42,201,10510,value training,False,./assets/img/ocean/memory/38.jpg,ocean,30.0,False,True,original,1.0,"{""ArrowUp,ArrowLeft"":23,""ArrowUp,ArrowRight"":10,""ArrowDown,ArrowLeft"":8,""ArrowDown,ArrowRight"":30}",35,,8.2,Male,3,norest,508.29999999701977,559.5999999940395,ArrowDown,ArrowRight,True,True,30.0,Children,30,True
539,43,203,10510,value training,False,./assets/img/ocean/memory/28.jpg,ocean,30.0,False,True,original,1.0,"{""ArrowUp,ArrowLeft"":23,""ArrowUp,ArrowRight"":10,""ArrowDown,ArrowLeft"":8,""ArrowDown,ArrowRight"":30}",36,,8.2,Male,3,norest,784.0999999940395,493.0,ArrowDown,ArrowRight,True,True,30.0,Children,35,True
540,44,205,10510,value training,False,./assets/img/ocean/memory/38.jpg,ocean,30.0,False,True,original,1.0,"{""ArrowUp,ArrowLeft"":23,""ArrowUp,ArrowRight"":10,""ArrowDown,ArrowLeft"":8,""ArrowDown,ArrowRight"":30}",37,,8.2,Male,3,norest,759.1000000089407,406.20000000298023,ArrowDown,ArrowRight,True,True,30.0,Children,35,True
541,45,207,10510,value training,False,./assets/img/ocean/memory/35.jpg,ocean,23.0,False,False,original,1.0,"{""ArrowUp,ArrowLeft"":23,""ArrowUp,ArrowRight"":10,""ArrowDown,ArrowLeft"":8,""ArrowDown,ArrowRight"":30}",38,,8.2,Male,3,norest,1348.7999999970198,624.6999999880791,ArrowUp,ArrowLeft,False,True,30.0,Children,35,False
542,46,209,10510,value training,False,./assets/img/ocean/memory/3.jpg,ocean,30.0,False,True,original,1.0,"{""ArrowUp,ArrowLeft"":23,""ArrowUp,ArrowRight"":10,""ArrowDown,ArrowLeft"":8,""ArrowDown,ArrowRight"":30}",39,,8.2,Male,3,norest,727.0,519.0,ArrowDown,ArrowRight,True,True,30.0,Children,35,True
543,47,211,10510,value training,False,./assets/img/ocean/memory/7.jpg,ocean,30.0,False,True,original,1.0,"{""ArrowUp,ArrowLeft"":23,""ArrowUp,ArrowRight"":10,""ArrowDown,ArrowLeft"":8,""ArrowDown,ArrowRight"":30}",40,,8.2,Male,3,norest,703.7999999970198,529.7999999970198,ArrowDown,ArrowRight,True,True,30.0,Children,35,True
544,48,213,10510,value training,False,./assets/img/ocean/memory/34.jpg,ocean,30.0,False,True,original,1.0,"{""ArrowUp,ArrowLeft"":23,""ArrowUp,ArrowRight"":10,""ArrowDown,ArrowLeft"":8,""ArrowDown,ArrowRight"":30}",41,,8.2,Male,3,norest,721.5,396.30000001192093,ArrowDown,ArrowRight,True,True,30.0,Children,40,True
545,49,215,10510,value training,False,./assets/img/ocean/memory/13.jpg,ocean,30.0,False,True,original,1.0,"{""ArrowUp,ArrowLeft"":23,""ArrowUp,ArrowRight"":10,""ArrowDown,ArrowLeft"":8,""ArrowDown,ArrowRight"":30}",42,,8.2,Male,3,norest,601.7000000029802,582.1000000089407,ArrowDown,ArrowRight,True,True,30.0,Children,40,True
576,80,292,10510,value training,False,./assets/img/canyon/memory/33.jpg,canyon,5.0,False,False,revaluation,2.0,"{""ArrowUp,ArrowLeft"":26,""ArrowUp,ArrowRight"":10,""ArrowDown,ArrowLeft"":5,""ArrowDown,ArrowRight"":17}",1,,8.2,Male,3,norest,1177.9000000059605,960.7999999970198,ArrowDown,ArrowLeft,False,False,26.0,Children,0,False
577,81,294,10510,value training,False,./assets/img/canyon/memory/32.jpg,canyon,17.0,False,False,revaluation,2.0,"{""ArrowUp,ArrowLeft"":26,""ArrowUp,ArrowRight"":10,""ArrowDown,ArrowLeft"":5,""ArrowDown,ArrowRight"":17}",2,,8.2,Male,3,norest,746.4000000059605,637.2999999970198,ArrowDown,ArrowRight,False,True,26.0,Children,0,False
578,82,296,10510,value training,False,./assets/img/canyon/memory/30.jpg,canyon,26.0,False,True,revaluation,2.0,"{""ArrowUp,ArrowLeft"":26,""ArrowUp,ArrowRight"":10,""ArrowDown,ArrowLeft"":5,""ArrowDown,ArrowRight"":17}",3,,8.2,Male,3,norest,612.2000000029802,760.1000000089407,ArrowUp,ArrowLeft,True,True,26.0,Children,0,True
579,83,298,10510,value training,False,./assets/img/canyon/memory/17.jpg,canyon,10.0,False,False,revaluation,2.0,"{""ArrowUp,ArrowLeft"":26,""ArrowUp,ArrowRight"":10,""ArrowDown,ArrowLeft"":5,""ArrowDown,ArrowRight"":17}",4,,8.2,Male,3,norest,1452.5999999940395,770.5999999940395,ArrowUp,ArrowRight,True,False,26.0,Children,0,False
581,85,302,10510,value training,False,./assets/img/canyon/memory/41.jpg,canyon,26.0,False,True,revaluation,2.0,"{""ArrowUp,ArrowLeft"":26,""ArrowUp,ArrowRight"":10,""ArrowDown,ArrowLeft"":5,""ArrowDown,ArrowRight"":17}",5,,8.2,Male,3,norest,1131.0999999940395,784.6000000089407,ArrowUp,ArrowLeft,True,True,26.0,Children,0,True
582,86,304,10510,value training,False,./assets/img/canyon/memory/27.jpg,canyon,26.0,False,True,revaluation,2.0,"{""ArrowUp,ArrowLeft"":26,""ArrowUp,ArrowRight"":10,""ArrowDown,ArrowLeft"":5,""ArrowDown,ArrowRight"":17}",6,,8.2,Male,3,norest,983.9000000059605,670.0,ArrowUp,ArrowLeft,True,True,26.0,Children,5,True
584,88,308,10510,value training,False,./assets/img/canyon/memory/33.jpg,canyon,26.0,False,True,revaluation,2.0,"{""ArrowUp,ArrowLeft"":26,""ArrowUp,ArrowRight"":10,""ArrowDown,ArrowLeft"":5,""ArrowDown,ArrowRight"":17}",7,,8.2,Male,3,norest,596.0,593.5,ArrowUp,ArrowLeft,True,True,26.0,Children,5,True
585,89,310,10510,value training,False,./assets/img/canyon/memory/41.jpg,canyon,26.0,False,True,revaluation,2.0,"{""ArrowUp,ArrowLeft"":26,""ArrowUp,ArrowRight"":10,""ArrowDown,ArrowLeft"":5,""ArrowDown,ArrowRight"":17}",8,,8.2,Male,3,norest,766.2000000029802,549.5,ArrowUp,ArrowLeft,True,True,26.0,Children,5,True
586,90,312,10510,value training,False,./assets/img/canyon/memory/28.jpg,canyon,26.0,False,True,revaluation,2.0,"{""ArrowUp,ArrowLeft"":26,""ArrowUp,ArrowRight"":10,""ArrowDown,ArrowLeft"":5,""ArrowDown,ArrowRight"":17}",9,,8.2,Male,3,norest,560.5,568.2999999970198,ArrowUp,ArrowLeft,True,True,26.0,Children,5,True
587,91,314,10510,value training,False,./assets/img/canyon/memory/8.jpg,canyon,26.0,False,True,revaluation,2.0,"{""ArrowUp,ArrowLeft"":26,""ArrowUp,ArrowRight"":10,""ArrowDown,ArrowLeft"":5,""ArrowDown,ArrowRight"":17}",10,,8.2,Male,3,norest,862.5,647.3999999910593,ArrowUp,ArrowLeft,True,True,26.0,Children,5,True
588,92,316,10510,value training,False,./assets/img/canyon/memory/31.jpg,canyon,26.0,False,True,revaluation,2.0,"{""ArrowUp,ArrowLeft"":26,""ArrowUp,ArrowRight"":10,""ArrowDown,ArrowLeft"":5,""ArrowDown,ArrowRight"":17}",11,,8.2,Male,3,norest,1153.699999988079,405.20000000298023,ArrowUp,ArrowLeft,True,True,26.0,Children,10,True
591,95,322,10510,value training,False,./assets/img/canyon/memory/1.jpg,canyon,26.0,False,True,revaluation,2.0,"{""ArrowUp,ArrowLeft"":26,""ArrowUp,ArrowRight"":10,""ArrowDown,ArrowLeft"":5,""ArrowDown,ArrowRight"":17}",12,,8.2,Male,3,norest,1001.2000000029802,527.2999999970198,ArrowUp,ArrowLeft,True,True,26.0,Children,10,True
593,97,326,10510,value training,False,./assets/img/canyon/memory/2.jpg,canyon,26.0,False,True,revaluation,2.0,"{""ArrowUp,ArrowLeft"":26,""ArrowUp,ArrowRight"":10,""ArrowDown,ArrowLeft"":5,""ArrowDown,ArrowRight"":17}",13,,8.2,Male,3,norest,1042.7000000029802,426.0,ArrowUp,ArrowLeft,True,True,26.0,Children,10,True
594,98,328,10510,value training,False,./assets/img/canyon/memory/1.jpg,canyon,26.0,False,True,revaluation,2.0,"{""ArrowUp,ArrowLeft"":26,""ArrowUp,ArrowRight"":10,""ArrowDown,ArrowLeft"":5,""ArrowDown,ArrowRight"":17}",14,,8.2,Male,3,norest,760.4000000059605,506.59999999403954,ArrowUp,ArrowLeft,True,True,26.0,Children,10,True
595,99,330,10510,value training,False,./assets/img/canyon/memory/35.jpg,canyon,26.0,False,True,revaluation,2.0,"{""ArrowUp,ArrowLeft"":26,""ArrowUp,ArrowRight"":10,""ArrowDown,ArrowLeft"":5,""ArrowDown,ArrowRight"":17}",15,,8.2,Male,3,norest,1012.6000000089407,623.8999999910593,ArrowUp,ArrowLeft,True,True,26.0,Children,10,True
596,100,332,10510,value training,False,./assets/img/canyon/memory/13.jpg,canyon,26.0,False,True,revaluation,2.0,"{""ArrowUp,ArrowLeft"":26,""ArrowUp,ArrowRight"":10,""ArrowDown,ArrowLeft"":5,""ArrowDown,ArrowRight"":17}",16,,8.2,Male,3,norest,565.3000000119209,519.6000000089407,ArrowUp,ArrowLeft,True,True,26.0,Children,15,True
597,101,334,10510,value training,False,./assets/img/canyon/memory/37.jpg,canyon,26.0,False,True,revaluation,2.0,"{""ArrowUp,ArrowLeft"":26,""ArrowUp,ArrowRight"":10,""ArrowDown,ArrowLeft"":5,""ArrowDown,ArrowRight"":17}",17,,8.2,Male,3,norest,640.9000000059605,580.7999999970198,ArrowUp,ArrowLeft,True,True,26.0,Children,15,True
598,102,336,10510,value training,False,./assets/img/canyon/memory/29.jpg,canyon,26.0,False,True,revaluation,2.0,"{""ArrowUp,ArrowLeft"":26,""ArrowUp,ArrowRight"":10,""ArrowDown,ArrowLeft"":5,""ArrowDown,ArrowRight"":17}",18,,8.2,Male,3,norest,877.9000000059605,477.20000000298023,ArrowUp,ArrowLeft,True,True,26.0,Children,15,True
599,103,338,10510,value training,False,./assets/img/canyon/memory/38.jpg,canyon,26.0,False,True,revaluation,2.0,"{""ArrowUp,ArrowLeft"":26,""ArrowUp,ArrowRight"":10,""ArrowDown,ArrowLeft"":5,""ArrowDown,ArrowRight"":17}",19,,8.2,Male,3,norest,736.5,542.3999999910593,ArrowUp,ArrowLeft,True,True,26.0,Children,15,True
600,104,340,10510,value training,False,./assets/img/canyon/memory/2.jpg,canyon,26.0,False,True,revaluation,2.0,"{""ArrowUp,ArrowLeft"":26,""ArrowUp,ArrowRight"":10,""ArrowDown,ArrowLeft"":5,""ArrowDown,ArrowRight"":17}",20,,8.2,Male,3,norest,528.2000000029802,565.5,ArrowUp,ArrowLeft,True,True,26.0,Children,15,True
601,105,342,10510,value training,False,./assets/img/canyon/memory/27.jpg,canyon,26.0,False,True,revaluation,2.0,"{""ArrowUp,ArrowLeft"":26,""ArrowUp,ArrowRight"":10,""ArrowDown,ArrowLeft"":5,""ArrowDown,ArrowRight"":17}",21,,8.2,Male,3,norest,672.7000000029802,543.5,ArrowUp,ArrowLeft,True,True,26.0,Children,20,True
602,106,344,10510,value training,False,./assets/img/canyon/memory/17.jpg,canyon,26.0,False,True,revaluation,2.0,"{""ArrowUp,ArrowLeft"":26,""ArrowUp,ArrowRight"":10,""ArrowDown,ArrowLeft"":5,""ArrowDown,ArrowRight"":17}",22,,8.2,Male,3,norest,847.7999999970198,666.2999999970198,ArrowUp,ArrowLeft,True,True,26.0,Children,20,True
603,107,346,10510,value training,False,./assets/img/canyon/memory/35.jpg,canyon,26.0,False,True,revaluation,2.0,"{""ArrowUp,ArrowLeft"":26,""ArrowUp,ArrowRight"":10,""ArrowDown,ArrowLeft"":5,""ArrowDown,ArrowRight"":17}",23,,8.2,Male,3,norest,568.0,666.6000000089407,ArrowUp,ArrowLeft,True,True,26.0,Children,20,True
604,108,348,10510,value training,False,./assets/img/canyon/memory/3.jpg,canyon,26.0,False,True,revaluation,2.0,"{""ArrowUp,ArrowLeft"":26,""ArrowUp,ArrowRight"":10,""ArrowDown,ArrowLeft"":5,""ArrowDown,ArrowRight"":17}",24,,8.2,Male,3,norest,720.5999999940395,812.5,ArrowUp,ArrowLeft,True,True,26.0,Children,20,True
605,109,350,10510,value training,False,./assets/img/canyon/memory/30.jpg,canyon,26.0,False,True,revaluation,2.0,"{""ArrowUp,ArrowLeft"":26,""ArrowUp,ArrowRight"":10,""ArrowDown,ArrowLeft"":5,""ArrowDown,ArrowRight"":17}",25,,8.2,Male,3,norest,625.2000000029802,680.8999999910593,ArrowUp,ArrowLeft,True,True,26.0,Children,20,True
606,110,352,10510,value training,False,./assets/img/canyon/memory/37.jpg,canyon,26.0,False,True,revaluation,2.0,"{""ArrowUp,ArrowLeft"":26,""ArrowUp,ArrowRight"":10,""ArrowDown,ArrowLeft"":5,""ArrowDown,ArrowRight"":17}",26,,8.2,Male,3,norest,634.6000000089407,443.20000000298023,ArrowUp,ArrowLeft,True,True,26.0,Children,25,True
608,112,356,10510,value training,False,./assets/img/canyon/memory/7.jpg,canyon,26.0,False,True,revaluation,2.0,"{""ArrowUp,ArrowLeft"":26,""ArrowUp,ArrowRight"":10,""ArrowDown,ArrowLeft"":5,""ArrowDown,ArrowRight"":17}",27,,8.2,Male,3,norest,936.5,537.7000000029802,ArrowUp,ArrowLeft,True,True,26.0,Children,25,True
609,113,358,10510,value training,False,./assets/img/canyon/memory/32.jpg,canyon,26.0,False,True,revaluation,2.0,"{""ArrowUp,ArrowLeft"":26,""ArrowUp,ArrowRight"":10,""ArrowDown,ArrowLeft"":5,""ArrowDown,ArrowRight"":17}",28,,8.2,Male,3,norest,644.0,790.2999999970198,ArrowUp,ArrowLeft,True,True,26.0,Children,25,True
610,114,360,10510,value training,False,./assets/img/canyon/memory/0.jpg,canyon,26.0,False,True,revaluation,2.0,"{""ArrowUp,ArrowLeft"":26,""ArrowUp,ArrowRight"":10,""ArrowDown,ArrowLeft"":5,""ArrowDown,ArrowRight"":17}",29,,8.2,Male,3,norest,555.1000000089407,409.8999999910593,ArrowUp,ArrowLeft,True,True,26.0,Children,25,True
611,115,362,10510,value training,False,./assets/img/canyon/memory/3.jpg,canyon,26.0,False,True,revaluation,2.0,"{""ArrowUp,ArrowLeft"":26,""ArrowUp,ArrowRight"":10,""ArrowDown,ArrowLeft"":5,""ArrowDown,ArrowRight"":17}",30,,8.2,Male,3,norest,513.8000000119209,426.09999999403954,ArrowUp,ArrowLeft,True,True,26.0,Children,25,True
612,116,364,10510,value training,False,./assets/img/canyon/memory/28.jpg,canyon,26.0,False,True,revaluation,2.0,"{""ArrowUp,ArrowLeft"":26,""ArrowUp,ArrowRight"":10,""ArrowDown,ArrowLeft"":5,""ArrowDown,ArrowRight"":17}",31,,8.2,Male,3,norest,551.2999999970198,467.09999999403954,ArrowUp,ArrowLeft,True,True,26.0,Children,30,True
614,118,368,10510,value training,False,./assets/img/canyon/memory/7.jpg,canyon,26.0,False,True,revaluation,2.0,"{""ArrowUp,ArrowLeft"":26,""ArrowUp,ArrowRight"":10,""ArrowDown,ArrowLeft"":5,""ArrowDown,ArrowRight"":17}",32,,8.2,Male,3,norest,917.2000000029802,400.8999999910593,ArrowUp,ArrowLeft,True,True,26.0,Children,30,True
615,119,370,10510,value training,False,./assets/img/canyon/memory/34.jpg,canyon,26.0,False,True,revaluation,2.0,"{""ArrowUp,ArrowLeft"":26,""ArrowUp,ArrowRight"":10,""ArrowDown,ArrowLeft"":5,""ArrowDown,ArrowRight"":17}",33,,8.2,Male,3,norest,857.5,468.59999999403954,ArrowUp,ArrowLeft,True,True,26.0,Children,30,True
616,120,372,10510,value training,False,./assets/img/canyon/memory/12.jpg,canyon,26.0,False,True,revaluation,2.0,"{""ArrowUp,ArrowLeft"":26,""ArrowUp,ArrowRight"":10,""ArrowDown,ArrowLeft"":5,""ArrowDown,ArrowRight"":17}",34,,8.2,Male,3,norest,539.7000000029802,487.0,ArrowUp,ArrowLeft,True,True,26.0,Children,30,True
617,121,374,10510,value training,False,./assets/img/canyon/memory/38.jpg,canyon,26.0,False,True,revaluation,2.0,"{""ArrowUp,ArrowLeft"":26,""ArrowUp,ArrowRight"":10,""ArrowDown,ArrowLeft"":5,""ArrowDown,ArrowRight"":17}",35,,8.2,Male,3,norest,556.8000000119209,373.20000000298023,ArrowUp,ArrowLeft,True,True,26.0,Children,30,True
618,122,376,10510,value training,False,./assets/img/canyon/memory/34.jpg,canyon,26.0,False,True,revaluation,2.0,"{""ArrowUp,ArrowLeft"":26,""ArrowUp,ArrowRight"":10,""ArrowDown,ArrowLeft"":5,""ArrowDown,ArrowRight"":17}",36,,8.2,Male,3,norest,598.5999999940395,919.2000000029802,ArrowUp,ArrowLeft,True,True,26.0,Children,35,True
619,123,378,10510,value training,False,./assets/img/canyon/memory/13.jpg,canyon,26.0,False,True,revaluation,2.0,"{""ArrowUp,ArrowLeft"":26,""ArrowUp,ArrowRight"":10,""ArrowDown,ArrowLeft"":5,""ArrowDown,ArrowRight"":17}",37,,8.2,Male,3,norest,751.7000000029802,855.0,ArrowUp,ArrowLeft,True,True,26.0,Children,35,True
621,125,382,10510,value training,False,./assets/img/canyon/memory/0.jpg,canyon,26.0,False,True,revaluation,2.0,"{""ArrowUp,ArrowLeft"":26,""ArrowUp,ArrowRight"":10,""ArrowDown,ArrowLeft"":5,""ArrowDown,ArrowRight"":17}",38,,8.2,Male,3,norest,996.7000000029802,580.0,ArrowUp,ArrowLeft,True,True,26.0,Children,35,True
622,126,384,10510,value training,False,./assets/img/canyon/memory/12.jpg,canyon,26.0,False,True,revaluation,2.0,"{""ArrowUp,ArrowLeft"":26,""ArrowUp,ArrowRight"":10,""ArrowDown,ArrowLeft"":5,""ArrowDown,ArrowRight"":17}",39,,8.2,Male,3,norest,742.1000000089407,390.70000000298023,ArrowUp,ArrowLeft,True,True,26.0,Children,35,True
623,127,386,10510,value training,False,./assets/img/canyon/memory/8.jpg,canyon,26.0,False,True,revaluation,2.0,"{""ArrowUp,ArrowLeft"":26,""ArrowUp,ArrowRight"":10,""ArrowDown,ArrowLeft"":5,""ArrowDown,ArrowRight"":17}",40,,8.2,Male,3,norest,562.2999999970198,565.1000000089407,ArrowUp,ArrowLeft,True,True,26.0,Children,35,True
624,128,388,10510,value training,False,./assets/img/canyon/memory/31.jpg,canyon,26.0,False,True,revaluation,2.0,"{""ArrowUp,ArrowLeft"":26,""ArrowUp,ArrowRight"":10,""ArrowDown,ArrowLeft"":5,""ArrowDown,ArrowRight"":17}",41,,8.2,Male,3,norest,551.3999999910593,700.9000000059605,ArrowUp,ArrowLeft,True,True,26.0,Children,40,True
625,129,390,10510,value training,False,./assets/img/canyon/memory/29.jpg,canyon,26.0,False,True,revaluation,2.0,"{""ArrowUp,ArrowLeft"":26,""ArrowUp,ArrowRight"":10,""ArrowDown,ArrowLeft"":5,""ArrowDown,ArrowRight"":17}",42,,8.2,Male,3,norest,745.5,575.9000000059605,ArrowUp,ArrowLeft,True,True,26.0,Children,40,True
745,1,120,9627,value training,False,./assets/img/canyon/memory/8.jpg,canyon,10.0,False,False,original,1.0,"{""ArrowUp,ArrowLeft"":26,""ArrowUp,ArrowRight"":10,""ArrowDown,ArrowLeft"":5,""ArrowDown,ArrowRight"":17}",1,,16.0,Male,5,norest,1065.5999999046326,730.2000002861023,ArrowUp,ArrowRight,True,False,26.0,Adolescents,0,False
746,2,122,9627,value training,False,./assets/img/canyon/memory/5.jpg,canyon,26.0,False,True,original,1.0,"{""ArrowUp,ArrowLeft"":26,""ArrowUp,ArrowRight"":10,""ArrowDown,ArrowLeft"":5,""ArrowDown,ArrowRight"":17}",2,,16.0,Male,5,norest,1018.3000001907349,399.5,ArrowUp,ArrowLeft,True,True,26.0,Adolescents,0,True
747,3,124,9627,value training,False,./assets/img/canyon/memory/34.jpg,canyon,5.0,False,False,original,1.0,"{""ArrowUp,ArrowLeft"":26,""ArrowUp,ArrowRight"":10,""ArrowDown,ArrowLeft"":5,""ArrowDown,ArrowRight"":17}",3,,16.0,Male,5,norest,921.2000002861023,399.0,ArrowDown,ArrowLeft,False,False,26.0,Adolescents,0,False
749,5,128,9627,value training,False,./assets/img/canyon/memory/7.jpg,canyon,17.0,False,False,original,1.0,"{""ArrowUp,ArrowLeft"":26,""ArrowUp,ArrowRight"":10,""ArrowDown,ArrowLeft"":5,""ArrowDown,ArrowRight"":17}",4,,16.0,Male,5,norest,407.7000002861023,567.1999998092651,ArrowDown,ArrowRight,False,True,26.0,Adolescents,0,False
750,6,130,9627,value training,False,./assets/img/canyon/memory/13.jpg,canyon,26.0,False,True,original,1.0,"{""ArrowUp,ArrowLeft"":26,""ArrowUp,ArrowRight"":10,""ArrowDown,ArrowLeft"":5,""ArrowDown,ArrowRight"":17}",5,,16.0,Male,5,norest,496.19999980926514,304.7999997138977,ArrowUp,ArrowLeft,True,True,26.0,Adolescents,0,True
752,8,134,9627,value training,False,./assets/img/canyon/memory/26.jpg,canyon,26.0,False,True,original,1.0,"{""ArrowUp,ArrowLeft"":26,""ArrowUp,ArrowRight"":10,""ArrowDown,ArrowLeft"":5,""ArrowDown,ArrowRight"":17}",6,,16.0,Male,5,norest,712.7000002861023,296.3999996185303,ArrowUp,ArrowLeft,True,True,26.0,Adolescents,5,True
753,9,136,9627,value training,False,./assets/img/canyon/memory/34.jpg,canyon,26.0,False,True,original,1.0,"{""ArrowUp,ArrowLeft"":26,""ArrowUp,ArrowRight"":10,""ArrowDown,ArrowLeft"":5,""ArrowDown,ArrowRight"":17}",7,,16.0,Male,5,norest,871.5999999046326,728.5,ArrowUp,ArrowLeft,True,True,26.0,Adolescents,5,True
754,10,138,9627,value training,False,./assets/img/canyon/memory/22.jpg,canyon,26.0,False,True,original,1.0,"{""ArrowUp,ArrowLeft"":26,""ArrowUp,ArrowRight"":10,""ArrowDown,ArrowLeft"":5,""ArrowDown,ArrowRight"":17}",8,,16.0,Male,5,norest,1022.6999998092651,575.5,ArrowUp,ArrowLeft,True,True,26.0,Adolescents,5,True
755,11,140,9627,value training,False,./assets/img/canyon/memory/30.jpg,canyon,26.0,False,True,original,1.0,"{""ArrowUp,ArrowLeft"":26,""ArrowUp,ArrowRight"":10,""ArrowDown,ArrowLeft"":5,""ArrowDown,ArrowRight"":17}",9,,16.0,Male,5,norest,657.0,320.59999990463257,ArrowUp,ArrowLeft,True,True,26.0,Adolescents,5,True
756,12,142,9627,value training,False,./assets/img/canyon/memory/38.jpg,canyon,26.0,False,True,original,1.0,"{""ArrowUp,ArrowLeft"":26,""ArrowUp,ArrowRight"":10,""ArrowDown,ArrowLeft"":5,""ArrowDown,ArrowRight"":17}",10,,16.0,Male,5,norest,929.7999997138977,554.3999996185303,ArrowUp,ArrowLeft,True,True,26.0,Adolescents,5,True
758,14,146,9627,value training,False,./assets/img/canyon/memory/35.jpg,canyon,26.0,False,True,original,1.0,"{""ArrowUp,ArrowLeft"":26,""ArrowUp,ArrowRight"":10,""ArrowDown,ArrowLeft"":5,""ArrowDown,ArrowRight"":17}",11,,16.0,Male,5,norest,558.4000000953674,584.0,ArrowUp,ArrowLeft,True,True,26.0,Adolescents,10,True
760,16,150,9627,value training,False,./assets/img/canyon/memory/35.jpg,canyon,26.0,False,True,original,1.0,"{""ArrowUp,ArrowLeft"":26,""ArrowUp,ArrowRight"":10,""ArrowDown,ArrowLeft"":5,""ArrowDown,ArrowRight"":17}",12,,16.0,Male,5,norest,338.3999996185303,743.8999996185303,ArrowUp,ArrowLeft,True,True,26.0,Adolescents,10,True
761,17,152,9627,value training,False,./assets/img/canyon/memory/6.jpg,canyon,26.0,False,True,original,1.0,"{""ArrowUp,ArrowLeft"":26,""ArrowUp,ArrowRight"":10,""ArrowDown,ArrowLeft"":5,""ArrowDown,ArrowRight"":17}",13,,16.0,Male,5,norest,754.3000001907349,616.0,ArrowUp,ArrowLeft,True,True,26.0,Adolescents,10,True
762,18,154,9627,value training,False,./assets/img/canyon/memory/11.jpg,canyon,26.0,False,True,original,1.0,"{""ArrowUp,ArrowLeft"":26,""ArrowUp,ArrowRight"":10,""ArrowDown,ArrowLeft"":5,""ArrowDown,ArrowRight"":17}",14,,16.0,Male,5,norest,1031.5,857.1999998092651,ArrowUp,ArrowLeft,True,True,26.0,Adolescents,10,True
763,19,156,9627,value training,False,./assets/img/canyon/memory/14.jpg,canyon,26.0,False,True,original,1.0,"{""ArrowUp,ArrowLeft"":26,""ArrowUp,ArrowRight"":10,""ArrowDown,ArrowLeft"":5,""ArrowDown,ArrowRight"":17}",15,,16.0,Male,5,norest,751.5999999046326,536.5999999046326,ArrowUp,ArrowLeft,True,True,26.0,Adolescents,10,True
765,21,160,9627,value training,False,./assets/img/canyon/memory/38.jpg,canyon,26.0,False,True,original,1.0,"{""ArrowUp,ArrowLeft"":26,""ArrowUp,ArrowRight"":10,""ArrowDown,ArrowLeft"":5,""ArrowDown,ArrowRight"":17}",16,,16.0,Male,5,norest,662.1000003814697,664.2999997138977,ArrowUp,ArrowLeft,True,True,26.0,Adolescents,15,True
766,22,162,9627,value training,False,./assets/img/canyon/memory/9.jpg,canyon,26.0,False,True,original,1.0,"{""ArrowUp,ArrowLeft"":26,""ArrowUp,ArrowRight"":10,""ArrowDown,ArrowLeft"":5,""ArrowDown,ArrowRight"":17}",17,,16.0,Male,5,norest,679.2999997138977,600.8999996185303,ArrowUp,ArrowLeft,True,True,26.0,Adolescents,15,True
767,23,164,9627,value training,False,./assets/img/canyon/memory/11.jpg,canyon,26.0,False,True,original,1.0,"{""ArrowUp,ArrowLeft"":26,""ArrowUp,ArrowRight"":10,""ArrowDown,ArrowLeft"":5,""ArrowDown,ArrowRight"":17}",18,,16.0,Male,5,norest,1056.5,536.0999999046326,ArrowUp,ArrowLeft,True,True,26.0,Adolescents,15,True
768,24,166,9627,value training,False,./assets/img/canyon/memory/28.jpg,canyon,26.0,False,True,original,1.0,"{""ArrowUp,ArrowLeft"":26,""ArrowUp,ArrowRight"":10,""ArrowDown,ArrowLeft"":5,""ArrowDown,ArrowRight"":17}",19,,16.0,Male,5,norest,870.1000003814697,896.0999999046326,ArrowUp,ArrowLeft,True,True,26.0,Adolescents,15,True
769,25,168,9627,value training,False,./assets/img/canyon/memory/26.jpg,canyon,26.0,False,True,original,1.0,"{""ArrowUp,ArrowLeft"":26,""ArrowUp,ArrowRight"":10,""ArrowDown,ArrowLeft"":5,""ArrowDown,ArrowRight"":17}",20,,16.0,Male,5,norest,960.5999999046326,915.0999999046326,ArrowUp,ArrowLeft,True,True,26.0,Adolescents,15,True
770,26,170,9627,value training,False,./assets/img/canyon/memory/16.jpg,canyon,26.0,False,True,original,1.0,"{""ArrowUp,ArrowLeft"":26,""ArrowUp,ArrowRight"":10,""ArrowDown,ArrowLeft"":5,""ArrowDown,ArrowRight"":17}",21,,16.0,Male,5,norest,1296.5999999046326,464.40000009536743,ArrowUp,ArrowLeft,True,True,26.0,Adolescents,20,True
771,27,172,9627,value training,False,./assets/img/canyon/memory/3.jpg,canyon,26.0,False,True,original,1.0,"{""ArrowUp,ArrowLeft"":26,""ArrowUp,ArrowRight"":10,""ArrowDown,ArrowLeft"":5,""ArrowDown,ArrowRight"":17}",22,,16.0,Male,5,norest,854.7000002861023,504.7999997138977,ArrowUp,ArrowLeft,True,True,26.0,Adolescents,20,True
772,28,174,9627,value training,False,./assets/img/canyon/memory/30.jpg,canyon,26.0,False,True,original,1.0,"{""ArrowUp,ArrowLeft"":26,""ArrowUp,ArrowRight"":10,""ArrowDown,ArrowLeft"":5,""ArrowDown,ArrowRight"":17}",23,,16.0,Male,5,norest,774.6999998092651,465.8999996185303,ArrowUp,ArrowLeft,True,True,26.0,Adolescents,20,True
773,29,176,9627,value training,False,./assets/img/canyon/memory/7.jpg,canyon,26.0,False,True,original,1.0,"{""ArrowUp,ArrowLeft"":26,""ArrowUp,ArrowRight"":10,""ArrowDown,ArrowLeft"":5,""ArrowDown,ArrowRight"":17}",24,,16.0,Male,5,norest,535.1999998092651,472.3999996185303,ArrowUp,ArrowLeft,True,True,26.0,Adolescents,20,True
774,30,178,9627,value training,False,./assets/img/canyon/memory/16.jpg,canyon,26.0,False,True,original,1.0,"{""ArrowUp,ArrowLeft"":26,""ArrowUp,ArrowRight"":10,""ArrowDown,ArrowLeft"":5,""ArrowDown,ArrowRight"":17}",25,,16.0,Male,5,norest,759.3999996185303,807.3999996185303,ArrowUp,ArrowLeft,True,True,26.0,Adolescents,20,True
775,31,180,9627,value training,False,./assets/img/canyon/memory/22.jpg,canyon,26.0,False,True,original,1.0,"{""ArrowUp,ArrowLeft"":26,""ArrowUp,ArrowRight"":10,""ArrowDown,ArrowLeft"":5,""ArrowDown,ArrowRight"":17}",26,,16.0,Male,5,norest,1142.5,895.1999998092651,ArrowUp,ArrowLeft,True,True,26.0,Adolescents,25,True
776,32,182,9627,value training,False,./assets/img/canyon/memory/41.jpg,canyon,10.0,False,False,original,1.0,"{""ArrowUp,ArrowLeft"":26,""ArrowUp,ArrowRight"":10,""ArrowDown,ArrowLeft"":5,""ArrowDown,ArrowRight"":17}",27,,16.0,Male,5,norest,974.5,320.09999990463257,ArrowUp,ArrowRight,True,False,26.0,Adolescents,25,False
777,33,184,9627,value training,False,./assets/img/canyon/memory/32.jpg,canyon,26.0,False,True,original,1.0,"{""ArrowUp,ArrowLeft"":26,""ArrowUp,ArrowRight"":10,""ArrowDown,ArrowLeft"":5,""ArrowDown,ArrowRight"":17}",28,,16.0,Male,5,norest,1122.8000001907349,663.5,ArrowUp,ArrowLeft,True,True,26.0,Adolescents,25,True
778,34,186,9627,value training,False,./assets/img/canyon/memory/4.jpg,canyon,26.0,False,True,original,1.0,"{""ArrowUp,ArrowLeft"":26,""ArrowUp,ArrowRight"":10,""ArrowDown,ArrowLeft"":5,""ArrowDown,ArrowRight"":17}",29,,16.0,Male,5,norest,759.0,538.0999999046326,ArrowUp,ArrowLeft,True,True,26.0,Adolescents,25,True
779,35,188,9627,value training,False,./assets/img/canyon/memory/25.jpg,canyon,26.0,False,True,original,1.0,"{""ArrowUp,ArrowLeft"":26,""ArrowUp,ArrowRight"":10,""ArrowDown,ArrowLeft"":5,""ArrowDown,ArrowRight"":17}",30,,16.0,Male,5,norest,631.8000001907349,391.2999997138977,ArrowUp,ArrowLeft,True,True,26.0,Adolescents,25,True
780,36,190,9627,value training,False,./assets/img/canyon/memory/41.jpg,canyon,26.0,False,True,original,1.0,"{""ArrowUp,ArrowLeft"":26,""ArrowUp,ArrowRight"":10,""ArrowDown,ArrowLeft"":5,""ArrowDown,ArrowRight"":17}",31,,16.0,Male,5,norest,705.8999996185303,395.40000009536743,ArrowUp,ArrowLeft,True,True,26.0,Adolescents,30,True
781,37,192,9627,value training,False,./assets/img/canyon/memory/3.jpg,canyon,26.0,False,True,original,1.0,"{""ArrowUp,ArrowLeft"":26,""ArrowUp,ArrowRight"":10,""ArrowDown,ArrowLeft"":5,""ArrowDown,ArrowRight"":17}",32,,16.0,Male,5,norest,807.3000001907349,312.8999996185303,ArrowUp,ArrowLeft,True,True,26.0,Adolescents,30,True
782,38,194,9627,value training,False,./assets/img/canyon/memory/32.jpg,canyon,26.0,False,True,original,1.0,"{""ArrowUp,ArrowLeft"":26,""ArrowUp,ArrowRight"":10,""ArrowDown,ArrowLeft"":5,""ArrowDown,ArrowRight"":17}",33,,16.0,Male,5,norest,950.9000000953674,450.90000009536743,ArrowUp,ArrowLeft,True,True,26.0,Adolescents,30,True
783,39,196,9627,value training,False,./assets/img/canyon/memory/28.jpg,canyon,26.0,False,True,original,1.0,"{""ArrowUp,ArrowLeft"":26,""ArrowUp,ArrowRight"":10,""ArrowDown,ArrowLeft"":5,""ArrowDown,ArrowRight"":17}",34,,16.0,Male,5,norest,712.1000003814697,432.30000019073486,ArrowUp,ArrowLeft,True,True,26.0,Adolescents,30,True
784,40,198,9627,value training,False,./assets/img/canyon/memory/4.jpg,canyon,26.0,False,True,original,1.0,"{""ArrowUp,ArrowLeft"":26,""ArrowUp,ArrowRight"":10,""ArrowDown,ArrowLeft"":5,""ArrowDown,ArrowRight"":17}",35,,16.0,Male,5,norest,638.8999996185303,503.7999997138977,ArrowUp,ArrowLeft,True,True,26.0,Adolescents,30,True
785,41,200,9627,value training,False,./assets/img/canyon/memory/13.jpg,canyon,26.0,False,True,original,1.0,"{""ArrowUp,ArrowLeft"":26,""ArrowUp,ArrowRight"":10,""ArrowDown,ArrowLeft"":5,""ArrowDown,ArrowRight"":17}",36,,16.0,Male,5,norest,718.7999997138977,319.2999997138977,ArrowUp,ArrowLeft,True,True,26.0,Adolescents,35,True
786,42,202,9627,value training,False,./assets/img/canyon/memory/5.jpg,canyon,26.0,False,True,original,1.0,"{""ArrowUp,ArrowLeft"":26,""ArrowUp,ArrowRight"":10,""ArrowDown,ArrowLeft"":5,""ArrowDown,ArrowRight"":17}",37,,16.0,Male,5,norest,1047.7999997138977,442.59999990463257,ArrowUp,ArrowLeft,True,True,26.0,Adolescents,35,True
787,43,204,9627,value training,False,./assets/img/canyon/memory/6.jpg,canyon,26.0,False,True,original,1.0,"{""ArrowUp,ArrowLeft"":26,""ArrowUp,ArrowRight"":10,""ArrowDown,ArrowLeft"":5,""ArrowDown,ArrowRight"":17}",38,,16.0,Male,5,norest,656.7000002861023,392.59999990463257,ArrowUp,ArrowLeft,True,True,26.0,Adolescents,35,True
788,44,206,9627,value training,False,./assets/img/canyon/memory/9.jpg,canyon,26.0,False,True,original,1.0,"{""ArrowUp,ArrowLeft"":26,""ArrowUp,ArrowRight"":10,""ArrowDown,ArrowLeft"":5,""ArrowDown,ArrowRight"":17}",39,,16.0,Male,5,norest,711.0999999046326,367.69999980926514,ArrowUp,ArrowLeft,True,True,26.0,Adolescents,35,True
790,46,210,9627,value training,False,./assets/img/canyon/memory/25.jpg,canyon,26.0,False,True,original,1.0,"{""ArrowUp,ArrowLeft"":26,""ArrowUp,ArrowRight"":10,""ArrowDown,ArrowLeft"":5,""ArrowDown,ArrowRight"":17}",40,,16.0,Male,5,norest,1329.2999997138977,521.7999997138977,ArrowUp,ArrowLeft,True,True,26.0,Adolescents,35,True
791,47,212,9627,value training,False,./assets/img/canyon/memory/8.jpg,canyon,26.0,False,True,original,1.0,"{""ArrowUp,ArrowLeft"":26,""ArrowUp,ArrowRight"":10,""ArrowDown,ArrowLeft"":5,""ArrowDown,ArrowRight"":17}",41,,16.0,Male,5,norest,1350.4000000953674,495.2000002861023,ArrowUp,ArrowLeft,True,True,26.0,Adolescents,40,True
792,48,214,9627,value training,False,./assets/img/canyon/memory/14.jpg,canyon,26.0,False,True,original,1.0,"{""ArrowUp,ArrowLeft"":26,""ArrowUp,ArrowRight"":10,""ArrowDown,ArrowLeft"":5,""ArrowDown,ArrowRight"":17}",42,,16.0,Male,5,norest,1335.3999996185303,543.9000000953674,ArrowUp,ArrowLeft,True,True,26.0,Adolescents,40,True
824,80,293,9627,value training,False,./assets/img/ocean/memory/25.jpg,ocean,23.0,False,False,revaluation,2.0,"{""ArrowUp,ArrowLeft"":23,""ArrowUp,ArrowRight"":10,""ArrowDown,ArrowLeft"":8,""ArrowDown,ArrowRight"":30}",1,,16.0,Male,5,norest,1439.0999999046326,658.9000000953674,ArrowUp,ArrowLeft,False,True,30.0,Adolescents,0,False
825,81,295,9627,value training,False,./assets/img/ocean/memory/22.jpg,ocean,8.0,False,False,revaluation,2.0,"{""ArrowUp,ArrowLeft"":23,""ArrowUp,ArrowRight"":10,""ArrowDown,ArrowLeft"":8,""ArrowDown,ArrowRight"":30}",2,,16.0,Male,5,norest,998.2999997138977,393.80000019073486,ArrowDown,ArrowLeft,True,False,30.0,Adolescents,0,False
826,82,297,9627,value training,False,./assets/img/ocean/memory/6.jpg,ocean,10.0,False,False,revaluation,2.0,"{""ArrowUp,ArrowLeft"":23,""ArrowUp,ArrowRight"":10,""ArrowDown,ArrowLeft"":8,""ArrowDown,ArrowRight"":30}",3,,16.0,Male,5,norest,858.0,410.3999996185303,ArrowUp,ArrowRight,False,False,30.0,Adolescents,0,False
827,83,299,9627,value training,False,./assets/img/ocean/memory/5.jpg,ocean,30.0,False,True,revaluation,2.0,"{""ArrowUp,ArrowLeft"":23,""ArrowUp,ArrowRight"":10,""ArrowDown,ArrowLeft"":8,""ArrowDown,ArrowRight"":30}",4,,16.0,Male,5,norest,688.0999999046326,386.3999996185303,ArrowDown,ArrowRight,True,True,30.0,Adolescents,0,True
828,84,301,9627,value training,False,./assets/img/ocean/memory/7.jpg,ocean,30.0,False,True,revaluation,2.0,"{""ArrowUp,ArrowLeft"":23,""ArrowUp,ArrowRight"":10,""ArrowDown,ArrowLeft"":8,""ArrowDown,ArrowRight"":30}",5,,16.0,Male,5,norest,795.0,552.0999999046326,ArrowDown,ArrowRight,True,True,30.0,Adolescents,0,True
830,86,305,9627,value training,False,./assets/img/ocean/memory/28.jpg,ocean,30.0,False,True,revaluation,2.0,"{""ArrowUp,ArrowLeft"":23,""ArrowUp,ArrowRight"":10,""ArrowDown,ArrowLeft"":8,""ArrowDown,ArrowRight"":30}",6,,16.0,Male,5,norest,592.5999999046326,256.2999997138977,ArrowDown,ArrowRight,True,True,30.0,Adolescents,5,True
831,87,307,9627,value training,False,./assets/img/ocean/memory/3.jpg,ocean,30.0,False,True,revaluation,2.0,"{""ArrowUp,ArrowLeft"":23,""ArrowUp,ArrowRight"":10,""ArrowDown,ArrowLeft"":8,""ArrowDown,ArrowRight"":30}",7,,16.0,Male,5,norest,471.2999997138977,361.0,ArrowDown,ArrowRight,True,True,30.0,Adolescents,5,True
832,88,309,9627,value training,False,./assets/img/ocean/memory/16.jpg,ocean,30.0,False,True,revaluation,2.0,"{""ArrowUp,ArrowLeft"":23,""ArrowUp,ArrowRight"":10,""ArrowDown,ArrowLeft"":8,""ArrowDown,ArrowRight"":30}",8,,16.0,Male,5,norest,734.6000003814697,379.09999990463257,ArrowDown,ArrowRight,True,True,30.0,Adolescents,5,True
834,90,313,9627,value training,False,./assets/img/ocean/memory/11.jpg,ocean,30.0,False,True,revaluation,2.0,"{""ArrowUp,ArrowLeft"":23,""ArrowUp,ArrowRight"":10,""ArrowDown,ArrowLeft"":8,""ArrowDown,ArrowRight"":30}",9,,16.0,Male,5,norest,776.1999998092651,368.59999990463257,ArrowDown,ArrowRight,True,True,30.0,Adolescents,5,True
835,91,315,9627,value training,False,./assets/img/ocean/memory/8.jpg,ocean,30.0,False,True,revaluation,2.0,"{""ArrowUp,ArrowLeft"":23,""ArrowUp,ArrowRight"":10,""ArrowDown,ArrowLeft"":8,""ArrowDown,ArrowRight"":30}",10,,16.0,Male,5,norest,543.5,423.19999980926514,ArrowDown,ArrowRight,True,True,30.0,Adolescents,5,True
836,92,317,9627,value training,False,./assets/img/ocean/memory/26.jpg,ocean,30.0,False,True,revaluation,2.0,"{""ArrowUp,ArrowLeft"":23,""ArrowUp,ArrowRight"":10,""ArrowDown,ArrowLeft"":8,""ArrowDown,ArrowRight"":30}",11,,16.0,Male,5,norest,961.2000002861023,352.5,ArrowDown,ArrowRight,True,True,30.0,Adolescents,10,True
837,93,319,9627,value training,False,./assets/img/ocean/memory/9.jpg,ocean,30.0,False,True,revaluation,2.0,"{""ArrowUp,ArrowLeft"":23,""ArrowUp,ArrowRight"":10,""ArrowDown,ArrowLeft"":8,""ArrowDown,ArrowRight"":30}",12,,16.0,Male,5,norest,854.5999999046326,479.3999996185303,ArrowDown,ArrowRight,True,True,30.0,Adolescents,10,True
838,94,321,9627,value training,False,./assets/img/ocean/memory/4.jpg,ocean,30.0,False,True,revaluation,2.0,"{""ArrowUp,ArrowLeft"":23,""ArrowUp,ArrowRight"":10,""ArrowDown,ArrowLeft"":8,""ArrowDown,ArrowRight"":30}",13,,16.0,Male,5,norest,914.2000002861023,367.5,ArrowDown,ArrowRight,True,True,30.0,Adolescents,10,True
839,95,323,9627,value training,False,./assets/img/ocean/memory/26.jpg,ocean,30.0,False,True,revaluation,2.0,"{""ArrowUp,ArrowLeft"":23,""ArrowUp,ArrowRight"":10,""ArrowDown,ArrowLeft"":8,""ArrowDown,ArrowRight"":30}",14,,16.0,Male,5,norest,1159.5,1000.6999998092651,ArrowDown,ArrowRight,True,True,30.0,Adolescents,10,True
840,96,325,9627,value training,False,./assets/img/ocean/memory/30.jpg,ocean,30.0,False,True,revaluation,2.0,"{""ArrowUp,ArrowLeft"":23,""ArrowUp,ArrowRight"":10,""ArrowDown,ArrowLeft"":8,""ArrowDown,ArrowRight"":30}",15,,16.0,Male,5,norest,1231.0,791.5999999046326,ArrowDown,ArrowRight,True,True,30.0,Adolescents,10,True
841,97,327,9627,value training,False,./assets/img/ocean/memory/7.jpg,ocean,30.0,False,True,revaluation,2.0,"{""ArrowUp,ArrowLeft"":23,""ArrowUp,ArrowRight"":10,""ArrowDown,ArrowLeft"":8,""ArrowDown,ArrowRight"":30}",16,,16.0,Male,5,norest,966.9000000953674,1545.4000000953674,ArrowDown,ArrowRight,True,True,30.0,Adolescents,15,True
843,99,331,9627,value training,False,./assets/img/ocean/memory/34.jpg,ocean,30.0,False,True,revaluation,2.0,"{""ArrowUp,ArrowLeft"":23,""ArrowUp,ArrowRight"":10,""ArrowDown,ArrowLeft"":8,""ArrowDown,ArrowRight"":30}",17,,16.0,Male,5,norest,560.3999996185303,329.5,ArrowDown,ArrowRight,True,True,30.0,Adolescents,15,True
