,level_0,index,subject_id,task_part,timeout,stimulus,environment,score,isCatch,correct,rewardMap,trial_num,ground_truth,age,gender,subject_condition,rest,rt0,rt1,response0,response1,is_optimal_first,is_optimal_second,optimal_score,categorical_age,block_condition,block_order
0,164,488,9888,memory,False,./assets/img/canyon/memory/11.jpg,canyon,10.0,,True,,4,new,7.05,Male,3,norest,5770.0,,definitely_new,,,,,Children,Revaluation,2.0
1,165,490,9888,memory,False,./assets/img/canyon/memory/41.jpg,canyon,0.0,,False,,5,old,7.05,Male,3,norest,2881.0,,definitely_new,,,,,Children,Revaluation,2.0
2,168,496,9888,memory,False,./assets/img/canyon/memory/38.jpg,canyon,10.0,,True,,8,old,7.05,Male,3,norest,3135.0,,maybe_old,,,,,Children,Revaluation,2.0
3,171,502,9888,memory,False,./assets/img/canyon/memory/27.jpg,canyon,0.0,,False,,11,old,7.05,Male,3,norest,2975.0,,maybe_new,,,,,Children,Revaluation,2.0
4,174,508,9888,memory,False,./assets/img/canyon/memory/7.jpg,canyon,0.0,,False,,14,old,7.05,Male,3,norest,2747.0,,maybe_new,,,,,Children,Revaluation,2.0
5,175,510,9888,memory,False,./assets/img/canyon/memory/23.jpg,canyon,0.0,,False,,15,new,7.05,Male,3,norest,2536.0,,definitely_old,,,,,Children,Revaluation,2.0
6,176,512,9888,memory,False,./assets/img/canyon/memory/37.jpg,canyon,10.0,,True,,16,old,7.05,Male,3,norest,3481.0,,maybe_old,,,,,Children,Revaluation,2.0
7,179,518,9888,memory,False,./assets/img/canyon/memory/19.jpg,canyon,0.0,,False,,19,new,7.05,Male,3,norest,1775.0,,maybe_old,,,,,Children,Revaluation,2.0
8,181,522,9888,memory,False,./assets/img/canyon/memory/14.jpg,canyon,0.0,,False,,21,new,7.05,Male,3,norest,3652.0,,maybe_old,,,,,Children,Revaluation,2.0
9,182,524,9888,memory,False,./assets/img/canyon/memory/12.jpg,canyon,0.0,,False,,22,old,7.05,Male,3,norest,1915.0,,maybe_new,,,,,Children,Revaluation,2.0
10,183,526,9888,memory,False,./assets/img/canyon/memory/0.jpg,canyon,0.0,,False,,23,old,7.05,Male,3,norest,3378.0,,maybe_new,,,,,Children,Revaluation,2.0
11,184,528,9888,memory,False,./assets/img/canyon/memory/15.jpg,canyon,0.0,,False,,24,old,7.05,Male,3,norest,2274.0,,maybe_new,,,,,Children,Revaluation,2.0
12,185,530,9888,memory,False,./assets/img/canyon/memory/40.jpg,canyon,10.0,,True,,25,old,7.05,Male,3,norest,3504.0,,maybe_old,,,,,Children,Revaluation,2.0
13,188,536,9888,memory,False,./assets/img/canyon/memory/13.jpg,canyon,0.0,,False,,28,old,7.05,Male,3,norest,3161.0,,maybe_new,,,,,Children,Revaluation,2.0
14,190,540,9888,memory,False,./assets/img/canyon/memory/32.jpg,canyon,0.0,,False,,30,new,7.05,Male,3,norest,2088.0,,maybe_old,,,,,Children,Revaluation,2.0
15,192,544,9888,memory,False,./assets/img/canyon/memory/25.jpg,canyon,10.0,,True,,32,old,7.05,Male,3,norest,2462.0,,definitely_old,,,,,Children,Revaluation,2.0
16,197,554,9888,memory,False,./assets/img/canyon/memory/5.jpg,canyon,10.0,,True,,37,new,7.05,Male,3,norest,1334.0,,maybe_new,,,,,Children,Revaluation,2.0
17,199,558,9888,memory,False,./assets/img/canyon/memory/36.jpg,canyon,0.0,,False,,39,old,7.05,Male,3,norest,2173.0,,definitely_new,,,,,Children,Revaluation,2.0
18,201,562,9888,memory,False,./assets/img/canyon/memory/39.jpg,canyon,0.0,,False,,41,new,7.05,Male,3,norest,2022.0,,definitely_old,,,,,Children,Revaluation,2.0
19,202,564,9888,memory,False,./assets/img/canyon/memory/17.jpg,canyon,10.0,,True,,42,old,7.05,Male,3,norest,3188.0,,maybe_old,,,,,Children,Revaluation,2.0
20,208,576,9888,memory,False,./assets/img/canyon/memory/8.jpg,canyon,0.0,,False,,48,old,7.05,Male,3,norest,3423.0,,definitely_new,,,,,Children,Revaluation,2.0
21,209,578,9888,memory,False,./assets/img/canyon/memory/28.jpg,canyon,0.0,,False,,49,old,7.05,Male,3,norest,2162.0,,definitely_new,,,,,Children,Revaluation,2.0
22,210,580,9888,memory,False,./assets/img/canyon/memory/2.jpg,canyon,0.0,,False,,50,new,7.05,Male,3,norest,4505.0,,definitely_old,,,,,Children,Revaluation,2.0
23,211,582,9888,memory,False,./assets/img/canyon/memory/16.jpg,canyon,10.0,,True,,51,old,7.05,Male,3,norest,2270.0,,maybe_old,,,,,Children,Revaluation,2.0
24,212,584,9888,memory,False,./assets/img/canyon/memory/1.jpg,canyon,10.0,,True,,52,old,7.05,Male,3,norest,2430.0,,maybe_old,,,,,Children,Revaluation,2.0
25,213,586,9888,memory,False,./assets/img/canyon/memory/18.jpg,canyon,10.0,,True,,53,new,7.05,Male,3,norest,2354.0,,definitely_new,,,,,Children,Revaluation,2.0
26,215,590,9888,memory,False,./assets/img/canyon/memory/30.jpg,canyon,0.0,,False,,55,new,7.05,Male,3,norest,2047.0,,definitely_old,,,,,Children,Revaluation,2.0
27,216,592,9888,memory,False,./assets/img/canyon/memory/24.jpg,canyon,10.0,,True,,56,new,7.05,Male,3,norest,3046.0,,definitely_new,,,,,Children,Revaluation,2.0
28,220,600,9888,memory,False,./assets/img/canyon/memory/6.jpg,canyon,10.0,,True,,60,new,7.05,Male,3,norest,3496.0,,definitely_new,,,,,Children,Revaluation,2.0
29,222,604,9888,memory,False,./assets/img/canyon/memory/22.jpg,canyon,10.0,,True,,62,new,7.05,Male,3,norest,1783.0,,definitely_new,,,,,Children,Revaluation,2.0
30,226,612,9888,memory,False,./assets/img/canyon/memory/26.jpg,canyon,10.0,,True,,66,new,7.05,Male,3,norest,1085.0,,maybe_new,,,,,Children,Revaluation,2.0
31,227,614,9888,memory,False,./assets/img/canyon/memory/35.jpg,canyon,0.0,,False,,67,new,7.05,Male,3,norest,340.0,,definitely_old,,,,,Children,Revaluation,2.0
32,230,620,9888,memory,False,./assets/img/canyon/memory/33.jpg,canyon,10.0,,True,,70,new,7.05,Male,3,norest,5691.0,,definitely_new,,,,,Children,Revaluation,2.0
33,234,628,9888,memory,False,./assets/img/canyon/memory/3.jpg,canyon,0.0,,False,,74,old,7.05,Male,3,norest,752.0,,definitely_new,,,,,Children,Revaluation,2.0
34,235,630,9888,memory,False,./assets/img/canyon/memory/4.jpg,canyon,10.0,,True,,75,new,7.05,Male,3,norest,1737.0,,definitely_new,,,,,Children,Revaluation,2.0
35,238,636,9888,memory,False,./assets/img/canyon/memory/21.jpg,canyon,10.0,,True,,78,new,7.05,Male,3,norest,137.0,,definitely_new,,,,,Children,Revaluation,2.0
36,239,638,9888,memory,False,./assets/img/canyon/memory/31.jpg,canyon,10.0,,True,,79,new,7.05,Male,3,norest,192.0,,definitely_new,,,,,Children,Revaluation,2.0
37,240,640,9888,memory,False,./assets/img/canyon/memory/10.jpg,canyon,10.0,,True,,80,new,7.05,Male,3,norest,129.0,,definitely_new,,,,,Children,Revaluation,2.0
38,241,642,9888,memory,False,./assets/img/canyon/memory/34.jpg,canyon,0.0,,False,,81,old,7.05,Male,3,norest,39.0,,definitely_new,,,,,Children,Revaluation,2.0
39,242,644,9888,memory,False,./assets/img/canyon/memory/20.jpg,canyon,0.0,,False,,82,old,7.05,Male,3,norest,2999.0,,definitely_new,,,,,Children,Revaluation,2.0
40,244,648,9888,memory,False,./assets/img/canyon/memory/29.jpg,canyon,0.0,,False,,84,old,7.05,Male,3,norest,1238.0,,definitely_new,,,,,Children,Revaluation,2.0
41,247,654,9888,memory,False,./assets/img/canyon/memory/9.jpg,canyon,10.0,,True,,87,new,7.05,Male,3,norest,1296.0,,definitely_new,,,,,Children,Revaluation,2.0
42,166,492,9888,memory,False,./assets/img/ocean/memory/8.jpg,ocean,0.0,,False,,6,old,7.05,Male,3,norest,3130.0,,maybe_new,,,,,Children,Control,1.0
43,167,494,9888,memory,False,./assets/img/ocean/memory/6.jpg,ocean,10.0,,True,,7,new,7.05,Male,3,norest,2583.0,,definitely_new,,,,,Children,Control,1.0
44,169,498,9888,memory,False,./assets/img/ocean/memory/38.jpg,ocean,10.0,,True,,9,new,7.05,Male,3,norest,3015.0,,maybe_new,,,,,Children,Control,1.0
45,170,500,9888,memory,False,./assets/img/ocean/memory/16.jpg,ocean,10.0,,True,,10,old,7.05,Male,3,norest,2772.0,,definitely_old,,,,,Children,Control,1.0
46,172,504,9888,memory,False,./assets/img/ocean/memory/20.jpg,ocean,0.0,,False,,12,new,7.05,Male,3,norest,4157.0,,maybe_old,,,,,Children,Control,1.0
47,173,506,9888,memory,False,./assets/img/ocean/memory/28.jpg,ocean,10.0,,True,,13,new,7.05,Male,3,norest,4052.0,,definitely_new,,,,,Children,Control,1.0
48,177,514,9888,memory,False,./assets/img/ocean/memory/15.jpg,ocean,0.0,,False,,17,new,7.05,Male,3,norest,3328.0,,maybe_old,,,,,Children,Control,1.0
49,178,516,9888,memory,False,./assets/img/ocean/memory/18.jpg,ocean,10.0,,True,,18,old,7.05,Male,3,norest,2294.0,,maybe_old,,,,,Children,Control,1.0
50,180,520,9888,memory,False,./assets/img/ocean/memory/39.jpg,ocean,0.0,,False,,20,old,7.05,Male,3,norest,2149.0,,definitely_new,,,,,Children,Control,1.0
51,186,532,9888,memory,False,./assets/img/ocean/memory/37.jpg,ocean,0.0,,False,,26,new,7.05,Male,3,norest,2135.0,,definitely_old,,,,,Children,Control,1.0
52,187,534,9888,memory,False,./assets/img/ocean/memory/30.jpg,ocean,0.0,,False,,27,old,7.05,Male,3,norest,3451.0,,definitely_new,,,,,Children,Control,1.0
53,189,538,9888,memory,False,./assets/img/ocean/memory/35.jpg,ocean,0.0,,False,,29,old,7.05,Male,3,norest,2510.0,,maybe_new,,,,,Children,Control,1.0
54,191,542,9888,memory,False,./assets/img/ocean/memory/17.jpg,ocean,0.0,,False,,31,old,7.05,Male,3,norest,3006.0,,maybe_new,,,,,Children,Control,1.0
55,193,546,9888,memory,False,./assets/img/ocean/memory/22.jpg,ocean,0.0,,False,,33,new,7.05,Male,3,norest,2486.0,,maybe_old,,,,,Children,Control,1.0
56,194,548,9888,memory,False,./assets/img/ocean/memory/13.jpg,ocean,0.0,,False,,34,new,7.05,Male,3,norest,2472.0,,definitely_old,,,,,Children,Control,1.0
57,195,550,9888,memory,False,./assets/img/ocean/memory/24.jpg,ocean,10.0,,True,,35,new,7.05,Male,3,norest,2442.0,,maybe_new,,,,,Children,Control,1.0
58,196,552,9888,memory,False,./assets/img/ocean/memory/9.jpg,ocean,0.0,,False,,36,old,7.05,Male,3,norest,2142.0,,maybe_new,,,,,Children,Control,1.0
59,198,556,9888,memory,False,./assets/img/ocean/memory/29.jpg,ocean,0.0,,False,,38,new,7.05,Male,3,norest,3333.0,,maybe_old,,,,,Children,Control,1.0
60,200,560,9888,memory,False,./assets/img/ocean/memory/32.jpg,ocean,10.0,,True,,40,new,7.05,Male,3,norest,3152.0,,definitely_new,,,,,Children,Control,1.0
61,203,566,9888,memory,False,./assets/img/ocean/memory/40.jpg,ocean,10.0,,True,,43,new,7.05,Male,3,norest,6193.0,,maybe_new,,,,,Children,Control,1.0
62,204,568,9888,memory,False,./assets/img/ocean/memory/7.jpg,ocean,10.0,,True,,44,new,7.05,Male,3,norest,2828.0,,definitely_new,,,,,Children,Control,1.0
63,205,570,9888,memory,False,./assets/img/ocean/memory/25.jpg,ocean,0.0,,False,,45,old,7.05,Male,3,norest,3181.0,,definitely_new,,,,,Children,Control,1.0
64,206,572,9888,memory,False,./assets/img/ocean/memory/36.jpg,ocean,0.0,,False,,46,old,7.05,Male,3,norest,1982.0,,definitely_new,,,,,Children,Control,1.0
65,207,574,9888,memory,False,./assets/img/ocean/memory/12.jpg,ocean,10.0,,True,,47,new,7.05,Male,3,norest,3259.0,,maybe_new,,,,,Children,Control,1.0
66,214,588,9888,memory,False,./assets/img/ocean/memory/31.jpg,ocean,10.0,,True,,54,new,7.05,Male,3,norest,1930.0,,maybe_new,,,,,Children,Control,1.0
67,217,594,9888,memory,False,./assets/img/ocean/memory/3.jpg,ocean,10.0,,True,,57,new,7.05,Male,3,norest,3815.0,,definitely_new,,,,,Children,Control,1.0
68,218,596,9888,memory,False,./assets/img/ocean/memory/34.jpg,ocean,10.0,,True,,58,new,7.05,Male,3,norest,3590.0,,definitely_new,,,,,Children,Control,1.0
69,219,598,9888,memory,False,./assets/img/ocean/memory/41.jpg,ocean,0.0,,False,,59,old,7.05,Male,3,norest,2568.0,,maybe_new,,,,,Children,Control,1.0
70,221,602,9888,memory,False,./assets/img/ocean/memory/19.jpg,ocean,0.0,,False,,61,old,7.05,Male,3,norest,1295.0,,definitely_new,,,,,Children,Control,1.0
71,223,606,9888,memory,False,./assets/img/ocean/memory/23.jpg,ocean,0.0,,False,,63,old,7.05,Male,3,norest,8818.0,,definitely_new,,,,,Children,Control,1.0
72,224,608,9888,memory,False,./assets/img/ocean/memory/5.jpg,ocean,10.0,,True,,64,new,7.05,Male,3,norest,2116.0,,definitely_new,,,,,Children,Control,1.0
73,225,610,9888,memory,False,./assets/img/ocean/memory/26.jpg,ocean,0.0,,False,,65,old,7.05,Male,3,norest,4645.0,,definitely_new,,,,,Children,Control,1.0
74,228,616,9888,memory,False,./assets/img/ocean/memory/11.jpg,ocean,0.0,,False,,68,new,7.05,Male,3,norest,500.0,,definitely_old,,,,,Children,Control,1.0
75,229,618,9888,memory,False,./assets/img/ocean/memory/21.jpg,ocean,10.0,,True,,69,old,7.05,Male,3,norest,31.0,,maybe_old,,,,,Children,Control,1.0
76,231,622,9888,memory,False,./assets/img/ocean/memory/33.jpg,ocean,0.0,,False,,71,old,7.05,Male,3,norest,2952.0,,definitely_new,,,,,Children,Control,1.0
77,232,624,9888,memory,False,./assets/img/ocean/memory/14.jpg,ocean,0.0,,False,,72,old,7.05,Male,3,norest,39.0,,definitely_new,,,,,Children,Control,1.0
78,233,626,9888,memory,False,./assets/img/ocean/memory/27.jpg,ocean,0.0,,False,,73,old,7.05,Male,3,norest,112.0,,definitely_new,,,,,Children,Control,1.0
79,236,632,9888,memory,False,./assets/img/ocean/memory/0.jpg,ocean,0.0,,False,,76,old,7.05,Male,3,norest,240.0,,definitely_new,,,,,Children,Control,1.0
80,237,634,9888,memory,False,./assets/img/ocean/memory/1.jpg,ocean,0.0,,False,,77,old,7.05,Male,3,norest,137.0,,definitely_new,,,,,Children,Control,1.0
81,243,646,9888,memory,False,./assets/img/ocean/memory/2.jpg,ocean,10.0,,True,,83,new,7.05,Male,3,norest,374.0,,definitely_new,,,,,Children,Control,1.0
82,245,650,9888,memory,False,./assets/img/ocean/memory/10.jpg,ocean,0.0,,False,,85,old,7.05,Male,3,norest,120.0,,definitely_new,,,,,Children,Control,1.0
83,246,652,9888,memory,False,./assets/img/ocean/memory/4.jpg,ocean,10.0,,True,,86,new,7.05,Male,3,norest,1022.0,,definitely_new,,,,,Children,Control,1.0
84,164,490,8200,memory,False,./assets/img/ocean/memory/3.jpg,ocean,0.0,,False,,4,old,19.77,Male,2,norest,2125.0,,definitely_new,,,,,Adults,Revaluation,1.0
85,167,496,8200,memory,False,./assets/img/ocean/memory/20.jpg,ocean,10.0,,True,,7,new,19.77,Male,2,norest,610.0,,definitely_new,,,,,Adults,Revaluation,1.0
86,169,500,8200,memory,False,./assets/img/ocean/memory/35.jpg,ocean,0.0,,False,,9,old,19.77,Male,2,norest,960.0,,definitely_new,,,,,Adults,Revaluation,1.0
87,170,502,8200,memory,False,./assets/img/ocean/memory/18.jpg,ocean,10.0,,True,,10,new,19.77,Male,2,norest,1088.0,,maybe_new,,,,,Adults,Revaluation,1.0
88,174,510,8200,memory,False,./assets/img/ocean/memory/11.jpg,ocean,0.0,,False,,14,old,19.77,Male,2,norest,427.0,,definitely_new,,,,,Adults,Revaluation,1.0
89,176,514,8200,memory,False,./assets/img/ocean/memory/8.jpg,ocean,0.0,,False,,16,old,19.77,Male,2,norest,343.0,,maybe_new,,,,,Adults,Revaluation,1.0
90,179,520,8200,memory,False,./assets/img/ocean/memory/4.jpg,ocean,10.0,,True,,19,old,19.77,Male,2,norest,608.0,,definitely_old,,,,,Adults,Revaluation,1.0
91,183,528,8200,memory,False,./assets/img/ocean/memory/40.jpg,ocean,0.0,,False,,23,old,19.77,Male,2,norest,243.0,,definitely_new,,,,,Adults,Revaluation,1.0
92,184,530,8200,memory,False,./assets/img/ocean/memory/6.jpg,ocean,10.0,,True,,24,new,19.77,Male,2,norest,610.0,,maybe_new,,,,,Adults,Revaluation,1.0
93,187,536,8200,memory,False,./assets/img/ocean/memory/27.jpg,ocean,0.0,,False,,27,old,19.77,Male,2,norest,844.0,,maybe_new,,,,,Adults,Revaluation,1.0
94,188,538,8200,memory,False,./assets/img/ocean/memory/24.jpg,ocean,10.0,,True,,28,new,19.77,Male,2,norest,88.0,,definitely_new,,,,,Adults,Revaluation,1.0
95,189,540,8200,memory,False,./assets/img/ocean/memory/23.jpg,ocean,0.0,,False,,29,old,19.77,Male,2,norest,589.0,,definitely_new,,,,,Adults,Revaluation,1.0
96,190,542,8200,memory,False,./assets/img/ocean/memory/34.jpg,ocean,0.0,,False,,30,old,19.77,Male,2,norest,1969.0,,maybe_new,,,,,Adults,Revaluation,1.0
97,191,544,8200,memory,False,./assets/img/ocean/memory/38.jpg,ocean,0.0,,False,,31,old,19.77,Male,2,norest,491.0,,definitely_new,,,,,Adults,Revaluation,1.0
98,194,550,8200,memory,False,./assets/img/ocean/memory/12.jpg,ocean,0.0,,False,,34,old,19.77,Male,2,norest,366.0,,definitely_new,,,,,Adults,Revaluation,1.0
99,195,552,8200,memory,False,./assets/img/ocean/memory/13.jpg,ocean,0.0,,False,,35,old,19.77,Male,2,norest,1769.0,,maybe_new,,,,,Adults,Revaluation,1.0
100,196,554,8200,memory,False,./assets/img/ocean/memory/36.jpg,ocean,10.0,,True,,36,new,19.77,Male,2,norest,1846.0,,definitely_new,,,,,Adults,Revaluation,1.0
101,199,560,8200,memory,False,./assets/img/ocean/memory/33.jpg,ocean,10.0,,True,,39,new,19.77,Male,2,norest,321.0,,definitely_new,,,,,Adults,Revaluation,1.0
102,200,562,8200,memory,False,./assets/img/ocean/memory/7.jpg,ocean,0.0,,False,,40,old,19.77,Male,2,norest,292.0,,maybe_new,,,,,Adults,Revaluation,1.0
103,201,564,8200,memory,False,./assets/img/ocean/memory/2.jpg,ocean,10.0,,True,,41,new,19.77,Male,2,norest,575.0,,definitely_new,,,,,Adults,Revaluation,1.0
104,203,568,8200,memory,False,./assets/img/ocean/memory/0.jpg,ocean,0.0,,False,,43,old,19.77,Male,2,norest,564.0,,definitely_new,,,,,Adults,Revaluation,1.0
105,204,570,8200,memory,False,./assets/img/ocean/memory/14.jpg,ocean,10.0,,True,,44,new,19.77,Male,2,norest,390.0,,maybe_new,,,,,Adults,Revaluation,1.0
106,205,572,8200,memory,False,./assets/img/ocean/memory/29.jpg,ocean,0.0,,False,,45,old,19.77,Male,2,norest,227.0,,definitely_new,,,,,Adults,Revaluation,1.0
107,209,580,8200,memory,False,./assets/img/ocean/memory/15.jpg,ocean,10.0,,True,,49,new,19.77,Male,2,norest,370.0,,maybe_new,,,,,Adults,Revaluation,1.0
108,210,582,8200,memory,False,./assets/img/ocean/memory/26.jpg,ocean,10.0,,True,,50,new,19.77,Male,2,norest,263.0,,maybe_new,,,,,Adults,Revaluation,1.0
109,212,586,8200,memory,False,./assets/img/ocean/memory/30.jpg,ocean,0.0,,False,,52,old,19.77,Male,2,norest,521.0,,definitely_new,,,,,Adults,Revaluation,1.0
110,213,588,8200,memory,False,./assets/img/ocean/memory/21.jpg,ocean,10.0,,True,,53,new,19.77,Male,2,norest,1715.0,,definitely_new,,,,,Adults,Revaluation,1.0
111,214,590,8200,memory,False,./assets/img/ocean/memory/1.jpg,ocean,0.0,,False,,54,old,19.77,Male,2,norest,388.0,,definitely_new,,,,,Adults,Revaluation,1.0
112,215,592,8200,memory,False,./assets/img/ocean/memory/37.jpg,ocean,10.0,,True,,55,new,19.77,Male,2,norest,1240.0,,definitely_new,,,,,Adults,Revaluation,1.0
113,216,594,8200,memory,False,./assets/img/ocean/memory/9.jpg,ocean,10.0,,True,,56,new,19.77,Male,2,norest,649.0,,definitely_new,,,,,Adults,Revaluation,1.0
114,217,596,8200,memory,False,./assets/img/ocean/memory/16.jpg,ocean,10.0,,True,,57,new,19.77,Male,2,norest,786.0,,definitely_new,,,,,Adults,Revaluation,1.0
115,221,604,8200,memory,False,./assets/img/ocean/memory/17.jpg,ocean,10.0,,True,,61,new,19.77,Male,2,norest,128.0,,definitely_new,,,,,Adults,Revaluation,1.0
116,222,606,8200,memory,False,./assets/img/ocean/memory/5.jpg,ocean,10.0,,True,,62,new,19.77,Male,2,norest,252.0,,maybe_new,,,,,Adults,Revaluation,1.0
117,228,618,8200,memory,False,./assets/img/ocean/memory/25.jpg,ocean,10.0,,True,,68,new,19.77,Male,2,norest,390.0,,maybe_new,,,,,Adults,Revaluation,1.0
118,231,624,8200,memory,False,./assets/img/ocean/memory/19.jpg,ocean,0.0,,False,,71,old,19.77,Male,2,norest,287.0,,definitely_new,,,,,Adults,Revaluation,1.0
119,234,630,8200,memory,False,./assets/img/ocean/memory/41.jpg,ocean,10.0,,True,,74,old,19.77,Male,2,norest,133.0,,maybe_old,,,,,Adults,Revaluation,1.0
120,236,634,8200,memory,False,./assets/img/ocean/memory/32.jpg,ocean,10.0,,True,,76,new,19.77,Male,2,norest,276.0,,definitely_new,,,,,Adults,Revaluation,1.0
121,237,636,8200,memory,False,./assets/img/ocean/memory/39.jpg,ocean,10.0,,True,,77,new,19.77,Male,2,norest,838.0,,definitely_new,,,,,Adults,Revaluation,1.0
122,241,644,8200,memory,False,./assets/img/ocean/memory/28.jpg,ocean,10.0,,True,,81,new,19.77,Male,2,norest,2.0,,definitely_new,,,,,Adults,Revaluation,1.0
123,242,646,8200,memory,False,./assets/img/ocean/memory/22.jpg,ocean,0.0,,False,,82,old,19.77,Male,2,norest,341.0,,definitely_new,,,,,Adults,Revaluation,1.0
124,243,648,8200,memory,False,./assets/img/ocean/memory/10.jpg,ocean,10.0,,True,,83,old,19.77,Male,2,norest,88.0,,maybe_old,,,,,Adults,Revaluation,1.0
125,247,656,8200,memory,False,./assets/img/ocean/memory/31.jpg,ocean,10.0,,True,,87,new,19.77,Male,2,norest,100.0,,definitely_new,,,,,Adults,Revaluation,1.0
126,165,492,8200,memory,False,./assets/img/canyon/memory/4.jpg,canyon,10.0,,True,,5,new,19.77,Male,2,norest,957.0,,maybe_new,,,,,Adults,Control,2.0
127,166,494,8200,memory,False,./assets/img/canyon/memory/14.jpg,canyon,10.0,,True,,6,old,19.77,Male,2,norest,831.0,,maybe_old,,,,,Adults,Control,2.0
128,168,498,8200,memory,False,./assets/img/canyon/memory/22.jpg,canyon,10.0,,True,,8,new,19.77,Male,2,norest,949.0,,maybe_new,,,,,Adults,Control,2.0
129,171,504,8200,memory,False,./assets/img/canyon/memory/33.jpg,canyon,10.0,,True,,11,new,19.77,Male,2,norest,1060.0,,definitely_new,,,,,Adults,Control,2.0
130,172,506,8200,memory,False,./assets/img/canyon/memory/19.jpg,canyon,0.0,,False,,12,new,19.77,Male,2,norest,597.0,,definitely_old,,,,,Adults,Control,2.0
131,173,508,8200,memory,False,./assets/img/canyon/memory/10.jpg,canyon,0.0,,False,,13,old,19.77,Male,2,norest,901.0,,maybe_new,,,,,Adults,Control,2.0
132,175,512,8200,memory,False,./assets/img/canyon/memory/0.jpg,canyon,10.0,,True,,15,old,19.77,Male,2,norest,398.0,,maybe_old,,,,,Adults,Control,2.0
133,177,516,8200,memory,False,./assets/img/canyon/memory/31.jpg,canyon,0.0,,False,,17,old,19.77,Male,2,norest,886.0,,definitely_new,,,,,Adults,Control,2.0
134,178,518,8200,memory,False,./assets/img/canyon/memory/34.jpg,canyon,10.0,,True,,18,old,19.77,Male,2,norest,285.0,,maybe_old,,,,,Adults,Control,2.0
135,180,522,8200,memory,False,./assets/img/canyon/memory/24.jpg,canyon,0.0,,False,,20,old,19.77,Male,2,norest,638.0,,definitely_new,,,,,Adults,Control,2.0
136,181,524,8200,memory,False,./assets/img/canyon/memory/27.jpg,canyon,0.0,,False,,21,new,19.77,Male,2,norest,2738.0,,definitely_old,,,,,Adults,Control,2.0
137,182,526,8200,memory,False,./assets/img/canyon/memory/28.jpg,canyon,10.0,,True,,22,new,19.77,Male,2,norest,3031.0,,maybe_new,,,,,Adults,Control,2.0
138,185,532,8200,memory,False,./assets/img/canyon/memory/20.jpg,canyon,0.0,,False,,25,new,19.77,Male,2,norest,330.0,,maybe_old,,,,,Adults,Control,2.0
139,186,534,8200,memory,False,./assets/img/canyon/memory/1.jpg,canyon,0.0,,False,,26,old,19.77,Male,2,norest,2544.0,,definitely_new,,,,,Adults,Control,2.0
140,192,546,8200,memory,False,./assets/img/canyon/memory/40.jpg,canyon,0.0,,False,,32,old,19.77,Male,2,norest,829.0,,definitely_new,,,,,Adults,Control,2.0
141,193,548,8200,memory,False,./assets/img/canyon/memory/21.jpg,canyon,10.0,,True,,33,new,19.77,Male,2,norest,866.0,,definitely_new,,,,,Adults,Control,2.0
142,197,556,8200,memory,False,./assets/img/canyon/memory/15.jpg,canyon,0.0,,False,,37,old,19.77,Male,2,norest,508.0,,maybe_new,,,,,Adults,Control,2.0
143,198,558,8200,memory,False,./assets/img/canyon/memory/12.jpg,canyon,10.0,,True,,38,old,19.77,Male,2,norest,411.0,,maybe_old,,,,,Adults,Control,2.0
144,202,566,8200,memory,False,./assets/img/canyon/memory/26.jpg,canyon,0.0,,False,,42,old,19.77,Male,2,norest,546.0,,definitely_new,,,,,Adults,Control,2.0
145,206,574,8200,memory,False,./assets/img/canyon/memory/23.jpg,canyon,0.0,,False,,46,old,19.77,Male,2,norest,3157.0,,definitely_new,,,,,Adults,Control,2.0
146,207,576,8200,memory,False,./assets/img/canyon/memory/41.jpg,canyon,10.0,,True,,47,new,19.77,Male,2,norest,731.0,,definitely_new,,,,,Adults,Control,2.0
147,208,578,8200,memory,False,./assets/img/canyon/memory/32.jpg,canyon,0.0,,False,,48,old,19.77,Male,2,norest,1352.0,,definitely_new,,,,,Adults,Control,2.0
148,211,584,8200,memory,False,./assets/img/canyon/memory/6.jpg,canyon,10.0,,True,,51,new,19.77,Male,2,norest,1734.0,,definitely_new,,,,,Adults,Control,2.0
149,218,598,8200,memory,False,./assets/img/canyon/memory/7.jpg,canyon,0.0,,False,,58,old,19.77,Male,2,norest,25.0,,definitely_new,,,,,Adults,Control,2.0
150,219,600,8200,memory,False,./assets/img/canyon/memory/25.jpg,canyon,10.0,,True,,59,new,19.77,Male,2,norest,458.0,,maybe_new,,,,,Adults,Control,2.0
151,220,602,8200,memory,False,./assets/img/canyon/memory/8.jpg,canyon,0.0,,False,,60,new,19.77,Male,2,norest,327.0,,maybe_old,,,,,Adults,Control,2.0
152,223,608,8200,memory,False,./assets/img/canyon/memory/18.jpg,canyon,0.0,,False,,63,old,19.77,Male,2,norest,184.0,,definitely_new,,,,,Adults,Control,2.0
153,224,610,8200,memory,False,./assets/img/canyon/memory/5.jpg,canyon,0.0,,False,,64,old,19.77,Male,2,norest,330.0,,maybe_new,,,,,Adults,Control,2.0
154,225,612,8200,memory,False,./assets/img/canyon/memory/29.jpg,canyon,0.0,,False,,65,old,19.77,Male,2,norest,146.0,,definitely_new,,,,,Adults,Control,2.0
155,226,614,8200,memory,False,./assets/img/canyon/memory/11.jpg,canyon,0.0,,False,,66,old,19.77,Male,2,norest,371.0,,definitely_new,,,,,Adults,Control,2.0
156,227,616,8200,memory,False,./assets/img/canyon/memory/39.jpg,canyon,0.0,,False,,67,old,19.77,Male,2,norest,853.0,,maybe_new,,,,,Adults,Control,2.0
157,229,620,8200,memory,False,./assets/img/canyon/memory/9.jpg,canyon,0.0,,False,,69,old,19.77,Male,2,norest,764.0,,definitely_new,,,,,Adults,Control,2.0
158,230,622,8200,memory,False,./assets/img/canyon/memory/17.jpg,canyon,0.0,,False,,70,new,19.77,Male,2,norest,1037.0,,maybe_old,,,,,Adults,Control,2.0
159,232,626,8200,memory,False,./assets/img/canyon/memory/16.jpg,canyon,0.0,,False,,72,new,19.77,Male,2,norest,154.0,,definitely_old,,,,,Adults,Control,2.0
160,233,628,8200,memory,False,./assets/img/canyon/memory/36.jpg,canyon,10.0,,True,,73,new,19.77,Male,2,norest,323.0,,definitely_new,,,,,Adults,Control,2.0
161,235,632,8200,memory,False,./assets/img/canyon/memory/38.jpg,canyon,10.0,,True,,75,new,19.77,Male,2,norest,165.0,,maybe_new,,,,,Adults,Control,2.0
162,238,638,8200,memory,False,./assets/img/canyon/memory/13.jpg,canyon,0.0,,False,,78,new,19.77,Male,2,norest,243.0,,definitely_old,,,,,Adults,Control,2.0
163,239,640,8200,memory,False,./assets/img/canyon/memory/37.jpg,canyon,10.0,,True,,79,new,19.77,Male,2,norest,22.0,,definitely_new,,,,,Adults,Control,2.0
164,240,642,8200,memory,False,./assets/img/canyon/memory/30.jpg,canyon,10.0,,True,,80,new,19.77,Male,2,norest,558.0,,definitely_new,,,,,Adults,Control,2.0
165,244,650,8200,memory,False,./assets/img/canyon/memory/35.jpg,canyon,10.0,,True,,84,new,19.77,Male,2,norest,78.0,,maybe_new,,,,,Adults,Control,2.0
166,245,652,8200,memory,False,./assets/img/canyon/memory/3.jpg,canyon,0.0,,False,,85,old,19.77,Male,2,norest,116.0,,definitely_new,,,,,Adults,Control,2.0
167,246,654,8200,memory,False,./assets/img/canyon/memory/2.jpg,canyon,0.0,,False,,86,new,19.77,Male,2,norest,1048.0,,definitely_old,,,,,Adults,Control,2.0
168,164,492,8566,memory,False,./assets/img/ocean/memory/20.jpg,ocean,0.0,,False,,4,new,10.49,Male,1,norest,1587.0,,definitely_old,,,,,Children,Control,1.0
169,165,494,8566,memory,False,./assets/img/ocean/memory/32.jpg,ocean,0.0,,False,,5,new,10.49,Male,1,norest,1791.0,,definitely_old,,,,,Children,Control,1.0
170,173,510,8566,memory,False,./assets/img/ocean/memory/15.jpg,ocean,10.0,,True,,13,old,10.49,Male,1,norest,747.0,,maybe_old,,,,,Children,Control,1.0
171,175,514,8566,memory,False,./assets/img/ocean/memory/23.jpg,ocean,0.0,,False,,15,new,10.49,Male,1,norest,696.0,,maybe_old,,,,,Children,Control,1.0
172,177,518,8566,memory,False,./assets/img/ocean/memory/1.jpg,ocean,0.0,,False,,17,old,10.49,Male,1,norest,1205.0,,definitely_new,,,,,Children,Control,1.0
173,179,522,8566,memory,False,./assets/img/ocean/memory/35.jpg,ocean,0.0,,False,,19,new,10.49,Male,1,norest,1104.0,,definitely_old,,,,,Children,Control,1.0
174,180,524,8566,memory,False,./assets/img/ocean/memory/29.jpg,ocean,10.0,,True,,20,old,10.49,Male,1,norest,1125.0,,definitely_old,,,,,Children,Control,1.0
175,182,528,8566,memory,False,./assets/img/ocean/memory/28.jpg,ocean,0.0,,False,,22,old,10.49,Male,1,norest,1225.0,,definitely_new,,,,,Children,Control,1.0
176,183,530,8566,memory,False,./assets/img/ocean/memory/27.jpg,ocean,0.0,,False,,23,new,10.49,Male,1,norest,1125.0,,maybe_old,,,,,Children,Control,1.0
177,186,536,8566,memory,False,./assets/img/ocean/memory/21.jpg,ocean,10.0,,True,,26,new,10.49,Male,1,norest,996.0,,maybe_new,,,,,Children,Control,1.0
178,187,538,8566,memory,False,./assets/img/ocean/memory/37.jpg,ocean,0.0,,False,,27,old,10.49,Male,1,norest,1585.0,,definitely_new,,,,,Children,Control,1.0
179,188,540,8566,memory,False,./assets/img/ocean/memory/16.jpg,ocean,10.0,,True,,28,new,10.49,Male,1,norest,1045.0,,definitely_new,,,,,Children,Control,1.0
180,189,542,8566,memory,False,./assets/img/ocean/memory/17.jpg,ocean,0.0,,False,,29,old,10.49,Male,1,norest,1174.0,,definitely_new,,,,,Children,Control,1.0
181,191,546,8566,memory,False,./assets/img/ocean/memory/11.jpg,ocean,10.0,,True,,31,new,10.49,Male,1,norest,1215.0,,definitely_new,,,,,Children,Control,1.0
182,192,548,8566,memory,False,./assets/img/ocean/memory/8.jpg,ocean,0.0,,False,,32,old,10.49,Male,1,norest,1045.0,,definitely_new,,,,,Children,Control,1.0
183,193,550,8566,memory,False,./assets/img/ocean/memory/26.jpg,ocean,10.0,,True,,33,new,10.49,Male,1,norest,925.0,,definitely_new,,,,,Children,Control,1.0
184,198,560,8566,memory,False,./assets/img/ocean/memory/3.jpg,ocean,0.0,,False,,38,old,10.49,Male,1,norest,824.0,,definitely_new,,,,,Children,Control,1.0
185,200,564,8566,memory,False,./assets/img/ocean/memory/25.jpg,ocean,0.0,,False,,40,old,10.49,Male,1,norest,684.0,,definitely_new,,,,,Children,Control,1.0
186,201,566,8566,memory,False,./assets/img/ocean/memory/41.jpg,ocean,0.0,,False,,41,old,10.49,Male,1,norest,845.0,,definitely_new,,,,,Children,Control,1.0
187,203,570,8566,memory,False,./assets/img/ocean/memory/24.jpg,ocean,0.0,,False,,43,new,10.49,Male,1,norest,855.0,,maybe_old,,,,,Children,Control,1.0
188,204,572,8566,memory,False,./assets/img/ocean/memory/10.jpg,ocean,10.0,,True,,44,old,10.49,Male,1,norest,1055.0,,definitely_old,,,,,Children,Control,1.0
189,205,574,8566,memory,False,./assets/img/ocean/memory/33.jpg,ocean,10.0,,True,,45,old,10.49,Male,1,norest,705.0,,definitely_old,,,,,Children,Control,1.0
190,206,576,8566,memory,False,./assets/img/ocean/memory/6.jpg,ocean,10.0,,True,,46,old,10.49,Male,1,norest,15.0,,definitely_old,,,,,Children,Control,1.0
191,213,590,8566,memory,False,./assets/img/ocean/memory/4.jpg,ocean,10.0,,True,,53,new,10.49,Male,1,norest,304.0,,definitely_new,,,,,Children,Control,1.0
192,214,592,8566,memory,False,./assets/img/ocean/memory/2.jpg,ocean,0.0,,False,,54,old,10.49,Male,1,norest,805.0,,maybe_new,,,,,Children,Control,1.0
193,218,600,8566,memory,False,./assets/img/ocean/memory/38.jpg,ocean,0.0,,False,,58,new,10.49,Male,1,norest,845.0,,definitely_old,,,,,Children,Control,1.0
194,219,602,8566,memory,False,./assets/img/ocean/memory/19.jpg,ocean,10.0,,True,,59,old,10.49,Male,1,norest,625.0,,definitely_old,,,,,Children,Control,1.0
195,224,612,8566,memory,False,./assets/img/ocean/memory/34.jpg,ocean,10.0,,True,,64,new,10.49,Male,1,norest,706.0,,definitely_new,,,,,Children,Control,1.0
196,225,614,8566,memory,False,./assets/img/ocean/memory/12.jpg,ocean,10.0,,True,,65,new,10.49,Male,1,norest,763.0,,definitely_new,,,,,Children,Control,1.0
197,226,616,8566,memory,False,./assets/img/ocean/memory/39.jpg,ocean,0.0,,False,,66,old,10.49,Male,1,norest,845.0,,definitely_new,,,,,Children,Control,1.0
198,229,622,8566,memory,False,./assets/img/ocean/memory/31.jpg,ocean,10.0,,True,,69,new,10.49,Male,1,norest,994.0,,definitely_new,,,,,Children,Control,1.0
199,231,626,8566,memory,False,./assets/img/ocean/memory/18.jpg,ocean,10.0,,True,,71,new,10.49,Male,1,norest,1007.0,,definitely_new,,,,,Children,Control,1.0
200,232,628,8566,memory,False,./assets/img/ocean/memory/0.jpg,ocean,0.0,,False,,72,old,10.49,Male,1,norest,385.0,,definitely_new,,,,,Children,Control,1.0
201,234,632,8566,memory,False,./assets/img/ocean/memory/14.jpg,ocean,0.0,,False,,74,old,10.49,Male,1,norest,615.0,,definitely_new,,,,,Children,Control,1.0
202,235,634,8566,memory,False,./assets/img/ocean/memory/13.jpg,ocean,0.0,,False,,75,old,10.49,Male,1,norest,855.0,,definitely_new,,,,,Children,Control,1.0
203,239,642,8566,memory,False,./assets/img/ocean/memory/7.jpg,ocean,10.0,,True,,79,new,10.49,Male,1,norest,646.0,,definitely_new,,,,,Children,Control,1.0
204,241,646,8566,memory,False,./assets/img/ocean/memory/22.jpg,ocean,10.0,,True,,81,new,10.49,Male,1,norest,914.0,,definitely_new,,,,,Children,Control,1.0
205,242,648,8566,memory,False,./assets/img/ocean/memory/9.jpg,ocean,0.0,,False,,82,old,10.49,Male,1,norest,654.0,,definitely_new,,,,,Children,Control,1.0
206,243,650,8566,memory,False,./assets/img/ocean/memory/30.jpg,ocean,10.0,,True,,83,new,10.49,Male,1,norest,264.0,,definitely_new,,,,,Children,Control,1.0
207,244,652,8566,memory,False,./assets/img/ocean/memory/5.jpg,ocean,10.0,,True,,84,new,10.49,Male,1,norest,856.0,,definitely_new,,,,,Children,Control,1.0
208,245,654,8566,memory,False,./assets/img/ocean/memory/40.jpg,ocean,0.0,,False,,85,old,10.49,Male,1,norest,566.0,,definitely_new,,,,,Children,Control,1.0
209,247,658,8566,memory,False,./assets/img/ocean/memory/36.jpg,ocean,10.0,,True,,87,new,10.49,Male,1,norest,824.0,,definitely_new,,,,,Children,Control,1.0
210,166,496,8566,memory,False,./assets/img/canyon/memory/19.jpg,canyon,0.0,,False,,6,old,10.49,Male,1,norest,1099.0,,definitely_new,,,,,Children,Revaluation,2.0
211,167,498,8566,memory,False,./assets/img/canyon/memory/29.jpg,canyon,10.0,,True,,7,new,10.49,Male,1,norest,1589.0,,maybe_new,,,,,Children,Revaluation,2.0
212,168,500,8566,memory,False,./assets/img/canyon/memory/41.jpg,canyon,10.0,,True,,8,old,10.49,Male,1,norest,810.0,,maybe_old,,,,,Children,Revaluation,2.0
213,169,502,8566,memory,False,./assets/img/canyon/memory/12.jpg,canyon,10.0,,True,,9,old,10.49,Male,1,norest,336.0,,maybe_old,,,,,Children,Revaluation,2.0
214,170,504,8566,memory,False,./assets/img/canyon/memory/32.jpg,canyon,0.0,,False,,10,new,10.49,Male,1,norest,1229.0,,maybe_old,,,,,Children,Revaluation,2.0
215,171,506,8566,memory,False,./assets/img/canyon/memory/34.jpg,canyon,10.0,,True,,11,old,10.49,Male,1,norest,1857.0,,maybe_old,,,,,Children,Revaluation,2.0
216,172,508,8566,memory,False,./assets/img/canyon/memory/6.jpg,canyon,0.0,,False,,12,new,10.49,Male,1,norest,747.0,,definitely_old,,,,,Children,Revaluation,2.0
217,174,512,8566,memory,False,./assets/img/canyon/memory/13.jpg,canyon,0.0,,False,,14,old,10.49,Male,1,norest,885.0,,maybe_new,,,,,Children,Revaluation,2.0
218,176,516,8566,memory,False,./assets/img/canyon/memory/28.jpg,canyon,10.0,,True,,16,old,10.49,Male,1,norest,996.0,,definitely_old,,,,,Children,Revaluation,2.0
219,178,520,8566,memory,False,./assets/img/canyon/memory/15.jpg,canyon,0.0,,False,,18,new,10.49,Male,1,norest,1495.0,,definitely_old,,,,,Children,Revaluation,2.0
220,181,526,8566,memory,False,./assets/img/canyon/memory/7.jpg,canyon,10.0,,True,,21,new,10.49,Male,1,norest,1314.0,,definitely_new,,,,,Children,Revaluation,2.0
221,184,532,8566,memory,False,./assets/img/canyon/memory/18.jpg,canyon,0.0,,False,,24,new,10.49,Male,1,norest,685.0,,maybe_old,,,,,Children,Revaluation,2.0
222,185,534,8566,memory,False,./assets/img/canyon/memory/38.jpg,canyon,10.0,,True,,25,new,10.49,Male,1,norest,855.0,,maybe_new,,,,,Children,Revaluation,2.0
223,190,544,8566,memory,False,./assets/img/canyon/memory/17.jpg,canyon,0.0,,False,,30,old,10.49,Male,1,norest,754.0,,definitely_new,,,,,Children,Revaluation,2.0
224,194,552,8566,memory,False,./assets/img/canyon/memory/21.jpg,canyon,10.0,,True,,34,new,10.49,Male,1,norest,595.0,,definitely_new,,,,,Children,Revaluation,2.0
225,195,554,8566,memory,False,./assets/img/canyon/memory/40.jpg,canyon,10.0,,True,,35,new,10.49,Male,1,norest,364.0,,definitely_new,,,,,Children,Revaluation,2.0
226,196,556,8566,memory,False,./assets/img/canyon/memory/11.jpg,canyon,0.0,,False,,36,old,10.49,Male,1,norest,924.0,,definitely_new,,,,,Children,Revaluation,2.0
227,197,558,8566,memory,False,./assets/img/canyon/memory/26.jpg,canyon,0.0,,False,,37,old,10.49,Male,1,norest,1107.0,,definitely_new,,,,,Children,Revaluation,2.0
228,199,562,8566,memory,False,./assets/img/canyon/memory/36.jpg,canyon,10.0,,True,,39,new,10.49,Male,1,norest,716.0,,definitely_new,,,,,Children,Revaluation,2.0
229,202,568,8566,memory,False,./assets/img/canyon/memory/8.jpg,canyon,10.0,,True,,42,new,10.49,Male,1,norest,1085.0,,definitely_new,,,,,Children,Revaluation,2.0
230,207,578,8566,memory,False,./assets/img/canyon/memory/39.jpg,canyon,10.0,,True,,47,old,10.49,Male,1,norest,415.0,,definitely_old,,,,,Children,Revaluation,2.0
231,208,580,8566,memory,False,./assets/img/canyon/memory/16.jpg,canyon,0.0,,False,,48,new,10.49,Male,1,norest,404.0,,definitely_old,,,,,Children,Revaluation,2.0
232,209,582,8566,memory,False,./assets/img/canyon/memory/20.jpg,canyon,10.0,,True,,49,old,10.49,Male,1,norest,354.0,,maybe_old,,,,,Children,Revaluation,2.0
233,210,584,8566,memory,False,./assets/img/canyon/memory/25.jpg,canyon,10.0,,True,,50,old,10.49,Male,1,norest,1325.0,,definitely_old,,,,,Children,Revaluation,2.0
234,211,586,8566,memory,False,./assets/img/canyon/memory/33.jpg,canyon,10.0,,True,,51,new,10.49,Male,1,norest,796.0,,maybe_new,,,,,Children,Revaluation,2.0
235,212,588,8566,memory,False,./assets/img/canyon/memory/31.jpg,canyon,0.0,,False,,52,new,10.49,Male,1,norest,375.0,,definitely_old,,,,,Children,Revaluation,2.0
236,215,594,8566,memory,False,./assets/img/canyon/memory/30.jpg,canyon,10.0,,True,,55,old,10.49,Male,1,norest,1316.0,,definitely_old,,,,,Children,Revaluation,2.0
237,216,596,8566,memory,False,./assets/img/canyon/memory/5.jpg,canyon,10.0,,True,,56,new,10.49,Male,1,norest,716.0,,definitely_new,,,,,Children,Revaluation,2.0
238,217,598,8566,memory,False,./assets/img/canyon/memory/1.jpg,canyon,0.0,,False,,57,old,10.49,Male,1,norest,976.0,,maybe_new,,,,,Children,Revaluation,2.0
239,220,604,8566,memory,False,./assets/img/canyon/memory/22.jpg,canyon,0.0,,False,,60,new,10.49,Male,1,norest,595.0,,definitely_old,,,,,Children,Revaluation,2.0
240,221,606,8566,memory,False,./assets/img/canyon/memory/14.jpg,canyon,0.0,,False,,61,old,10.49,Male,1,norest,504.0,,definitely_new,,,,,Children,Revaluation,2.0
241,222,608,8566,memory,False,./assets/img/canyon/memory/24.jpg,canyon,10.0,,True,,62,old,10.49,Male,1,norest,854.0,,definitely_old,,,,,Children,Revaluation,2.0
242,223,610,8566,memory,False,./assets/img/canyon/memory/4.jpg,canyon,0.0,,False,,63,old,10.49,Male,1,norest,1074.0,,definitely_new,,,,,Children,Revaluation,2.0
243,227,618,8566,memory,False,./assets/img/canyon/memory/2.jpg,canyon,10.0,,True,,67,new,10.49,Male,1,norest,845.0,,definitely_new,,,,,Children,Revaluation,2.0
244,228,620,8566,memory,False,./assets/img/canyon/memory/37.jpg,canyon,0.0,,False,,68,old,10.49,Male,1,norest,1155.0,,definitely_new,,,,,Children,Revaluation,2.0
245,230,624,8566,memory,False,./assets/img/canyon/memory/9.jpg,canyon,0.0,,False,,70,old,10.49,Male,1,norest,594.0,,definitely_new,,,,,Children,Revaluation,2.0
246,233,630,8566,memory,False,./assets/img/canyon/memory/35.jpg,canyon,10.0,,True,,73,new,10.49,Male,1,norest,566.0,,definitely_new,,,,,Children,Revaluation,2.0
247,236,636,8566,memory,False,./assets/img/canyon/memory/3.jpg,canyon,0.0,,False,,76,old,10.49,Male,1,norest,756.0,,definitely_new,,,,,Children,Revaluation,2.0
248,237,638,8566,memory,False,./assets/img/canyon/memory/27.jpg,canyon,10.0,,True,,77,new,10.49,Male,1,norest,735.0,,definitely_new,,,,,Children,Revaluation,2.0
249,238,640,8566,memory,False,./assets/img/canyon/memory/23.jpg,canyon,10.0,,True,,78,new,10.49,Male,1,norest,635.0,,definitely_new,,,,,Children,Revaluation,2.0
250,240,644,8566,memory,False,./assets/img/canyon/memory/0.jpg,canyon,10.0,,True,,80,old,10.49,Male,1,norest,796.0,,definitely_old,,,,,Children,Revaluation,2.0
251,246,656,8566,memory,False,./assets/img/canyon/memory/10.jpg,canyon,0.0,,False,,86,new,10.49,Male,1,norest,1135.0,,definitely_old,,,,,Children,Revaluation,2.0
252,164,485,8599,memory,False,./assets/img/ocean/memory/13.jpg,ocean,10.0,,True,,4,new,12.69,Female,5,norest,3984.0,,maybe_new,,,,,Children,Revaluation,2.0
253,169,495,8599,memory,False,./assets/img/ocean/memory/24.jpg,ocean,10.0,,True,,9,new,12.69,Female,5,norest,1312.0,,maybe_new,,,,,Children,Revaluation,2.0
254,170,497,8599,memory,False,./assets/img/ocean/memory/26.jpg,ocean,10.0,,True,,10,new,12.69,Female,5,norest,1411.0,,maybe_new,,,,,Children,Revaluation,2.0
255,171,499,8599,memory,False,./assets/img/ocean/memory/4.jpg,ocean,10.0,,True,,11,new,12.69,Female,5,norest,960.0,,maybe_new,,,,,Children,Revaluation,2.0
256,174,505,8599,memory,False,./assets/img/ocean/memory/5.jpg,ocean,0.0,,False,,14,new,12.69,Female,5,norest,1368.0,,definitely_old,,,,,Children,Revaluation,2.0
257,176,509,8599,memory,False,./assets/img/ocean/memory/29.jpg,ocean,10.0,,True,,16,new,12.69,Female,5,norest,1783.0,,maybe_new,,,,,Children,Revaluation,2.0
258,178,513,8599,memory,False,./assets/img/ocean/memory/27.jpg,ocean,10.0,,True,,18,new,12.69,Female,5,norest,2029.0,,maybe_new,,,,,Children,Revaluation,2.0
259,183,523,8599,memory,False,./assets/img/ocean/memory/19.jpg,ocean,0.0,,False,,23,old,12.69,Female,5,norest,1181.0,,definitely_new,,,,,Children,Revaluation,2.0
260,184,525,8599,memory,False,./assets/img/ocean/memory/7.jpg,ocean,0.0,,False,,24,old,12.69,Female,5,norest,1020.0,,maybe_new,,,,,Children,Revaluation,2.0
261,185,527,8599,memory,False,./assets/img/ocean/memory/9.jpg,ocean,0.0,,False,,25,new,12.69,Female,5,norest,1064.0,,maybe_old,,,,,Children,Revaluation,2.0
262,187,531,8599,memory,False,./assets/img/ocean/memory/40.jpg,ocean,10.0,,True,,27,old,12.69,Female,5,norest,1105.0,,maybe_old,,,,,Children,Revaluation,2.0
263,189,535,8599,memory,False,./assets/img/ocean/memory/20.jpg,ocean,10.0,,True,,29,old,12.69,Female,5,norest,1123.0,,definitely_old,,,,,Children,Revaluation,2.0
264,190,537,8599,memory,False,./assets/img/ocean/memory/11.jpg,ocean,10.0,,True,,30,new,12.69,Female,5,norest,1320.0,,definitely_new,,,,,Children,Revaluation,2.0
265,191,539,8599,memory,False,./assets/img/ocean/memory/3.jpg,ocean,10.0,,True,,31,new,12.69,Female,5,norest,1857.0,,maybe_new,,,,,Children,Revaluation,2.0
266,192,541,8599,memory,False,./assets/img/ocean/memory/32.jpg,ocean,0.0,,False,,32,old,12.69,Female,5,norest,1331.0,,maybe_new,,,,,Children,Revaluation,2.0
267,193,543,8599,memory,False,./assets/img/ocean/memory/38.jpg,ocean,10.0,,True,,33,old,12.69,Female,5,norest,1375.0,,definitely_old,,,,,Children,Revaluation,2.0
268,194,545,8599,memory,False,./assets/img/ocean/memory/33.jpg,ocean,10.0,,True,,34,old,12.69,Female,5,norest,1356.0,,maybe_old,,,,,Children,Revaluation,2.0
269,200,557,8599,memory,False,./assets/img/ocean/memory/17.jpg,ocean,0.0,,False,,40,old,12.69,Female,5,norest,1030.0,,definitely_new,,,,,Children,Revaluation,2.0
270,204,565,8599,memory,False,./assets/img/ocean/memory/8.jpg,ocean,10.0,,True,,44,old,12.69,Female,5,norest,1328.0,,definitely_old,,,,,Children,Revaluation,2.0
271,207,571,8599,memory,False,./assets/img/ocean/memory/34.jpg,ocean,10.0,,True,,47,old,12.69,Female,5,norest,1505.0,,maybe_old,,,,,Children,Revaluation,2.0
272,208,573,8599,memory,False,./assets/img/ocean/memory/22.jpg,ocean,0.0,,False,,48,old,12.69,Female,5,norest,1155.0,,maybe_new,,,,,Children,Revaluation,2.0
273,210,577,8599,memory,False,./assets/img/ocean/memory/15.jpg,ocean,10.0,,True,,50,new,12.69,Female,5,norest,990.0,,maybe_new,,,,,Children,Revaluation,2.0
274,211,579,8599,memory,False,./assets/img/ocean/memory/41.jpg,ocean,10.0,,True,,51,old,12.69,Female,5,norest,1155.0,,definitely_old,,,,,Children,Revaluation,2.0
275,212,581,8599,memory,False,./assets/img/ocean/memory/25.jpg,ocean,10.0,,True,,52,new,12.69,Female,5,norest,736.0,,maybe_new,,,,,Children,Revaluation,2.0
276,213,583,8599,memory,False,./assets/img/ocean/memory/36.jpg,ocean,10.0,,True,,53,old,12.69,Female,5,norest,1176.0,,maybe_old,,,,,Children,Revaluation,2.0
277,216,589,8599,memory,False,./assets/img/ocean/memory/23.jpg,ocean,10.0,,True,,56,new,12.69,Female,5,norest,908.0,,maybe_new,,,,,Children,Revaluation,2.0
278,218,593,8599,memory,False,./assets/img/ocean/memory/30.jpg,ocean,0.0,,False,,58,new,12.69,Female,5,norest,2049.0,,maybe_old,,,,,Children,Revaluation,2.0
279,220,597,8599,memory,False,./assets/img/ocean/memory/1.jpg,ocean,0.0,,False,,60,new,12.69,Female,5,norest,809.0,,definitely_old,,,,,Children,Revaluation,2.0
280,225,607,8599,memory,False,./assets/img/ocean/memory/37.jpg,ocean,0.0,,False,,65,old,12.69,Female,5,norest,3079.0,,maybe_new,,,,,Children,Revaluation,2.0
281,228,613,8599,memory,False,./assets/img/ocean/memory/6.jpg,ocean,10.0,,True,,68,old,12.69,Female,5,norest,879.0,,definitely_old,,,,,Children,Revaluation,2.0
282,229,615,8599,memory,False,./assets/img/ocean/memory/39.jpg,ocean,10.0,,True,,69,old,12.69,Female,5,norest,1027.0,,definitely_old,,,,,Children,Revaluation,2.0
283,230,617,8599,memory,False,./assets/img/ocean/memory/28.jpg,ocean,10.0,,True,,70,new,12.69,Female,5,norest,1185.0,,definitely_new,,,,,Children,Revaluation,2.0
284,231,619,8599,memory,False,./assets/img/ocean/memory/18.jpg,ocean,0.0,,False,,71,old,12.69,Female,5,norest,1005.0,,maybe_new,,,,,Children,Revaluation,2.0
285,232,621,8599,memory,False,./assets/img/ocean/memory/14.jpg,ocean,10.0,,True,,72,new,12.69,Female,5,norest,970.0,,maybe_new,,,,,Children,Revaluation,2.0
286,234,625,8599,memory,False,./assets/img/ocean/memory/31.jpg,ocean,10.0,,True,,74,new,12.69,Female,5,norest,792.0,,maybe_new,,,,,Children,Revaluation,2.0
287,236,629,8599,memory,False,./assets/img/ocean/memory/0.jpg,ocean,0.0,,False,,76,new,12.69,Female,5,norest,1308.0,,maybe_old,,,,,Children,Revaluation,2.0
288,239,635,8599,memory,False,./assets/img/ocean/memory/21.jpg,ocean,0.0,,False,,79,old,12.69,Female,5,norest,1310.0,,maybe_new,,,,,Children,Revaluation,2.0
289,240,637,8599,memory,False,./assets/img/ocean/memory/35.jpg,ocean,10.0,,True,,80,old,12.69,Female,5,norest,1344.0,,maybe_old,,,,,Children,Revaluation,2.0
290,243,643,8599,memory,False,./assets/img/ocean/memory/16.jpg,ocean,10.0,,True,,83,old,12.69,Female,5,norest,822.0,,definitely_old,,,,,Children,Revaluation,2.0
291,245,647,8599,memory,False,./assets/img/ocean/memory/2.jpg,ocean,10.0,,True,,85,new,12.69,Female,5,norest,2063.0,,maybe_new,,,,,Children,Revaluation,2.0
292,246,649,8599,memory,False,./assets/img/ocean/memory/10.jpg,ocean,10.0,,True,,86,new,12.69,Female,5,norest,1034.0,,maybe_new,,,,,Children,Revaluation,2.0
293,247,651,8599,memory,False,./assets/img/ocean/memory/12.jpg,ocean,0.0,,False,,87,old,12.69,Female,5,norest,1614.0,,maybe_new,,,,,Children,Revaluation,2.0
294,165,487,8599,memory,False,./assets/img/canyon/memory/4.jpg,canyon,10.0,,True,,5,new,12.69,Female,5,norest,2653.0,,maybe_new,,,,,Children,Control,1.0
295,166,489,8599,memory,False,./assets/img/canyon/memory/22.jpg,canyon,0.0,,False,,6,new,12.69,Female,5,norest,1196.0,,maybe_old,,,,,Children,Control,1.0
296,167,491,8599,memory,False,./assets/img/canyon/memory/0.jpg,canyon,10.0,,True,,7,old,12.69,Female,5,norest,717.0,,maybe_old,,,,,Children,Control,1.0
297,168,493,8599,memory,False,./assets/img/canyon/memory/2.jpg,canyon,10.0,,True,,8,new,12.69,Female,5,norest,1752.0,,maybe_new,,,,,Children,Control,1.0
298,172,501,8599,memory,False,./assets/img/canyon/memory/1.jpg,canyon,10.0,,True,,12,old,12.69,Female,5,norest,1205.0,,maybe_old,,,,,Children,Control,1.0
299,173,503,8599,memory,False,./assets/img/canyon/memory/14.jpg,canyon,10.0,,True,,13,new,12.69,Female,5,norest,1449.0,,maybe_new,,,,,Children,Control,1.0
300,175,507,8599,memory,False,./assets/img/canyon/memory/26.jpg,canyon,10.0,,True,,15,new,12.69,Female,5,norest,1502.0,,definitely_new,,,,,Children,Control,1.0
301,177,511,8599,memory,False,./assets/img/canyon/memory/6.jpg,canyon,0.0,,False,,17,old,12.69,Female,5,norest,1395.0,,maybe_new,,,,,Children,Control,1.0
302,179,515,8599,memory,False,./assets/img/canyon/memory/18.jpg,canyon,10.0,,True,,19,new,12.69,Female,5,norest,1197.0,,definitely_new,,,,,Children,Control,1.0
303,180,517,8599,memory,False,./assets/img/canyon/memory/29.jpg,canyon,10.0,,True,,20,new,12.69,Female,5,norest,2101.0,,maybe_new,,,,,Children,Control,1.0
304,181,519,8599,memory,False,./assets/img/canyon/memory/12.jpg,canyon,0.0,,False,,21,old,12.69,Female,5,norest,914.0,,definitely_new,,,,,Children,Control,1.0
305,182,521,8599,memory,False,./assets/img/canyon/memory/39.jpg,canyon,0.0,,False,,22,old,12.69,Female,5,norest,1041.0,,maybe_new,,,,,Children,Control,1.0
306,186,529,8599,memory,False,./assets/img/canyon/memory/7.jpg,canyon,0.0,,False,,26,new,12.69,Female,5,norest,1422.0,,maybe_old,,,,,Children,Control,1.0
307,188,533,8599,memory,False,./assets/img/canyon/memory/23.jpg,canyon,10.0,,True,,28,new,12.69,Female,5,norest,996.0,,definitely_new,,,,,Children,Control,1.0
308,195,547,8599,memory,False,./assets/img/canyon/memory/37.jpg,canyon,0.0,,False,,35,old,12.69,Female,5,norest,1018.0,,maybe_new,,,,,Children,Control,1.0
309,196,549,8599,memory,False,./assets/img/canyon/memory/35.jpg,canyon,0.0,,False,,36,old,12.69,Female,5,norest,1292.0,,maybe_new,,,,,Children,Control,1.0
310,197,551,8599,memory,False,./assets/img/canyon/memory/8.jpg,canyon,10.0,,True,,37,old,12.69,Female,5,norest,2391.0,,maybe_old,,,,,Children,Control,1.0
311,198,553,8599,memory,False,./assets/img/canyon/memory/27.jpg,canyon,10.0,,True,,38,new,12.69,Female,5,norest,2274.0,,definitely_new,,,,,Children,Control,1.0
312,199,555,8599,memory,False,./assets/img/canyon/memory/34.jpg,canyon,10.0,,True,,39,old,12.69,Female,5,norest,1406.0,,maybe_old,,,,,Children,Control,1.0
313,201,559,8599,memory,False,./assets/img/canyon/memory/21.jpg,canyon,10.0,,True,,41,new,12.69,Female,5,norest,913.0,,maybe_new,,,,,Children,Control,1.0
314,202,561,8599,memory,False,./assets/img/canyon/memory/33.jpg,canyon,0.0,,False,,42,old,12.69,Female,5,norest,880.0,,maybe_new,,,,,Children,Control,1.0
315,203,563,8599,memory,False,./assets/img/canyon/memory/36.jpg,canyon,0.0,,False,,43,old,12.69,Female,5,norest,1705.0,,maybe_new,,,,,Children,Control,1.0
316,205,567,8599,memory,False,./assets/img/canyon/memory/17.jpg,canyon,10.0,,True,,45,new,12.69,Female,5,norest,1093.0,,maybe_new,,,,,Children,Control,1.0
317,206,569,8599,memory,False,./assets/img/canyon/memory/10.jpg,canyon,0.0,,False,,46,old,12.69,Female,5,norest,934.0,,maybe_new,,,,,Children,Control,1.0
318,209,575,8599,memory,False,./assets/img/canyon/memory/31.jpg,canyon,0.0,,False,,49,old,12.69,Female,5,norest,947.0,,maybe_new,,,,,Children,Control,1.0
319,214,585,8599,memory,False,./assets/img/canyon/memory/19.jpg,canyon,10.0,,True,,54,new,12.69,Female,5,norest,1693.0,,maybe_new,,,,,Children,Control,1.0
320,215,587,8599,memory,False,./assets/img/canyon/memory/41.jpg,canyon,0.0,,False,,55,old,12.69,Female,5,norest,1037.0,,maybe_new,,,,,Children,Control,1.0
321,217,591,8599,memory,False,./assets/img/canyon/memory/20.jpg,canyon,0.0,,False,,57,old,12.69,Female,5,norest,1559.0,,maybe_new,,,,,Children,Control,1.0
322,219,595,8599,memory,False,./assets/img/canyon/memory/16.jpg,canyon,10.0,,True,,59,old,12.69,Female,5,norest,2654.0,,maybe_old,,,,,Children,Control,1.0
323,221,599,8599,memory,False,./assets/img/canyon/memory/38.jpg,canyon,10.0,,True,,61,old,12.69,Female,5,norest,1974.0,,maybe_old,,,,,Children,Control,1.0
324,222,601,8599,memory,False,./assets/img/canyon/memory/15.jpg,canyon,0.0,,False,,62,old,12.69,Female,5,norest,1673.0,,maybe_new,,,,,Children,Control,1.0
325,223,603,8599,memory,False,./assets/img/canyon/memory/30.jpg,canyon,10.0,,True,,63,old,12.69,Female,5,norest,1331.0,,maybe_old,,,,,Children,Control,1.0
326,224,605,8599,memory,False,./assets/img/canyon/memory/5.jpg,canyon,10.0,,True,,64,new,12.69,Female,5,norest,1081.0,,maybe_new,,,,,Children,Control,1.0
327,226,609,8599,memory,False,./assets/img/canyon/memory/11.jpg,canyon,10.0,,True,,66,new,12.69,Female,5,norest,1308.0,,definitely_new,,,,,Children,Control,1.0
328,227,611,8599,memory,False,./assets/img/canyon/memory/25.jpg,canyon,0.0,,False,,67,new,12.69,Female,5,norest,1184.0,,definitely_old,,,,,Children,Control,1.0
329,233,623,8599,memory,False,./assets/img/canyon/memory/13.jpg,canyon,10.0,,True,,73,new,12.69,Female,5,norest,938.0,,maybe_new,,,,,Children,Control,1.0
330,235,627,8599,memory,False,./assets/img/canyon/memory/40.jpg,canyon,0.0,,False,,75,old,12.69,Female,5,norest,1585.0,,maybe_new,,,,,Children,Control,1.0
331,237,631,8599,memory,False,./assets/img/canyon/memory/32.jpg,canyon,0.0,,False,,77,old,12.69,Female,5,norest,1819.0,,maybe_new,,,,,Children,Control,1.0
332,238,633,8599,memory,False,./assets/img/canyon/memory/9.jpg,canyon,10.0,,True,,78,new,12.69,Female,5,norest,935.0,,definitely_new,,,,,Children,Control,1.0
333,241,639,8599,memory,False,./assets/img/canyon/memory/3.jpg,canyon,10.0,,True,,81,new,12.69,Female,5,norest,1155.0,,definitely_new,,,,,Children,Control,1.0
334,242,641,8599,memory,False,./assets/img/canyon/memory/24.jpg,canyon,0.0,,False,,82,new,12.69,Female,5,norest,2139.0,,maybe_old,,,,,Children,Control,1.0
335,244,645,8599,memory,False,./assets/img/canyon/memory/28.jpg,canyon,10.0,,True,,84,new,12.69,Female,5,norest,1110.0,,definitely_new,,,,,Children,Control,1.0
336,164,488,8610,memory,False,./assets/img/canyon/memory/6.jpg,canyon,0.0,,False,,4,new,13.28,Male,7,norest,1495.0,,definitely_old,,,,,Adolescents,Control,1.0
337,166,492,8610,memory,False,./assets/img/canyon/memory/5.jpg,canyon,0.0,,False,,6,new,13.28,Male,7,norest,53.0,,definitely_old,,,,,Adolescents,Control,1.0
338,167,494,8610,memory,False,./assets/img/canyon/memory/8.jpg,canyon,10.0,,True,,7,old,13.28,Male,7,norest,22.0,,definitely_old,,,,,Adolescents,Control,1.0
339,171,502,8610,memory,False,./assets/img/canyon/memory/12.jpg,canyon,10.0,,True,,11,new,13.28,Male,7,norest,158.0,,definitely_new,,,,,Adolescents,Control,1.0
340,173,506,8610,memory,False,./assets/img/canyon/memory/20.jpg,canyon,0.0,,False,,13,old,13.28,Male,7,norest,47.0,,definitely_new,,,,,Adolescents,Control,1.0
341,177,514,8610,memory,False,./assets/img/canyon/memory/33.jpg,canyon,0.0,,False,,17,new,13.28,Male,7,norest,63.0,,definitely_old,,,,,Adolescents,Control,1.0
342,178,516,8610,memory,False,./assets/img/canyon/memory/24.jpg,canyon,0.0,,False,,18,old,13.28,Male,7,norest,15.0,,maybe_new,,,,,Adolescents,Control,1.0
343,180,520,8610,memory,False,./assets/img/canyon/memory/25.jpg,canyon,10.0,,True,,20,old,13.28,Male,7,norest,35.0,,definitely_old,,,,,Adolescents,Control,1.0
344,181,522,8610,memory,False,./assets/img/canyon/memory/30.jpg,canyon,0.0,,False,,21,old,13.28,Male,7,norest,82.0,,definitely_new,,,,,Adolescents,Control,1.0
345,182,524,8610,memory,False,./assets/img/canyon/memory/27.jpg,canyon,10.0,,True,,22,new,13.28,Male,7,norest,58.0,,definitely_new,,,,,Adolescents,Control,1.0
346,184,528,8610,memory,False,./assets/img/canyon/memory/9.jpg,canyon,0.0,,False,,24,new,13.28,Male,7,norest,9.0,,maybe_old,,,,,Adolescents,Control,1.0
347,186,532,8610,memory,False,./assets/img/canyon/memory/38.jpg,canyon,10.0,,True,,26,old,13.28,Male,7,norest,34.0,,maybe_old,,,,,Adolescents,Control,1.0
348,188,536,8610,memory,False,./assets/img/canyon/memory/41.jpg,canyon,0.0,,False,,28,old,13.28,Male,7,norest,74.0,,definitely_new,,,,,Adolescents,Control,1.0
349,191,542,8610,memory,False,./assets/img/canyon/memory/17.jpg,canyon,10.0,,True,,31,new,13.28,Male,7,norest,1.0,,maybe_new,,,,,Adolescents,Control,1.0
350,195,550,8610,memory,False,./assets/img/canyon/memory/18.jpg,canyon,0.0,,False,,35,old,13.28,Male,7,norest,41.0,,definitely_new,,,,,Adolescents,Control,1.0
351,199,558,8610,memory,False,./assets/img/canyon/memory/37.jpg,canyon,10.0,,True,,39,old,13.28,Male,7,norest,169.0,,definitely_old,,,,,Adolescents,Control,1.0
352,201,562,8610,memory,False,./assets/img/canyon/memory/0.jpg,canyon,10.0,,True,,41,old,13.28,Male,7,norest,26.0,,definitely_old,,,,,Adolescents,Control,1.0
353,202,564,8610,memory,False,./assets/img/canyon/memory/36.jpg,canyon,10.0,,True,,42,old,13.28,Male,7,norest,1209.0,,definitely_old,,,,,Adolescents,Control,1.0
354,203,566,8610,memory,False,./assets/img/canyon/memory/4.jpg,canyon,0.0,,False,,43,new,13.28,Male,7,norest,105.0,,maybe_old,,,,,Adolescents,Control,1.0
355,204,568,8610,memory,False,./assets/img/canyon/memory/2.jpg,canyon,0.0,,False,,44,new,13.28,Male,7,norest,1338.0,,definitely_old,,,,,Adolescents,Control,1.0
356,205,570,8610,memory,False,./assets/img/canyon/memory/13.jpg,canyon,10.0,,True,,45,old,13.28,Male,7,norest,522.0,,maybe_old,,,,,Adolescents,Control,1.0
357,212,584,8610,memory,False,./assets/img/canyon/memory/34.jpg,canyon,10.0,,True,,52,old,13.28,Male,7,norest,88.0,,definitely_old,,,,,Adolescents,Control,1.0
358,215,590,8610,memory,False,./assets/img/canyon/memory/1.jpg,canyon,10.0,,True,,55,old,13.28,Male,7,norest,74.0,,maybe_old,,,,,Adolescents,Control,1.0
359,220,600,8610,memory,False,./assets/img/canyon/memory/23.jpg,canyon,0.0,,False,,60,old,13.28,Male,7,norest,39.0,,definitely_new,,,,,Adolescents,Control,1.0
360,222,604,8610,memory,False,./assets/img/canyon/memory/32.jpg,canyon,0.0,,False,,62,new,13.28,Male,7,norest,17.0,,maybe_old,,,,,Adolescents,Control,1.0
361,224,608,8610,memory,False,./assets/img/canyon/memory/14.jpg,canyon,0.0,,False,,64,new,13.28,Male,7,norest,49.0,,definitely_old,,,,,Adolescents,Control,1.0
362,225,610,8610,memory,False,./assets/img/canyon/memory/28.jpg,canyon,10.0,,True,,65,new,13.28,Male,7,norest,25.0,,maybe_new,,,,,Adolescents,Control,1.0
363,226,612,8610,memory,False,./assets/img/canyon/memory/21.jpg,canyon,10.0,,True,,66,new,13.28,Male,7,norest,8.0,,maybe_new,,,,,Adolescents,Control,1.0
364,227,614,8610,memory,False,./assets/img/canyon/memory/22.jpg,canyon,0.0,,False,,67,new,13.28,Male,7,norest,34.0,,maybe_old,,,,,Adolescents,Control,1.0
365,229,618,8610,memory,False,./assets/img/canyon/memory/15.jpg,canyon,0.0,,False,,69,new,13.28,Male,7,norest,96.0,,maybe_old,,,,,Adolescents,Control,1.0
366,233,626,8610,memory,False,./assets/img/canyon/memory/11.jpg,canyon,10.0,,True,,73,old,13.28,Male,7,norest,608.0,,definitely_old,,,,,Adolescents,Control,1.0
367,235,630,8610,memory,False,./assets/img/canyon/memory/7.jpg,canyon,10.0,,True,,75,new,13.28,Male,7,norest,737.0,,definitely_new,,,,,Adolescents,Control,1.0
368,237,634,8610,memory,False,./assets/img/canyon/memory/19.jpg,canyon,10.0,,True,,77,new,13.28,Male,7,norest,609.0,,definitely_new,,,,,Adolescents,Control,1.0
369,238,636,8610,memory,False,./assets/img/canyon/memory/10.jpg,canyon,10.0,,True,,78,old,13.28,Male,7,norest,695.0,,definitely_old,,,,,Adolescents,Control,1.0
370,239,638,8610,memory,False,./assets/img/canyon/memory/3.jpg,canyon,10.0,,True,,79,new,13.28,Male,7,norest,920.0,,definitely_new,,,,,Adolescents,Control,1.0
371,240,640,8610,memory,False,./assets/img/canyon/memory/16.jpg,canyon,10.0,,True,,80,new,13.28,Male,7,norest,1338.0,,definitely_new,,,,,Adolescents,Control,1.0
372,241,642,8610,memory,False,./assets/img/canyon/memory/26.jpg,canyon,10.0,,True,,81,new,13.28,Male,7,norest,2304.0,,definitely_new,,,,,Adolescents,Control,1.0
373,242,644,8610,memory,False,./assets/img/canyon/memory/29.jpg,canyon,0.0,,False,,82,old,13.28,Male,7,norest,634.0,,definitely_new,,,,,Adolescents,Control,1.0
374,243,646,8610,memory,False,./assets/img/canyon/memory/39.jpg,canyon,0.0,,False,,83,old,13.28,Male,7,norest,73.0,,definitely_new,,,,,Adolescents,Control,1.0
375,244,648,8610,memory,False,./assets/img/canyon/memory/31.jpg,canyon,0.0,,False,,84,old,13.28,Male,7,norest,41.0,,definitely_new,,,,,Adolescents,Control,1.0
376,245,650,8610,memory,False,./assets/img/canyon/memory/40.jpg,canyon,10.0,,True,,85,new,13.28,Male,7,norest,225.0,,maybe_new,,,,,Adolescents,Control,1.0
377,246,652,8610,memory,False,./assets/img/canyon/memory/35.jpg,canyon,10.0,,True,,86,old,13.28,Male,7,norest,154.0,,maybe_old,,,,,Adolescents,Control,1.0
378,165,490,8610,memory,False,./assets/img/ocean/memory/18.jpg,ocean,10.0,,True,,5,old,13.28,Male,7,norest,16.0,,definitely_old,,,,,Adolescents,Revaluation,2.0
379,168,496,8610,memory,False,./assets/img/ocean/memory/34.jpg,ocean,10.0,,True,,8,old,13.28,Male,7,norest,53.0,,definitely_old,,,,,Adolescents,Revaluation,2.0
380,169,498,8610,memory,False,./assets/img/ocean/memory/40.jpg,ocean,0.0,,False,,9,new,13.28,Male,7,norest,124.0,,definitely_old,,,,,Adolescents,Revaluation,2.0
381,170,500,8610,memory,False,./assets/img/ocean/memory/35.jpg,ocean,0.0,,False,,10,new,13.28,Male,7,norest,13.0,,definitely_old,,,,,Adolescents,Revaluation,2.0
382,172,504,8610,memory,False,./assets/img/ocean/memory/21.jpg,ocean,10.0,,True,,12,new,13.28,Male,7,norest,127.0,,definitely_new,,,,,Adolescents,Revaluation,2.0
383,174,508,8610,memory,False,./assets/img/ocean/memory/15.jpg,ocean,0.0,,False,,14,old,13.28,Male,7,norest,163.0,,maybe_new,,,,,Adolescents,Revaluation,2.0
384,175,510,8610,memory,False,./assets/img/ocean/memory/28.jpg,ocean,10.0,,True,,15,new,13.28,Male,7,norest,40.0,,definitely_new,,,,,Adolescents,Revaluation,2.0
385,176,512,8610,memory,False,./assets/img/ocean/memory/8.jpg,ocean,10.0,,True,,16,new,13.28,Male,7,norest,99.0,,definitely_new,,,,,Adolescents,Revaluation,2.0
386,179,518,8610,memory,False,./assets/img/ocean/memory/10.jpg,ocean,0.0,,False,,19,new,13.28,Male,7,norest,111.0,,maybe_old,,,,,Adolescents,Revaluation,2.0
387,183,526,8610,memory,False,./assets/img/ocean/memory/20.jpg,ocean,0.0,,False,,23,new,13.28,Male,7,norest,26.0,,definitely_old,,,,,Adolescents,Revaluation,2.0
388,185,530,8610,memory,False,./assets/img/ocean/memory/16.jpg,ocean,10.0,,True,,25,new,13.28,Male,7,norest,72.0,,maybe_new,,,,,Adolescents,Revaluation,2.0
389,187,534,8610,memory,False,./assets/img/ocean/memory/31.jpg,ocean,10.0,,True,,27,old,13.28,Male,7,norest,96.0,,definitely_old,,,,,Adolescents,Revaluation,2.0
390,189,538,8610,memory,False,./assets/img/ocean/memory/24.jpg,ocean,10.0,,True,,29,new,13.28,Male,7,norest,136.0,,maybe_new,,,,,Adolescents,Revaluation,2.0
391,190,540,8610,memory,False,./assets/img/ocean/memory/36.jpg,ocean,10.0,,True,,30,new,13.28,Male,7,norest,89.0,,maybe_new,,,,,Adolescents,Revaluation,2.0
392,192,544,8610,memory,False,./assets/img/ocean/memory/19.jpg,ocean,10.0,,True,,32,old,13.28,Male,7,norest,2.0,,maybe_old,,,,,Adolescents,Revaluation,2.0
393,193,546,8610,memory,False,./assets/img/ocean/memory/33.jpg,ocean,10.0,,True,,33,old,13.28,Male,7,norest,81.0,,definitely_old,,,,,Adolescents,Revaluation,2.0
394,194,548,8610,memory,False,./assets/img/ocean/memory/14.jpg,ocean,0.0,,False,,34,old,13.28,Male,7,norest,66.0,,definitely_new,,,,,Adolescents,Revaluation,2.0
395,196,552,8610,memory,False,./assets/img/ocean/memory/7.jpg,ocean,10.0,,True,,36,new,13.28,Male,7,norest,18.0,,maybe_new,,,,,Adolescents,Revaluation,2.0
396,197,554,8610,memory,False,./assets/img/ocean/memory/4.jpg,ocean,0.0,,False,,37,new,13.28,Male,7,norest,161.0,,maybe_old,,,,,Adolescents,Revaluation,2.0
397,198,556,8610,memory,False,./assets/img/ocean/memory/9.jpg,ocean,10.0,,True,,38,old,13.28,Male,7,norest,178.0,,maybe_old,,,,,Adolescents,Revaluation,2.0
398,200,560,8610,memory,False,./assets/img/ocean/memory/5.jpg,ocean,0.0,,False,,40,old,13.28,Male,7,norest,177.0,,definitely_new,,,,,Adolescents,Revaluation,2.0
399,206,572,8610,memory,False,./assets/img/ocean/memory/17.jpg,ocean,10.0,,True,,46,new,13.28,Male,7,norest,218.0,,maybe_new,,,,,Adolescents,Revaluation,2.0
400,207,574,8610,memory,False,./assets/img/ocean/memory/26.jpg,ocean,0.0,,False,,47,old,13.28,Male,7,norest,866.0,,definitely_new,,,,,Adolescents,Revaluation,2.0
401,208,576,8610,memory,False,./assets/img/ocean/memory/37.jpg,ocean,0.0,,False,,48,old,13.28,Male,7,norest,801.0,,definitely_new,,,,,Adolescents,Revaluation,2.0
402,209,578,8610,memory,False,./assets/img/ocean/memory/23.jpg,ocean,10.0,,True,,49,new,13.28,Male,7,norest,169.0,,definitely_new,,,,,Adolescents,Revaluation,2.0
403,210,580,8610,memory,False,./assets/img/ocean/memory/27.jpg,ocean,0.0,,False,,50,old,13.28,Male,7,norest,97.0,,definitely_new,,,,,Adolescents,Revaluation,2.0
404,211,582,8610,memory,False,./assets/img/ocean/memory/12.jpg,ocean,10.0,,True,,51,old,13.28,Male,7,norest,1.0,,maybe_old,,,,,Adolescents,Revaluation,2.0
405,213,586,8610,memory,False,./assets/img/ocean/memory/25.jpg,ocean,0.0,,False,,53,old,13.28,Male,7,norest,161.0,,definitely_new,,,,,Adolescents,Revaluation,2.0
406,214,588,8610,memory,False,./assets/img/ocean/memory/38.jpg,ocean,10.0,,True,,54,new,13.28,Male,7,norest,105.0,,maybe_new,,,,,Adolescents,Revaluation,2.0
407,216,592,8610,memory,False,./assets/img/ocean/memory/39.jpg,ocean,0.0,,False,,56,new,13.28,Male,7,norest,58.0,,maybe_old,,,,,Adolescents,Revaluation,2.0
408,217,594,8610,memory,False,./assets/img/ocean/memory/41.jpg,ocean,0.0,,False,,57,old,13.28,Male,7,norest,33.0,,definitely_new,,,,,Adolescents,Revaluation,2.0
409,218,596,8610,memory,False,./assets/img/ocean/memory/1.jpg,ocean,0.0,,False,,58,old,13.28,Male,7,norest,50.0,,definitely_new,,,,,Adolescents,Revaluation,2.0
410,219,598,8610,memory,False,./assets/img/ocean/memory/11.jpg,ocean,10.0,,True,,59,new,13.28,Male,7,norest,9.0,,maybe_new,,,,,Adolescents,Revaluation,2.0
411,221,602,8610,memory,False,./assets/img/ocean/memory/6.jpg,ocean,0.0,,False,,61,old,13.28,Male,7,norest,1.0,,definitely_new,,,,,Adolescents,Revaluation,2.0
412,223,606,8610,memory,False,./assets/img/ocean/memory/30.jpg,ocean,0.0,,False,,63,new,13.28,Male,7,norest,17.0,,maybe_old,,,,,Adolescents,Revaluation,2.0
413,228,616,8610,memory,False,./assets/img/ocean/memory/13.jpg,ocean,10.0,,True,,68,new,13.28,Male,7,norest,57.0,,maybe_new,,,,,Adolescents,Revaluation,2.0
414,230,620,8610,memory,False,./assets/img/ocean/memory/3.jpg,ocean,10.0,,True,,70,old,13.28,Male,7,norest,25.0,,definitely_old,,,,,Adolescents,Revaluation,2.0
415,231,622,8610,memory,False,./assets/img/ocean/memory/22.jpg,ocean,10.0,,True,,71,old,13.28,Male,7,norest,1945.0,,definitely_old,,,,,Adolescents,Revaluation,2.0
416,232,624,8610,memory,False,./assets/img/ocean/memory/29.jpg,ocean,0.0,,False,,72,old,13.28,Male,7,norest,1177.0,,definitely_new,,,,,Adolescents,Revaluation,2.0
417,234,628,8610,memory,False,./assets/img/ocean/memory/32.jpg,ocean,10.0,,True,,74,new,13.28,Male,7,norest,554.0,,definitely_new,,,,,Adolescents,Revaluation,2.0
418,236,632,8610,memory,False,./assets/img/ocean/memory/2.jpg,ocean,10.0,,True,,76,old,13.28,Male,7,norest,592.0,,definitely_old,,,,,Adolescents,Revaluation,2.0
419,247,654,8610,memory,False,./assets/img/ocean/memory/0.jpg,ocean,0.0,,False,,87,new,13.28,Male,7,norest,18.0,,maybe_old,,,,,Adolescents,Revaluation,2.0
420,164,485,8771,memory,False,./assets/img/canyon/memory/6.jpg,canyon,10.0,,True,,4,new,22.96,Female,6,norest,2809.0,,maybe_new,,,,,Adults,Revaluation,1.0
421,168,493,8771,memory,False,./assets/img/canyon/memory/22.jpg,canyon,10.0,,True,,8,new,22.96,Female,6,norest,2439.0,,definitely_new,,,,,Adults,Revaluation,1.0
422,170,497,8771,memory,False,./assets/img/canyon/memory/37.jpg,canyon,0.0,,False,,10,old,22.96,Female,6,norest,2872.0,,definitely_new,,,,,Adults,Revaluation,1.0
423,177,511,8771,memory,False,./assets/img/canyon/memory/13.jpg,canyon,0.0,,False,,17,new,22.96,Female,6,norest,2493.0,,maybe_old,,,,,Adults,Revaluation,1.0
424,181,519,8771,memory,False,./assets/img/canyon/memory/40.jpg,canyon,0.0,,False,,21,new,22.96,Female,6,norest,1450.0,,definitely_old,,,,,Adults,Revaluation,1.0
425,182,521,8771,memory,False,./assets/img/canyon/memory/26.jpg,canyon,10.0,,True,,22,new,22.96,Female,6,norest,1072.0,,definitely_new,,,,,Adults,Revaluation,1.0
426,185,527,8771,memory,False,./assets/img/canyon/memory/30.jpg,canyon,10.0,,True,,25,new,22.96,Female,6,norest,1042.0,,definitely_new,,,,,Adults,Revaluation,1.0
427,187,531,8771,memory,False,./assets/img/canyon/memory/38.jpg,canyon,10.0,,True,,27,old,22.96,Female,6,norest,1894.0,,definitely_old,,,,,Adults,Revaluation,1.0
428,189,535,8771,memory,False,./assets/img/canyon/memory/3.jpg,canyon,10.0,,True,,29,new,22.96,Female,6,norest,1487.0,,maybe_new,,,,,Adults,Revaluation,1.0
429,190,537,8771,memory,False,./assets/img/canyon/memory/19.jpg,canyon,10.0,,True,,30,new,22.96,Female,6,norest,2112.0,,maybe_new,,,,,Adults,Revaluation,1.0
430,191,539,8771,memory,False,./assets/img/canyon/memory/2.jpg,canyon,0.0,,False,,31,new,22.96,Female,6,norest,2819.0,,maybe_old,,,,,Adults,Revaluation,1.0
431,194,545,8771,memory,False,./assets/img/canyon/memory/0.jpg,canyon,10.0,,True,,34,old,22.96,Female,6,norest,2287.0,,maybe_old,,,,,Adults,Revaluation,1.0
432,196,549,8771,memory,False,./assets/img/canyon/memory/15.jpg,canyon,10.0,,True,,36,old,22.96,Female,6,norest,1318.0,,definitely_old,,,,,Adults,Revaluation,1.0
433,197,551,8771,memory,False,./assets/img/canyon/memory/14.jpg,canyon,0.0,,False,,37,new,22.96,Female,6,norest,1511.0,,maybe_old,,,,,Adults,Revaluation,1.0
434,198,553,8771,memory,False,./assets/img/canyon/memory/20.jpg,canyon,10.0,,True,,38,new,22.96,Female,6,norest,1180.0,,definitely_new,,,,,Adults,Revaluation,1.0
435,199,555,8771,memory,False,./assets/img/canyon/memory/9.jpg,canyon,10.0,,True,,39,old,22.96,Female,6,norest,919.0,,definitely_old,,,,,Adults,Revaluation,1.0
436,201,559,8771,memory,False,./assets/img/canyon/memory/32.jpg,canyon,10.0,,True,,41,new,22.96,Female,6,norest,1420.0,,definitely_new,,,,,Adults,Revaluation,1.0
437,204,565,8771,memory,False,./assets/img/canyon/memory/23.jpg,canyon,10.0,,True,,44,old,22.96,Female,6,norest,1426.0,,definitely_old,,,,,Adults,Revaluation,1.0
438,205,567,8771,memory,False,./assets/img/canyon/memory/16.jpg,canyon,10.0,,True,,45,old,22.96,Female,6,norest,1314.0,,maybe_old,,,,,Adults,Revaluation,1.0
439,206,569,8771,memory,False,./assets/img/canyon/memory/31.jpg,canyon,10.0,,True,,46,old,22.96,Female,6,norest,1193.0,,maybe_old,,,,,Adults,Revaluation,1.0
440,208,573,8771,memory,False,./assets/img/canyon/memory/27.jpg,canyon,0.0,,False,,48,old,22.96,Female,6,norest,1761.0,,maybe_new,,,,,Adults,Revaluation,1.0
441,209,575,8771,memory,False,./assets/img/canyon/memory/28.jpg,canyon,10.0,,True,,49,old,22.96,Female,6,norest,949.0,,definitely_old,,,,,Adults,Revaluation,1.0
442,210,577,8771,memory,False,./assets/img/canyon/memory/33.jpg,canyon,0.0,,False,,50,old,22.96,Female,6,norest,3121.0,,maybe_new,,,,,Adults,Revaluation,1.0
443,211,579,8771,memory,False,./assets/img/canyon/memory/7.jpg,canyon,0.0,,False,,51,new,22.96,Female,6,norest,2589.0,,maybe_old,,,,,Adults,Revaluation,1.0
444,213,583,8771,memory,False,./assets/img/canyon/memory/29.jpg,canyon,10.0,,True,,53,old,22.96,Female,6,norest,1116.0,,maybe_old,,,,,Adults,Revaluation,1.0
445,214,585,8771,memory,False,./assets/img/canyon/memory/11.jpg,canyon,0.0,,False,,54,old,22.96,Female,6,norest,1478.0,,maybe_new,,,,,Adults,Revaluation,1.0
446,216,589,8771,memory,False,./assets/img/canyon/memory/36.jpg,canyon,10.0,,True,,56,old,22.96,Female,6,norest,1402.0,,maybe_old,,,,,Adults,Revaluation,1.0
447,218,593,8771,memory,False,./assets/img/canyon/memory/24.jpg,canyon,10.0,,True,,58,new,22.96,Female,6,norest,1295.0,,definitely_new,,,,,Adults,Revaluation,1.0
448,219,595,8771,memory,False,./assets/img/canyon/memory/10.jpg,canyon,0.0,,False,,59,old,22.96,Female,6,norest,931.0,,definitely_new,,,,,Adults,Revaluation,1.0
449,222,601,8771,memory,False,./assets/img/canyon/memory/34.jpg,canyon,10.0,,True,,62,new,22.96,Female,6,norest,963.0,,definitely_new,,,,,Adults,Revaluation,1.0
450,223,603,8771,memory,False,./assets/img/canyon/memory/18.jpg,canyon,0.0,,False,,63,old,22.96,Female,6,norest,1152.0,,definitely_new,,,,,Adults,Revaluation,1.0
451,224,605,8771,memory,False,./assets/img/canyon/memory/17.jpg,canyon,10.0,,True,,64,new,22.96,Female,6,norest,2230.0,,maybe_new,,,,,Adults,Revaluation,1.0
452,226,609,8771,memory,False,./assets/img/canyon/memory/1.jpg,canyon,10.0,,True,,66,old,22.96,Female,6,norest,1378.0,,definitely_old,,,,,Adults,Revaluation,1.0
453,232,621,8771,memory,False,./assets/img/canyon/memory/35.jpg,canyon,10.0,,True,,72,new,22.96,Female,6,norest,3814.0,,maybe_new,,,,,Adults,Revaluation,1.0
454,234,625,8771,memory,False,./assets/img/canyon/memory/12.jpg,canyon,0.0,,False,,74,new,22.96,Female,6,norest,2003.0,,maybe_old,,,,,Adults,Revaluation,1.0
455,236,629,8771,memory,False,./assets/img/canyon/memory/4.jpg,canyon,0.0,,False,,76,old,22.96,Female,6,norest,5011.0,,maybe_new,,,,,Adults,Revaluation,1.0
456,237,631,8771,memory,False,./assets/img/canyon/memory/25.jpg,canyon,0.0,,False,,77,old,22.96,Female,6,norest,5335.0,,maybe_new,,,,,Adults,Revaluation,1.0
457,240,637,8771,memory,False,./assets/img/canyon/memory/5.jpg,canyon,10.0,,True,,80,new,22.96,Female,6,norest,3232.0,,maybe_new,,,,,Adults,Revaluation,1.0
458,243,643,8771,memory,False,./assets/img/canyon/memory/8.jpg,canyon,10.0,,True,,83,new,22.96,Female,6,norest,2592.0,,definitely_new,,,,,Adults,Revaluation,1.0
459,244,645,8771,memory,False,./assets/img/canyon/memory/39.jpg,canyon,10.0,,True,,84,old,22.96,Female,6,norest,1228.0,,maybe_old,,,,,Adults,Revaluation,1.0
460,245,647,8771,memory,False,./assets/img/canyon/memory/21.jpg,canyon,10.0,,True,,85,new,22.96,Female,6,norest,1082.0,,definitely_new,,,,,Adults,Revaluation,1.0
461,246,649,8771,memory,False,./assets/img/canyon/memory/41.jpg,canyon,0.0,,False,,86,old,22.96,Female,6,norest,2870.0,,maybe_new,,,,,Adults,Revaluation,1.0
462,165,487,8771,memory,False,./assets/img/ocean/memory/9.jpg,ocean,10.0,,True,,5,old,22.96,Female,6,norest,1270.0,,definitely_old,,,,,Adults,Control,2.0
463,166,489,8771,memory,False,./assets/img/ocean/memory/34.jpg,ocean,10.0,,True,,6,old,22.96,Female,6,norest,2602.0,,maybe_old,,,,,Adults,Control,2.0
464,167,491,8771,memory,False,./assets/img/ocean/memory/4.jpg,ocean,10.0,,True,,7,old,22.96,Female,6,norest,1933.0,,definitely_old,,,,,Adults,Control,2.0
465,169,495,8771,memory,False,./assets/img/ocean/memory/15.jpg,ocean,0.0,,False,,9,new,22.96,Female,6,norest,950.0,,definitely_old,,,,,Adults,Control,2.0
466,171,499,8771,memory,False,./assets/img/ocean/memory/11.jpg,ocean,10.0,,True,,11,old,22.96,Female,6,norest,1422.0,,definitely_old,,,,,Adults,Control,2.0
467,172,501,8771,memory,False,./assets/img/ocean/memory/3.jpg,ocean,10.0,,True,,12,old,22.96,Female,6,norest,1466.0,,maybe_old,,,,,Adults,Control,2.0
468,173,503,8771,memory,False,./assets/img/ocean/memory/23.jpg,ocean,10.0,,True,,13,old,22.96,Female,6,norest,2015.0,,definitely_old,,,,,Adults,Control,2.0
469,174,505,8771,memory,False,./assets/img/ocean/memory/26.jpg,ocean,10.0,,True,,14,old,22.96,Female,6,norest,1302.0,,definitely_old,,,,,Adults,Control,2.0
470,175,507,8771,memory,False,./assets/img/ocean/memory/32.jpg,ocean,10.0,,True,,15,old,22.96,Female,6,norest,2010.0,,maybe_old,,,,,Adults,Control,2.0
471,176,509,8771,memory,False,./assets/img/ocean/memory/38.jpg,ocean,10.0,,True,,16,old,22.96,Female,6,norest,1827.0,,maybe_old,,,,,Adults,Control,2.0
472,178,513,8771,memory,False,./assets/img/ocean/memory/18.jpg,ocean,0.0,,False,,18,old,22.96,Female,6,norest,2934.0,,definitely_new,,,,,Adults,Control,2.0
473,179,515,8771,memory,False,./assets/img/ocean/memory/12.jpg,ocean,10.0,,True,,19,new,22.96,Female,6,norest,1333.0,,maybe_new,,,,,Adults,Control,2.0
474,180,517,8771,memory,False,./assets/img/ocean/memory/7.jpg,ocean,0.0,,False,,20,old,22.96,Female,6,norest,3295.0,,definitely_new,,,,,Adults,Control,2.0
475,183,523,8771,memory,False,./assets/img/ocean/memory/36.jpg,ocean,0.0,,False,,23,new,22.96,Female,6,norest,1357.0,,definitely_old,,,,,Adults,Control,2.0
476,184,525,8771,memory,False,./assets/img/ocean/memory/41.jpg,ocean,0.0,,False,,24,new,22.96,Female,6,norest,908.0,,definitely_old,,,,,Adults,Control,2.0
477,186,529,8771,memory,False,./assets/img/ocean/memory/1.jpg,ocean,0.0,,False,,26,new,22.96,Female,6,norest,802.0,,definitely_old,,,,,Adults,Control,2.0
478,188,533,8771,memory,False,./assets/img/ocean/memory/6.jpg,ocean,0.0,,False,,28,old,22.96,Female,6,norest,1195.0,,definitely_new,,,,,Adults,Control,2.0
479,192,541,8771,memory,False,./assets/img/ocean/memory/25.jpg,ocean,10.0,,True,,32,new,22.96,Female,6,norest,1596.0,,definitely_new,,,,,Adults,Control,2.0
480,193,543,8771,memory,False,./assets/img/ocean/memory/22.jpg,ocean,10.0,,True,,33,old,22.96,Female,6,norest,2067.0,,maybe_old,,,,,Adults,Control,2.0
481,195,547,8771,memory,False,./assets/img/ocean/memory/8.jpg,ocean,0.0,,False,,35,old,22.96,Female,6,norest,3761.0,,definitely_new,,,,,Adults,Control,2.0
482,200,557,8771,memory,False,./assets/img/ocean/memory/30.jpg,ocean,10.0,,True,,40,new,22.96,Female,6,norest,1197.0,,definitely_new,,,,,Adults,Control,2.0
483,202,561,8771,memory,False,./assets/img/ocean/memory/35.jpg,ocean,0.0,,False,,42,old,22.96,Female,6,norest,3079.0,,maybe_new,,,,,Adults,Control,2.0
484,203,563,8771,memory,False,./assets/img/ocean/memory/24.jpg,ocean,10.0,,True,,43,new,22.96,Female,6,norest,1199.0,,definitely_new,,,,,Adults,Control,2.0
485,207,571,8771,memory,False,./assets/img/ocean/memory/17.jpg,ocean,10.0,,True,,47,new,22.96,Female,6,norest,1289.0,,definitely_new,,,,,Adults,Control,2.0
486,212,581,8771,memory,False,./assets/img/ocean/memory/16.jpg,ocean,0.0,,False,,52,new,22.96,Female,6,norest,1011.0,,definitely_old,,,,,Adults,Control,2.0
487,215,587,8771,memory,False,./assets/img/ocean/memory/27.jpg,ocean,10.0,,True,,55,old,22.96,Female,6,norest,1960.0,,definitely_old,,,,,Adults,Control,2.0
488,217,591,8771,memory,False,./assets/img/ocean/memory/37.jpg,ocean,10.0,,True,,57,new,22.96,Female,6,norest,2968.0,,maybe_new,,,,,Adults,Control,2.0
489,220,597,8771,memory,False,./assets/img/ocean/memory/29.jpg,ocean,10.0,,True,,60,old,22.96,Female,6,norest,2541.0,,maybe_old,,,,,Adults,Control,2.0
490,221,599,8771,memory,False,./assets/img/ocean/memory/10.jpg,ocean,0.0,,False,,61,new,22.96,Female,6,norest,3805.0,,maybe_old,,,,,Adults,Control,2.0
491,225,607,8771,memory,False,./assets/img/ocean/memory/21.jpg,ocean,0.0,,False,,65,old,22.96,Female,6,norest,1182.0,,definitely_new,,,,,Adults,Control,2.0
492,227,611,8771,memory,False,./assets/img/ocean/memory/39.jpg,ocean,0.0,,False,,67,new,22.96,Female,6,norest,1544.0,,maybe_old,,,,,Adults,Control,2.0
493,228,613,8771,memory,False,./assets/img/ocean/memory/13.jpg,ocean,0.0,,False,,68,old,22.96,Female,6,norest,1148.0,,definitely_new,,,,,Adults,Control,2.0
494,229,615,8771,memory,False,./assets/img/ocean/memory/40.jpg,ocean,10.0,,True,,69,new,22.96,Female,6,norest,1265.0,,definitely_new,,,,,Adults,Control,2.0
495,230,617,8771,memory,False,./assets/img/ocean/memory/33.jpg,ocean,10.0,,True,,70,new,22.96,Female,6,norest,1447.0,,maybe_new,,,,,Adults,Control,2.0
496,231,619,8771,memory,False,./assets/img/ocean/memory/31.jpg,ocean,10.0,,True,,71,new,22.96,Female,6,norest,2928.0,,definitely_new,,,,,Adults,Control,2.0
497,233,623,8771,memory,False,./assets/img/ocean/memory/2.jpg,ocean,10.0,,True,,73,new,22.96,Female,6,norest,1522.0,,maybe_new,,,,,Adults,Control,2.0
498,235,627,8771,memory,False,./assets/img/ocean/memory/0.jpg,ocean,0.0,,False,,75,new,22.96,Female,6,norest,1240.0,,definitely_old,,,,,Adults,Control,2.0
499,238,633,8771,memory,False,./assets/img/ocean/memory/20.jpg,ocean,10.0,,True,,78,new,22.96,Female,6,norest,1328.0,,definitely_new,,,,,Adults,Control,2.0
500,239,635,8771,memory,False,./assets/img/ocean/memory/19.jpg,ocean,0.0,,False,,79,old,22.96,Female,6,norest,1925.0,,definitely_new,,,,,Adults,Control,2.0
501,241,639,8771,memory,False,./assets/img/ocean/memory/28.jpg,ocean,10.0,,True,,81,new,22.96,Female,6,norest,980.0,,definitely_new,,,,,Adults,Control,2.0
502,242,641,8771,memory,False,./assets/img/ocean/memory/14.jpg,ocean,10.0,,True,,82,new,22.96,Female,6,norest,865.0,,definitely_new,,,,,Adults,Control,2.0
503,247,651,8771,memory,False,./assets/img/ocean/memory/5.jpg,ocean,0.0,,False,,87,old,22.96,Female,6,norest,2893.0,,maybe_new,,,,,Adults,Control,2.0
504,164,484,8201,memory,False,./assets/img/canyon/memory/3.jpg,canyon,10.0,,True,,4,new,19.34,Male,4,norest,2541.0,,maybe_new,,,,,Adults,Control,2.0
505,166,488,8201,memory,False,./assets/img/canyon/memory/2.jpg,canyon,0.0,,False,,6,new,19.34,Male,4,norest,1433.0,,definitely_old,,,,,Adults,Control,2.0
506,167,490,8201,memory,False,./assets/img/canyon/memory/38.jpg,canyon,0.0,,False,,7,new,19.34,Male,4,norest,1627.0,,maybe_old,,,,,Adults,Control,2.0
507,168,492,8201,memory,False,./assets/img/canyon/memory/32.jpg,canyon,0.0,,False,,8,old,19.34,Male,4,norest,2431.0,,maybe_new,,,,,Adults,Control,2.0
508,169,494,8201,memory,False,./assets/img/canyon/memory/8.jpg,canyon,10.0,,True,,9,old,19.34,Male,4,norest,1552.0,,maybe_old,,,,,Adults,Control,2.0
509,171,498,8201,memory,False,./assets/img/canyon/memory/12.jpg,canyon,10.0,,True,,11,old,19.34,Male,4,norest,1607.0,,maybe_old,,,,,Adults,Control,2.0
510,173,502,8201,memory,False,./assets/img/canyon/memory/36.jpg,canyon,10.0,,True,,13,new,19.34,Male,4,norest,1552.0,,maybe_new,,,,,Adults,Control,2.0
511,175,506,8201,memory,False,./assets/img/canyon/memory/13.jpg,canyon,10.0,,True,,15,old,19.34,Male,4,norest,1245.0,,maybe_old,,,,,Adults,Control,2.0
512,177,510,8201,memory,False,./assets/img/canyon/memory/41.jpg,canyon,0.0,,False,,17,old,19.34,Male,4,norest,1953.0,,maybe_new,,,,,Adults,Control,2.0
513,180,516,8201,memory,False,./assets/img/canyon/memory/24.jpg,canyon,10.0,,True,,20,old,19.34,Male,4,norest,870.0,,definitely_old,,,,,Adults,Control,2.0
514,181,518,8201,memory,False,./assets/img/canyon/memory/17.jpg,canyon,0.0,,False,,21,new,19.34,Male,4,norest,1117.0,,definitely_old,,,,,Adults,Control,2.0
515,183,522,8201,memory,False,./assets/img/canyon/memory/19.jpg,canyon,0.0,,False,,23,new,19.34,Male,4,norest,1024.0,,definitely_old,,,,,Adults,Control,2.0
516,184,524,8201,memory,False,./assets/img/canyon/memory/40.jpg,canyon,0.0,,False,,24,new,19.34,Male,4,norest,1046.0,,definitely_old,,,,,Adults,Control,2.0
517,186,528,8201,memory,False,./assets/img/canyon/memory/18.jpg,canyon,10.0,,True,,26,old,19.34,Male,4,norest,1218.0,,maybe_old,,,,,Adults,Control,2.0
518,187,530,8201,memory,False,./assets/img/canyon/memory/33.jpg,canyon,0.0,,False,,27,new,19.34,Male,4,norest,1623.0,,definitely_old,,,,,Adults,Control,2.0
519,191,538,8201,memory,False,./assets/img/canyon/memory/6.jpg,canyon,10.0,,True,,31,old,19.34,Male,4,norest,1352.0,,definitely_old,,,,,Adults,Control,2.0
520,192,540,8201,memory,False,./assets/img/canyon/memory/23.jpg,canyon,0.0,,False,,32,old,19.34,Male,4,norest,2825.0,,maybe_new,,,,,Adults,Control,2.0
521,194,544,8201,memory,False,./assets/img/canyon/memory/22.jpg,canyon,10.0,,True,,34,old,19.34,Male,4,norest,1600.0,,maybe_old,,,,,Adults,Control,2.0
522,195,546,8201,memory,False,./assets/img/canyon/memory/9.jpg,canyon,10.0,,True,,35,old,19.34,Male,4,norest,882.0,,maybe_old,,,,,Adults,Control,2.0
523,198,552,8201,memory,False,./assets/img/canyon/memory/28.jpg,canyon,10.0,,True,,38,new,19.34,Male,4,norest,852.0,,definitely_new,,,,,Adults,Control,2.0
524,199,554,8201,memory,False,./assets/img/canyon/memory/20.jpg,canyon,10.0,,True,,39,new,19.34,Male,4,norest,2694.0,,maybe_new,,,,,Adults,Control,2.0
525,200,556,8201,memory,False,./assets/img/canyon/memory/31.jpg,canyon,10.0,,True,,40,new,19.34,Male,4,norest,1607.0,,definitely_new,,,,,Adults,Control,2.0
526,201,558,8201,memory,False,./assets/img/canyon/memory/1.jpg,canyon,0.0,,False,,41,new,19.34,Male,4,norest,1181.0,,maybe_old,,,,,Adults,Control,2.0
527,205,566,8201,memory,False,./assets/img/canyon/memory/39.jpg,canyon,0.0,,False,,45,old,19.34,Male,4,norest,1291.0,,maybe_new,,,,,Adults,Control,2.0
528,208,572,8201,memory,False,./assets/img/canyon/memory/35.jpg,canyon,0.0,,False,,48,old,19.34,Male,4,norest,2007.0,,maybe_new,,,,,Adults,Control,2.0
529,211,578,8201,memory,False,./assets/img/canyon/memory/7.jpg,canyon,10.0,,True,,51,old,19.34,Male,4,norest,1366.0,,maybe_old,,,,,Adults,Control,2.0
530,212,580,8201,memory,False,./assets/img/canyon/memory/15.jpg,canyon,10.0,,True,,52,old,19.34,Male,4,norest,942.0,,maybe_old,,,,,Adults,Control,2.0
531,214,584,8201,memory,False,./assets/img/canyon/memory/10.jpg,canyon,0.0,,False,,54,old,19.34,Male,4,norest,1053.0,,definitely_new,,,,,Adults,Control,2.0
532,218,592,8201,memory,False,./assets/img/canyon/memory/27.jpg,canyon,10.0,,True,,58,new,19.34,Male,4,norest,2494.0,,definitely_new,,,,,Adults,Control,2.0
533,219,594,8201,memory,False,./assets/img/canyon/memory/25.jpg,canyon,0.0,,False,,59,old,19.34,Male,4,norest,1261.0,,definitely_new,,,,,Adults,Control,2.0
534,222,600,8201,memory,False,./assets/img/canyon/memory/5.jpg,canyon,0.0,,False,,62,old,19.34,Male,4,norest,706.0,,definitely_new,,,,,Adults,Control,2.0
535,224,604,8201,memory,False,./assets/img/canyon/memory/26.jpg,canyon,0.0,,False,,64,old,19.34,Male,4,norest,1481.0,,definitely_new,,,,,Adults,Control,2.0
536,225,606,8201,memory,False,./assets/img/canyon/memory/37.jpg,canyon,10.0,,True,,65,new,19.34,Male,4,norest,1360.0,,definitely_new,,,,,Adults,Control,2.0
537,229,614,8201,memory,False,./assets/img/canyon/memory/21.jpg,canyon,10.0,,True,,69,new,19.34,Male,4,norest,1425.0,,definitely_new,,,,,Adults,Control,2.0
538,230,616,8201,memory,False,./assets/img/canyon/memory/0.jpg,canyon,0.0,,False,,70,new,19.34,Male,4,norest,1124.0,,definitely_old,,,,,Adults,Control,2.0
539,234,624,8201,memory,False,./assets/img/canyon/memory/34.jpg,canyon,0.0,,False,,74,old,19.34,Male,4,norest,695.0,,definitely_new,,,,,Adults,Control,2.0
540,236,628,8201,memory,False,./assets/img/canyon/memory/4.jpg,canyon,10.0,,True,,76,new,19.34,Male,4,norest,1806.0,,maybe_new,,,,,Adults,Control,2.0
541,237,630,8201,memory,False,./assets/img/canyon/memory/16.jpg,canyon,0.0,,False,,77,old,19.34,Male,4,norest,1536.0,,maybe_new,,,,,Adults,Control,2.0
542,240,636,8201,memory,False,./assets/img/canyon/memory/29.jpg,canyon,10.0,,True,,80,new,19.34,Male,4,norest,1514.0,,maybe_new,,,,,Adults,Control,2.0
543,244,644,8201,memory,False,./assets/img/canyon/memory/30.jpg,canyon,10.0,,True,,84,new,19.34,Male,4,norest,740.0,,maybe_new,,,,,Adults,Control,2.0
544,245,646,8201,memory,False,./assets/img/canyon/memory/14.jpg,canyon,10.0,,True,,85,new,19.34,Male,4,norest,768.0,,maybe_new,,,,,Adults,Control,2.0
545,247,650,8201,memory,False,./assets/img/canyon/memory/11.jpg,canyon,10.0,,True,,87,new,19.34,Male,4,norest,957.0,,maybe_new,,,,,Adults,Control,2.0
546,165,486,8201,memory,False,./assets/img/ocean/memory/9.jpg,ocean,0.0,,False,,5,old,19.34,Male,4,norest,1610.0,,maybe_new,,,,,Adults,Revaluation,1.0
547,170,496,8201,memory,False,./assets/img/ocean/memory/1.jpg,ocean,10.0,,True,,10,new,19.34,Male,4,norest,2607.0,,definitely_new,,,,,Adults,Revaluation,1.0
548,172,500,8201,memory,False,./assets/img/ocean/memory/16.jpg,ocean,10.0,,True,,12,new,19.34,Male,4,norest,2377.0,,maybe_new,,,,,Adults,Revaluation,1.0
549,174,504,8201,memory,False,./assets/img/ocean/memory/32.jpg,ocean,10.0,,True,,14,old,19.34,Male,4,norest,1371.0,,maybe_old,,,,,Adults,Revaluation,1.0
550,176,508,8201,memory,False,./assets/img/ocean/memory/3.jpg,ocean,10.0,,True,,16,new,19.34,Male,4,norest,1695.0,,maybe_new,,,,,Adults,Revaluation,1.0
551,178,512,8201,memory,False,./assets/img/ocean/memory/5.jpg,ocean,0.0,,False,,18,new,19.34,Male,4,norest,1188.0,,maybe_old,,,,,Adults,Revaluation,1.0
552,179,514,8201,memory,False,./assets/img/ocean/memory/17.jpg,ocean,10.0,,True,,19,old,19.34,Male,4,norest,1510.0,,maybe_old,,,,,Adults,Revaluation,1.0
553,182,520,8201,memory,False,./assets/img/ocean/memory/8.jpg,ocean,10.0,,True,,22,new,19.34,Male,4,norest,1727.0,,maybe_new,,,,,Adults,Revaluation,1.0
554,185,526,8201,memory,False,./assets/img/ocean/memory/26.jpg,ocean,0.0,,False,,25,new,19.34,Male,4,norest,1171.0,,maybe_old,,,,,Adults,Revaluation,1.0
555,188,532,8201,memory,False,./assets/img/ocean/memory/7.jpg,ocean,10.0,,True,,28,old,19.34,Male,4,norest,1247.0,,maybe_old,,,,,Adults,Revaluation,1.0
556,189,534,8201,memory,False,./assets/img/ocean/memory/35.jpg,ocean,0.0,,False,,29,old,19.34,Male,4,norest,1932.0,,maybe_new,,,,,Adults,Revaluation,1.0
557,190,536,8201,memory,False,./assets/img/ocean/memory/36.jpg,ocean,0.0,,False,,30,old,19.34,Male,4,norest,1538.0,,maybe_new,,,,,Adults,Revaluation,1.0
558,193,542,8201,memory,False,./assets/img/ocean/memory/11.jpg,ocean,10.0,,True,,33,new,19.34,Male,4,norest,2788.0,,maybe_new,,,,,Adults,Revaluation,1.0
559,196,548,8201,memory,False,./assets/img/ocean/memory/29.jpg,ocean,10.0,,True,,36,old,19.34,Male,4,norest,1395.0,,definitely_old,,,,,Adults,Revaluation,1.0
560,197,550,8201,memory,False,./assets/img/ocean/memory/33.jpg,ocean,0.0,,False,,37,old,19.34,Male,4,norest,1624.0,,maybe_new,,,,,Adults,Revaluation,1.0
561,202,560,8201,memory,False,./assets/img/ocean/memory/15.jpg,ocean,10.0,,True,,42,new,19.34,Male,4,norest,3040.0,,definitely_new,,,,,Adults,Revaluation,1.0
562,203,562,8201,memory,False,./assets/img/ocean/memory/38.jpg,ocean,10.0,,True,,43,old,19.34,Male,4,norest,1432.0,,maybe_old,,,,,Adults,Revaluation,1.0
563,204,564,8201,memory,False,./assets/img/ocean/memory/12.jpg,ocean,0.0,,False,,44,old,19.34,Male,4,norest,1358.0,,maybe_new,,,,,Adults,Revaluation,1.0
564,206,568,8201,memory,False,./assets/img/ocean/memory/34.jpg,ocean,10.0,,True,,46,new,19.34,Male,4,norest,711.0,,maybe_new,,,,,Adults,Revaluation,1.0
565,207,570,8201,memory,False,./assets/img/ocean/memory/14.jpg,ocean,10.0,,True,,47,new,19.34,Male,4,norest,1363.0,,maybe_new,,,,,Adults,Revaluation,1.0
566,209,574,8201,memory,False,./assets/img/ocean/memory/31.jpg,ocean,10.0,,True,,49,new,19.34,Male,4,norest,717.0,,maybe_new,,,,,Adults,Revaluation,1.0
567,210,576,8201,memory,False,./assets/img/ocean/memory/10.jpg,ocean,10.0,,True,,50,new,19.34,Male,4,norest,1294.0,,maybe_new,,,,,Adults,Revaluation,1.0
568,213,582,8201,memory,False,./assets/img/ocean/memory/27.jpg,ocean,0.0,,False,,53,old,19.34,Male,4,norest,3589.0,,maybe_new,,,,,Adults,Revaluation,1.0
569,215,586,8201,memory,False,./assets/img/ocean/memory/28.jpg,ocean,10.0,,True,,55,new,19.34,Male,4,norest,1341.0,,definitely_new,,,,,Adults,Revaluation,1.0
570,216,588,8201,memory,False,./assets/img/ocean/memory/21.jpg,ocean,10.0,,True,,56,new,19.34,Male,4,norest,2277.0,,definitely_new,,,,,Adults,Revaluation,1.0
571,217,590,8201,memory,False,./assets/img/ocean/memory/2.jpg,ocean,0.0,,False,,57,old,19.34,Male,4,norest,1362.0,,maybe_new,,,,,Adults,Revaluation,1.0
572,220,596,8201,memory,False,./assets/img/ocean/memory/41.jpg,ocean,0.0,,False,,60,old,19.34,Male,4,norest,814.0,,definitely_new,,,,,Adults,Revaluation,1.0
573,221,598,8201,memory,False,./assets/img/ocean/memory/4.jpg,ocean,10.0,,True,,61,new,19.34,Male,4,norest,1263.0,,definitely_new,,,,,Adults,Revaluation,1.0
574,223,602,8201,memory,False,./assets/img/ocean/memory/23.jpg,ocean,0.0,,False,,63,old,19.34,Male,4,norest,1288.0,,definitely_new,,,,,Adults,Revaluation,1.0
575,226,608,8201,memory,False,./assets/img/ocean/memory/13.jpg,ocean,0.0,,False,,66,old,19.34,Male,4,norest,622.0,,definitely_new,,,,,Adults,Revaluation,1.0
576,227,610,8201,memory,False,./assets/img/ocean/memory/18.jpg,ocean,0.0,,False,,67,old,19.34,Male,4,norest,721.0,,definitely_new,,,,,Adults,Revaluation,1.0
577,228,612,8201,memory,False,./assets/img/ocean/memory/39.jpg,ocean,10.0,,True,,68,new,19.34,Male,4,norest,727.0,,definitely_new,,,,,Adults,Revaluation,1.0
578,231,618,8201,memory,False,./assets/img/ocean/memory/19.jpg,ocean,10.0,,True,,71,new,19.34,Male,4,norest,1647.0,,maybe_new,,,,,Adults,Revaluation,1.0
579,232,620,8201,memory,False,./assets/img/ocean/memory/24.jpg,ocean,10.0,,True,,72,new,19.34,Male,4,norest,928.0,,definitely_new,,,,,Adults,Revaluation,1.0
580,233,622,8201,memory,False,./assets/img/ocean/memory/25.jpg,ocean,10.0,,True,,73,new,19.34,Male,4,norest,1103.0,,definitely_new,,,,,Adults,Revaluation,1.0
581,235,626,8201,memory,False,./assets/img/ocean/memory/6.jpg,ocean,0.0,,False,,75,old,19.34,Male,4,norest,839.0,,definitely_new,,,,,Adults,Revaluation,1.0
582,238,632,8201,memory,False,./assets/img/ocean/memory/0.jpg,ocean,0.0,,False,,78,old,19.34,Male,4,norest,838.0,,maybe_new,,,,,Adults,Revaluation,1.0
583,239,634,8201,memory,False,./assets/img/ocean/memory/40.jpg,ocean,10.0,,True,,79,old,19.34,Male,4,norest,1819.0,,maybe_old,,,,,Adults,Revaluation,1.0
584,241,638,8201,memory,False,./assets/img/ocean/memory/20.jpg,ocean,0.0,,False,,81,old,19.34,Male,4,norest,1831.0,,maybe_new,,,,,Adults,Revaluation,1.0
585,242,640,8201,memory,False,./assets/img/ocean/memory/37.jpg,ocean,10.0,,True,,82,new,19.34,Male,4,norest,1191.0,,maybe_new,,,,,Adults,Revaluation,1.0
586,243,642,8201,memory,False,./assets/img/ocean/memory/22.jpg,ocean,0.0,,False,,83,old,19.34,Male,4,norest,591.0,,maybe_new,,,,,Adults,Revaluation,1.0
587,246,648,8201,memory,False,./assets/img/ocean/memory/30.jpg,ocean,10.0,,True,,86,new,19.34,Male,4,norest,629.0,,maybe_new,,,,,Adults,Revaluation,1.0
588,164,484,8559,memory,False,./assets/img/canyon/memory/16.jpg,canyon,10.0,,True,,4,old,10.18,Male,6,norest,1537.0,,definitely_old,,,,,Children,Revaluation,1.0
589,165,486,8559,memory,False,./assets/img/canyon/memory/1.jpg,canyon,0.0,,False,,5,new,10.18,Male,6,norest,1920.0,,definitely_old,,,,,Children,Revaluation,1.0
590,166,488,8559,memory,False,./assets/img/canyon/memory/15.jpg,canyon,10.0,,True,,6,new,10.18,Male,6,norest,2134.0,,definitely_new,,,,,Children,Revaluation,1.0
591,167,490,8559,memory,False,./assets/img/canyon/memory/13.jpg,canyon,10.0,,True,,7,old,10.18,Male,6,norest,1335.0,,definitely_old,,,,,Children,Revaluation,1.0
592,168,492,8559,memory,False,./assets/img/canyon/memory/7.jpg,canyon,0.0,,False,,8,new,10.18,Male,6,norest,1232.0,,definitely_old,,,,,Children,Revaluation,1.0
593,169,494,8559,memory,False,./assets/img/canyon/memory/30.jpg,canyon,0.0,,False,,9,old,10.18,Male,6,norest,1041.0,,definitely_new,,,,,Children,Revaluation,1.0
594,170,496,8559,memory,False,./assets/img/canyon/memory/19.jpg,canyon,10.0,,True,,10,new,10.18,Male,6,norest,985.0,,maybe_new,,,,,Children,Revaluation,1.0
595,172,500,8559,memory,False,./assets/img/canyon/memory/0.jpg,canyon,0.0,,False,,12,old,10.18,Male,6,norest,2853.0,,maybe_new,,,,,Children,Revaluation,1.0
596,174,504,8559,memory,False,./assets/img/canyon/memory/37.jpg,canyon,10.0,,True,,14,old,10.18,Male,6,norest,1035.0,,definitely_old,,,,,Children,Revaluation,1.0
597,175,506,8559,memory,False,./assets/img/canyon/memory/14.jpg,canyon,0.0,,False,,15,old,10.18,Male,6,norest,2260.0,,maybe_new,,,,,Children,Revaluation,1.0
598,176,508,8559,memory,False,./assets/img/canyon/memory/38.jpg,canyon,0.0,,False,,16,new,10.18,Male,6,norest,1251.0,,maybe_old,,,,,Children,Revaluation,1.0
599,177,510,8559,memory,False,./assets/img/canyon/memory/11.jpg,canyon,10.0,,True,,17,new,10.18,Male,6,norest,1304.0,,maybe_new,,,,,Children,Revaluation,1.0
600,181,518,8559,memory,False,./assets/img/canyon/memory/21.jpg,canyon,0.0,,False,,21,new,10.18,Male,6,norest,1208.0,,maybe_old,,,,,Children,Revaluation,1.0
601,182,520,8559,memory,False,./assets/img/canyon/memory/6.jpg,canyon,0.0,,False,,22,old,10.18,Male,6,norest,1264.0,,maybe_new,,,,,Children,Revaluation,1.0
602,184,524,8559,memory,False,./assets/img/canyon/memory/8.jpg,canyon,10.0,,True,,24,old,10.18,Male,6,norest,1030.0,,definitely_old,,,,,Children,Revaluation,1.0
603,186,528,8559,memory,False,./assets/img/canyon/memory/33.jpg,canyon,0.0,,False,,26,new,10.18,Male,6,norest,784.0,,definitely_old,,,,,Children,Revaluation,1.0
604,190,536,8559,memory,False,./assets/img/canyon/memory/39.jpg,canyon,10.0,,True,,30,old,10.18,Male,6,norest,1906.0,,definitely_old,,,,,Children,Revaluation,1.0
605,191,538,8559,memory,False,./assets/img/canyon/memory/25.jpg,canyon,0.0,,False,,31,new,10.18,Male,6,norest,575.0,,maybe_old,,,,,Children,Revaluation,1.0
606,192,540,8559,memory,False,./assets/img/canyon/memory/29.jpg,canyon,10.0,,True,,32,new,10.18,Male,6,norest,712.0,,maybe_new,,,,,Children,Revaluation,1.0
607,193,542,8559,memory,False,./assets/img/canyon/memory/41.jpg,canyon,10.0,,True,,33,old,10.18,Male,6,norest,740.0,,definitely_old,,,,,Children,Revaluation,1.0
608,197,550,8559,memory,False,./assets/img/canyon/memory/4.jpg,canyon,0.0,,False,,37,new,10.18,Male,6,norest,772.0,,definitely_old,,,,,Children,Revaluation,1.0
609,199,554,8559,memory,False,./assets/img/canyon/memory/9.jpg,canyon,10.0,,True,,39,old,10.18,Male,6,norest,1358.0,,definitely_old,,,,,Children,Revaluation,1.0
610,200,556,8559,memory,False,./assets/img/canyon/memory/35.jpg,canyon,0.0,,False,,40,new,10.18,Male,6,norest,1194.0,,definitely_old,,,,,Children,Revaluation,1.0
611,205,566,8559,memory,False,./assets/img/canyon/memory/3.jpg,canyon,0.0,,False,,45,old,10.18,Male,6,norest,1357.0,,definitely_new,,,,,Children,Revaluation,1.0
612,211,578,8559,memory,False,./assets/img/canyon/memory/24.jpg,canyon,0.0,,False,,51,new,10.18,Male,6,norest,113.0,,definitely_old,,,,,Children,Revaluation,1.0
613,212,580,8559,memory,False,./assets/img/canyon/memory/5.jpg,canyon,0.0,,False,,52,old,10.18,Male,6,norest,1682.0,,definitely_new,,,,,Children,Revaluation,1.0
614,220,596,8559,memory,False,./assets/img/canyon/memory/31.jpg,canyon,0.0,,False,,60,old,10.18,Male,6,norest,996.0,,definitely_new,,,,,Children,Revaluation,1.0
615,221,598,8559,memory,False,./assets/img/canyon/memory/36.jpg,canyon,0.0,,False,,61,new,10.18,Male,6,norest,591.0,,definitely_old,,,,,Children,Revaluation,1.0
616,224,604,8559,memory,False,./assets/img/canyon/memory/17.jpg,canyon,0.0,,False,,64,new,10.18,Male,6,norest,1004.0,,definitely_old,,,,,Children,Revaluation,1.0
617,225,606,8559,memory,False,./assets/img/canyon/memory/27.jpg,canyon,10.0,,True,,65,new,10.18,Male,6,norest,1532.0,,maybe_new,,,,,Children,Revaluation,1.0
618,226,608,8559,memory,False,./assets/img/canyon/memory/20.jpg,canyon,0.0,,False,,66,old,10.18,Male,6,norest,1348.0,,maybe_new,,,,,Children,Revaluation,1.0
619,227,610,8559,memory,False,./assets/img/canyon/memory/22.jpg,canyon,10.0,,True,,67,old,10.18,Male,6,norest,522.0,,maybe_old,,,,,Children,Revaluation,1.0
620,228,612,8559,memory,False,./assets/img/canyon/memory/10.jpg,canyon,0.0,,False,,68,old,10.18,Male,6,norest,841.0,,definitely_new,,,,,Children,Revaluation,1.0
621,229,614,8559,memory,False,./assets/img/canyon/memory/32.jpg,canyon,10.0,,True,,69,new,10.18,Male,6,norest,2042.0,,definitely_new,,,,,Children,Revaluation,1.0
622,230,616,8559,memory,False,./assets/img/canyon/memory/12.jpg,canyon,10.0,,True,,70,old,10.18,Male,6,norest,1179.0,,definitely_old,,,,,Children,Revaluation,1.0
623,234,624,8559,memory,False,./assets/img/canyon/memory/34.jpg,canyon,10.0,,True,,74,old,10.18,Male,6,norest,814.0,,definitely_old,,,,,Children,Revaluation,1.0
624,236,628,8559,memory,False,./assets/img/canyon/memory/23.jpg,canyon,10.0,,True,,76,old,10.18,Male,6,norest,2202.0,,maybe_old,,,,,Children,Revaluation,1.0
625,238,632,8559,memory,False,./assets/img/canyon/memory/26.jpg,canyon,10.0,,True,,78,old,10.18,Male,6,norest,941.0,,definitely_old,,,,,Children,Revaluation,1.0
626,240,636,8559,memory,False,./assets/img/canyon/memory/40.jpg,canyon,10.0,,True,,80,new,10.18,Male,6,norest,445.0,,maybe_new,,,,,Children,Revaluation,1.0
627,245,646,8559,memory,False,./assets/img/canyon/memory/28.jpg,canyon,0.0,,False,,85,new,10.18,Male,6,norest,685.0,,definitely_old,,,,,Children,Revaluation,1.0
628,246,648,8559,memory,False,./assets/img/canyon/memory/2.jpg,canyon,10.0,,True,,86,new,10.18,Male,6,norest,2415.0,,definitely_new,,,,,Children,Revaluation,1.0
629,247,650,8559,memory,False,./assets/img/canyon/memory/18.jpg,canyon,0.0,,False,,87,new,10.18,Male,6,norest,1943.0,,maybe_old,,,,,Children,Revaluation,1.0
630,171,498,8559,memory,False,./assets/img/ocean/memory/12.jpg,ocean,10.0,,True,,11,old,10.18,Male,6,norest,1787.0,,definitely_old,,,,,Children,Control,2.0
631,173,502,8559,memory,False,./assets/img/ocean/memory/4.jpg,ocean,10.0,,True,,13,old,10.18,Male,6,norest,1213.0,,definitely_old,,,,,Children,Control,2.0
632,178,512,8559,memory,False,./assets/img/ocean/memory/1.jpg,ocean,0.0,,False,,18,old,10.18,Male,6,norest,658.0,,definitely_new,,,,,Children,Control,2.0
633,179,514,8559,memory,False,./assets/img/ocean/memory/20.jpg,ocean,0.0,,False,,19,new,10.18,Male,6,norest,664.0,,definitely_old,,,,,Children,Control,2.0
634,180,516,8559,memory,False,./assets/img/ocean/memory/2.jpg,ocean,0.0,,False,,20,new,10.18,Male,6,norest,607.0,,definitely_old,,,,,Children,Control,2.0
635,183,522,8559,memory,False,./assets/img/ocean/memory/8.jpg,ocean,0.0,,False,,23,new,10.18,Male,6,norest,842.0,,definitely_old,,,,,Children,Control,2.0
636,185,526,8559,memory,False,./assets/img/ocean/memory/10.jpg,ocean,0.0,,False,,25,new,10.18,Male,6,norest,1080.0,,definitely_old,,,,,Children,Control,2.0
637,187,530,8559,memory,False,./assets/img/ocean/memory/13.jpg,ocean,10.0,,True,,27,old,10.18,Male,6,norest,870.0,,definitely_old,,,,,Children,Control,2.0
638,188,532,8559,memory,False,./assets/img/ocean/memory/19.jpg,ocean,0.0,,False,,28,old,10.18,Male,6,norest,743.0,,maybe_new,,,,,Children,Control,2.0
