,index,subject_id,task_part,rt,timeout,stimulus,environment,score,isCatch,correct,rewardMap,trial_num,ground_truth,age,subject_condition,rest,response0,response1,is_optimal_first,is_optimal_second,categorical_age,block_order,block_condition
0,484,10608,memory,1740,False,./assets/img/canyon/memory/19.jpg,canyon,10.0,,True,,4,old,8.62,3,norest,maybe_old,,,,Children,2.0,Revaluation
1,486,10608,memory,1024,False,./assets/img/canyon/memory/21.jpg,canyon,10.0,,True,,5,new,8.62,3,norest,definitely_new,,,,Children,2.0,Revaluation
2,488,10608,memory,1117,False,./assets/img/ocean/memory/14.jpg,ocean,0.0,,False,,6,old,8.62,3,norest,maybe_new,,,,Children,1.0,Control
3,490,10608,memory,1255,False,./assets/img/canyon/memory/24.jpg,canyon,10.0,,True,,7,new,8.62,3,norest,maybe_new,,,,Children,2.0,Revaluation
4,492,10608,memory,1018,False,./assets/img/canyon/memory/31.jpg,canyon,10.0,,True,,8,new,8.62,3,norest,definitely_new,,,,Children,2.0,Revaluation
5,494,10608,memory,1317,False,./assets/img/ocean/memory/16.jpg,ocean,10.0,,True,,9,old,8.62,3,norest,definitely_old,,,,Children,1.0,Control
6,496,10608,memory,1332,False,./assets/img/ocean/memory/19.jpg,ocean,10.0,,True,,10,old,8.62,3,norest,definitely_old,,,,Children,1.0,Control
7,498,10608,memory,1473,False,./assets/img/canyon/memory/23.jpg,canyon,10.0,,True,,11,new,8.62,3,norest,definitely_new,,,,Children,2.0,Revaluation
8,500,10608,memory,1096,False,./assets/img/ocean/memory/17.jpg,ocean,10.0,,True,,12,new,8.62,3,norest,maybe_new,,,,Children,1.0,Control
9,502,10608,memory,1573,False,./assets/img/canyon/memory/1.jpg,canyon,0.0,,False,,13,old,8.62,3,norest,definitely_new,,,,Children,2.0,Revaluation
10,504,10608,memory,1185,False,./assets/img/canyon/memory/2.jpg,canyon,0.0,,False,,14,old,8.62,3,norest,definitely_new,,,,Children,2.0,Revaluation
11,506,10608,memory,1142,False,./assets/img/ocean/memory/2.jpg,ocean,10.0,,True,,15,old,8.62,3,norest,definitely_old,,,,Children,1.0,Control
12,508,10608,memory,2139,False,./assets/img/ocean/memory/36.jpg,ocean,10.0,,True,,16,new,8.62,3,norest,definitely_new,,,,Children,1.0,Control
13,510,10608,memory,1597,False,./assets/img/canyon/memory/8.jpg,canyon,0.0,,False,,17,new,8.62,3,norest,definitely_old,,,,Children,2.0,Revaluation
14,512,10608,memory,1818,False,./assets/img/canyon/memory/12.jpg,canyon,0.0,,False,,18,old,8.62,3,norest,definitely_new,,,,Children,2.0,Revaluation
15,514,10608,memory,1313,False,./assets/img/canyon/memory/41.jpg,canyon,0.0,,False,,19,old,8.62,3,norest,definitely_new,,,,Children,2.0,Revaluation
16,516,10608,memory,1082,False,./assets/img/canyon/memory/3.jpg,canyon,10.0,,True,,20,new,8.62,3,norest,definitely_new,,,,Children,2.0,Revaluation
17,518,10608,memory,939,False,./assets/img/ocean/memory/11.jpg,ocean,0.0,,False,,21,old,8.62,3,norest,definitely_new,,,,Children,1.0,Control
18,520,10608,memory,1162,False,./assets/img/canyon/memory/39.jpg,canyon,0.0,,False,,22,old,8.62,3,norest,definitely_new,,,,Children,2.0,Revaluation
19,522,10608,memory,780,False,./assets/img/canyon/memory/38.jpg,canyon,0.0,,False,,23,old,8.62,3,norest,definitely_new,,,,Children,2.0,Revaluation
20,524,10608,memory,626,False,./assets/img/ocean/memory/38.jpg,ocean,10.0,,True,,24,new,8.62,3,norest,definitely_new,,,,Children,1.0,Control
21,526,10608,memory,311,False,./assets/img/ocean/memory/15.jpg,ocean,10.0,,True,,25,new,8.62,3,norest,definitely_new,,,,Children,1.0,Control
22,528,10608,memory,403,False,./assets/img/canyon/memory/14.jpg,canyon,10.0,,True,,26,new,8.62,3,norest,definitely_new,,,,Children,2.0,Revaluation
23,530,10608,memory,766,False,./assets/img/canyon/memory/16.jpg,canyon,0.0,,False,,27,old,8.62,3,norest,definitely_new,,,,Children,2.0,Revaluation
24,532,10608,memory,984,False,./assets/img/ocean/memory/7.jpg,ocean,0.0,,False,,28,old,8.62,3,norest,definitely_new,,,,Children,1.0,Control
25,534,10608,memory,1313,False,./assets/img/canyon/memory/28.jpg,canyon,10.0,,True,,29,new,8.62,3,norest,definitely_new,,,,Children,2.0,Revaluation
26,536,10608,memory,761,False,./assets/img/ocean/memory/30.jpg,ocean,10.0,,True,,30,new,8.62,3,norest,definitely_new,,,,Children,1.0,Control
27,538,10608,memory,886,False,./assets/img/ocean/memory/24.jpg,ocean,10.0,,True,,31,new,8.62,3,norest,definitely_new,,,,Children,1.0,Control
28,540,10608,memory,1345,False,./assets/img/ocean/memory/0.jpg,ocean,0.0,,False,,32,old,8.62,3,norest,definitely_new,,,,Children,1.0,Control
29,542,10608,memory,1042,False,./assets/img/canyon/memory/22.jpg,canyon,10.0,,True,,33,new,8.62,3,norest,definitely_new,,,,Children,2.0,Revaluation
30,544,10608,memory,746,False,./assets/img/ocean/memory/12.jpg,ocean,10.0,,True,,34,new,8.62,3,norest,definitely_new,,,,Children,1.0,Control
31,546,10608,memory,689,False,./assets/img/canyon/memory/10.jpg,canyon,10.0,,True,,35,new,8.62,3,norest,definitely_new,,,,Children,2.0,Revaluation
32,548,10608,memory,457,False,./assets/img/ocean/memory/9.jpg,ocean,0.0,,False,,36,old,8.62,3,norest,definitely_new,,,,Children,1.0,Control
33,550,10608,memory,1546,False,./assets/img/ocean/memory/37.jpg,ocean,0.0,,False,,37,new,8.62,3,norest,definitely_old,,,,Children,1.0,Control
34,552,10608,memory,1336,False,./assets/img/canyon/memory/11.jpg,canyon,0.0,,False,,38,old,8.62,3,norest,definitely_new,,,,Children,2.0,Revaluation
35,554,10608,memory,1207,False,./assets/img/ocean/memory/3.jpg,ocean,10.0,,True,,39,new,8.62,3,norest,definitely_new,,,,Children,1.0,Control
36,556,10608,memory,457,False,./assets/img/ocean/memory/32.jpg,ocean,10.0,,True,,40,new,8.62,3,norest,definitely_new,,,,Children,1.0,Control
37,558,10608,memory,227,False,./assets/img/ocean/memory/21.jpg,ocean,0.0,,False,,41,old,8.62,3,norest,definitely_new,,,,Children,1.0,Control
38,560,10608,memory,714,False,./assets/img/canyon/memory/0.jpg,canyon,0.0,,False,,42,old,8.62,3,norest,definitely_new,,,,Children,2.0,Revaluation
39,562,10608,memory,2004,False,./assets/img/canyon/memory/27.jpg,canyon,0.0,,False,,43,old,8.62,3,norest,definitely_new,,,,Children,2.0,Revaluation
40,564,10608,memory,758,False,./assets/img/canyon/memory/40.jpg,canyon,0.0,,False,,44,old,8.62,3,norest,definitely_new,,,,Children,2.0,Revaluation
41,566,10608,memory,770,False,./assets/img/ocean/memory/33.jpg,ocean,10.0,,True,,45,new,8.62,3,norest,definitely_new,,,,Children,1.0,Control
42,568,10608,memory,1643,False,./assets/img/ocean/memory/13.jpg,ocean,10.0,,True,,46,old,8.62,3,norest,definitely_old,,,,Children,1.0,Control
43,570,10608,memory,288,False,./assets/img/canyon/memory/33.jpg,canyon,10.0,,True,,47,new,8.62,3,norest,definitely_new,,,,Children,2.0,Revaluation
44,572,10608,memory,1937,False,./assets/img/canyon/memory/17.jpg,canyon,10.0,,True,,48,new,8.62,3,norest,definitely_new,,,,Children,2.0,Revaluation
45,574,10608,memory,1497,False,./assets/img/canyon/memory/15.jpg,canyon,0.0,,False,,49,old,8.62,3,norest,maybe_new,,,,Children,2.0,Revaluation
46,576,10608,memory,1073,False,./assets/img/canyon/memory/6.jpg,canyon,10.0,,True,,50,new,8.62,3,norest,maybe_new,,,,Children,2.0,Revaluation
47,578,10608,memory,1276,False,./assets/img/ocean/memory/29.jpg,ocean,10.0,,True,,51,old,8.62,3,norest,definitely_old,,,,Children,1.0,Control
48,580,10608,memory,783,False,./assets/img/canyon/memory/18.jpg,canyon,0.0,,False,,52,old,8.62,3,norest,definitely_new,,,,Children,2.0,Revaluation
49,582,10608,memory,234,False,./assets/img/canyon/memory/20.jpg,canyon,10.0,,True,,53,new,8.62,3,norest,definitely_new,,,,Children,2.0,Revaluation
50,584,10608,memory,730,False,./assets/img/ocean/memory/41.jpg,ocean,10.0,,True,,54,new,8.62,3,norest,definitely_new,,,,Children,1.0,Control
51,586,10608,memory,561,False,./assets/img/canyon/memory/37.jpg,canyon,0.0,,False,,55,old,8.62,3,norest,definitely_new,,,,Children,2.0,Revaluation
52,588,10608,memory,323,False,./assets/img/ocean/memory/35.jpg,ocean,10.0,,True,,56,new,8.62,3,norest,definitely_new,,,,Children,1.0,Control
53,590,10608,memory,151,False,./assets/img/ocean/memory/8.jpg,ocean,10.0,,True,,57,new,8.62,3,norest,definitely_new,,,,Children,1.0,Control
54,592,10608,memory,245,False,./assets/img/ocean/memory/4.jpg,ocean,0.0,,False,,58,old,8.62,3,norest,definitely_new,,,,Children,1.0,Control
55,594,10608,memory,283,False,./assets/img/canyon/memory/7.jpg,canyon,10.0,,True,,59,new,8.62,3,norest,definitely_new,,,,Children,2.0,Revaluation
56,596,10608,memory,401,False,./assets/img/ocean/memory/31.jpg,ocean,0.0,,False,,60,old,8.62,3,norest,definitely_new,,,,Children,1.0,Control
57,598,10608,memory,328,False,./assets/img/ocean/memory/26.jpg,ocean,10.0,,True,,61,new,8.62,3,norest,definitely_new,,,,Children,1.0,Control
58,600,10608,memory,865,False,./assets/img/ocean/memory/25.jpg,ocean,0.0,,False,,62,old,8.62,3,norest,definitely_new,,,,Children,1.0,Control
59,602,10608,memory,706,False,./assets/img/ocean/memory/1.jpg,ocean,0.0,,False,,63,old,8.62,3,norest,definitely_new,,,,Children,1.0,Control
60,604,10608,memory,1289,False,./assets/img/ocean/memory/18.jpg,ocean,10.0,,True,,64,old,8.62,3,norest,definitely_old,,,,Children,1.0,Control
61,606,10608,memory,1481,False,./assets/img/ocean/memory/34.jpg,ocean,10.0,,True,,65,new,8.62,3,norest,definitely_new,,,,Children,1.0,Control
62,608,10608,memory,891,False,./assets/img/canyon/memory/5.jpg,canyon,0.0,,False,,66,old,8.62,3,norest,definitely_new,,,,Children,2.0,Revaluation
63,610,10608,memory,879,False,./assets/img/ocean/memory/27.jpg,ocean,0.0,,False,,67,old,8.62,3,norest,definitely_new,,,,Children,1.0,Control
64,612,10608,memory,1177,False,./assets/img/canyon/memory/9.jpg,canyon,10.0,,True,,68,old,8.62,3,norest,definitely_old,,,,Children,2.0,Revaluation
65,614,10608,memory,2466,False,./assets/img/canyon/memory/26.jpg,canyon,10.0,,True,,69,old,8.62,3,norest,maybe_old,,,,Children,2.0,Revaluation
66,616,10608,memory,1033,False,./assets/img/ocean/memory/23.jpg,ocean,10.0,,True,,70,new,8.62,3,norest,definitely_new,,,,Children,1.0,Control
67,618,10608,memory,1174,False,./assets/img/ocean/memory/28.jpg,ocean,10.0,,True,,71,new,8.62,3,norest,definitely_new,,,,Children,1.0,Control
68,620,10608,memory,1257,False,./assets/img/ocean/memory/5.jpg,ocean,0.0,,False,,72,old,8.62,3,norest,definitely_new,,,,Children,1.0,Control
69,622,10608,memory,4025,False,./assets/img/canyon/memory/34.jpg,canyon,0.0,,False,,73,new,8.62,3,norest,definitely_old,,,,Children,2.0,Revaluation
70,624,10608,memory,1409,False,./assets/img/ocean/memory/10.jpg,ocean,10.0,,True,,74,new,8.62,3,norest,definitely_new,,,,Children,1.0,Control
71,626,10608,memory,841,False,./assets/img/canyon/memory/32.jpg,canyon,10.0,,True,,75,new,8.62,3,norest,definitely_new,,,,Children,2.0,Revaluation
72,628,10608,memory,857,False,./assets/img/canyon/memory/13.jpg,canyon,10.0,,True,,76,new,8.62,3,norest,definitely_new,,,,Children,2.0,Revaluation
73,630,10608,memory,1219,False,./assets/img/canyon/memory/25.jpg,canyon,10.0,,True,,77,old,8.62,3,norest,definitely_old,,,,Children,2.0,Revaluation
74,632,10608,memory,736,False,./assets/img/canyon/memory/4.jpg,canyon,10.0,,True,,78,new,8.62,3,norest,definitely_new,,,,Children,2.0,Revaluation
75,634,10608,memory,1105,False,./assets/img/canyon/memory/35.jpg,canyon,0.0,,False,,79,old,8.62,3,norest,definitely_new,,,,Children,2.0,Revaluation
76,636,10608,memory,953,False,./assets/img/ocean/memory/40.jpg,ocean,0.0,,False,,80,old,8.62,3,norest,definitely_new,,,,Children,1.0,Control
77,638,10608,memory,513,False,./assets/img/canyon/memory/29.jpg,canyon,0.0,,False,,81,old,8.62,3,norest,definitely_new,,,,Children,2.0,Revaluation
78,640,10608,memory,10,False,./assets/img/canyon/memory/30.jpg,canyon,10.0,,True,,82,new,8.62,3,norest,definitely_new,,,,Children,2.0,Revaluation
79,642,10608,memory,320,False,./assets/img/ocean/memory/6.jpg,ocean,0.0,,False,,83,old,8.62,3,norest,definitely_new,,,,Children,1.0,Control
80,644,10608,memory,105,False,./assets/img/ocean/memory/20.jpg,ocean,10.0,,True,,84,new,8.62,3,norest,definitely_new,,,,Children,1.0,Control
81,646,10608,memory,178,False,./assets/img/canyon/memory/36.jpg,canyon,10.0,,True,,85,new,8.62,3,norest,definitely_new,,,,Children,2.0,Revaluation
82,648,10608,memory,440,False,./assets/img/ocean/memory/22.jpg,ocean,10.0,,True,,86,new,8.62,3,norest,definitely_new,,,,Children,1.0,Control
83,650,10608,memory,288,False,./assets/img/ocean/memory/39.jpg,ocean,0.0,,False,,87,old,8.62,3,norest,definitely_new,,,,Children,1.0,Control
84,486,11405,memory,2172,False,./assets/img/ocean/memory/30.jpg,ocean,0.0,,False,,4,new,7.54,8,norest,maybe_old,,,,Children,2.0,Control
85,488,11405,memory,1693,False,./assets/img/ocean/memory/16.jpg,ocean,10.0,,True,,5,new,7.54,8,norest,definitely_new,,,,Children,2.0,Control
86,490,11405,memory,1258,False,./assets/img/ocean/memory/7.jpg,ocean,10.0,,True,,6,new,7.54,8,norest,maybe_new,,,,Children,2.0,Control
87,492,11405,memory,1098,False,./assets/img/ocean/memory/14.jpg,ocean,10.0,,True,,7,new,7.54,8,norest,definitely_new,,,,Children,2.0,Control
88,494,11405,memory,1864,False,./assets/img/canyon/memory/1.jpg,canyon,0.0,,False,,8,new,7.54,8,norest,maybe_old,,,,Children,1.0,Revaluation
89,496,11405,memory,1710,False,./assets/img/ocean/memory/35.jpg,ocean,10.0,,True,,9,new,7.54,8,norest,maybe_new,,,,Children,2.0,Control
90,498,11405,memory,2130,False,./assets/img/canyon/memory/19.jpg,canyon,10.0,,True,,10,old,7.54,8,norest,maybe_old,,,,Children,1.0,Revaluation
91,500,11405,memory,1501,False,./assets/img/canyon/memory/16.jpg,canyon,10.0,,True,,11,new,7.54,8,norest,maybe_new,,,,Children,1.0,Revaluation
92,502,11405,memory,1360,False,./assets/img/ocean/memory/29.jpg,ocean,0.0,,False,,12,new,7.54,8,norest,definitely_old,,,,Children,2.0,Control
93,504,11405,memory,1346,False,./assets/img/canyon/memory/27.jpg,canyon,10.0,,True,,13,old,7.54,8,norest,maybe_old,,,,Children,1.0,Revaluation
94,506,11405,memory,1611,False,./assets/img/canyon/memory/3.jpg,canyon,10.0,,True,,14,old,7.54,8,norest,definitely_old,,,,Children,1.0,Revaluation
95,508,11405,memory,1594,False,./assets/img/canyon/memory/15.jpg,canyon,10.0,,True,,15,old,7.54,8,norest,maybe_old,,,,Children,1.0,Revaluation
96,510,11405,memory,1153,False,./assets/img/canyon/memory/25.jpg,canyon,0.0,,False,,16,new,7.54,8,norest,definitely_old,,,,Children,1.0,Revaluation
97,512,11405,memory,1299,False,./assets/img/ocean/memory/20.jpg,ocean,0.0,,False,,17,new,7.54,8,norest,definitely_old,,,,Children,2.0,Control
98,514,11405,memory,757,False,./assets/img/ocean/memory/19.jpg,ocean,0.0,,False,,18,old,7.54,8,norest,definitely_new,,,,Children,2.0,Control
99,516,11405,memory,1892,False,./assets/img/canyon/memory/5.jpg,canyon,0.0,,False,,19,new,7.54,8,norest,maybe_old,,,,Children,1.0,Revaluation
100,518,11405,memory,1019,False,./assets/img/ocean/memory/39.jpg,ocean,10.0,,True,,20,old,7.54,8,norest,maybe_old,,,,Children,2.0,Control
101,520,11405,memory,1003,False,./assets/img/ocean/memory/32.jpg,ocean,0.0,,False,,21,old,7.54,8,norest,maybe_new,,,,Children,2.0,Control
102,522,11405,memory,1339,False,./assets/img/ocean/memory/13.jpg,ocean,0.0,,False,,22,new,7.54,8,norest,definitely_old,,,,Children,2.0,Control
103,524,11405,memory,962,False,./assets/img/canyon/memory/4.jpg,canyon,10.0,,True,,23,old,7.54,8,norest,maybe_old,,,,Children,1.0,Revaluation
104,526,11405,memory,2221,False,./assets/img/canyon/memory/14.jpg,canyon,0.0,,False,,24,old,7.54,8,norest,definitely_new,,,,Children,1.0,Revaluation
105,528,11405,memory,1060,False,./assets/img/ocean/memory/23.jpg,ocean,10.0,,True,,25,old,7.54,8,norest,maybe_old,,,,Children,2.0,Control
106,530,11405,memory,838,False,./assets/img/ocean/memory/36.jpg,ocean,0.0,,False,,26,old,7.54,8,norest,maybe_new,,,,Children,2.0,Control
107,532,11405,memory,1231,False,./assets/img/ocean/memory/17.jpg,ocean,10.0,,True,,27,old,7.54,8,norest,definitely_old,,,,Children,2.0,Control
108,534,11405,memory,1216,False,./assets/img/canyon/memory/34.jpg,canyon,10.0,,True,,28,old,7.54,8,norest,definitely_old,,,,Children,1.0,Revaluation
109,536,11405,memory,1093,False,./assets/img/canyon/memory/29.jpg,canyon,0.0,,False,,29,new,7.54,8,norest,maybe_old,,,,Children,1.0,Revaluation
110,538,11405,memory,834,False,./assets/img/ocean/memory/33.jpg,ocean,0.0,,False,,30,old,7.54,8,norest,maybe_new,,,,Children,2.0,Control
111,540,11405,memory,1096,False,./assets/img/canyon/memory/39.jpg,canyon,0.0,,False,,31,old,7.54,8,norest,maybe_new,,,,Children,1.0,Revaluation
112,542,11405,memory,1323,False,./assets/img/ocean/memory/38.jpg,ocean,10.0,,True,,32,old,7.54,8,norest,definitely_old,,,,Children,2.0,Control
113,544,11405,memory,701,False,./assets/img/ocean/memory/26.jpg,ocean,0.0,,False,,33,new,7.54,8,norest,maybe_old,,,,Children,2.0,Control
114,546,11405,memory,1311,False,./assets/img/ocean/memory/8.jpg,ocean,0.0,,False,,34,new,7.54,8,norest,definitely_old,,,,Children,2.0,Control
115,548,11405,memory,643,False,./assets/img/canyon/memory/40.jpg,canyon,10.0,,True,,35,old,7.54,8,norest,maybe_old,,,,Children,1.0,Revaluation
116,550,11405,memory,985,False,./assets/img/ocean/memory/15.jpg,ocean,0.0,,False,,36,new,7.54,8,norest,maybe_old,,,,Children,2.0,Control
117,552,11405,memory,1121,False,./assets/img/ocean/memory/5.jpg,ocean,10.0,,True,,37,new,7.54,8,norest,maybe_new,,,,Children,2.0,Control
118,554,11405,memory,1101,False,./assets/img/ocean/memory/12.jpg,ocean,0.0,,False,,38,old,7.54,8,norest,definitely_new,,,,Children,2.0,Control
119,556,11405,memory,1114,False,./assets/img/ocean/memory/11.jpg,ocean,10.0,,True,,39,new,7.54,8,norest,maybe_new,,,,Children,2.0,Control
120,558,11405,memory,1198,False,./assets/img/ocean/memory/27.jpg,ocean,0.0,,False,,40,new,7.54,8,norest,maybe_old,,,,Children,2.0,Control
121,560,11405,memory,1427,False,./assets/img/canyon/memory/33.jpg,canyon,0.0,,False,,41,old,7.54,8,norest,definitely_new,,,,Children,1.0,Revaluation
122,562,11405,memory,1577,False,./assets/img/ocean/memory/31.jpg,ocean,10.0,,True,,42,old,7.54,8,norest,maybe_old,,,,Children,2.0,Control
123,564,11405,memory,785,False,./assets/img/canyon/memory/8.jpg,canyon,10.0,,True,,43,new,7.54,8,norest,maybe_new,,,,Children,1.0,Revaluation
124,566,11405,memory,1325,False,./assets/img/ocean/memory/22.jpg,ocean,10.0,,True,,44,new,7.54,8,norest,definitely_new,,,,Children,2.0,Control
125,568,11405,memory,1324,False,./assets/img/canyon/memory/11.jpg,canyon,0.0,,False,,45,old,7.54,8,norest,definitely_new,,,,Children,1.0,Revaluation
126,570,11405,memory,748,False,./assets/img/canyon/memory/20.jpg,canyon,0.0,,False,,46,new,7.54,8,norest,maybe_old,,,,Children,1.0,Revaluation
127,572,11405,memory,993,False,./assets/img/canyon/memory/17.jpg,canyon,0.0,,False,,47,new,7.54,8,norest,maybe_old,,,,Children,1.0,Revaluation
128,574,11405,memory,1150,False,./assets/img/canyon/memory/24.jpg,canyon,0.0,,False,,48,new,7.54,8,norest,maybe_old,,,,Children,1.0,Revaluation
129,576,11405,memory,891,False,./assets/img/ocean/memory/10.jpg,ocean,0.0,,False,,49,old,7.54,8,norest,maybe_new,,,,Children,2.0,Control
130,578,11405,memory,1388,False,./assets/img/canyon/memory/22.jpg,canyon,10.0,,True,,50,new,7.54,8,norest,maybe_new,,,,Children,1.0,Revaluation
131,580,11405,memory,1002,False,./assets/img/ocean/memory/21.jpg,ocean,10.0,,True,,51,new,7.54,8,norest,definitely_new,,,,Children,2.0,Control
132,582,11405,memory,1244,False,./assets/img/ocean/memory/28.jpg,ocean,0.0,,False,,52,old,7.54,8,norest,definitely_new,,,,Children,2.0,Control
133,584,11405,memory,2078,False,./assets/img/canyon/memory/38.jpg,canyon,10.0,,True,,53,new,7.54,8,norest,maybe_new,,,,Children,1.0,Revaluation
134,586,11405,memory,1068,False,./assets/img/ocean/memory/24.jpg,ocean,10.0,,True,,54,new,7.54,8,norest,definitely_new,,,,Children,2.0,Control
135,588,11405,memory,2344,False,./assets/img/ocean/memory/34.jpg,ocean,10.0,,True,,55,old,7.54,8,norest,definitely_old,,,,Children,2.0,Control
136,590,11405,memory,1297,False,./assets/img/canyon/memory/0.jpg,canyon,10.0,,True,,56,old,7.54,8,norest,maybe_old,,,,Children,1.0,Revaluation
137,592,11405,memory,1054,False,./assets/img/ocean/memory/37.jpg,ocean,10.0,,True,,57,old,7.54,8,norest,definitely_old,,,,Children,2.0,Control
138,594,11405,memory,1273,False,./assets/img/canyon/memory/28.jpg,canyon,10.0,,True,,58,old,7.54,8,norest,definitely_old,,,,Children,1.0,Revaluation
139,596,11405,memory,1697,False,./assets/img/canyon/memory/36.jpg,canyon,10.0,,True,,59,old,7.54,8,norest,maybe_old,,,,Children,1.0,Revaluation
140,598,11405,memory,1323,False,./assets/img/ocean/memory/18.jpg,ocean,10.0,,True,,60,old,7.54,8,norest,definitely_old,,,,Children,2.0,Control
141,600,11405,memory,1114,False,./assets/img/canyon/memory/37.jpg,canyon,10.0,,True,,61,new,7.54,8,norest,maybe_new,,,,Children,1.0,Revaluation
142,602,11405,memory,1533,False,./assets/img/ocean/memory/6.jpg,ocean,10.0,,True,,62,old,7.54,8,norest,definitely_old,,,,Children,2.0,Control
143,604,11405,memory,1033,False,./assets/img/canyon/memory/7.jpg,canyon,0.0,,False,,63,new,7.54,8,norest,definitely_old,,,,Children,1.0,Revaluation
144,606,11405,memory,1415,False,./assets/img/ocean/memory/4.jpg,ocean,0.0,,False,,64,new,7.54,8,norest,definitely_old,,,,Children,2.0,Control
145,608,11405,memory,1220,False,./assets/img/ocean/memory/0.jpg,ocean,10.0,,True,,65,old,7.54,8,norest,definitely_old,,,,Children,2.0,Control
146,610,11405,memory,1763,False,./assets/img/canyon/memory/26.jpg,canyon,10.0,,True,,66,new,7.54,8,norest,definitely_new,,,,Children,1.0,Revaluation
147,612,11405,memory,1552,False,./assets/img/canyon/memory/2.jpg,canyon,10.0,,True,,67,new,7.54,8,norest,maybe_new,,,,Children,1.0,Revaluation
148,614,11405,memory,1235,False,./assets/img/canyon/memory/12.jpg,canyon,10.0,,True,,68,old,7.54,8,norest,maybe_old,,,,Children,1.0,Revaluation
149,616,11405,memory,3248,False,./assets/img/ocean/memory/3.jpg,ocean,0.0,,False,,69,new,7.54,8,norest,definitely_old,,,,Children,2.0,Control
150,618,11405,memory,974,False,./assets/img/canyon/memory/13.jpg,canyon,10.0,,True,,70,old,7.54,8,norest,definitely_old,,,,Children,1.0,Revaluation
151,620,11405,memory,875,False,./assets/img/ocean/memory/41.jpg,ocean,0.0,,False,,71,new,7.54,8,norest,maybe_old,,,,Children,2.0,Control
152,622,11405,memory,779,False,./assets/img/canyon/memory/9.jpg,canyon,0.0,,False,,72,old,7.54,8,norest,maybe_new,,,,Children,1.0,Revaluation
153,624,11405,memory,1119,False,./assets/img/canyon/memory/41.jpg,canyon,10.0,,True,,73,new,7.54,8,norest,maybe_new,,,,Children,1.0,Revaluation
154,626,11405,memory,1602,False,./assets/img/canyon/memory/10.jpg,canyon,0.0,,False,,74,old,7.54,8,norest,maybe_new,,,,Children,1.0,Revaluation
155,628,11405,memory,822,False,./assets/img/canyon/memory/30.jpg,canyon,10.0,,True,,75,new,7.54,8,norest,definitely_new,,,,Children,1.0,Revaluation
156,630,11405,memory,1332,False,./assets/img/canyon/memory/35.jpg,canyon,0.0,,False,,76,new,7.54,8,norest,definitely_old,,,,Children,1.0,Revaluation
157,632,11405,memory,863,False,./assets/img/ocean/memory/1.jpg,ocean,10.0,,True,,77,old,7.54,8,norest,maybe_old,,,,Children,2.0,Control
158,634,11405,memory,786,False,./assets/img/canyon/memory/23.jpg,canyon,10.0,,True,,78,new,7.54,8,norest,maybe_new,,,,Children,1.0,Revaluation
159,636,11405,memory,652,False,./assets/img/ocean/memory/2.jpg,ocean,10.0,,True,,79,new,7.54,8,norest,maybe_new,,,,Children,2.0,Control
160,638,11405,memory,925,False,./assets/img/ocean/memory/9.jpg,ocean,10.0,,True,,80,old,7.54,8,norest,definitely_old,,,,Children,2.0,Control
161,640,11405,memory,1061,False,./assets/img/canyon/memory/18.jpg,canyon,10.0,,True,,81,new,7.54,8,norest,maybe_new,,,,Children,1.0,Revaluation
162,642,11405,memory,859,False,./assets/img/canyon/memory/32.jpg,canyon,0.0,,False,,82,old,7.54,8,norest,definitely_new,,,,Children,1.0,Revaluation
163,644,11405,memory,1794,False,./assets/img/canyon/memory/21.jpg,canyon,10.0,,True,,83,old,7.54,8,norest,definitely_old,,,,Children,1.0,Revaluation
164,646,11405,memory,946,False,./assets/img/ocean/memory/40.jpg,ocean,10.0,,True,,84,old,7.54,8,norest,definitely_old,,,,Children,2.0,Control
165,648,11405,memory,1060,False,./assets/img/canyon/memory/6.jpg,canyon,10.0,,True,,85,old,7.54,8,norest,maybe_old,,,,Children,1.0,Revaluation
166,650,11405,memory,683,False,./assets/img/canyon/memory/31.jpg,canyon,10.0,,True,,86,new,7.54,8,norest,maybe_new,,,,Children,1.0,Revaluation
167,652,11405,memory,741,False,./assets/img/ocean/memory/25.jpg,ocean,0.0,,False,,87,old,7.54,8,norest,definitely_new,,,,Children,2.0,Control
168,484,8388,memory,6760,False,./assets/img/ocean/memory/22.jpg,ocean,0.0,,False,,4,new,8.91,8,norest,maybe_old,,,,Children,2.0,Control
169,486,8388,memory,3243,False,./assets/img/ocean/memory/5.jpg,ocean,0.0,,False,,5,new,8.91,8,norest,maybe_old,,,,Children,2.0,Control
170,488,8388,memory,2016,False,./assets/img/canyon/memory/30.jpg,canyon,10.0,,True,,6,new,8.91,8,norest,definitely_new,,,,Children,1.0,Revaluation
171,490,8388,memory,2417,False,./assets/img/canyon/memory/28.jpg,canyon,10.0,,True,,7,new,8.91,8,norest,definitely_new,,,,Children,1.0,Revaluation
172,492,8388,memory,1915,False,./assets/img/ocean/memory/34.jpg,ocean,10.0,,True,,8,old,8.91,8,norest,maybe_old,,,,Children,2.0,Control
173,494,8388,memory,1325,False,./assets/img/canyon/memory/40.jpg,canyon,0.0,,False,,9,new,8.91,8,norest,definitely_old,,,,Children,1.0,Revaluation
174,496,8388,memory,2244,False,./assets/img/ocean/memory/13.jpg,ocean,0.0,,False,,10,new,8.91,8,norest,maybe_old,,,,Children,2.0,Control
175,498,8388,memory,1384,False,./assets/img/canyon/memory/9.jpg,canyon,10.0,,True,,11,old,8.91,8,norest,definitely_old,,,,Children,1.0,Revaluation
176,500,8388,memory,949,False,./assets/img/canyon/memory/34.jpg,canyon,0.0,,False,,12,new,8.91,8,norest,maybe_old,,,,Children,1.0,Revaluation
177,502,8388,memory,1263,False,./assets/img/ocean/memory/3.jpg,ocean,10.0,,True,,13,old,8.91,8,norest,definitely_old,,,,Children,2.0,Control
178,504,8388,memory,2237,False,./assets/img/canyon/memory/31.jpg,canyon,10.0,,True,,14,old,8.91,8,norest,maybe_old,,,,Children,1.0,Revaluation
179,506,8388,memory,2704,False,./assets/img/ocean/memory/37.jpg,ocean,0.0,,False,,15,new,8.91,8,norest,maybe_old,,,,Children,2.0,Control
180,508,8388,memory,1380,False,./assets/img/ocean/memory/29.jpg,ocean,10.0,,True,,16,new,8.91,8,norest,maybe_new,,,,Children,2.0,Control
181,510,8388,memory,1120,False,./assets/img/canyon/memory/17.jpg,canyon,10.0,,True,,17,new,8.91,8,norest,maybe_new,,,,Children,1.0,Revaluation
182,512,8388,memory,1668,False,./assets/img/ocean/memory/10.jpg,ocean,10.0,,True,,18,old,8.91,8,norest,definitely_old,,,,Children,2.0,Control
183,514,8388,memory,1046,False,./assets/img/canyon/memory/18.jpg,canyon,0.0,,False,,19,new,8.91,8,norest,definitely_old,,,,Children,1.0,Revaluation
184,516,8388,memory,1416,False,./assets/img/ocean/memory/36.jpg,ocean,0.0,,False,,20,new,8.91,8,norest,maybe_old,,,,Children,2.0,Control
185,518,8388,memory,1962,False,./assets/img/canyon/memory/23.jpg,canyon,10.0,,True,,21,new,8.91,8,norest,definitely_new,,,,Children,1.0,Revaluation
186,520,8388,memory,1325,False,./assets/img/ocean/memory/7.jpg,ocean,0.0,,False,,22,old,8.91,8,norest,maybe_new,,,,Children,2.0,Control
187,522,8388,memory,1372,False,./assets/img/ocean/memory/2.jpg,ocean,10.0,,True,,23,old,8.91,8,norest,maybe_old,,,,Children,2.0,Control
188,524,8388,memory,1700,False,./assets/img/ocean/memory/39.jpg,ocean,0.0,,False,,24,new,8.91,8,norest,maybe_old,,,,Children,2.0,Control
189,526,8388,memory,915,False,./assets/img/canyon/memory/15.jpg,canyon,10.0,,True,,25,old,8.91,8,norest,definitely_old,,,,Children,1.0,Revaluation
190,528,8388,memory,1190,False,./assets/img/canyon/memory/21.jpg,canyon,0.0,,False,,26,new,8.91,8,norest,maybe_old,,,,Children,1.0,Revaluation
191,530,8388,memory,3108,False,./assets/img/ocean/memory/40.jpg,ocean,0.0,,False,,27,new,8.91,8,norest,maybe_old,,,,Children,2.0,Control
192,532,8388,memory,947,False,./assets/img/canyon/memory/33.jpg,canyon,0.0,,False,,28,old,8.91,8,norest,maybe_new,,,,Children,1.0,Revaluation
193,538,8388,memory,5685,False,./assets/img/ocean/memory/4.jpg,ocean,10.0,,True,,31,new,8.91,8,norest,maybe_new,,,,Children,2.0,Control
194,540,8388,memory,5479,False,./assets/img/canyon/memory/29.jpg,canyon,0.0,,False,,32,new,8.91,8,norest,maybe_old,,,,Children,1.0,Revaluation
195,542,8388,memory,3424,False,./assets/img/canyon/memory/8.jpg,canyon,0.0,,False,,33,old,8.91,8,norest,maybe_new,,,,Children,1.0,Revaluation
196,544,8388,memory,1516,False,./assets/img/canyon/memory/6.jpg,canyon,0.0,,False,,34,old,8.91,8,norest,maybe_new,,,,Children,1.0,Revaluation
197,546,8388,memory,1672,False,./assets/img/ocean/memory/24.jpg,ocean,0.0,,False,,35,old,8.91,8,norest,maybe_new,,,,Children,2.0,Control
198,548,8388,memory,3,False,./assets/img/ocean/memory/23.jpg,ocean,10.0,,True,,36,old,8.91,8,norest,definitely_old,,,,Children,2.0,Control
199,550,8388,memory,4034,False,./assets/img/ocean/memory/27.jpg,ocean,10.0,,True,,37,old,8.91,8,norest,maybe_old,,,,Children,2.0,Control
200,552,8388,memory,1184,False,./assets/img/canyon/memory/11.jpg,canyon,0.0,,False,,38,old,8.91,8,norest,maybe_new,,,,Children,1.0,Revaluation
201,554,8388,memory,1949,False,./assets/img/ocean/memory/20.jpg,ocean,10.0,,True,,39,new,8.91,8,norest,maybe_new,,,,Children,2.0,Control
202,556,8388,memory,1455,False,./assets/img/ocean/memory/1.jpg,ocean,0.0,,False,,40,new,8.91,8,norest,definitely_old,,,,Children,2.0,Control
203,558,8388,memory,1534,False,./assets/img/ocean/memory/0.jpg,ocean,0.0,,False,,41,new,8.91,8,norest,definitely_old,,,,Children,2.0,Control
204,560,8388,memory,1779,False,./assets/img/canyon/memory/10.jpg,canyon,0.0,,False,,42,old,8.91,8,norest,definitely_new,,,,Children,1.0,Revaluation
205,562,8388,memory,4111,False,./assets/img/canyon/memory/39.jpg,canyon,0.0,,False,,43,old,8.91,8,norest,maybe_new,,,,Children,1.0,Revaluation
206,564,8388,memory,1970,False,./assets/img/ocean/memory/38.jpg,ocean,10.0,,True,,44,old,8.91,8,norest,maybe_old,,,,Children,2.0,Control
207,566,8388,memory,3311,False,./assets/img/canyon/memory/2.jpg,canyon,0.0,,False,,45,new,8.91,8,norest,maybe_old,,,,Children,1.0,Revaluation
208,568,8388,memory,2091,False,./assets/img/ocean/memory/15.jpg,ocean,0.0,,False,,46,old,8.91,8,norest,maybe_new,,,,Children,2.0,Control
209,570,8388,memory,2946,False,./assets/img/canyon/memory/5.jpg,canyon,0.0,,False,,47,old,8.91,8,norest,maybe_new,,,,Children,1.0,Revaluation
210,572,8388,memory,1363,False,./assets/img/ocean/memory/30.jpg,ocean,0.0,,False,,48,old,8.91,8,norest,maybe_new,,,,Children,2.0,Control
211,574,8388,memory,1171,False,./assets/img/canyon/memory/19.jpg,canyon,10.0,,True,,49,old,8.91,8,norest,maybe_old,,,,Children,1.0,Revaluation
212,576,8388,memory,2265,False,./assets/img/canyon/memory/41.jpg,canyon,10.0,,True,,50,new,8.91,8,norest,definitely_new,,,,Children,1.0,Revaluation
213,578,8388,memory,1729,False,./assets/img/canyon/memory/1.jpg,canyon,10.0,,True,,51,old,8.91,8,norest,maybe_old,,,,Children,1.0,Revaluation
214,580,8388,memory,2404,False,./assets/img/ocean/memory/9.jpg,ocean,0.0,,False,,52,old,8.91,8,norest,maybe_new,,,,Children,2.0,Control
215,582,8388,memory,1910,False,./assets/img/ocean/memory/31.jpg,ocean,10.0,,True,,53,old,8.91,8,norest,definitely_old,,,,Children,2.0,Control
216,584,8388,memory,2463,False,./assets/img/ocean/memory/28.jpg,ocean,10.0,,True,,54,new,8.91,8,norest,maybe_new,,,,Children,2.0,Control
217,586,8388,memory,2408,False,./assets/img/canyon/memory/7.jpg,canyon,0.0,,False,,55,new,8.91,8,norest,maybe_old,,,,Children,1.0,Revaluation
218,588,8388,memory,1731,False,./assets/img/canyon/memory/0.jpg,canyon,10.0,,True,,56,old,8.91,8,norest,definitely_old,,,,Children,1.0,Revaluation
219,590,8388,memory,3339,False,./assets/img/ocean/memory/8.jpg,ocean,10.0,,True,,57,old,8.91,8,norest,maybe_old,,,,Children,2.0,Control
220,592,8388,memory,4572,False,./assets/img/ocean/memory/41.jpg,ocean,0.0,,False,,58,new,8.91,8,norest,definitely_old,,,,Children,2.0,Control
221,594,8388,memory,1541,False,./assets/img/canyon/memory/12.jpg,canyon,0.0,,False,,59,old,8.91,8,norest,maybe_new,,,,Children,1.0,Revaluation
222,596,8388,memory,1308,False,./assets/img/canyon/memory/22.jpg,canyon,0.0,,False,,60,new,8.91,8,norest,definitely_old,,,,Children,1.0,Revaluation
223,598,8388,memory,1556,False,./assets/img/canyon/memory/20.jpg,canyon,10.0,,True,,61,new,8.91,8,norest,maybe_new,,,,Children,1.0,Revaluation
224,600,8388,memory,1315,False,./assets/img/ocean/memory/6.jpg,ocean,0.0,,False,,62,new,8.91,8,norest,maybe_old,,,,Children,2.0,Control
225,602,8388,memory,681,False,./assets/img/canyon/memory/4.jpg,canyon,10.0,,True,,63,new,8.91,8,norest,definitely_new,,,,Children,1.0,Revaluation
226,604,8388,memory,691,False,./assets/img/ocean/memory/33.jpg,ocean,10.0,,True,,64,old,8.91,8,norest,definitely_old,,,,Children,2.0,Control
227,606,8388,memory,1798,False,./assets/img/canyon/memory/37.jpg,canyon,0.0,,False,,65,old,8.91,8,norest,definitely_new,,,,Children,1.0,Revaluation
228,608,8388,memory,1948,False,./assets/img/canyon/memory/16.jpg,canyon,0.0,,False,,66,new,8.91,8,norest,maybe_old,,,,Children,1.0,Revaluation
229,610,8388,memory,598,False,./assets/img/canyon/memory/26.jpg,canyon,0.0,,False,,67,new,8.91,8,norest,maybe_old,,,,Children,1.0,Revaluation
230,612,8388,memory,719,False,./assets/img/ocean/memory/12.jpg,ocean,0.0,,False,,68,new,8.91,8,norest,maybe_old,,,,Children,2.0,Control
231,614,8388,memory,553,False,./assets/img/canyon/memory/14.jpg,canyon,10.0,,True,,69,new,8.91,8,norest,maybe_new,,,,Children,1.0,Revaluation
232,616,8388,memory,477,False,./assets/img/ocean/memory/18.jpg,ocean,10.0,,True,,70,new,8.91,8,norest,maybe_new,,,,Children,2.0,Control
233,618,8388,memory,1040,False,./assets/img/ocean/memory/16.jpg,ocean,0.0,,False,,71,old,8.91,8,norest,definitely_new,,,,Children,2.0,Control
234,620,8388,memory,501,False,./assets/img/canyon/memory/3.jpg,canyon,0.0,,False,,72,old,8.91,8,norest,maybe_new,,,,Children,1.0,Revaluation
235,622,8388,memory,512,False,./assets/img/canyon/memory/38.jpg,canyon,10.0,,True,,73,old,8.91,8,norest,definitely_old,,,,Children,1.0,Revaluation
236,624,8388,memory,375,False,./assets/img/ocean/memory/35.jpg,ocean,0.0,,False,,74,new,8.91,8,norest,definitely_old,,,,Children,2.0,Control
237,626,8388,memory,696,False,./assets/img/ocean/memory/26.jpg,ocean,10.0,,True,,75,new,8.91,8,norest,maybe_new,,,,Children,2.0,Control
238,628,8388,memory,695,False,./assets/img/canyon/memory/27.jpg,canyon,10.0,,True,,76,old,8.91,8,norest,definitely_old,,,,Children,1.0,Revaluation
239,630,8388,memory,543,False,./assets/img/canyon/memory/35.jpg,canyon,0.0,,False,,77,new,8.91,8,norest,definitely_old,,,,Children,1.0,Revaluation
240,632,8388,memory,2816,False,./assets/img/ocean/memory/32.jpg,ocean,0.0,,False,,78,old,8.91,8,norest,maybe_new,,,,Children,2.0,Control
241,634,8388,memory,855,False,./assets/img/ocean/memory/19.jpg,ocean,0.0,,False,,79,old,8.91,8,norest,definitely_new,,,,Children,2.0,Control
242,636,8388,memory,687,False,./assets/img/canyon/memory/32.jpg,canyon,10.0,,True,,80,new,8.91,8,norest,maybe_new,,,,Children,1.0,Revaluation
243,638,8388,memory,508,False,./assets/img/ocean/memory/14.jpg,ocean,0.0,,False,,81,old,8.91,8,norest,maybe_new,,,,Children,2.0,Control
244,640,8388,memory,860,False,./assets/img/canyon/memory/13.jpg,canyon,0.0,,False,,82,new,8.91,8,norest,maybe_old,,,,Children,1.0,Revaluation
245,642,8388,memory,528,False,./assets/img/ocean/memory/21.jpg,ocean,0.0,,False,,83,old,8.91,8,norest,maybe_new,,,,Children,2.0,Control
246,644,8388,memory,1036,False,./assets/img/ocean/memory/25.jpg,ocean,0.0,,False,,84,new,8.91,8,norest,maybe_old,,,,Children,2.0,Control
247,646,8388,memory,1580,False,./assets/img/canyon/memory/25.jpg,canyon,10.0,,True,,85,old,8.91,8,norest,definitely_old,,,,Children,1.0,Revaluation
248,648,8388,memory,1647,False,./assets/img/ocean/memory/17.jpg,ocean,10.0,,True,,86,new,8.91,8,norest,definitely_new,,,,Children,2.0,Control
249,650,8388,memory,1694,False,./assets/img/canyon/memory/24.jpg,canyon,0.0,,False,,87,old,8.91,8,norest,maybe_new,,,,Children,1.0,Revaluation
250,486,8211,memory,2401,False,./assets/img/ocean/memory/4.jpg,ocean,0.0,,False,,4,new,22.45,7,norest,maybe_old,,,,Adults,2.0,Revaluation
251,488,8211,memory,1553,False,./assets/img/ocean/memory/7.jpg,ocean,0.0,,False,,5,old,22.45,7,norest,maybe_new,,,,Adults,2.0,Revaluation
252,490,8211,memory,1297,False,./assets/img/canyon/memory/14.jpg,canyon,10.0,,True,,6,new,22.45,7,norest,maybe_new,,,,Adults,1.0,Control
253,492,8211,memory,1256,False,./assets/img/canyon/memory/24.jpg,canyon,0.0,,False,,7,new,22.45,7,norest,maybe_old,,,,Adults,1.0,Control
254,494,8211,memory,1059,False,./assets/img/canyon/memory/6.jpg,canyon,0.0,,False,,8,new,22.45,7,norest,maybe_old,,,,Adults,1.0,Control
255,496,8211,memory,1425,False,./assets/img/canyon/memory/18.jpg,canyon,10.0,,True,,9,new,22.45,7,norest,maybe_new,,,,Adults,1.0,Control
256,498,8211,memory,1234,False,./assets/img/canyon/memory/9.jpg,canyon,10.0,,True,,10,old,22.45,7,norest,definitely_old,,,,Adults,1.0,Control
257,500,8211,memory,1016,False,./assets/img/canyon/memory/36.jpg,canyon,10.0,,True,,11,old,22.45,7,norest,maybe_old,,,,Adults,1.0,Control
258,502,8211,memory,1408,False,./assets/img/ocean/memory/35.jpg,ocean,10.0,,True,,12,old,22.45,7,norest,maybe_old,,,,Adults,2.0,Revaluation
259,504,8211,memory,1483,False,./assets/img/ocean/memory/34.jpg,ocean,0.0,,False,,13,old,22.45,7,norest,maybe_new,,,,Adults,2.0,Revaluation
260,506,8211,memory,1428,False,./assets/img/ocean/memory/23.jpg,ocean,10.0,,True,,14,new,22.45,7,norest,maybe_new,,,,Adults,2.0,Revaluation
261,508,8211,memory,1142,False,./assets/img/ocean/memory/39.jpg,ocean,10.0,,True,,15,old,22.45,7,norest,definitely_old,,,,Adults,2.0,Revaluation
262,510,8211,memory,1503,False,./assets/img/ocean/memory/2.jpg,ocean,0.0,,False,,16,new,22.45,7,norest,maybe_old,,,,Adults,2.0,Revaluation
263,512,8211,memory,1202,False,./assets/img/canyon/memory/17.jpg,canyon,10.0,,True,,17,old,22.45,7,norest,maybe_old,,,,Adults,1.0,Control
264,514,8211,memory,1421,False,./assets/img/ocean/memory/17.jpg,ocean,0.0,,False,,18,old,22.45,7,norest,maybe_new,,,,Adults,2.0,Revaluation
265,516,8211,memory,1359,False,./assets/img/ocean/memory/22.jpg,ocean,0.0,,False,,19,old,22.45,7,norest,maybe_new,,,,Adults,2.0,Revaluation
266,518,8211,memory,1383,False,./assets/img/canyon/memory/2.jpg,canyon,10.0,,True,,20,old,22.45,7,norest,maybe_old,,,,Adults,1.0,Control
267,520,8211,memory,1019,False,./assets/img/ocean/memory/0.jpg,ocean,10.0,,True,,21,old,22.45,7,norest,definitely_old,,,,Adults,2.0,Revaluation
268,522,8211,memory,1464,False,./assets/img/canyon/memory/26.jpg,canyon,0.0,,False,,22,old,22.45,7,norest,definitely_new,,,,Adults,1.0,Control
269,524,8211,memory,1342,False,./assets/img/ocean/memory/20.jpg,ocean,10.0,,True,,23,old,22.45,7,norest,definitely_old,,,,Adults,2.0,Revaluation
270,526,8211,memory,1401,False,./assets/img/ocean/memory/25.jpg,ocean,10.0,,True,,24,new,22.45,7,norest,maybe_new,,,,Adults,2.0,Revaluation
271,528,8211,memory,836,False,./assets/img/canyon/memory/4.jpg,canyon,0.0,,False,,25,old,22.45,7,norest,maybe_new,,,,Adults,1.0,Control
272,530,8211,memory,1482,False,./assets/img/canyon/memory/8.jpg,canyon,0.0,,False,,26,old,22.45,7,norest,definitely_new,,,,Adults,1.0,Control
273,532,8211,memory,1144,False,./assets/img/canyon/memory/13.jpg,canyon,10.0,,True,,27,old,22.45,7,norest,maybe_old,,,,Adults,1.0,Control
274,534,8211,memory,1253,False,./assets/img/canyon/memory/32.jpg,canyon,0.0,,False,,28,old,22.45,7,norest,maybe_new,,,,Adults,1.0,Control
275,536,8211,memory,964,False,./assets/img/ocean/memory/8.jpg,ocean,0.0,,False,,29,new,22.45,7,norest,definitely_old,,,,Adults,2.0,Revaluation
276,538,8211,memory,1278,False,./assets/img/canyon/memory/33.jpg,canyon,10.0,,True,,30,new,22.45,7,norest,definitely_new,,,,Adults,1.0,Control
277,540,8211,memory,1165,False,./assets/img/canyon/memory/25.jpg,canyon,0.0,,False,,31,new,22.45,7,norest,maybe_old,,,,Adults,1.0,Control
278,542,8211,memory,1854,False,./assets/img/ocean/memory/24.jpg,ocean,10.0,,True,,32,new,22.45,7,norest,maybe_new,,,,Adults,2.0,Revaluation
279,544,8211,memory,1925,False,./assets/img/ocean/memory/32.jpg,ocean,0.0,,False,,33,new,22.45,7,norest,maybe_old,,,,Adults,2.0,Revaluation
280,546,8211,memory,1473,False,./assets/img/ocean/memory/33.jpg,ocean,10.0,,True,,34,new,22.45,7,norest,maybe_new,,,,Adults,2.0,Revaluation
281,548,8211,memory,1867,False,./assets/img/canyon/memory/7.jpg,canyon,0.0,,False,,35,new,22.45,7,norest,maybe_old,,,,Adults,1.0,Control
282,550,8211,memory,1353,False,./assets/img/canyon/memory/30.jpg,canyon,10.0,,True,,36,new,22.45,7,norest,maybe_new,,,,Adults,1.0,Control
283,552,8211,memory,1446,False,./assets/img/ocean/memory/6.jpg,ocean,10.0,,True,,37,new,22.45,7,norest,maybe_new,,,,Adults,2.0,Revaluation
284,554,8211,memory,1632,False,./assets/img/canyon/memory/38.jpg,canyon,0.0,,False,,38,old,22.45,7,norest,maybe_new,,,,Adults,1.0,Control
285,556,8211,memory,1279,False,./assets/img/ocean/memory/36.jpg,ocean,10.0,,True,,39,new,22.45,7,norest,definitely_new,,,,Adults,2.0,Revaluation
286,558,8211,memory,1441,False,./assets/img/ocean/memory/38.jpg,ocean,10.0,,True,,40,new,22.45,7,norest,maybe_new,,,,Adults,2.0,Revaluation
287,560,8211,memory,1625,False,./assets/img/canyon/memory/22.jpg,canyon,10.0,,True,,41,new,22.45,7,norest,maybe_new,,,,Adults,1.0,Control
288,562,8211,memory,1075,False,./assets/img/ocean/memory/14.jpg,ocean,10.0,,True,,42,new,22.45,7,norest,definitely_new,,,,Adults,2.0,Revaluation
289,564,8211,memory,931,False,./assets/img/canyon/memory/3.jpg,canyon,0.0,,False,,43,old,22.45,7,norest,maybe_new,,,,Adults,1.0,Control
290,566,8211,memory,1103,False,./assets/img/ocean/memory/21.jpg,ocean,10.0,,True,,44,new,22.45,7,norest,definitely_new,,,,Adults,2.0,Revaluation
291,568,8211,memory,985,False,./assets/img/canyon/memory/31.jpg,canyon,0.0,,False,,45,old,22.45,7,norest,maybe_new,,,,Adults,1.0,Control
292,570,8211,memory,892,False,./assets/img/ocean/memory/10.jpg,ocean,0.0,,False,,46,old,22.45,7,norest,maybe_new,,,,Adults,2.0,Revaluation
293,572,8211,memory,1220,False,./assets/img/canyon/memory/41.jpg,canyon,10.0,,True,,47,new,22.45,7,norest,maybe_new,,,,Adults,1.0,Control
294,574,8211,memory,1005,False,./assets/img/canyon/memory/1.jpg,canyon,10.0,,True,,48,old,22.45,7,norest,maybe_old,,,,Adults,1.0,Control
295,576,8211,memory,1290,False,./assets/img/canyon/memory/21.jpg,canyon,10.0,,True,,49,new,22.45,7,norest,maybe_new,,,,Adults,1.0,Control
296,578,8211,memory,1034,False,./assets/img/canyon/memory/15.jpg,canyon,0.0,,False,,50,old,22.45,7,norest,maybe_new,,,,Adults,1.0,Control
297,580,8211,memory,964,False,./assets/img/canyon/memory/10.jpg,canyon,0.0,,False,,51,old,22.45,7,norest,definitely_new,,,,Adults,1.0,Control
298,582,8211,memory,1203,False,./assets/img/ocean/memory/40.jpg,ocean,10.0,,True,,52,new,22.45,7,norest,maybe_new,,,,Adults,2.0,Revaluation
299,584,8211,memory,827,False,./assets/img/ocean/memory/37.jpg,ocean,0.0,,False,,53,old,22.45,7,norest,maybe_new,,,,Adults,2.0,Revaluation
300,586,8211,memory,1065,False,./assets/img/canyon/memory/37.jpg,canyon,10.0,,True,,54,new,22.45,7,norest,maybe_new,,,,Adults,1.0,Control
301,588,8211,memory,1169,False,./assets/img/canyon/memory/16.jpg,canyon,10.0,,True,,55,old,22.45,7,norest,maybe_old,,,,Adults,1.0,Control
302,590,8211,memory,766,False,./assets/img/canyon/memory/39.jpg,canyon,10.0,,True,,56,old,22.45,7,norest,maybe_old,,,,Adults,1.0,Control
303,592,8211,memory,1278,False,./assets/img/ocean/memory/15.jpg,ocean,0.0,,False,,57,old,22.45,7,norest,maybe_new,,,,Adults,2.0,Revaluation
304,594,8211,memory,1670,False,./assets/img/canyon/memory/11.jpg,canyon,10.0,,True,,58,new,22.45,7,norest,maybe_new,,,,Adults,1.0,Control
305,596,8211,memory,941,False,./assets/img/ocean/memory/29.jpg,ocean,0.0,,False,,59,old,22.45,7,norest,maybe_new,,,,Adults,2.0,Revaluation
306,598,8211,memory,1048,False,./assets/img/ocean/memory/3.jpg,ocean,0.0,,False,,60,old,22.45,7,norest,maybe_new,,,,Adults,2.0,Revaluation
307,600,8211,memory,1187,False,./assets/img/canyon/memory/35.jpg,canyon,0.0,,False,,61,old,22.45,7,norest,definitely_new,,,,Adults,1.0,Control
308,602,8211,memory,998,False,./assets/img/ocean/memory/19.jpg,ocean,0.0,,False,,62,old,22.45,7,norest,definitely_new,,,,Adults,2.0,Revaluation
309,604,8211,memory,970,False,./assets/img/canyon/memory/27.jpg,canyon,10.0,,True,,63,new,22.45,7,norest,definitely_new,,,,Adults,1.0,Control
310,606,8211,memory,1551,False,./assets/img/canyon/memory/19.jpg,canyon,10.0,,True,,64,new,22.45,7,norest,definitely_new,,,,Adults,1.0,Control
311,608,8211,memory,770,False,./assets/img/canyon/memory/29.jpg,canyon,10.0,,True,,65,new,22.45,7,norest,definitely_new,,,,Adults,1.0,Control
312,610,8211,memory,1282,False,./assets/img/ocean/memory/26.jpg,ocean,0.0,,False,,66,new,22.45,7,norest,maybe_old,,,,Adults,2.0,Revaluation
313,612,8211,memory,1200,False,./assets/img/ocean/memory/1.jpg,ocean,0.0,,False,,67,new,22.45,7,norest,definitely_old,,,,Adults,2.0,Revaluation
314,614,8211,memory,1058,False,./assets/img/canyon/memory/28.jpg,canyon,10.0,,True,,68,new,22.45,7,norest,definitely_new,,,,Adults,1.0,Control
315,616,8211,memory,1405,False,./assets/img/canyon/memory/5.jpg,canyon,10.0,,True,,69,new,22.45,7,norest,maybe_new,,,,Adults,1.0,Control
316,618,8211,memory,938,False,./assets/img/canyon/memory/0.jpg,canyon,0.0,,False,,70,old,22.45,7,norest,maybe_new,,,,Adults,1.0,Control
317,620,8211,memory,1161,False,./assets/img/ocean/memory/5.jpg,ocean,10.0,,True,,71,new,22.45,7,norest,maybe_new,,,,Adults,2.0,Revaluation
318,622,8211,memory,1150,False,./assets/img/ocean/memory/41.jpg,ocean,0.0,,False,,72,old,22.45,7,norest,definitely_new,,,,Adults,2.0,Revaluation
319,624,8211,memory,761,False,./assets/img/canyon/memory/20.jpg,canyon,0.0,,False,,73,old,22.45,7,norest,definitely_new,,,,Adults,1.0,Control
320,626,8211,memory,1056,False,./assets/img/ocean/memory/9.jpg,ocean,0.0,,False,,74,old,22.45,7,norest,maybe_new,,,,Adults,2.0,Revaluation
321,628,8211,memory,1291,False,./assets/img/canyon/memory/23.jpg,canyon,10.0,,True,,75,new,22.45,7,norest,maybe_new,,,,Adults,1.0,Control
322,630,8211,memory,1612,False,./assets/img/ocean/memory/27.jpg,ocean,0.0,,False,,76,old,22.45,7,norest,definitely_new,,,,Adults,2.0,Revaluation
323,632,8211,memory,778,False,./assets/img/ocean/memory/28.jpg,ocean,10.0,,True,,77,new,22.45,7,norest,maybe_new,,,,Adults,2.0,Revaluation
324,634,8211,memory,1265,False,./assets/img/canyon/memory/12.jpg,canyon,0.0,,False,,78,old,22.45,7,norest,maybe_new,,,,Adults,1.0,Control
325,636,8211,memory,1101,False,./assets/img/ocean/memory/11.jpg,ocean,0.0,,False,,79,old,22.45,7,norest,maybe_new,,,,Adults,2.0,Revaluation
326,638,8211,memory,846,False,./assets/img/ocean/memory/30.jpg,ocean,10.0,,True,,80,new,22.45,7,norest,maybe_new,,,,Adults,2.0,Revaluation
327,640,8211,memory,2042,False,./assets/img/canyon/memory/34.jpg,canyon,0.0,,False,,81,new,22.45,7,norest,maybe_old,,,,Adults,1.0,Control
328,642,8211,memory,1255,False,./assets/img/ocean/memory/12.jpg,ocean,0.0,,False,,82,old,22.45,7,norest,maybe_new,,,,Adults,2.0,Revaluation
329,644,8211,memory,1042,False,./assets/img/canyon/memory/40.jpg,canyon,10.0,,True,,83,new,22.45,7,norest,maybe_new,,,,Adults,1.0,Control
330,646,8211,memory,679,False,./assets/img/ocean/memory/16.jpg,ocean,0.0,,False,,84,old,22.45,7,norest,maybe_new,,,,Adults,2.0,Revaluation
331,648,8211,memory,867,False,./assets/img/ocean/memory/18.jpg,ocean,10.0,,True,,85,new,22.45,7,norest,maybe_new,,,,Adults,2.0,Revaluation
332,650,8211,memory,687,False,./assets/img/ocean/memory/31.jpg,ocean,0.0,,False,,86,old,22.45,7,norest,maybe_new,,,,Adults,2.0,Revaluation
333,652,8211,memory,634,False,./assets/img/ocean/memory/13.jpg,ocean,10.0,,True,,87,new,22.45,7,norest,maybe_new,,,,Adults,2.0,Revaluation
334,484,8469,memory,3559,False,./assets/img/canyon/memory/29.jpg,canyon,10.0,,True,,4,new,20.88,3,norest,definitely_new,,,,Adults,2.0,Revaluation
335,486,8469,memory,1437,False,./assets/img/ocean/memory/18.jpg,ocean,0.0,,False,,5,new,20.88,3,norest,maybe_old,,,,Adults,1.0,Control
336,488,8469,memory,1932,False,./assets/img/canyon/memory/14.jpg,canyon,10.0,,True,,6,new,20.88,3,norest,maybe_new,,,,Adults,2.0,Revaluation
337,490,8469,memory,1193,False,./assets/img/canyon/memory/41.jpg,canyon,10.0,,True,,7,new,20.88,3,norest,definitely_new,,,,Adults,2.0,Revaluation
338,492,8469,memory,1332,False,./assets/img/ocean/memory/10.jpg,ocean,10.0,,True,,8,old,20.88,3,norest,definitely_old,,,,Adults,1.0,Control
339,494,8469,memory,1628,False,./assets/img/ocean/memory/19.jpg,ocean,10.0,,True,,9,new,20.88,3,norest,maybe_new,,,,Adults,1.0,Control
340,496,8469,memory,1363,False,./assets/img/canyon/memory/0.jpg,canyon,10.0,,True,,10,old,20.88,3,norest,maybe_old,,,,Adults,2.0,Revaluation
341,498,8469,memory,1172,False,./assets/img/canyon/memory/11.jpg,canyon,0.0,,False,,11,new,20.88,3,norest,maybe_old,,,,Adults,2.0,Revaluation
342,500,8469,memory,1791,False,./assets/img/ocean/memory/8.jpg,ocean,10.0,,True,,12,old,20.88,3,norest,definitely_old,,,,Adults,1.0,Control
343,502,8469,memory,1158,False,./assets/img/canyon/memory/3.jpg,canyon,10.0,,True,,13,old,20.88,3,norest,maybe_old,,,,Adults,2.0,Revaluation
344,504,8469,memory,1349,False,./assets/img/canyon/memory/28.jpg,canyon,0.0,,False,,14,new,20.88,3,norest,maybe_old,,,,Adults,2.0,Revaluation
345,506,8469,memory,1107,False,./assets/img/canyon/memory/17.jpg,canyon,10.0,,True,,15,old,20.88,3,norest,definitely_old,,,,Adults,2.0,Revaluation
346,508,8469,memory,1144,False,./assets/img/ocean/memory/23.jpg,ocean,10.0,,True,,16,old,20.88,3,norest,maybe_old,,,,Adults,1.0,Control
347,510,8469,memory,1772,False,./assets/img/canyon/memory/34.jpg,canyon,0.0,,False,,17,old,20.88,3,norest,definitely_new,,,,Adults,2.0,Revaluation
348,512,8469,memory,1030,False,./assets/img/ocean/memory/15.jpg,ocean,10.0,,True,,18,old,20.88,3,norest,definitely_old,,,,Adults,1.0,Control
349,514,8469,memory,1471,False,./assets/img/ocean/memory/35.jpg,ocean,0.0,,False,,19,old,20.88,3,norest,maybe_new,,,,Adults,1.0,Control
350,516,8469,memory,1041,False,./assets/img/canyon/memory/39.jpg,canyon,10.0,,True,,20,new,20.88,3,norest,maybe_new,,,,Adults,2.0,Revaluation
351,518,8469,memory,1369,False,./assets/img/canyon/memory/23.jpg,canyon,0.0,,False,,21,old,20.88,3,norest,definitely_new,,,,Adults,2.0,Revaluation
352,520,8469,memory,1095,False,./assets/img/ocean/memory/29.jpg,ocean,10.0,,True,,22,new,20.88,3,norest,maybe_new,,,,Adults,1.0,Control
353,522,8469,memory,1525,False,./assets/img/canyon/memory/35.jpg,canyon,10.0,,True,,23,new,20.88,3,norest,maybe_new,,,,Adults,2.0,Revaluation
354,524,8469,memory,1217,False,./assets/img/ocean/memory/36.jpg,ocean,0.0,,False,,24,old,20.88,3,norest,definitely_new,,,,Adults,1.0,Control
355,526,8469,memory,1560,False,./assets/img/canyon/memory/8.jpg,canyon,0.0,,False,,25,new,20.88,3,norest,maybe_old,,,,Adults,2.0,Revaluation
356,528,8469,memory,968,False,./assets/img/ocean/memory/41.jpg,ocean,10.0,,True,,26,old,20.88,3,norest,definitely_old,,,,Adults,1.0,Control
357,530,8469,memory,1342,False,./assets/img/canyon/memory/5.jpg,canyon,0.0,,False,,27,old,20.88,3,norest,maybe_new,,,,Adults,2.0,Revaluation
358,532,8469,memory,1100,False,./assets/img/canyon/memory/37.jpg,canyon,0.0,,False,,28,old,20.88,3,norest,maybe_new,,,,Adults,2.0,Revaluation
359,534,8469,memory,1239,False,./assets/img/canyon/memory/32.jpg,canyon,0.0,,False,,29,old,20.88,3,norest,definitely_new,,,,Adults,2.0,Revaluation
360,536,8469,memory,1000,False,./assets/img/ocean/memory/34.jpg,ocean,10.0,,True,,30,new,20.88,3,norest,definitely_new,,,,Adults,1.0,Control
361,538,8469,memory,1374,False,./assets/img/canyon/memory/19.jpg,canyon,0.0,,False,,31,old,20.88,3,norest,maybe_new,,,,Adults,2.0,Revaluation
362,540,8469,memory,1216,False,./assets/img/ocean/memory/3.jpg,ocean,10.0,,True,,32,old,20.88,3,norest,maybe_old,,,,Adults,1.0,Control
363,542,8469,memory,990,False,./assets/img/canyon/memory/33.jpg,canyon,0.0,,False,,33,old,20.88,3,norest,definitely_new,,,,Adults,2.0,Revaluation
364,544,8469,memory,1534,False,./assets/img/ocean/memory/5.jpg,ocean,0.0,,False,,34,old,20.88,3,norest,definitely_new,,,,Adults,1.0,Control
365,546,8469,memory,1201,False,./assets/img/canyon/memory/24.jpg,canyon,0.0,,False,,35,old,20.88,3,norest,definitely_new,,,,Adults,2.0,Revaluation
366,548,8469,memory,886,False,./assets/img/canyon/memory/18.jpg,canyon,10.0,,True,,36,new,20.88,3,norest,definitely_new,,,,Adults,2.0,Revaluation
367,550,8469,memory,1003,False,./assets/img/ocean/memory/21.jpg,ocean,10.0,,True,,37,old,20.88,3,norest,definitely_old,,,,Adults,1.0,Control
368,552,8469,memory,1550,False,./assets/img/canyon/memory/6.jpg,canyon,0.0,,False,,38,old,20.88,3,norest,maybe_new,,,,Adults,2.0,Revaluation
369,554,8469,memory,923,False,./assets/img/canyon/memory/21.jpg,canyon,10.0,,True,,39,old,20.88,3,norest,definitely_old,,,,Adults,2.0,Revaluation
370,556,8469,memory,1219,False,./assets/img/canyon/memory/20.jpg,canyon,0.0,,False,,40,old,20.88,3,norest,definitely_new,,,,Adults,2.0,Revaluation
371,558,8469,memory,1241,False,./assets/img/ocean/memory/0.jpg,ocean,10.0,,True,,41,old,20.88,3,norest,maybe_old,,,,Adults,1.0,Control
372,560,8469,memory,1261,False,./assets/img/canyon/memory/9.jpg,canyon,0.0,,False,,42,old,20.88,3,norest,definitely_new,,,,Adults,2.0,Revaluation
373,562,8469,memory,1181,False,./assets/img/ocean/memory/30.jpg,ocean,10.0,,True,,43,new,20.88,3,norest,definitely_new,,,,Adults,1.0,Control
374,564,8469,memory,1002,False,./assets/img/ocean/memory/37.jpg,ocean,0.0,,False,,44,new,20.88,3,norest,maybe_old,,,,Adults,1.0,Control
375,566,8469,memory,1368,False,./assets/img/ocean/memory/12.jpg,ocean,10.0,,True,,45,old,20.88,3,norest,maybe_old,,,,Adults,1.0,Control
376,568,8469,memory,2456,False,./assets/img/ocean/memory/14.jpg,ocean,10.0,,True,,46,old,20.88,3,norest,definitely_old,,,,Adults,1.0,Control
377,570,8469,memory,1334,False,./assets/img/ocean/memory/11.jpg,ocean,0.0,,False,,47,old,20.88,3,norest,definitely_new,,,,Adults,1.0,Control
378,572,8469,memory,1466,False,./assets/img/canyon/memory/7.jpg,canyon,10.0,,True,,48,new,20.88,3,norest,maybe_new,,,,Adults,2.0,Revaluation
379,574,8469,memory,1858,False,./assets/img/ocean/memory/32.jpg,ocean,10.0,,True,,49,new,20.88,3,norest,definitely_new,,,,Adults,1.0,Control
380,576,8469,memory,1063,False,./assets/img/canyon/memory/30.jpg,canyon,10.0,,True,,50,new,20.88,3,norest,definitely_new,,,,Adults,2.0,Revaluation
381,578,8469,memory,938,False,./assets/img/ocean/memory/1.jpg,ocean,10.0,,True,,51,old,20.88,3,norest,definitely_old,,,,Adults,1.0,Control
382,580,8469,memory,963,False,./assets/img/ocean/memory/38.jpg,ocean,10.0,,True,,52,old,20.88,3,norest,maybe_old,,,,Adults,1.0,Control
383,582,8469,memory,998,False,./assets/img/canyon/memory/36.jpg,canyon,10.0,,True,,53,new,20.88,3,norest,maybe_new,,,,Adults,2.0,Revaluation
384,584,8469,memory,1052,False,./assets/img/canyon/memory/4.jpg,canyon,10.0,,True,,54,old,20.88,3,norest,maybe_old,,,,Adults,2.0,Revaluation
385,586,8469,memory,1124,False,./assets/img/ocean/memory/20.jpg,ocean,10.0,,True,,55,old,20.88,3,norest,maybe_old,,,,Adults,1.0,Control
386,588,8469,memory,1478,False,./assets/img/ocean/memory/24.jpg,ocean,10.0,,True,,56,new,20.88,3,norest,maybe_new,,,,Adults,1.0,Control
387,590,8469,memory,1180,False,./assets/img/canyon/memory/15.jpg,canyon,10.0,,True,,57,new,20.88,3,norest,definitely_new,,,,Adults,2.0,Revaluation
388,592,8469,memory,980,False,./assets/img/ocean/memory/7.jpg,ocean,10.0,,True,,58,new,20.88,3,norest,definitely_new,,,,Adults,1.0,Control
389,594,8469,memory,1419,False,./assets/img/canyon/memory/26.jpg,canyon,10.0,,True,,59,new,20.88,3,norest,definitely_new,,,,Adults,2.0,Revaluation
390,596,8469,memory,1595,False,./assets/img/ocean/memory/26.jpg,ocean,0.0,,False,,60,new,20.88,3,norest,maybe_old,,,,Adults,1.0,Control
391,598,8469,memory,1167,False,./assets/img/ocean/memory/16.jpg,ocean,10.0,,True,,61,new,20.88,3,norest,maybe_new,,,,Adults,1.0,Control
392,600,8469,memory,915,False,./assets/img/canyon/memory/13.jpg,canyon,10.0,,True,,62,new,20.88,3,norest,maybe_new,,,,Adults,2.0,Revaluation
393,602,8469,memory,885,False,./assets/img/canyon/memory/31.jpg,canyon,10.0,,True,,63,new,20.88,3,norest,definitely_new,,,,Adults,2.0,Revaluation
394,604,8469,memory,1170,False,./assets/img/ocean/memory/13.jpg,ocean,0.0,,False,,64,old,20.88,3,norest,maybe_new,,,,Adults,1.0,Control
395,606,8469,memory,1389,False,./assets/img/canyon/memory/22.jpg,canyon,10.0,,True,,65,new,20.88,3,norest,maybe_new,,,,Adults,2.0,Revaluation
396,608,8469,memory,963,False,./assets/img/canyon/memory/25.jpg,canyon,0.0,,False,,66,new,20.88,3,norest,definitely_old,,,,Adults,2.0,Revaluation
397,610,8469,memory,1322,False,./assets/img/ocean/memory/25.jpg,ocean,10.0,,True,,67,old,20.88,3,norest,definitely_old,,,,Adults,1.0,Control
398,612,8469,memory,1288,False,./assets/img/canyon/memory/1.jpg,canyon,0.0,,False,,68,old,20.88,3,norest,definitely_new,,,,Adults,2.0,Revaluation
399,614,8469,memory,999,False,./assets/img/ocean/memory/4.jpg,ocean,10.0,,True,,69,new,20.88,3,norest,definitely_new,,,,Adults,1.0,Control
400,616,8469,memory,1013,False,./assets/img/ocean/memory/17.jpg,ocean,0.0,,False,,70,old,20.88,3,norest,definitely_new,,,,Adults,1.0,Control
401,618,8469,memory,1259,False,./assets/img/ocean/memory/33.jpg,ocean,0.0,,False,,71,new,20.88,3,norest,maybe_old,,,,Adults,1.0,Control
402,620,8469,memory,1664,False,./assets/img/ocean/memory/31.jpg,ocean,10.0,,True,,72,new,20.88,3,norest,definitely_new,,,,Adults,1.0,Control
403,622,8469,memory,974,False,./assets/img/ocean/memory/39.jpg,ocean,0.0,,False,,73,new,20.88,3,norest,maybe_old,,,,Adults,1.0,Control
404,624,8469,memory,814,False,./assets/img/ocean/memory/2.jpg,ocean,0.0,,False,,74,new,20.88,3,norest,maybe_old,,,,Adults,1.0,Control
405,626,8469,memory,1316,False,./assets/img/canyon/memory/2.jpg,canyon,10.0,,True,,75,old,20.88,3,norest,maybe_old,,,,Adults,2.0,Revaluation
406,628,8469,memory,1147,False,./assets/img/ocean/memory/28.jpg,ocean,10.0,,True,,76,old,20.88,3,norest,maybe_old,,,,Adults,1.0,Control
407,630,8469,memory,972,False,./assets/img/canyon/memory/10.jpg,canyon,0.0,,False,,77,old,20.88,3,norest,definitely_new,,,,Adults,2.0,Revaluation
408,632,8469,memory,1166,False,./assets/img/canyon/memory/16.jpg,canyon,10.0,,True,,78,new,20.88,3,norest,maybe_new,,,,Adults,2.0,Revaluation
409,634,8469,memory,1000,False,./assets/img/canyon/memory/27.jpg,canyon,10.0,,True,,79,new,20.88,3,norest,definitely_new,,,,Adults,2.0,Revaluation
410,636,8469,memory,1584,False,./assets/img/ocean/memory/40.jpg,ocean,10.0,,True,,80,new,20.88,3,norest,maybe_new,,,,Adults,1.0,Control
411,638,8469,memory,1251,False,./assets/img/canyon/memory/38.jpg,canyon,0.0,,False,,81,new,20.88,3,norest,maybe_old,,,,Adults,2.0,Revaluation
412,640,8469,memory,1626,False,./assets/img/canyon/memory/40.jpg,canyon,0.0,,False,,82,old,20.88,3,norest,maybe_new,,,,Adults,2.0,Revaluation
413,642,8469,memory,1537,False,./assets/img/ocean/memory/9.jpg,ocean,10.0,,True,,83,new,20.88,3,norest,maybe_new,,,,Adults,1.0,Control
414,644,8469,memory,1228,False,./assets/img/ocean/memory/27.jpg,ocean,0.0,,False,,84,new,20.88,3,norest,maybe_old,,,,Adults,1.0,Control
415,646,8469,memory,1287,False,./assets/img/ocean/memory/6.jpg,ocean,0.0,,False,,85,new,20.88,3,norest,maybe_old,,,,Adults,1.0,Control
416,648,8469,memory,925,False,./assets/img/canyon/memory/12.jpg,canyon,0.0,,False,,86,old,20.88,3,norest,definitely_new,,,,Adults,2.0,Revaluation
417,650,8469,memory,988,False,./assets/img/ocean/memory/22.jpg,ocean,10.0,,True,,87,new,20.88,3,norest,definitely_new,,,,Adults,1.0,Control
418,486,8191,memory,3145,False,./assets/img/ocean/memory/40.jpg,ocean,0.0,,False,,4,old,15.44,8,norest,maybe_new,,,,Adolescents,2.0,Control
419,488,8191,memory,1104,False,./assets/img/ocean/memory/12.jpg,ocean,0.0,,False,,5,old,15.44,8,norest,maybe_new,,,,Adolescents,2.0,Control
420,490,8191,memory,1856,False,./assets/img/ocean/memory/17.jpg,ocean,0.0,,False,,6,old,15.44,8,norest,maybe_new,,,,Adolescents,2.0,Control
421,492,8191,memory,3161,False,./assets/img/ocean/memory/22.jpg,ocean,10.0,,True,,7,old,15.44,8,norest,definitely_old,,,,Adolescents,2.0,Control
422,494,8191,memory,2008,False,./assets/img/ocean/memory/11.jpg,ocean,10.0,,True,,8,new,15.44,8,norest,maybe_new,,,,Adolescents,2.0,Control
423,496,8191,memory,4227,False,./assets/img/ocean/memory/31.jpg,ocean,10.0,,True,,9,old,15.44,8,norest,definitely_old,,,,Adolescents,2.0,Control
424,498,8191,memory,1939,False,./assets/img/ocean/memory/20.jpg,ocean,10.0,,True,,10,new,15.44,8,norest,maybe_new,,,,Adolescents,2.0,Control
425,500,8191,memory,1884,False,./assets/img/canyon/memory/14.jpg,canyon,10.0,,True,,11,old,15.44,8,norest,definitely_old,,,,Adolescents,1.0,Revaluation
426,502,8191,memory,3242,False,./assets/img/ocean/memory/29.jpg,ocean,0.0,,False,,12,new,15.44,8,norest,maybe_old,,,,Adolescents,2.0,Control
427,504,8191,memory,1599,False,./assets/img/canyon/memory/15.jpg,canyon,10.0,,True,,13,new,15.44,8,norest,maybe_new,,,,Adolescents,1.0,Revaluation
428,506,8191,memory,1807,False,./assets/img/canyon/memory/19.jpg,canyon,10.0,,True,,14,new,15.44,8,norest,maybe_new,,,,Adolescents,1.0,Revaluation
429,508,8191,memory,1916,False,./assets/img/ocean/memory/39.jpg,ocean,10.0,,True,,15,old,15.44,8,norest,definitely_old,,,,Adolescents,2.0,Control
430,510,8191,memory,3268,False,./assets/img/canyon/memory/7.jpg,canyon,10.0,,True,,16,old,15.44,8,norest,maybe_old,,,,Adolescents,1.0,Revaluation
431,512,8191,memory,1216,False,./assets/img/canyon/memory/39.jpg,canyon,10.0,,True,,17,old,15.44,8,norest,maybe_old,,,,Adolescents,1.0,Revaluation
432,514,8191,memory,2672,False,./assets/img/ocean/memory/32.jpg,ocean,0.0,,False,,18,new,15.44,8,norest,maybe_old,,,,Adolescents,2.0,Control
433,516,8191,memory,3563,False,./assets/img/canyon/memory/17.jpg,canyon,10.0,,True,,19,new,15.44,8,norest,maybe_new,,,,Adolescents,1.0,Revaluation
434,518,8191,memory,2367,False,./assets/img/canyon/memory/20.jpg,canyon,10.0,,True,,20,new,15.44,8,norest,maybe_new,,,,Adolescents,1.0,Revaluation
435,520,8191,memory,1934,False,./assets/img/canyon/memory/24.jpg,canyon,10.0,,True,,21,old,15.44,8,norest,definitely_old,,,,Adolescents,1.0,Revaluation
436,522,8191,memory,2757,False,./assets/img/canyon/memory/35.jpg,canyon,0.0,,False,,22,old,15.44,8,norest,maybe_new,,,,Adolescents,1.0,Revaluation
437,524,8191,memory,1776,False,./assets/img/canyon/memory/26.jpg,canyon,10.0,,True,,23,old,15.44,8,norest,definitely_old,,,,Adolescents,1.0,Revaluation
438,526,8191,memory,1495,False,./assets/img/ocean/memory/5.jpg,ocean,10.0,,True,,24,new,15.44,8,norest,maybe_new,,,,Adolescents,2.0,Control
439,528,8191,memory,1136,False,./assets/img/ocean/memory/6.jpg,ocean,0.0,,False,,25,old,15.44,8,norest,maybe_new,,,,Adolescents,2.0,Control
440,530,8191,memory,4775,False,./assets/img/ocean/memory/0.jpg,ocean,0.0,,False,,26,old,15.44,8,norest,maybe_new,,,,Adolescents,2.0,Control
441,532,8191,memory,2221,False,./assets/img/canyon/memory/38.jpg,canyon,10.0,,True,,27,old,15.44,8,norest,maybe_old,,,,Adolescents,1.0,Revaluation
442,534,8191,memory,1411,False,./assets/img/ocean/memory/15.jpg,ocean,0.0,,False,,28,old,15.44,8,norest,maybe_new,,,,Adolescents,2.0,Control
443,536,8191,memory,1422,False,./assets/img/canyon/memory/34.jpg,canyon,10.0,,True,,29,old,15.44,8,norest,maybe_old,,,,Adolescents,1.0,Revaluation
444,538,8191,memory,1728,False,./assets/img/ocean/memory/36.jpg,ocean,0.0,,False,,30,new,15.44,8,norest,definitely_old,,,,Adolescents,2.0,Control
445,540,8191,memory,2008,False,./assets/img/ocean/memory/21.jpg,ocean,0.0,,False,,31,old,15.44,8,norest,definitely_new,,,,Adolescents,2.0,Control
446,542,8191,memory,2051,False,./assets/img/canyon/memory/2.jpg,canyon,10.0,,True,,32,new,15.44,8,norest,maybe_new,,,,Adolescents,1.0,Revaluation
447,544,8191,memory,1503,False,./assets/img/canyon/memory/30.jpg,canyon,0.0,,False,,33,new,15.44,8,norest,definitely_old,,,,Adolescents,1.0,Revaluation
448,546,8191,memory,2153,False,./assets/img/ocean/memory/33.jpg,ocean,0.0,,False,,34,old,15.44,8,norest,maybe_new,,,,Adolescents,2.0,Control
449,548,8191,memory,2487,False,./assets/img/ocean/memory/24.jpg,ocean,0.0,,False,,35,new,15.44,8,norest,definitely_old,,,,Adolescents,2.0,Control
450,550,8191,memory,2528,False,./assets/img/canyon/memory/36.jpg,canyon,0.0,,False,,36,old,15.44,8,norest,maybe_new,,,,Adolescents,1.0,Revaluation
451,552,8191,memory,3710,False,./assets/img/canyon/memory/8.jpg,canyon,10.0,,True,,37,new,15.44,8,norest,maybe_new,,,,Adolescents,1.0,Revaluation
452,554,8191,memory,5996,False,./assets/img/canyon/memory/6.jpg,canyon,0.0,,False,,38,old,15.44,8,norest,maybe_new,,,,Adolescents,1.0,Revaluation
453,556,8191,memory,2349,False,./assets/img/ocean/memory/3.jpg,ocean,0.0,,False,,39,old,15.44,8,norest,definitely_new,,,,Adolescents,2.0,Control
454,558,8191,memory,2275,False,./assets/img/canyon/memory/10.jpg,canyon,0.0,,False,,40,old,15.44,8,norest,maybe_new,,,,Adolescents,1.0,Revaluation
455,560,8191,memory,5996,False,./assets/img/canyon/memory/32.jpg,canyon,10.0,,True,,41,old,15.44,8,norest,definitely_old,,,,Adolescents,1.0,Revaluation
456,562,8191,memory,1589,False,./assets/img/ocean/memory/7.jpg,ocean,0.0,,False,,42,old,15.44,8,norest,maybe_new,,,,Adolescents,2.0,Control
457,564,8191,memory,2363,False,./assets/img/canyon/memory/21.jpg,canyon,10.0,,True,,43,new,15.44,8,norest,maybe_new,,,,Adolescents,1.0,Revaluation
458,566,8191,memory,1827,False,./assets/img/canyon/memory/1.jpg,canyon,10.0,,True,,44,old,15.44,8,norest,definitely_old,,,,Adolescents,1.0,Revaluation
459,568,8191,memory,3253,False,./assets/img/ocean/memory/9.jpg,ocean,10.0,,True,,45,new,15.44,8,norest,maybe_new,,,,Adolescents,2.0,Control
460,570,8191,memory,1640,False,./assets/img/canyon/memory/29.jpg,canyon,10.0,,True,,46,new,15.44,8,norest,definitely_new,,,,Adolescents,1.0,Revaluation
461,572,8191,memory,4421,False,./assets/img/ocean/memory/14.jpg,ocean,10.0,,True,,47,old,15.44,8,norest,definitely_old,,,,Adolescents,2.0,Control
462,574,8191,memory,1432,False,./assets/img/canyon/memory/25.jpg,canyon,0.0,,False,,48,new,15.44,8,norest,definitely_old,,,,Adolescents,1.0,Revaluation
463,576,8191,memory,2829,False,./assets/img/ocean/memory/25.jpg,ocean,10.0,,True,,49,new,15.44,8,norest,definitely_new,,,,Adolescents,2.0,Control
464,578,8191,memory,1966,False,./assets/img/ocean/memory/1.jpg,ocean,0.0,,False,,50,old,15.44,8,norest,maybe_new,,,,Adolescents,2.0,Control
465,580,8191,memory,4586,False,./assets/img/canyon/memory/5.jpg,canyon,0.0,,False,,51,new,15.44,8,norest,maybe_old,,,,Adolescents,1.0,Revaluation
466,582,8191,memory,2673,False,./assets/img/canyon/memory/40.jpg,canyon,10.0,,True,,52,new,15.44,8,norest,maybe_new,,,,Adolescents,1.0,Revaluation
467,584,8191,memory,2574,False,./assets/img/ocean/memory/27.jpg,ocean,0.0,,False,,53,new,15.44,8,norest,definitely_old,,,,Adolescents,2.0,Control
468,586,8191,memory,2109,False,./assets/img/canyon/memory/9.jpg,canyon,10.0,,True,,54,old,15.44,8,norest,maybe_old,,,,Adolescents,1.0,Revaluation
469,588,8191,memory,1505,False,./assets/img/ocean/memory/37.jpg,ocean,0.0,,False,,55,old,15.44,8,norest,definitely_new,,,,Adolescents,2.0,Control
470,590,8191,memory,1292,False,./assets/img/ocean/memory/13.jpg,ocean,10.0,,True,,56,new,15.44,8,norest,definitely_new,,,,Adolescents,2.0,Control
471,592,8191,memory,1686,False,./assets/img/canyon/memory/37.jpg,canyon,10.0,,True,,57,new,15.44,8,norest,definitely_new,,,,Adolescents,1.0,Revaluation
472,594,8191,memory,2692,False,./assets/img/ocean/memory/23.jpg,ocean,10.0,,True,,58,new,15.44,8,norest,maybe_new,,,,Adolescents,2.0,Control
473,596,8191,memory,1253,False,./assets/img/canyon/memory/3.jpg,canyon,10.0,,True,,59,new,15.44,8,norest,maybe_new,,,,Adolescents,1.0,Revaluation
474,598,8191,memory,2066,False,./assets/img/canyon/memory/31.jpg,canyon,10.0,,True,,60,old,15.44,8,norest,maybe_old,,,,Adolescents,1.0,Revaluation
475,600,8191,memory,1743,False,./assets/img/canyon/memory/13.jpg,canyon,0.0,,False,,61,old,15.44,8,norest,maybe_new,,,,Adolescents,1.0,Revaluation
476,602,8191,memory,3875,False,./assets/img/ocean/memory/10.jpg,ocean,10.0,,True,,62,new,15.44,8,norest,maybe_new,,,,Adolescents,2.0,Control
477,604,8191,memory,1739,False,./assets/img/ocean/memory/34.jpg,ocean,10.0,,True,,63,new,15.44,8,norest,definitely_new,,,,Adolescents,2.0,Control
478,606,8191,memory,1167,False,./assets/img/ocean/memory/38.jpg,ocean,0.0,,False,,64,old,15.44,8,norest,definitely_new,,,,Adolescents,2.0,Control
479,608,8191,memory,880,False,./assets/img/ocean/memory/16.jpg,ocean,0.0,,False,,65,old,15.44,8,norest,maybe_new,,,,Adolescents,2.0,Control
480,610,8191,memory,1044,False,./assets/img/canyon/memory/16.jpg,canyon,10.0,,True,,66,new,15.44,8,norest,maybe_new,,,,Adolescents,1.0,Revaluation
481,612,8191,memory,1483,False,./assets/img/canyon/memory/0.jpg,canyon,0.0,,False,,67,new,15.44,8,norest,definitely_old,,,,Adolescents,1.0,Revaluation
482,614,8191,memory,1520,False,./assets/img/canyon/memory/11.jpg,canyon,10.0,,True,,68,old,15.44,8,norest,maybe_old,,,,Adolescents,1.0,Revaluation
483,616,8191,memory,1327,False,./assets/img/canyon/memory/28.jpg,canyon,10.0,,True,,69,old,15.44,8,norest,definitely_old,,,,Adolescents,1.0,Revaluation
484,618,8191,memory,1993,False,./assets/img/ocean/memory/2.jpg,ocean,0.0,,False,,70,old,15.44,8,norest,maybe_new,,,,Adolescents,2.0,Control
485,620,8191,memory,1677,False,./assets/img/ocean/memory/30.jpg,ocean,10.0,,True,,71,new,15.44,8,norest,maybe_new,,,,Adolescents,2.0,Control
486,622,8191,memory,1722,False,./assets/img/canyon/memory/12.jpg,canyon,10.0,,True,,72,new,15.44,8,norest,maybe_new,,,,Adolescents,1.0,Revaluation
487,624,8191,memory,1075,False,./assets/img/ocean/memory/19.jpg,ocean,10.0,,True,,73,new,15.44,8,norest,maybe_new,,,,Adolescents,2.0,Control
488,626,8191,memory,910,False,./assets/img/ocean/memory/35.jpg,ocean,10.0,,True,,74,new,15.44,8,norest,maybe_new,,,,Adolescents,2.0,Control
489,628,8191,memory,2540,False,./assets/img/ocean/memory/4.jpg,ocean,0.0,,False,,75,old,15.44,8,norest,definitely_new,,,,Adolescents,2.0,Control
490,630,8191,memory,1400,False,./assets/img/canyon/memory/41.jpg,canyon,10.0,,True,,76,new,15.44,8,norest,definitely_new,,,,Adolescents,1.0,Revaluation
491,632,8191,memory,1369,False,./assets/img/ocean/memory/41.jpg,ocean,10.0,,True,,77,new,15.44,8,norest,definitely_new,,,,Adolescents,2.0,Control
492,634,8191,memory,1140,False,./assets/img/canyon/memory/22.jpg,canyon,0.0,,False,,78,old,15.44,8,norest,definitely_new,,,,Adolescents,1.0,Revaluation
493,636,8191,memory,1616,False,./assets/img/canyon/memory/27.jpg,canyon,0.0,,False,,79,old,15.44,8,norest,maybe_new,,,,Adolescents,1.0,Revaluation
494,638,8191,memory,896,False,./assets/img/ocean/memory/18.jpg,ocean,10.0,,True,,80,new,15.44,8,norest,maybe_new,,,,Adolescents,2.0,Control
495,640,8191,memory,1192,False,./assets/img/ocean/memory/26.jpg,ocean,0.0,,False,,81,new,15.44,8,norest,maybe_old,,,,Adolescents,2.0,Control
496,642,8191,memory,1663,False,./assets/img/canyon/memory/33.jpg,canyon,10.0,,True,,82,new,15.44,8,norest,maybe_new,,,,Adolescents,1.0,Revaluation
497,644,8191,memory,1471,False,./assets/img/ocean/memory/8.jpg,ocean,10.0,,True,,83,old,15.44,8,norest,maybe_old,,,,Adolescents,2.0,Control
498,646,8191,memory,1134,False,./assets/img/canyon/memory/23.jpg,canyon,0.0,,False,,84,new,15.44,8,norest,maybe_old,,,,Adolescents,1.0,Revaluation
499,648,8191,memory,3010,False,./assets/img/canyon/memory/18.jpg,canyon,10.0,,True,,85,old,15.44,8,norest,maybe_old,,,,Adolescents,1.0,Revaluation
500,650,8191,memory,1988,False,./assets/img/canyon/memory/4.jpg,canyon,10.0,,True,,86,new,15.44,8,norest,maybe_new,,,,Adolescents,1.0,Revaluation
501,652,8191,memory,2102,False,./assets/img/ocean/memory/28.jpg,ocean,0.0,,False,,87,new,15.44,8,norest,definitely_old,,,,Adolescents,2.0,Control
502,484,9160,memory,1928,False,./assets/img/canyon/memory/19.jpg,canyon,10.0,,True,,4,old,15.11,5,norest,definitely_old,,,,Adolescents,1.0,Control
503,486,9160,memory,2032,False,./assets/img/canyon/memory/12.jpg,canyon,0.0,,False,,5,new,15.11,5,norest,maybe_old,,,,Adolescents,1.0,Control
504,488,9160,memory,2369,False,./assets/img/ocean/memory/23.jpg,ocean,10.0,,True,,6,new,15.11,5,norest,maybe_new,,,,Adolescents,2.0,Revaluation
505,490,9160,memory,1888,False,./assets/img/ocean/memory/14.jpg,ocean,0.0,,False,,7,old,15.11,5,norest,definitely_new,,,,Adolescents,2.0,Revaluation
506,492,9160,memory,1527,False,./assets/img/ocean/memory/25.jpg,ocean,10.0,,True,,8,new,15.11,5,norest,definitely_new,,,,Adolescents,2.0,Revaluation
507,494,9160,memory,2656,False,./assets/img/ocean/memory/0.jpg,ocean,10.0,,True,,9,new,15.11,5,norest,maybe_new,,,,Adolescents,2.0,Revaluation
508,496,9160,memory,1861,False,./assets/img/canyon/memory/39.jpg,canyon,10.0,,True,,10,old,15.11,5,norest,definitely_old,,,,Adolescents,1.0,Control
509,498,9160,memory,692,False,./assets/img/canyon/memory/15.jpg,canyon,0.0,,False,,11,new,15.11,5,norest,definitely_old,,,,Adolescents,1.0,Control
510,500,9160,memory,1297,False,./assets/img/ocean/memory/34.jpg,ocean,10.0,,True,,12,old,15.11,5,norest,definitely_old,,,,Adolescents,2.0,Revaluation
511,502,9160,memory,1718,False,./assets/img/canyon/memory/32.jpg,canyon,10.0,,True,,13,new,15.11,5,norest,maybe_new,,,,Adolescents,1.0,Control
512,504,9160,memory,1884,False,./assets/img/ocean/memory/18.jpg,ocean,0.0,,False,,14,old,15.11,5,norest,definitely_new,,,,Adolescents,2.0,Revaluation
513,506,9160,memory,1546,False,./assets/img/canyon/memory/21.jpg,canyon,0.0,,False,,15,old,15.11,5,norest,definitely_new,,,,Adolescents,1.0,Control
514,508,9160,memory,1850,False,./assets/img/ocean/memory/32.jpg,ocean,10.0,,True,,16,new,15.11,5,norest,maybe_new,,,,Adolescents,2.0,Revaluation
515,510,9160,memory,1212,False,./assets/img/ocean/memory/40.jpg,ocean,0.0,,False,,17,new,15.11,5,norest,maybe_old,,,,Adolescents,2.0,Revaluation
516,512,9160,memory,1395,False,./assets/img/canyon/memory/6.jpg,canyon,0.0,,False,,18,new,15.11,5,norest,maybe_old,,,,Adolescents,1.0,Control
517,514,9160,memory,2183,False,./assets/img/canyon/memory/11.jpg,canyon,10.0,,True,,19,new,15.11,5,norest,definitely_new,,,,Adolescents,1.0,Control
518,516,9160,memory,1439,False,./assets/img/ocean/memory/5.jpg,ocean,10.0,,True,,20,old,15.11,5,norest,maybe_old,,,,Adolescents,2.0,Revaluation
519,518,9160,memory,1194,False,./assets/img/canyon/memory/25.jpg,canyon,10.0,,True,,21,new,15.11,5,norest,definitely_new,,,,Adolescents,1.0,Control
520,520,9160,memory,1252,False,./assets/img/ocean/memory/31.jpg,ocean,0.0,,False,,22,old,15.11,5,norest,maybe_new,,,,Adolescents,2.0,Revaluation
521,522,9160,memory,862,False,./assets/img/ocean/memory/3.jpg,ocean,0.0,,False,,23,old,15.11,5,norest,maybe_new,,,,Adolescents,2.0,Revaluation
522,524,9160,memory,1352,False,./assets/img/ocean/memory/17.jpg,ocean,10.0,,True,,24,new,15.11,5,norest,definitely_new,,,,Adolescents,2.0,Revaluation
523,526,9160,memory,1187,False,./assets/img/ocean/memory/36.jpg,ocean,0.0,,False,,25,new,15.11,5,norest,definitely_old,,,,Adolescents,2.0,Revaluation
524,528,9160,memory,2783,False,./assets/img/ocean/memory/4.jpg,ocean,10.0,,True,,26,old,15.11,5,norest,definitely_old,,,,Adolescents,2.0,Revaluation
525,530,9160,memory,1441,False,./assets/img/canyon/memory/10.jpg,canyon,10.0,,True,,27,old,15.11,5,norest,definitely_old,,,,Adolescents,1.0,Control
526,532,9160,memory,1066,False,./assets/img/ocean/memory/10.jpg,ocean,0.0,,False,,28,new,15.11,5,norest,definitely_old,,,,Adolescents,2.0,Revaluation
527,534,9160,memory,2267,False,./assets/img/canyon/memory/8.jpg,canyon,10.0,,True,,29,new,15.11,5,norest,definitely_new,,,,Adolescents,1.0,Control
528,536,9160,memory,3036,False,./assets/img/canyon/memory/0.jpg,canyon,10.0,,True,,30,new,15.11,5,norest,maybe_new,,,,Adolescents,1.0,Control
529,538,9160,memory,1470,False,./assets/img/canyon/memory/41.jpg,canyon,10.0,,True,,31,new,15.11,5,norest,maybe_new,,,,Adolescents,1.0,Control
530,540,9160,memory,1926,False,./assets/img/canyon/memory/5.jpg,canyon,0.0,,False,,32,old,15.11,5,norest,maybe_new,,,,Adolescents,1.0,Control
531,542,9160,memory,1419,False,./assets/img/canyon/memory/4.jpg,canyon,10.0,,True,,33,old,15.11,5,norest,definitely_old,,,,Adolescents,1.0,Control
532,544,9160,memory,1222,False,./assets/img/canyon/memory/14.jpg,canyon,0.0,,False,,34,new,15.11,5,norest,maybe_old,,,,Adolescents,1.0,Control
533,546,9160,memory,1468,False,./assets/img/canyon/memory/1.jpg,canyon,10.0,,True,,35,new,15.11,5,norest,definitely_new,,,,Adolescents,1.0,Control
534,548,9160,memory,1727,False,./assets/img/ocean/memory/15.jpg,ocean,10.0,,True,,36,new,15.11,5,norest,definitely_new,,,,Adolescents,2.0,Revaluation
535,550,9160,memory,1038,False,./assets/img/canyon/memory/27.jpg,canyon,0.0,,False,,37,old,15.11,5,norest,definitely_new,,,,Adolescents,1.0,Control
536,552,9160,memory,1102,False,./assets/img/canyon/memory/17.jpg,canyon,10.0,,True,,38,new,15.11,5,norest,definitely_new,,,,Adolescents,1.0,Control
537,554,9160,memory,1501,False,./assets/img/canyon/memory/7.jpg,canyon,10.0,,True,,39,old,15.11,5,norest,maybe_old,,,,Adolescents,1.0,Control
538,556,9160,memory,1111,False,./assets/img/canyon/memory/9.jpg,canyon,10.0,,True,,40,old,15.11,5,norest,definitely_old,,,,Adolescents,1.0,Control
539,558,9160,memory,844,False,./assets/img/canyon/memory/13.jpg,canyon,10.0,,True,,41,old,15.11,5,norest,definitely_old,,,,Adolescents,1.0,Control
540,560,9160,memory,1728,False,./assets/img/canyon/memory/38.jpg,canyon,10.0,,True,,42,old,15.11,5,norest,definitely_old,,,,Adolescents,1.0,Control
541,562,9160,memory,2196,False,./assets/img/ocean/memory/19.jpg,ocean,0.0,,False,,43,old,15.11,5,norest,maybe_new,,,,Adolescents,2.0,Revaluation
542,564,9160,memory,591,False,./assets/img/canyon/memory/33.jpg,canyon,10.0,,True,,44,new,15.11,5,norest,maybe_new,,,,Adolescents,1.0,Control
543,566,9160,memory,1489,False,./assets/img/ocean/memory/12.jpg,ocean,10.0,,True,,45,new,15.11,5,norest,maybe_new,,,,Adolescents,2.0,Revaluation
544,568,9160,memory,1083,False,./assets/img/ocean/memory/29.jpg,ocean,0.0,,False,,46,new,15.11,5,norest,maybe_old,,,,Adolescents,2.0,Revaluation
545,570,9160,memory,1475,False,./assets/img/canyon/memory/28.jpg,canyon,10.0,,True,,47,new,15.11,5,norest,definitely_new,,,,Adolescents,1.0,Control
546,572,9160,memory,874,False,./assets/img/canyon/memory/37.jpg,canyon,10.0,,True,,48,old,15.11,5,norest,maybe_old,,,,Adolescents,1.0,Control
547,574,9160,memory,1440,False,./assets/img/ocean/memory/41.jpg,ocean,0.0,,False,,49,old,15.11,5,norest,definitely_new,,,,Adolescents,2.0,Revaluation
548,576,9160,memory,1852,False,./assets/img/ocean/memory/38.jpg,ocean,0.0,,False,,50,old,15.11,5,norest,maybe_new,,,,Adolescents,2.0,Revaluation
549,578,9160,memory,1100,False,./assets/img/ocean/memory/37.jpg,ocean,0.0,,False,,51,old,15.11,5,norest,maybe_new,,,,Adolescents,2.0,Revaluation
550,580,9160,memory,1041,False,./assets/img/canyon/memory/34.jpg,canyon,10.0,,True,,52,new,15.11,5,norest,maybe_new,,,,Adolescents,1.0,Control
551,582,9160,memory,984,False,./assets/img/canyon/memory/24.jpg,canyon,10.0,,True,,53,new,15.11,5,norest,definitely_new,,,,Adolescents,1.0,Control
552,584,9160,memory,1444,False,./assets/img/ocean/memory/24.jpg,ocean,10.0,,True,,54,new,15.11,5,norest,definitely_new,,,,Adolescents,2.0,Revaluation
553,586,9160,memory,1054,False,./assets/img/canyon/memory/26.jpg,canyon,10.0,,True,,55,new,15.11,5,norest,definitely_new,,,,Adolescents,1.0,Control
554,588,9160,memory,1249,False,./assets/img/ocean/memory/30.jpg,ocean,10.0,,True,,56,new,15.11,5,norest,definitely_new,,,,Adolescents,2.0,Revaluation
555,590,9160,memory,1640,False,./assets/img/ocean/memory/26.jpg,ocean,0.0,,False,,57,old,15.11,5,norest,definitely_new,,,,Adolescents,2.0,Revaluation
556,592,9160,memory,1638,False,./assets/img/canyon/memory/29.jpg,canyon,0.0,,False,,58,old,15.11,5,norest,definitely_new,,,,Adolescents,1.0,Control
557,594,9160,memory,1682,False,./assets/img/canyon/memory/35.jpg,canyon,0.0,,False,,59,old,15.11,5,norest,maybe_new,,,,Adolescents,1.0,Control
558,596,9160,memory,1730,False,./assets/img/canyon/memory/40.jpg,canyon,10.0,,True,,60,old,15.11,5,norest,maybe_old,,,,Adolescents,1.0,Control
559,598,9160,memory,995,False,./assets/img/ocean/memory/33.jpg,ocean,10.0,,True,,61,old,15.11,5,norest,maybe_old,,,,Adolescents,2.0,Revaluation
560,600,9160,memory,978,False,./assets/img/canyon/memory/36.jpg,canyon,10.0,,True,,62,old,15.11,5,norest,definitely_old,,,,Adolescents,1.0,Control
561,602,9160,memory,1224,False,./assets/img/canyon/memory/23.jpg,canyon,10.0,,True,,63,new,15.11,5,norest,maybe_new,,,,Adolescents,1.0,Control
562,604,9160,memory,990,False,./assets/img/canyon/memory/30.jpg,canyon,0.0,,False,,64,new,15.11,5,norest,maybe_old,,,,Adolescents,1.0,Control
563,606,9160,memory,1487,False,./assets/img/ocean/memory/11.jpg,ocean,0.0,,False,,65,old,15.11,5,norest,definitely_new,,,,Adolescents,2.0,Revaluation
564,608,9160,memory,1023,False,./assets/img/canyon/memory/3.jpg,canyon,10.0,,True,,66,old,15.11,5,norest,maybe_old,,,,Adolescents,1.0,Control
565,610,9160,memory,1321,False,./assets/img/ocean/memory/35.jpg,ocean,10.0,,True,,67,old,15.11,5,norest,definitely_old,,,,Adolescents,2.0,Revaluation
566,612,9160,memory,1022,False,./assets/img/ocean/memory/6.jpg,ocean,10.0,,True,,68,new,15.11,5,norest,maybe_new,,,,Adolescents,2.0,Revaluation
567,614,9160,memory,1821,False,./assets/img/ocean/memory/27.jpg,ocean,0.0,,False,,69,new,15.11,5,norest,maybe_old,,,,Adolescents,2.0,Revaluation
568,616,9160,memory,1013,False,./assets/img/ocean/memory/16.jpg,ocean,10.0,,True,,70,old,15.11,5,norest,definitely_old,,,,Adolescents,2.0,Revaluation
569,618,9160,memory,739,False,./assets/img/ocean/memory/9.jpg,ocean,10.0,,True,,71,old,15.11,5,norest,definitely_old,,,,Adolescents,2.0,Revaluation
570,620,9160,memory,1342,False,./assets/img/ocean/memory/39.jpg,ocean,10.0,,True,,72,new,15.11,5,norest,maybe_new,,,,Adolescents,2.0,Revaluation
571,622,9160,memory,1128,False,./assets/img/canyon/memory/20.jpg,canyon,10.0,,True,,73,new,15.11,5,norest,maybe_new,,,,Adolescents,1.0,Control
572,624,9160,memory,1187,False,./assets/img/canyon/memory/2.jpg,canyon,10.0,,True,,74,old,15.11,5,norest,maybe_old,,,,Adolescents,1.0,Control
573,626,9160,memory,1717,False,./assets/img/ocean/memory/22.jpg,ocean,10.0,,True,,75,new,15.11,5,norest,maybe_new,,,,Adolescents,2.0,Revaluation
574,628,9160,memory,2804,False,./assets/img/ocean/memory/8.jpg,ocean,10.0,,True,,76,old,15.11,5,norest,maybe_old,,,,Adolescents,2.0,Revaluation
575,630,9160,memory,1139,False,./assets/img/canyon/memory/18.jpg,canyon,0.0,,False,,77,new,15.11,5,norest,maybe_old,,,,Adolescents,1.0,Control
576,632,9160,memory,1327,False,./assets/img/ocean/memory/28.jpg,ocean,10.0,,True,,78,new,15.11,5,norest,definitely_new,,,,Adolescents,2.0,Revaluation
577,634,9160,memory,1283,False,./assets/img/canyon/memory/22.jpg,canyon,0.0,,False,,79,old,15.11,5,norest,maybe_new,,,,Adolescents,1.0,Control
578,636,9160,memory,1529,False,./assets/img/ocean/memory/1.jpg,ocean,0.0,,False,,80,old,15.11,5,norest,definitely_new,,,,Adolescents,2.0,Revaluation
579,638,9160,memory,1233,False,./assets/img/ocean/memory/21.jpg,ocean,0.0,,False,,81,new,15.11,5,norest,definitely_old,,,,Adolescents,2.0,Revaluation
580,640,9160,memory,1527,False,./assets/img/canyon/memory/31.jpg,canyon,0.0,,False,,82,old,15.11,5,norest,definitely_new,,,,Adolescents,1.0,Control
581,642,9160,memory,1278,False,./assets/img/ocean/memory/7.jpg,ocean,10.0,,True,,83,old,15.11,5,norest,definitely_old,,,,Adolescents,2.0,Revaluation
582,644,9160,memory,1246,False,./assets/img/canyon/memory/16.jpg,canyon,10.0,,True,,84,old,15.11,5,norest,maybe_old,,,,Adolescents,1.0,Control
583,646,9160,memory,1291,False,./assets/img/ocean/memory/2.jpg,ocean,10.0,,True,,85,old,15.11,5,norest,maybe_old,,,,Adolescents,2.0,Revaluation
584,648,9160,memory,1038,False,./assets/img/ocean/memory/13.jpg,ocean,0.0,,False,,86,new,15.11,5,norest,definitely_old,,,,Adolescents,2.0,Revaluation
585,650,9160,memory,1057,False,./assets/img/ocean/memory/20.jpg,ocean,10.0,,True,,87,new,15.11,5,norest,maybe_new,,,,Adolescents,2.0,Revaluation
586,484,8322,memory,1776,False,./assets/img/ocean/memory/8.jpg,ocean,0.0,,False,,4,new,12.95,1,norest,definitely_old,,,,Children,1.0,Control
587,486,8322,memory,1597,False,./assets/img/ocean/memory/19.jpg,ocean,10.0,,True,,5,old,12.95,1,norest,definitely_old,,,,Children,1.0,Control
588,488,8322,memory,1392,False,./assets/img/ocean/memory/33.jpg,ocean,10.0,,True,,6,new,12.95,1,norest,maybe_new,,,,Children,1.0,Control
589,490,8322,memory,1195,False,./assets/img/ocean/memory/40.jpg,ocean,10.0,,True,,7,old,12.95,1,norest,definitely_old,,,,Children,1.0,Control
590,492,8322,memory,1257,False,./assets/img/canyon/memory/39.jpg,canyon,0.0,,False,,8,old,12.95,1,norest,maybe_new,,,,Children,2.0,Revaluation
591,494,8322,memory,1176,False,./assets/img/ocean/memory/35.jpg,ocean,10.0,,True,,9,old,12.95,1,norest,maybe_old,,,,Children,1.0,Control
592,496,8322,memory,1879,False,./assets/img/ocean/memory/27.jpg,ocean,10.0,,True,,10,new,12.95,1,norest,definitely_new,,,,Children,1.0,Control
593,498,8322,memory,1496,False,./assets/img/canyon/memory/11.jpg,canyon,10.0,,True,,11,old,12.95,1,norest,definitely_old,,,,Children,2.0,Revaluation
594,500,8322,memory,1005,False,./assets/img/ocean/memory/21.jpg,ocean,10.0,,True,,12,new,12.95,1,norest,definitely_new,,,,Children,1.0,Control
595,502,8322,memory,1801,False,./assets/img/canyon/memory/1.jpg,canyon,0.0,,False,,13,new,12.95,1,norest,maybe_old,,,,Children,2.0,Revaluation
596,504,8322,memory,985,False,./assets/img/canyon/memory/25.jpg,canyon,0.0,,False,,14,new,12.95,1,norest,definitely_old,,,,Children,2.0,Revaluation
597,506,8322,memory,829,False,./assets/img/ocean/memory/26.jpg,ocean,0.0,,False,,15,new,12.95,1,norest,definitely_old,,,,Children,1.0,Control
598,508,8322,memory,1783,False,./assets/img/ocean/memory/6.jpg,ocean,10.0,,True,,16,new,12.95,1,norest,maybe_new,,,,Children,1.0,Control
599,510,8322,memory,1446,False,./assets/img/canyon/memory/28.jpg,canyon,0.0,,False,,17,old,12.95,1,norest,definitely_new,,,,Children,2.0,Revaluation
600,512,8322,memory,1293,False,./assets/img/canyon/memory/26.jpg,canyon,0.0,,False,,18,old,12.95,1,norest,maybe_new,,,,Children,2.0,Revaluation
601,514,8322,memory,1257,False,./assets/img/canyon/memory/3.jpg,canyon,10.0,,True,,19,new,12.95,1,norest,maybe_new,,,,Children,2.0,Revaluation
602,516,8322,memory,1230,False,./assets/img/canyon/memory/31.jpg,canyon,0.0,,False,,20,new,12.95,1,norest,maybe_old,,,,Children,2.0,Revaluation
603,518,8322,memory,1377,False,./assets/img/ocean/memory/22.jpg,ocean,0.0,,False,,21,old,12.95,1,norest,definitely_new,,,,Children,1.0,Control
604,520,8322,memory,1212,False,./assets/img/ocean/memory/31.jpg,ocean,0.0,,False,,22,old,12.95,1,norest,maybe_new,,,,Children,1.0,Control
605,522,8322,memory,1476,False,./assets/img/ocean/memory/18.jpg,ocean,0.0,,False,,23,old,12.95,1,norest,maybe_new,,,,Children,1.0,Control
606,524,8322,memory,1021,False,./assets/img/ocean/memory/37.jpg,ocean,0.0,,False,,24,old,12.95,1,norest,definitely_new,,,,Children,1.0,Control
607,526,8322,memory,873,False,./assets/img/canyon/memory/19.jpg,canyon,0.0,,False,,25,old,12.95,1,norest,definitely_new,,,,Children,2.0,Revaluation
608,528,8322,memory,1700,False,./assets/img/canyon/memory/37.jpg,canyon,10.0,,True,,26,old,12.95,1,norest,definitely_old,,,,Children,2.0,Revaluation
609,530,8322,memory,1241,False,./assets/img/ocean/memory/16.jpg,ocean,10.0,,True,,27,new,12.95,1,norest,definitely_new,,,,Children,1.0,Control
610,532,8322,memory,970,False,./assets/img/ocean/memory/5.jpg,ocean,10.0,,True,,28,new,12.95,1,norest,definitely_new,,,,Children,1.0,Control
611,534,8322,memory,1178,False,./assets/img/ocean/memory/29.jpg,ocean,0.0,,False,,29,old,12.95,1,norest,definitely_new,,,,Children,1.0,Control
612,536,8322,memory,1167,False,./assets/img/canyon/memory/18.jpg,canyon,10.0,,True,,30,new,12.95,1,norest,maybe_new,,,,Children,2.0,Revaluation
613,538,8322,memory,1202,False,./assets/img/canyon/memory/14.jpg,canyon,10.0,,True,,31,new,12.95,1,norest,definitely_new,,,,Children,2.0,Revaluation
614,540,8322,memory,831,False,./assets/img/canyon/memory/12.jpg,canyon,0.0,,False,,32,old,12.95,1,norest,definitely_new,,,,Children,2.0,Revaluation
615,542,8322,memory,735,False,./assets/img/canyon/memory/29.jpg,canyon,0.0,,False,,33,old,12.95,1,norest,definitely_new,,,,Children,2.0,Revaluation
616,544,8322,memory,1173,False,./assets/img/canyon/memory/34.jpg,canyon,0.0,,False,,34,new,12.95,1,norest,definitely_old,,,,Children,2.0,Revaluation
617,546,8322,memory,1154,False,./assets/img/ocean/memory/24.jpg,ocean,10.0,,True,,35,new,12.95,1,norest,definitely_new,,,,Children,1.0,Control
618,548,8322,memory,862,False,./assets/img/canyon/memory/20.jpg,canyon,0.0,,False,,36,old,12.95,1,norest,definitely_new,,,,Children,2.0,Revaluation
619,550,8322,memory,1452,False,./assets/img/canyon/memory/2.jpg,canyon,0.0,,False,,37,old,12.95,1,norest,maybe_new,,,,Children,2.0,Revaluation
620,552,8322,memory,925,False,./assets/img/ocean/memory/34.jpg,ocean,10.0,,True,,38,new,12.95,1,norest,definitely_new,,,,Children,1.0,Control
621,554,8322,memory,1699,False,./assets/img/canyon/memory/36.jpg,canyon,0.0,,False,,39,new,12.95,1,norest,maybe_old,,,,Children,2.0,Revaluation
622,556,8322,memory,1170,False,./assets/img/ocean/memory/23.jpg,ocean,10.0,,True,,40,new,12.95,1,norest,definitely_new,,,,Children,1.0,Control
623,558,8322,memory,1262,False,./assets/img/canyon/memory/6.jpg,canyon,0.0,,False,,41,old,12.95,1,norest,maybe_new,,,,Children,2.0,Revaluation
624,560,8322,memory,1005,False,./assets/img/ocean/memory/39.jpg,ocean,0.0,,False,,42,old,12.95,1,norest,definitely_new,,,,Children,1.0,Control
625,562,8322,memory,970,False,./assets/img/canyon/memory/27.jpg,canyon,10.0,,True,,43,new,12.95,1,norest,definitely_new,,,,Children,2.0,Revaluation
626,564,8322,memory,1952,False,./assets/img/ocean/memory/11.jpg,ocean,10.0,,True,,44,old,12.95,1,norest,definitely_old,,,,Children,1.0,Control
627,566,8322,memory,1007,False,./assets/img/ocean/memory/28.jpg,ocean,10.0,,True,,45,new,12.95,1,norest,definitely_new,,,,Children,1.0,Control
628,568,8322,memory,1282,False,./assets/img/canyon/memory/0.jpg,canyon,0.0,,False,,46,new,12.95,1,norest,maybe_old,,,,Children,2.0,Revaluation
629,570,8322,memory,1972,False,./assets/img/canyon/memory/32.jpg,canyon,10.0,,True,,47,old,12.95,1,norest,definitely_old,,,,Children,2.0,Revaluation
630,572,8322,memory,1167,False,./assets/img/ocean/memory/1.jpg,ocean,10.0,,True,,48,new,12.95,1,norest,definitely_new,,,,Children,1.0,Control
631,574,8322,memory,1290,False,./assets/img/ocean/memory/13.jpg,ocean,10.0,,True,,49,new,12.95,1,norest,definitely_new,,,,Children,1.0,Control
632,576,8322,memory,1031,False,./assets/img/ocean/memory/41.jpg,ocean,10.0,,True,,50,old,12.95,1,norest,definitely_old,,,,Children,1.0,Control
633,578,8322,memory,1597,False,./assets/img/canyon/memory/35.jpg,canyon,10.0,,True,,51,new,12.95,1,norest,maybe_new,,,,Children,2.0,Revaluation
634,580,8322,memory,1245,False,./assets/img/ocean/memory/10.jpg,ocean,10.0,,True,,52,old,12.95,1,norest,definitely_old,,,,Children,1.0,Control
635,582,8322,memory,1531,False,./assets/img/canyon/memory/21.jpg,canyon,10.0,,True,,53,new,12.95,1,norest,definitely_new,,,,Children,2.0,Revaluation
636,584,8322,memory,1217,False,./assets/img/ocean/memory/14.jpg,ocean,10.0,,True,,54,new,12.95,1,norest,definitely_new,,,,Children,1.0,Control
637,586,8322,memory,1554,False,./assets/img/ocean/memory/36.jpg,ocean,0.0,,False,,55,old,12.95,1,norest,maybe_new,,,,Children,1.0,Control
638,588,8322,memory,1184,False,./assets/img/ocean/memory/30.jpg,ocean,10.0,,True,,56,old,12.95,1,norest,maybe_old,,,,Children,1.0,Control
639,590,8322,memory,1270,False,./assets/img/canyon/memory/5.jpg,canyon,0.0,,False,,57,old,12.95,1,norest,definitely_new,,,,Children,2.0,Revaluation
640,592,8322,memory,1267,False,./assets/img/canyon/memory/33.jpg,canyon,10.0,,True,,58,new,12.95,1,norest,definitely_new,,,,Children,2.0,Revaluation
641,594,8322,memory,1272,False,./assets/img/ocean/memory/25.jpg,ocean,0.0,,False,,59,old,12.95,1,norest,definitely_new,,,,Children,1.0,Control
642,596,8322,memory,2212,False,./assets/img/ocean/memory/32.jpg,ocean,10.0,,True,,60,new,12.95,1,norest,maybe_new,,,,Children,1.0,Control
643,598,8322,memory,1322,False,./assets/img/canyon/memory/30.jpg,canyon,0.0,,False,,61,old,12.95,1,norest,maybe_new,,,,Children,2.0,Revaluation
644,600,8322,memory,874,False,./assets/img/canyon/memory/7.jpg,canyon,0.0,,False,,62,old,12.95,1,norest,maybe_new,,,,Children,2.0,Revaluation
645,602,8322,memory,1075,False,./assets/img/ocean/memory/20.jpg,ocean,10.0,,True,,63,old,12.95,1,norest,definitely_old,,,,Children,1.0,Control
646,604,8322,memory,748,False,./assets/img/canyon/memory/9.jpg,canyon,0.0,,False,,64,new,12.95,1,norest,definitely_old,,,,Children,2.0,Revaluation
647,606,8322,memory,799,False,./assets/img/canyon/memory/4.jpg,canyon,10.0,,True,,65,new,12.95,1,norest,maybe_new,,,,Children,2.0,Revaluation
648,608,8322,memory,956,False,./assets/img/canyon/memory/40.jpg,canyon,0.0,,False,,66,old,12.95,1,norest,maybe_new,,,,Children,2.0,Revaluation
649,610,8322,memory,939,False,./assets/img/ocean/memory/3.jpg,ocean,0.0,,False,,67,old,12.95,1,norest,maybe_new,,,,Children,1.0,Control
650,612,8322,memory,1395,False,./assets/img/canyon/memory/23.jpg,canyon,0.0,,False,,68,old,12.95,1,norest,definitely_new,,,,Children,2.0,Revaluation
651,614,8322,memory,1191,False,./assets/img/ocean/memory/15.jpg,ocean,10.0,,True,,69,new,12.95,1,norest,definitely_new,,,,Children,1.0,Control
652,616,8322,memory,662,False,./assets/img/canyon/memory/8.jpg,canyon,0.0,,False,,70,old,12.95,1,norest,definitely_new,,,,Children,2.0,Revaluation
653,618,8322,memory,545,False,./assets/img/ocean/memory/12.jpg,ocean,10.0,,True,,71,new,12.95,1,norest,definitely_new,,,,Children,1.0,Control
654,620,8322,memory,825,False,./assets/img/canyon/memory/38.jpg,canyon,0.0,,False,,72,old,12.95,1,norest,definitely_new,,,,Children,2.0,Revaluation
655,622,8322,memory,454,False,./assets/img/ocean/memory/17.jpg,ocean,10.0,,True,,73,new,12.95,1,norest,definitely_new,,,,Children,1.0,Control
656,624,8322,memory,753,False,./assets/img/canyon/memory/15.jpg,canyon,10.0,,True,,74,new,12.95,1,norest,definitely_new,,,,Children,2.0,Revaluation
657,626,8322,memory,583,False,./assets/img/ocean/memory/38.jpg,ocean,10.0,,True,,75,new,12.95,1,norest,definitely_new,,,,Children,1.0,Control
658,628,8322,memory,1591,False,./assets/img/ocean/memory/9.jpg,ocean,10.0,,True,,76,old,12.95,1,norest,definitely_old,,,,Children,1.0,Control
659,630,8322,memory,678,False,./assets/img/canyon/memory/41.jpg,canyon,0.0,,False,,77,old,12.95,1,norest,definitely_new,,,,Children,2.0,Revaluation
660,632,8322,memory,619,False,./assets/img/ocean/memory/4.jpg,ocean,0.0,,False,,78,old,12.95,1,norest,definitely_new,,,,Children,1.0,Control
661,634,8322,memory,2043,False,./assets/img/canyon/memory/17.jpg,canyon,10.0,,True,,79,new,12.95,1,norest,definitely_new,,,,Children,2.0,Revaluation
662,636,8322,memory,1703,False,./assets/img/canyon/memory/13.jpg,canyon,0.0,,False,,80,old,12.95,1,norest,maybe_new,,,,Children,2.0,Revaluation
663,638,8322,memory,982,False,./assets/img/ocean/memory/7.jpg,ocean,0.0,,False,,81,old,12.95,1,norest,definitely_new,,,,Children,1.0,Control
664,640,8322,memory,955,False,./assets/img/canyon/memory/16.jpg,canyon,10.0,,True,,82,new,12.95,1,norest,maybe_new,,,,Children,2.0,Revaluation
665,642,8322,memory,910,False,./assets/img/canyon/memory/10.jpg,canyon,10.0,,True,,83,new,12.95,1,norest,maybe_new,,,,Children,2.0,Revaluation
666,644,8322,memory,1529,False,./assets/img/canyon/memory/24.jpg,canyon,0.0,,False,,84,new,12.95,1,norest,maybe_old,,,,Children,2.0,Revaluation
667,646,8322,memory,2397,False,./assets/img/ocean/memory/0.jpg,ocean,10.0,,True,,85,new,12.95,1,norest,maybe_new,,,,Children,1.0,Control
668,648,8322,memory,1098,False,./assets/img/canyon/memory/22.jpg,canyon,0.0,,False,,86,new,12.95,1,norest,maybe_old,,,,Children,2.0,Revaluation
669,650,8322,memory,1522,False,./assets/img/ocean/memory/2.jpg,ocean,0.0,,False,,87,old,12.95,1,norest,definitely_new,,,,Children,1.0,Control
670,484,10009,memory,2790,False,./assets/img/ocean/memory/2.jpg,ocean,10.0,,True,,4,new,18.53,3,norest,maybe_new,,,,Adults,1.0,Control
671,486,10009,memory,1004,False,./assets/img/canyon/memory/7.jpg,canyon,10.0,,True,,5,old,18.53,3,norest,definitely_old,,,,Adults,2.0,Revaluation
672,488,10009,memory,1772,False,./assets/img/canyon/memory/34.jpg,canyon,0.0,,False,,6,old,18.53,3,norest,definitely_new,,,,Adults,2.0,Revaluation
673,490,10009,memory,726,False,./assets/img/canyon/memory/30.jpg,canyon,10.0,,True,,7,new,18.53,3,norest,definitely_new,,,,Adults,2.0,Revaluation
674,492,10009,memory,1182,False,./assets/img/ocean/memory/13.jpg,ocean,0.0,,False,,8,new,18.53,3,norest,definitely_old,,,,Adults,1.0,Control
675,494,10009,memory,1381,False,./assets/img/ocean/memory/24.jpg,ocean,10.0,,True,,9,old,18.53,3,norest,definitely_old,,,,Adults,1.0,Control
676,496,10009,memory,792,False,./assets/img/ocean/memory/1.jpg,ocean,10.0,,True,,10,old,18.53,3,norest,definitely_old,,,,Adults,1.0,Control
677,498,10009,memory,1229,False,./assets/img/canyon/memory/19.jpg,canyon,10.0,,True,,11,new,18.53,3,norest,definitely_new,,,,Adults,2.0,Revaluation
678,500,10009,memory,1433,False,./assets/img/canyon/memory/35.jpg,canyon,10.0,,True,,12,new,18.53,3,norest,definitely_new,,,,Adults,2.0,Revaluation
679,502,10009,memory,1895,False,./assets/img/ocean/memory/33.jpg,ocean,0.0,,False,,13,new,18.53,3,norest,maybe_old,,,,Adults,1.0,Control
680,504,10009,memory,1701,False,./assets/img/canyon/memory/31.jpg,canyon,10.0,,True,,14,new,18.53,3,norest,definitely_new,,,,Adults,2.0,Revaluation
681,506,10009,memory,1214,False,./assets/img/ocean/memory/36.jpg,ocean,10.0,,True,,15,old,18.53,3,norest,definitely_old,,,,Adults,1.0,Control
682,508,10009,memory,1717,False,./assets/img/canyon/memory/6.jpg,canyon,0.0,,False,,16,new,18.53,3,norest,definitely_old,,,,Adults,2.0,Revaluation
683,510,10009,memory,1732,False,./assets/img/ocean/memory/40.jpg,ocean,10.0,,True,,17,new,18.53,3,norest,definitely_new,,,,Adults,1.0,Control
684,512,10009,memory,1363,False,./assets/img/canyon/memory/9.jpg,canyon,10.0,,True,,18,new,18.53,3,norest,definitely_new,,,,Adults,2.0,Revaluation
685,514,10009,memory,967,False,./assets/img/ocean/memory/19.jpg,ocean,0.0,,False,,19,old,18.53,3,norest,definitely_new,,,,Adults,1.0,Control
686,516,10009,memory,1546,False,./assets/img/ocean/memory/30.jpg,ocean,10.0,,True,,20,new,18.53,3,norest,definitely_new,,,,Adults,1.0,Control
687,518,10009,memory,1502,False,./assets/img/canyon/memory/24.jpg,canyon,10.0,,True,,21,old,18.53,3,norest,definitely_old,,,,Adults,2.0,Revaluation
688,520,10009,memory,2050,False,./assets/img/ocean/memory/12.jpg,ocean,10.0,,True,,22,new,18.53,3,norest,maybe_new,,,,Adults,1.0,Control
689,522,10009,memory,2013,False,./assets/img/canyon/memory/15.jpg,canyon,0.0,,False,,23,new,18.53,3,norest,maybe_old,,,,Adults,2.0,Revaluation
690,524,10009,memory,1358,False,./assets/img/ocean/memory/29.jpg,ocean,10.0,,True,,24,old,18.53,3,norest,definitely_old,,,,Adults,1.0,Control
691,526,10009,memory,2091,False,./assets/img/ocean/memory/22.jpg,ocean,10.0,,True,,25,new,18.53,3,norest,maybe_new,,,,Adults,1.0,Control
692,528,10009,memory,1551,False,./assets/img/ocean/memory/4.jpg,ocean,10.0,,True,,26,new,18.53,3,norest,definitely_new,,,,Adults,1.0,Control
693,530,10009,memory,974,False,./assets/img/ocean/memory/25.jpg,ocean,0.0,,False,,27,old,18.53,3,norest,definitely_new,,,,Adults,1.0,Control
694,532,10009,memory,1300,False,./assets/img/ocean/memory/18.jpg,ocean,10.0,,True,,28,new,18.53,3,norest,definitely_new,,,,Adults,1.0,Control
695,534,10009,memory,1100,False,./assets/img/canyon/memory/28.jpg,canyon,10.0,,True,,29,old,18.53,3,norest,definitely_old,,,,Adults,2.0,Revaluation
696,536,10009,memory,1596,False,./assets/img/canyon/memory/41.jpg,canyon,0.0,,False,,30,old,18.53,3,norest,definitely_new,,,,Adults,2.0,Revaluation
697,538,10009,memory,1179,False,./assets/img/ocean/memory/6.jpg,ocean,0.0,,False,,31,old,18.53,3,norest,definitely_new,,,,Adults,1.0,Control
