,index,subject_id,task_part,rt,timeout,stimulus,environment,score,isCatch,correct,block_condition,block_order,rewardMap,trial_num,ground_truth,age,subject_condition,rest,response0,response1,is_optimal_first,is_optimal_second,categorical_age,trial
51,220,10608,revaluation,[384.1000000089407],False,./assets/img/ocean/animals/seahorse.jpg,ocean,10.0,,False,Control,1.0,"{""ArrowUp,ArrowLeft"":23,""ArrowUp,ArrowRight"":10,""ArrowDown,ArrowLeft"":8,""ArrowDown,ArrowRight"":30}",1,,8.62,3,norest,ArrowRight,,,,Children,1
52,222,10608,revaluation,[396.8999999910593],False,./assets/img/ocean/animals/seahorse.jpg,ocean,23.0,,True,Control,1.0,"{""ArrowUp,ArrowLeft"":23,""ArrowUp,ArrowRight"":10,""ArrowDown,ArrowLeft"":8,""ArrowDown,ArrowRight"":30}",2,,8.62,3,norest,ArrowLeft,,,,Children,2
53,224,10608,revaluation,[502.59999999403954],False,./assets/img/ocean/animals/seahorse.jpg,ocean,23.0,,True,Control,1.0,"{""ArrowUp,ArrowLeft"":23,""ArrowUp,ArrowRight"":10,""ArrowDown,ArrowLeft"":8,""ArrowDown,ArrowRight"":30}",3,,8.62,3,norest,ArrowLeft,,,,Children,3
54,226,10608,revaluation,[918.2000000029802],False,./assets/img/ocean/animals/octopus.jpg,ocean,30.0,,True,Control,1.0,"{""ArrowUp,ArrowLeft"":23,""ArrowUp,ArrowRight"":10,""ArrowDown,ArrowLeft"":8,""ArrowDown,ArrowRight"":30}",4,,8.62,3,norest,ArrowRight,,,,Children,0
56,230,10608,revaluation,[630.4000000059605],False,./assets/img/ocean/animals/octopus.jpg,ocean,30.0,,True,Control,1.0,"{""ArrowUp,ArrowLeft"":23,""ArrowUp,ArrowRight"":10,""ArrowDown,ArrowLeft"":8,""ArrowDown,ArrowRight"":30}",6,,8.62,3,norest,ArrowRight,,,,Children,2
57,232,10608,revaluation,[1350.5999999940395],False,./assets/img/ocean/animals/octopus.jpg,ocean,30.0,,True,Control,1.0,"{""ArrowUp,ArrowLeft"":23,""ArrowUp,ArrowRight"":10,""ArrowDown,ArrowLeft"":8,""ArrowDown,ArrowRight"":30}",7,,8.62,3,norest,ArrowRight,,,,Children,3
58,234,10608,revaluation,[829.9000000059605],False,./assets/img/ocean/animals/seahorse.jpg,ocean,23.0,,True,Control,1.0,"{""ArrowUp,ArrowLeft"":23,""ArrowUp,ArrowRight"":10,""ArrowDown,ArrowLeft"":8,""ArrowDown,ArrowRight"":30}",8,,8.62,3,norest,ArrowLeft,,,,Children,4
59,236,10608,revaluation,[1369.7000000029802],False,./assets/img/ocean/animals/seahorse.jpg,ocean,23.0,,True,Control,1.0,"{""ArrowUp,ArrowLeft"":23,""ArrowUp,ArrowRight"":10,""ArrowDown,ArrowLeft"":8,""ArrowDown,ArrowRight"":30}",9,,8.62,3,norest,ArrowLeft,,,,Children,5
60,238,10608,revaluation,[1225.5999999940395],False,./assets/img/ocean/animals/seahorse.jpg,ocean,23.0,,True,Control,1.0,"{""ArrowUp,ArrowLeft"":23,""ArrowUp,ArrowRight"":10,""ArrowDown,ArrowLeft"":8,""ArrowDown,ArrowRight"":30}",10,,8.62,3,norest,ArrowLeft,,,,Children,6
61,240,10608,revaluation,[627.4000000059605],False,./assets/img/ocean/animals/octopus.jpg,ocean,30.0,,True,Control,1.0,"{""ArrowUp,ArrowLeft"":23,""ArrowUp,ArrowRight"":10,""ArrowDown,ArrowLeft"":8,""ArrowDown,ArrowRight"":30}",11,,8.62,3,norest,ArrowRight,,,,Children,4
62,242,10608,revaluation,[1088.2999999970198],False,./assets/img/ocean/animals/octopus.jpg,ocean,30.0,,True,Control,1.0,"{""ArrowUp,ArrowLeft"":23,""ArrowUp,ArrowRight"":10,""ArrowDown,ArrowLeft"":8,""ArrowDown,ArrowRight"":30}",12,,8.62,3,norest,ArrowRight,,,,Children,5
63,244,10608,revaluation,[585],False,./assets/img/ocean/animals/octopus.jpg,ocean,30.0,,True,Control,1.0,"{""ArrowUp,ArrowLeft"":23,""ArrowUp,ArrowRight"":10,""ArrowDown,ArrowLeft"":8,""ArrowDown,ArrowRight"":30}",13,,8.62,3,norest,ArrowRight,,,,Children,6
64,246,10608,revaluation,[815.8999999910593],False,./assets/img/ocean/animals/octopus.jpg,ocean,30.0,,True,Control,1.0,"{""ArrowUp,ArrowLeft"":23,""ArrowUp,ArrowRight"":10,""ArrowDown,ArrowLeft"":8,""ArrowDown,ArrowRight"":30}",14,,8.62,3,norest,ArrowRight,,,,Children,7
65,248,10608,revaluation,[487.80000001192093],False,./assets/img/ocean/animals/octopus.jpg,ocean,30.0,,True,Control,1.0,"{""ArrowUp,ArrowLeft"":23,""ArrowUp,ArrowRight"":10,""ArrowDown,ArrowLeft"":8,""ArrowDown,ArrowRight"":30}",15,,8.62,3,norest,ArrowRight,,,,Children,8
66,250,10608,revaluation,[746.3000000119209],False,./assets/img/ocean/animals/seahorse.jpg,ocean,23.0,,True,Control,1.0,"{""ArrowUp,ArrowLeft"":23,""ArrowUp,ArrowRight"":10,""ArrowDown,ArrowLeft"":8,""ArrowDown,ArrowRight"":30}",16,,8.62,3,norest,ArrowLeft,,,,Children,7
67,252,10608,revaluation,[1328.800000011921],False,./assets/img/ocean/animals/seahorse.jpg,ocean,23.0,,True,Control,1.0,"{""ArrowUp,ArrowLeft"":23,""ArrowUp,ArrowRight"":10,""ArrowDown,ArrowLeft"":8,""ArrowDown,ArrowRight"":30}",17,,8.62,3,norest,ArrowLeft,,,,Children,8
131,395,10608,revaluation,[1011.6000000089407],False,./assets/img/canyon/animals/giraffe.jpg,canyon,2.0,,False,Revaluation,2.0,"{""ArrowUp,ArrowLeft"":2,""ArrowUp,ArrowRight"":11,""ArrowDown,ArrowLeft"":8,""ArrowDown,ArrowRight"":27}",1,,8.62,3,norest,ArrowLeft,,,,Children,1
132,397,10608,revaluation,[614.6000000089407],False,./assets/img/canyon/animals/lion.jpg,canyon,8.0,,False,Revaluation,2.0,"{""ArrowUp,ArrowLeft"":2,""ArrowUp,ArrowRight"":11,""ArrowDown,ArrowLeft"":8,""ArrowDown,ArrowRight"":27}",2,,8.62,3,norest,ArrowLeft,,,,Children,0
133,399,10608,revaluation,[364.29999999701977],False,./assets/img/canyon/animals/lion.jpg,canyon,27.0,,True,Revaluation,2.0,"{""ArrowUp,ArrowLeft"":2,""ArrowUp,ArrowRight"":11,""ArrowDown,ArrowLeft"":8,""ArrowDown,ArrowRight"":27}",3,,8.62,3,norest,ArrowRight,,,,Children,1
134,401,10608,revaluation,[596.8000000119209],False,./assets/img/canyon/animals/giraffe.jpg,canyon,11.0,,True,Revaluation,2.0,"{""ArrowUp,ArrowLeft"":2,""ArrowUp,ArrowRight"":11,""ArrowDown,ArrowLeft"":8,""ArrowDown,ArrowRight"":27}",4,,8.62,3,norest,ArrowRight,,,,Children,2
135,403,10608,revaluation,[1.1000000089406967],False,./assets/img/canyon/animals/lion.jpg,canyon,27.0,,True,Revaluation,2.0,"{""ArrowUp,ArrowLeft"":2,""ArrowUp,ArrowRight"":11,""ArrowDown,ArrowLeft"":8,""ArrowDown,ArrowRight"":27}",5,,8.62,3,norest,ArrowRight,,,,Children,2
136,405,10608,revaluation,[30.200000002980232],False,./assets/img/canyon/animals/giraffe.jpg,canyon,11.0,,True,Revaluation,2.0,"{""ArrowUp,ArrowLeft"":2,""ArrowUp,ArrowRight"":11,""ArrowDown,ArrowLeft"":8,""ArrowDown,ArrowRight"":27}",6,,8.62,3,norest,ArrowRight,,,,Children,3
137,407,10608,revaluation,[6.899999991059303],False,./assets/img/canyon/animals/giraffe.jpg,canyon,11.0,,True,Revaluation,2.0,"{""ArrowUp,ArrowLeft"":2,""ArrowUp,ArrowRight"":11,""ArrowDown,ArrowLeft"":8,""ArrowDown,ArrowRight"":27}",7,,8.62,3,norest,ArrowRight,,,,Children,4
138,409,10608,revaluation,[29.799999997019768],False,./assets/img/canyon/animals/giraffe.jpg,canyon,11.0,,True,Revaluation,2.0,"{""ArrowUp,ArrowLeft"":2,""ArrowUp,ArrowRight"":11,""ArrowDown,ArrowLeft"":8,""ArrowDown,ArrowRight"":27}",8,,8.62,3,norest,ArrowRight,,,,Children,5
139,411,10608,revaluation,[16.700000002980232],False,./assets/img/canyon/animals/giraffe.jpg,canyon,11.0,,True,Revaluation,2.0,"{""ArrowUp,ArrowLeft"":2,""ArrowUp,ArrowRight"":11,""ArrowDown,ArrowLeft"":8,""ArrowDown,ArrowRight"":27}",9,,8.62,3,norest,ArrowRight,,,,Children,6
140,413,10608,revaluation,[25.5],False,./assets/img/canyon/animals/lion.jpg,canyon,27.0,,True,Revaluation,2.0,"{""ArrowUp,ArrowLeft"":2,""ArrowUp,ArrowRight"":11,""ArrowDown,ArrowLeft"":8,""ArrowDown,ArrowRight"":27}",10,,8.62,3,norest,ArrowRight,,,,Children,3
141,415,10608,revaluation,[15.099999994039536],False,./assets/img/canyon/animals/lion.jpg,canyon,27.0,,True,Revaluation,2.0,"{""ArrowUp,ArrowLeft"":2,""ArrowUp,ArrowRight"":11,""ArrowDown,ArrowLeft"":8,""ArrowDown,ArrowRight"":27}",11,,8.62,3,norest,ArrowRight,,,,Children,4
142,417,10608,revaluation,[0.6000000089406967],False,./assets/img/canyon/animals/giraffe.jpg,canyon,11.0,,True,Revaluation,2.0,"{""ArrowUp,ArrowLeft"":2,""ArrowUp,ArrowRight"":11,""ArrowDown,ArrowLeft"":8,""ArrowDown,ArrowRight"":27}",12,,8.62,3,norest,ArrowRight,,,,Children,7
143,419,10608,revaluation,[15.200000002980232],False,./assets/img/canyon/animals/lion.jpg,canyon,27.0,,True,Revaluation,2.0,"{""ArrowUp,ArrowLeft"":2,""ArrowUp,ArrowRight"":11,""ArrowDown,ArrowLeft"":8,""ArrowDown,ArrowRight"":27}",13,,8.62,3,norest,ArrowRight,,,,Children,5
144,421,10608,revaluation,[2.4000000059604645],False,./assets/img/canyon/animals/lion.jpg,canyon,27.0,,True,Revaluation,2.0,"{""ArrowUp,ArrowLeft"":2,""ArrowUp,ArrowRight"":11,""ArrowDown,ArrowLeft"":8,""ArrowDown,ArrowRight"":27}",14,,8.62,3,norest,ArrowRight,,,,Children,6
145,423,10608,revaluation,[11.100000008940697],False,./assets/img/canyon/animals/giraffe.jpg,canyon,11.0,,True,Revaluation,2.0,"{""ArrowUp,ArrowLeft"":2,""ArrowUp,ArrowRight"":11,""ArrowDown,ArrowLeft"":8,""ArrowDown,ArrowRight"":27}",15,,8.62,3,norest,ArrowRight,,,,Children,8
146,425,10608,revaluation,[27.200000002980232],False,./assets/img/canyon/animals/lion.jpg,canyon,27.0,,True,Revaluation,2.0,"{""ArrowUp,ArrowLeft"":2,""ArrowUp,ArrowRight"":11,""ArrowDown,ArrowLeft"":8,""ArrowDown,ArrowRight"":27}",16,,8.62,3,norest,ArrowRight,,,,Children,7
147,427,10608,revaluation,[10.299999997019768],False,./assets/img/canyon/animals/lion.jpg,canyon,27.0,,True,Revaluation,2.0,"{""ArrowUp,ArrowLeft"":2,""ArrowUp,ArrowRight"":11,""ArrowDown,ArrowLeft"":8,""ArrowDown,ArrowRight"":27}",17,,8.62,3,norest,ArrowRight,,,,Children,8
298,220,11405,revaluation,[945.6999999997206],False,./assets/img/canyon/animals/giraffe.jpg,canyon,2.0,,False,Revaluation,1.0,"{""ArrowUp,ArrowLeft"":2,""ArrowUp,ArrowRight"":11,""ArrowDown,ArrowLeft"":8,""ArrowDown,ArrowRight"":27}",0,,7.54,8,norest,ArrowLeft,,,,Children,0
299,222,11405,revaluation,[407.89999999990687],False,./assets/img/canyon/animals/giraffe.jpg,canyon,11.0,,True,Revaluation,1.0,"{""ArrowUp,ArrowLeft"":2,""ArrowUp,ArrowRight"":11,""ArrowDown,ArrowLeft"":8,""ArrowDown,ArrowRight"":27}",1,,7.54,8,norest,ArrowRight,,,,Children,1
300,224,11405,revaluation,[1047.9000000003725],False,./assets/img/canyon/animals/lion.jpg,canyon,27.0,,True,Revaluation,1.0,"{""ArrowUp,ArrowLeft"":2,""ArrowUp,ArrowRight"":11,""ArrowDown,ArrowLeft"":8,""ArrowDown,ArrowRight"":27}",2,,7.54,8,norest,ArrowRight,,,,Children,0
301,226,11405,revaluation,[615.6999999997206],False,./assets/img/canyon/animals/lion.jpg,canyon,27.0,,True,Revaluation,1.0,"{""ArrowUp,ArrowLeft"":2,""ArrowUp,ArrowRight"":11,""ArrowDown,ArrowLeft"":8,""ArrowDown,ArrowRight"":27}",3,,7.54,8,norest,ArrowRight,,,,Children,1
302,228,11405,revaluation,[544.2999999998137],False,./assets/img/canyon/animals/giraffe.jpg,canyon,2.0,,False,Revaluation,1.0,"{""ArrowUp,ArrowLeft"":2,""ArrowUp,ArrowRight"":11,""ArrowDown,ArrowLeft"":8,""ArrowDown,ArrowRight"":27}",4,,7.54,8,norest,ArrowLeft,,,,Children,2
303,230,11405,revaluation,[635.2000000001863],False,./assets/img/canyon/animals/lion.jpg,canyon,8.0,,False,Revaluation,1.0,"{""ArrowUp,ArrowLeft"":2,""ArrowUp,ArrowRight"":11,""ArrowDown,ArrowLeft"":8,""ArrowDown,ArrowRight"":27}",5,,7.54,8,norest,ArrowLeft,,,,Children,2
304,232,11405,revaluation,[1468.8999999999069],False,./assets/img/canyon/animals/giraffe.jpg,canyon,11.0,,True,Revaluation,1.0,"{""ArrowUp,ArrowLeft"":2,""ArrowUp,ArrowRight"":11,""ArrowDown,ArrowLeft"":8,""ArrowDown,ArrowRight"":27}",6,,7.54,8,norest,ArrowRight,,,,Children,3
305,234,11405,revaluation,[806.2000000001863],False,./assets/img/canyon/animals/lion.jpg,canyon,27.0,,True,Revaluation,1.0,"{""ArrowUp,ArrowLeft"":2,""ArrowUp,ArrowRight"":11,""ArrowDown,ArrowLeft"":8,""ArrowDown,ArrowRight"":27}",7,,7.54,8,norest,ArrowRight,,,,Children,3
306,236,11405,revaluation,[459],False,./assets/img/canyon/animals/lion.jpg,canyon,27.0,,True,Revaluation,1.0,"{""ArrowUp,ArrowLeft"":2,""ArrowUp,ArrowRight"":11,""ArrowDown,ArrowLeft"":8,""ArrowDown,ArrowRight"":27}",8,,7.54,8,norest,ArrowRight,,,,Children,4
307,238,11405,revaluation,[715.9000000003725],False,./assets/img/canyon/animals/giraffe.jpg,canyon,11.0,,True,Revaluation,1.0,"{""ArrowUp,ArrowLeft"":2,""ArrowUp,ArrowRight"":11,""ArrowDown,ArrowLeft"":8,""ArrowDown,ArrowRight"":27}",9,,7.54,8,norest,ArrowRight,,,,Children,4
308,240,11405,revaluation,[661.2999999998137],False,./assets/img/canyon/animals/giraffe.jpg,canyon,11.0,,True,Revaluation,1.0,"{""ArrowUp,ArrowLeft"":2,""ArrowUp,ArrowRight"":11,""ArrowDown,ArrowLeft"":8,""ArrowDown,ArrowRight"":27}",10,,7.54,8,norest,ArrowRight,,,,Children,5
309,242,11405,revaluation,[899.0999999996275],False,./assets/img/canyon/animals/giraffe.jpg,canyon,11.0,,True,Revaluation,1.0,"{""ArrowUp,ArrowLeft"":2,""ArrowUp,ArrowRight"":11,""ArrowDown,ArrowLeft"":8,""ArrowDown,ArrowRight"":27}",11,,7.54,8,norest,ArrowRight,,,,Children,6
310,244,11405,revaluation,[513.7999999998137],False,./assets/img/canyon/animals/giraffe.jpg,canyon,11.0,,True,Revaluation,1.0,"{""ArrowUp,ArrowLeft"":2,""ArrowUp,ArrowRight"":11,""ArrowDown,ArrowLeft"":8,""ArrowDown,ArrowRight"":27}",12,,7.54,8,norest,ArrowRight,,,,Children,7
311,246,11405,revaluation,[501.60000000009313],False,./assets/img/canyon/animals/lion.jpg,canyon,27.0,,True,Revaluation,1.0,"{""ArrowUp,ArrowLeft"":2,""ArrowUp,ArrowRight"":11,""ArrowDown,ArrowLeft"":8,""ArrowDown,ArrowRight"":27}",13,,7.54,8,norest,ArrowRight,,,,Children,5
312,248,11405,revaluation,[486.5],False,./assets/img/canyon/animals/lion.jpg,canyon,27.0,,True,Revaluation,1.0,"{""ArrowUp,ArrowLeft"":2,""ArrowUp,ArrowRight"":11,""ArrowDown,ArrowLeft"":8,""ArrowDown,ArrowRight"":27}",14,,7.54,8,norest,ArrowRight,,,,Children,6
313,250,11405,revaluation,[616.8000000002794],False,./assets/img/canyon/animals/lion.jpg,canyon,27.0,,True,Revaluation,1.0,"{""ArrowUp,ArrowLeft"":2,""ArrowUp,ArrowRight"":11,""ArrowDown,ArrowLeft"":8,""ArrowDown,ArrowRight"":27}",15,,7.54,8,norest,ArrowRight,,,,Children,7
314,252,11405,revaluation,[501.39999999990687],False,./assets/img/canyon/animals/giraffe.jpg,canyon,11.0,,True,Revaluation,1.0,"{""ArrowUp,ArrowLeft"":2,""ArrowUp,ArrowRight"":11,""ArrowDown,ArrowLeft"":8,""ArrowDown,ArrowRight"":27}",16,,7.54,8,norest,ArrowRight,,,,Children,8
315,254,11405,revaluation,[1122.8999999999069],False,./assets/img/canyon/animals/lion.jpg,canyon,27.0,,True,Revaluation,1.0,"{""ArrowUp,ArrowLeft"":2,""ArrowUp,ArrowRight"":11,""ArrowDown,ArrowLeft"":8,""ArrowDown,ArrowRight"":27}",17,,7.54,8,norest,ArrowRight,,,,Children,8
378,395,11405,revaluation,[1060.1999999997206],False,./assets/img/ocean/animals/seahorse.jpg,ocean,30.0,,True,Control,2.0,"{""ArrowUp,ArrowLeft"":23,""ArrowUp,ArrowRight"":10,""ArrowDown,ArrowLeft"":8,""ArrowDown,ArrowRight"":30}",0,,7.54,8,norest,ArrowRight,,,,Children,0
379,397,11405,revaluation,[385.10000000009313],False,./assets/img/ocean/animals/octopus.jpg,ocean,23.0,,True,Control,2.0,"{""ArrowUp,ArrowLeft"":23,""ArrowUp,ArrowRight"":10,""ArrowDown,ArrowLeft"":8,""ArrowDown,ArrowRight"":30}",1,,7.54,8,norest,ArrowLeft,,,,Children,0
380,399,11405,revaluation,[579.5],False,./assets/img/ocean/animals/seahorse.jpg,ocean,30.0,,True,Control,2.0,"{""ArrowUp,ArrowLeft"":23,""ArrowUp,ArrowRight"":10,""ArrowDown,ArrowLeft"":8,""ArrowDown,ArrowRight"":30}",2,,7.54,8,norest,ArrowRight,,,,Children,1
381,401,11405,revaluation,[931.7000000001863],False,./assets/img/ocean/animals/octopus.jpg,ocean,10.0,,False,Control,2.0,"{""ArrowUp,ArrowLeft"":23,""ArrowUp,ArrowRight"":10,""ArrowDown,ArrowLeft"":8,""ArrowDown,ArrowRight"":30}",3,,7.54,8,norest,ArrowRight,,,,Children,1
382,403,11405,revaluation,[684.6000000000931],False,./assets/img/ocean/animals/seahorse.jpg,ocean,8.0,,False,Control,2.0,"{""ArrowUp,ArrowLeft"":23,""ArrowUp,ArrowRight"":10,""ArrowDown,ArrowLeft"":8,""ArrowDown,ArrowRight"":30}",4,,7.54,8,norest,ArrowLeft,,,,Children,2
383,405,11405,revaluation,[503.5],False,./assets/img/ocean/animals/seahorse.jpg,ocean,30.0,,True,Control,2.0,"{""ArrowUp,ArrowLeft"":23,""ArrowUp,ArrowRight"":10,""ArrowDown,ArrowLeft"":8,""ArrowDown,ArrowRight"":30}",5,,7.54,8,norest,ArrowRight,,,,Children,3
384,407,11405,revaluation,[523.3999999999069],False,./assets/img/ocean/animals/seahorse.jpg,ocean,8.0,,False,Control,2.0,"{""ArrowUp,ArrowLeft"":23,""ArrowUp,ArrowRight"":10,""ArrowDown,ArrowLeft"":8,""ArrowDown,ArrowRight"":30}",6,,7.54,8,norest,ArrowLeft,,,,Children,4
385,409,11405,revaluation,[822.1000000000931],False,./assets/img/ocean/animals/seahorse.jpg,ocean,30.0,,True,Control,2.0,"{""ArrowUp,ArrowLeft"":23,""ArrowUp,ArrowRight"":10,""ArrowDown,ArrowLeft"":8,""ArrowDown,ArrowRight"":30}",7,,7.54,8,norest,ArrowRight,,,,Children,5
386,411,11405,revaluation,[922],False,./assets/img/ocean/animals/octopus.jpg,ocean,23.0,,True,Control,2.0,"{""ArrowUp,ArrowLeft"":23,""ArrowUp,ArrowRight"":10,""ArrowDown,ArrowLeft"":8,""ArrowDown,ArrowRight"":30}",8,,7.54,8,norest,ArrowLeft,,,,Children,2
387,413,11405,revaluation,[722],False,./assets/img/ocean/animals/octopus.jpg,ocean,23.0,,True,Control,2.0,"{""ArrowUp,ArrowLeft"":23,""ArrowUp,ArrowRight"":10,""ArrowDown,ArrowLeft"":8,""ArrowDown,ArrowRight"":30}",9,,7.54,8,norest,ArrowLeft,,,,Children,3
388,415,11405,revaluation,[752.6000000000931],False,./assets/img/ocean/animals/octopus.jpg,ocean,23.0,,True,Control,2.0,"{""ArrowUp,ArrowLeft"":23,""ArrowUp,ArrowRight"":10,""ArrowDown,ArrowLeft"":8,""ArrowDown,ArrowRight"":30}",10,,7.54,8,norest,ArrowLeft,,,,Children,4
389,417,11405,revaluation,[622],False,./assets/img/ocean/animals/octopus.jpg,ocean,23.0,,True,Control,2.0,"{""ArrowUp,ArrowLeft"":23,""ArrowUp,ArrowRight"":10,""ArrowDown,ArrowLeft"":8,""ArrowDown,ArrowRight"":30}",11,,7.54,8,norest,ArrowLeft,,,,Children,5
390,419,11405,revaluation,[611.6999999997206],False,./assets/img/ocean/animals/octopus.jpg,ocean,23.0,,True,Control,2.0,"{""ArrowUp,ArrowLeft"":23,""ArrowUp,ArrowRight"":10,""ArrowDown,ArrowLeft"":8,""ArrowDown,ArrowRight"":30}",12,,7.54,8,norest,ArrowLeft,,,,Children,6
391,421,11405,revaluation,[771],False,./assets/img/ocean/animals/seahorse.jpg,ocean,30.0,,True,Control,2.0,"{""ArrowUp,ArrowLeft"":23,""ArrowUp,ArrowRight"":10,""ArrowDown,ArrowLeft"":8,""ArrowDown,ArrowRight"":30}",13,,7.54,8,norest,ArrowRight,,,,Children,6
392,423,11405,revaluation,[835.3999999999069],False,./assets/img/ocean/animals/seahorse.jpg,ocean,30.0,,True,Control,2.0,"{""ArrowUp,ArrowLeft"":23,""ArrowUp,ArrowRight"":10,""ArrowDown,ArrowLeft"":8,""ArrowDown,ArrowRight"":30}",14,,7.54,8,norest,ArrowRight,,,,Children,7
393,425,11405,revaluation,[1715],False,./assets/img/ocean/animals/octopus.jpg,ocean,23.0,,True,Control,2.0,"{""ArrowUp,ArrowLeft"":23,""ArrowUp,ArrowRight"":10,""ArrowDown,ArrowLeft"":8,""ArrowDown,ArrowRight"":30}",15,,7.54,8,norest,ArrowLeft,,,,Children,7
394,427,11405,revaluation,[471.60000000009313],False,./assets/img/ocean/animals/seahorse.jpg,ocean,30.0,,True,Control,2.0,"{""ArrowUp,ArrowLeft"":23,""ArrowUp,ArrowRight"":10,""ArrowDown,ArrowLeft"":8,""ArrowDown,ArrowRight"":30}",16,,7.54,8,norest,ArrowRight,,,,Children,8
395,429,11405,revaluation,[411],False,./assets/img/ocean/animals/octopus.jpg,ocean,23.0,,True,Control,2.0,"{""ArrowUp,ArrowLeft"":23,""ArrowUp,ArrowRight"":10,""ArrowDown,ArrowLeft"":8,""ArrowDown,ArrowRight"":30}",17,,7.54,8,norest,ArrowLeft,,,,Children,8
546,218,8388,revaluation,[1605.7999999970198],False,./assets/img/canyon/animals/lion.jpg,canyon,27.0,,True,Revaluation,1.0,"{""ArrowUp,ArrowLeft"":2,""ArrowUp,ArrowRight"":11,""ArrowDown,ArrowLeft"":8,""ArrowDown,ArrowRight"":27}",0,,8.91,8,norest,ArrowRight,,,,Children,0
547,220,8388,revaluation,[603.8999999985099],False,./assets/img/canyon/animals/lion.jpg,canyon,27.0,,True,Revaluation,1.0,"{""ArrowUp,ArrowLeft"":2,""ArrowUp,ArrowRight"":11,""ArrowDown,ArrowLeft"":8,""ArrowDown,ArrowRight"":27}",1,,8.91,8,norest,ArrowRight,,,,Children,1
548,222,8388,revaluation,[975.8999999985099],False,./assets/img/canyon/animals/giraffe.jpg,canyon,2.0,,False,Revaluation,1.0,"{""ArrowUp,ArrowLeft"":2,""ArrowUp,ArrowRight"":11,""ArrowDown,ArrowLeft"":8,""ArrowDown,ArrowRight"":27}",2,,8.91,8,norest,ArrowLeft,,,,Children,0
549,224,8388,revaluation,[919.3000000044703],False,./assets/img/canyon/animals/giraffe.jpg,canyon,11.0,,True,Revaluation,1.0,"{""ArrowUp,ArrowLeft"":2,""ArrowUp,ArrowRight"":11,""ArrowDown,ArrowLeft"":8,""ArrowDown,ArrowRight"":27}",3,,8.91,8,norest,ArrowRight,,,,Children,1
550,226,8388,revaluation,[874],False,./assets/img/canyon/animals/giraffe.jpg,canyon,11.0,,True,Revaluation,1.0,"{""ArrowUp,ArrowLeft"":2,""ArrowUp,ArrowRight"":11,""ArrowDown,ArrowLeft"":8,""ArrowDown,ArrowRight"":27}",4,,8.91,8,norest,ArrowRight,,,,Children,2
551,228,8388,revaluation,[894.2999999970198],False,./assets/img/canyon/animals/lion.jpg,canyon,27.0,,True,Revaluation,1.0,"{""ArrowUp,ArrowLeft"":2,""ArrowUp,ArrowRight"":11,""ArrowDown,ArrowLeft"":8,""ArrowDown,ArrowRight"":27}",5,,8.91,8,norest,ArrowRight,,,,Children,2
552,230,8388,revaluation,[661.5],False,./assets/img/canyon/animals/lion.jpg,canyon,27.0,,True,Revaluation,1.0,"{""ArrowUp,ArrowLeft"":2,""ArrowUp,ArrowRight"":11,""ArrowDown,ArrowLeft"":8,""ArrowDown,ArrowRight"":27}",6,,8.91,8,norest,ArrowRight,,,,Children,3
553,232,8388,revaluation,[702.5],False,./assets/img/canyon/animals/giraffe.jpg,canyon,11.0,,True,Revaluation,1.0,"{""ArrowUp,ArrowLeft"":2,""ArrowUp,ArrowRight"":11,""ArrowDown,ArrowLeft"":8,""ArrowDown,ArrowRight"":27}",7,,8.91,8,norest,ArrowRight,,,,Children,3
554,234,8388,revaluation,[596.2000000029802],False,./assets/img/canyon/animals/giraffe.jpg,canyon,11.0,,True,Revaluation,1.0,"{""ArrowUp,ArrowLeft"":2,""ArrowUp,ArrowRight"":11,""ArrowDown,ArrowLeft"":8,""ArrowDown,ArrowRight"":27}",8,,8.91,8,norest,ArrowRight,,,,Children,4
555,236,8388,revaluation,[1275],False,./assets/img/canyon/animals/lion.jpg,canyon,27.0,,True,Revaluation,1.0,"{""ArrowUp,ArrowLeft"":2,""ArrowUp,ArrowRight"":11,""ArrowDown,ArrowLeft"":8,""ArrowDown,ArrowRight"":27}",9,,8.91,8,norest,ArrowRight,,,,Children,4
556,238,8388,revaluation,[870.6999999955297],False,./assets/img/canyon/animals/giraffe.jpg,canyon,11.0,,True,Revaluation,1.0,"{""ArrowUp,ArrowLeft"":2,""ArrowUp,ArrowRight"":11,""ArrowDown,ArrowLeft"":8,""ArrowDown,ArrowRight"":27}",10,,8.91,8,norest,ArrowRight,,,,Children,5
557,240,8388,revaluation,[422.30000000447035],False,./assets/img/canyon/animals/giraffe.jpg,canyon,11.0,,True,Revaluation,1.0,"{""ArrowUp,ArrowLeft"":2,""ArrowUp,ArrowRight"":11,""ArrowDown,ArrowLeft"":8,""ArrowDown,ArrowRight"":27}",11,,8.91,8,norest,ArrowRight,,,,Children,6
558,242,8388,revaluation,[375.59999999403954],False,./assets/img/canyon/animals/lion.jpg,canyon,27.0,,True,Revaluation,1.0,"{""ArrowUp,ArrowLeft"":2,""ArrowUp,ArrowRight"":11,""ArrowDown,ArrowLeft"":8,""ArrowDown,ArrowRight"":27}",12,,8.91,8,norest,ArrowRight,,,,Children,5
559,244,8388,revaluation,[439.20000000298023],False,./assets/img/canyon/animals/lion.jpg,canyon,27.0,,True,Revaluation,1.0,"{""ArrowUp,ArrowLeft"":2,""ArrowUp,ArrowRight"":11,""ArrowDown,ArrowLeft"":8,""ArrowDown,ArrowRight"":27}",13,,8.91,8,norest,ArrowRight,,,,Children,6
560,246,8388,revaluation,[538.5],False,./assets/img/canyon/animals/giraffe.jpg,canyon,11.0,,True,Revaluation,1.0,"{""ArrowUp,ArrowLeft"":2,""ArrowUp,ArrowRight"":11,""ArrowDown,ArrowLeft"":8,""ArrowDown,ArrowRight"":27}",14,,8.91,8,norest,ArrowRight,,,,Children,7
561,248,8388,revaluation,[360.3999999985099],False,./assets/img/canyon/animals/lion.jpg,canyon,27.0,,True,Revaluation,1.0,"{""ArrowUp,ArrowLeft"":2,""ArrowUp,ArrowRight"":11,""ArrowDown,ArrowLeft"":8,""ArrowDown,ArrowRight"":27}",15,,8.91,8,norest,ArrowRight,,,,Children,7
562,250,8388,revaluation,[195.89999999850988],False,./assets/img/canyon/animals/lion.jpg,canyon,27.0,,True,Revaluation,1.0,"{""ArrowUp,ArrowLeft"":2,""ArrowUp,ArrowRight"":11,""ArrowDown,ArrowLeft"":8,""ArrowDown,ArrowRight"":27}",16,,8.91,8,norest,ArrowRight,,,,Children,8
563,252,8388,revaluation,[789.5],False,./assets/img/canyon/animals/giraffe.jpg,canyon,11.0,,True,Revaluation,1.0,"{""ArrowUp,ArrowLeft"":2,""ArrowUp,ArrowRight"":11,""ArrowDown,ArrowLeft"":8,""ArrowDown,ArrowRight"":27}",17,,8.91,8,norest,ArrowRight,,,,Children,8
627,395,8388,revaluation,[581.7000000029802],False,./assets/img/ocean/animals/seahorse.jpg,ocean,30.0,,True,Control,2.0,"{""ArrowUp,ArrowLeft"":23,""ArrowUp,ArrowRight"":10,""ArrowDown,ArrowLeft"":8,""ArrowDown,ArrowRight"":30}",1,,8.91,8,norest,ArrowRight,,,,Children,1
628,397,8388,revaluation,[1056.1999999955297],False,./assets/img/ocean/animals/octopus.jpg,ocean,10.0,,False,Control,2.0,"{""ArrowUp,ArrowLeft"":23,""ArrowUp,ArrowRight"":10,""ArrowDown,ArrowLeft"":8,""ArrowDown,ArrowRight"":30}",2,,8.91,8,norest,ArrowRight,,,,Children,0
629,399,8388,revaluation,[930.3000000044703],False,./assets/img/ocean/animals/octopus.jpg,ocean,23.0,,True,Control,2.0,"{""ArrowUp,ArrowLeft"":23,""ArrowUp,ArrowRight"":10,""ArrowDown,ArrowLeft"":8,""ArrowDown,ArrowRight"":30}",3,,8.91,8,norest,ArrowLeft,,,,Children,1
630,401,8388,revaluation,[1042.5],False,./assets/img/ocean/animals/octopus.jpg,ocean,23.0,,True,Control,2.0,"{""ArrowUp,ArrowLeft"":23,""ArrowUp,ArrowRight"":10,""ArrowDown,ArrowLeft"":8,""ArrowDown,ArrowRight"":30}",4,,8.91,8,norest,ArrowLeft,,,,Children,2
631,403,8388,revaluation,[544.6999999955297],False,./assets/img/ocean/animals/octopus.jpg,ocean,23.0,,True,Control,2.0,"{""ArrowUp,ArrowLeft"":23,""ArrowUp,ArrowRight"":10,""ArrowDown,ArrowLeft"":8,""ArrowDown,ArrowRight"":30}",5,,8.91,8,norest,ArrowLeft,,,,Children,3
632,405,8388,revaluation,[721],False,./assets/img/ocean/animals/octopus.jpg,ocean,23.0,,True,Control,2.0,"{""ArrowUp,ArrowLeft"":23,""ArrowUp,ArrowRight"":10,""ArrowDown,ArrowLeft"":8,""ArrowDown,ArrowRight"":30}",6,,8.91,8,norest,ArrowLeft,,,,Children,4
633,407,8388,revaluation,[920],False,./assets/img/ocean/animals/seahorse.jpg,ocean,30.0,,True,Control,2.0,"{""ArrowUp,ArrowLeft"":23,""ArrowUp,ArrowRight"":10,""ArrowDown,ArrowLeft"":8,""ArrowDown,ArrowRight"":30}",7,,8.91,8,norest,ArrowRight,,,,Children,2
634,409,8388,revaluation,[698.3999999985099],False,./assets/img/ocean/animals/seahorse.jpg,ocean,8.0,,False,Control,2.0,"{""ArrowUp,ArrowLeft"":23,""ArrowUp,ArrowRight"":10,""ArrowDown,ArrowLeft"":8,""ArrowDown,ArrowRight"":30}",8,,8.91,8,norest,ArrowLeft,,,,Children,3
635,411,8388,revaluation,[912.3999999985099],False,./assets/img/ocean/animals/seahorse.jpg,ocean,30.0,,True,Control,2.0,"{""ArrowUp,ArrowLeft"":23,""ArrowUp,ArrowRight"":10,""ArrowDown,ArrowLeft"":8,""ArrowDown,ArrowRight"":30}",9,,8.91,8,norest,ArrowRight,,,,Children,4
636,413,8388,revaluation,[1668.7999999970198],False,./assets/img/ocean/animals/octopus.jpg,ocean,23.0,,True,Control,2.0,"{""ArrowUp,ArrowLeft"":23,""ArrowUp,ArrowRight"":10,""ArrowDown,ArrowLeft"":8,""ArrowDown,ArrowRight"":30}",10,,8.91,8,norest,ArrowLeft,,,,Children,5
637,415,8388,revaluation,[688.8999999985099],False,./assets/img/ocean/animals/seahorse.jpg,ocean,30.0,,True,Control,2.0,"{""ArrowUp,ArrowLeft"":23,""ArrowUp,ArrowRight"":10,""ArrowDown,ArrowLeft"":8,""ArrowDown,ArrowRight"":30}",11,,8.91,8,norest,ArrowRight,,,,Children,5
638,417,8388,revaluation,[634.7999999970198],False,./assets/img/ocean/animals/seahorse.jpg,ocean,30.0,,True,Control,2.0,"{""ArrowUp,ArrowLeft"":23,""ArrowUp,ArrowRight"":10,""ArrowDown,ArrowLeft"":8,""ArrowDown,ArrowRight"":30}",12,,8.91,8,norest,ArrowRight,,,,Children,6
639,419,8388,revaluation,[452.5],False,./assets/img/ocean/animals/seahorse.jpg,ocean,30.0,,True,Control,2.0,"{""ArrowUp,ArrowLeft"":23,""ArrowUp,ArrowRight"":10,""ArrowDown,ArrowLeft"":8,""ArrowDown,ArrowRight"":30}",13,,8.91,8,norest,ArrowRight,,,,Children,7
640,421,8388,revaluation,[625.5],False,./assets/img/ocean/animals/octopus.jpg,ocean,23.0,,True,Control,2.0,"{""ArrowUp,ArrowLeft"":23,""ArrowUp,ArrowRight"":10,""ArrowDown,ArrowLeft"":8,""ArrowDown,ArrowRight"":30}",14,,8.91,8,norest,ArrowLeft,,,,Children,6
641,423,8388,revaluation,[657.3999999985099],False,./assets/img/ocean/animals/seahorse.jpg,ocean,30.0,,True,Control,2.0,"{""ArrowUp,ArrowLeft"":23,""ArrowUp,ArrowRight"":10,""ArrowDown,ArrowLeft"":8,""ArrowDown,ArrowRight"":30}",15,,8.91,8,norest,ArrowRight,,,,Children,8
642,425,8388,revaluation,[1043],False,./assets/img/ocean/animals/octopus.jpg,ocean,23.0,,True,Control,2.0,"{""ArrowUp,ArrowLeft"":23,""ArrowUp,ArrowRight"":10,""ArrowDown,ArrowLeft"":8,""ArrowDown,ArrowRight"":30}",16,,8.91,8,norest,ArrowLeft,,,,Children,7
643,427,8388,revaluation,[926.3999999985099],False,./assets/img/ocean/animals/octopus.jpg,ocean,10.0,,False,Control,2.0,"{""ArrowUp,ArrowLeft"":23,""ArrowUp,ArrowRight"":10,""ArrowDown,ArrowLeft"":8,""ArrowDown,ArrowRight"":30}",17,,8.91,8,norest,ArrowRight,,,,Children,8
794,220,8211,revaluation,[572.1999999880791],False,./assets/img/canyon/animals/lion.jpg,canyon,30.0,,True,Control,1.0,"{""ArrowUp,ArrowLeft"":23,""ArrowUp,ArrowRight"":10,""ArrowDown,ArrowLeft"":8,""ArrowDown,ArrowRight"":30}",0,,22.45,7,norest,ArrowRight,,,,Adults,0
795,222,8211,revaluation,[511.10000002384186],False,./assets/img/canyon/animals/lion.jpg,canyon,30.0,,True,Control,1.0,"{""ArrowUp,ArrowLeft"":23,""ArrowUp,ArrowRight"":10,""ArrowDown,ArrowLeft"":8,""ArrowDown,ArrowRight"":30}",1,,22.45,7,norest,ArrowRight,,,,Adults,1
796,224,8211,revaluation,[584.6999999880791],False,./assets/img/canyon/animals/giraffe.jpg,canyon,23.0,,True,Control,1.0,"{""ArrowUp,ArrowLeft"":23,""ArrowUp,ArrowRight"":10,""ArrowDown,ArrowLeft"":8,""ArrowDown,ArrowRight"":30}",2,,22.45,7,norest,ArrowLeft,,,,Adults,0
797,226,8211,revaluation,[569.3999999761581],False,./assets/img/canyon/animals/giraffe.jpg,canyon,23.0,,True,Control,1.0,"{""ArrowUp,ArrowLeft"":23,""ArrowUp,ArrowRight"":10,""ArrowDown,ArrowLeft"":8,""ArrowDown,ArrowRight"":30}",3,,22.45,7,norest,ArrowLeft,,,,Adults,1
798,228,8211,revaluation,[456.80000001192093],False,./assets/img/canyon/animals/giraffe.jpg,canyon,23.0,,True,Control,1.0,"{""ArrowUp,ArrowLeft"":23,""ArrowUp,ArrowRight"":10,""ArrowDown,ArrowLeft"":8,""ArrowDown,ArrowRight"":30}",4,,22.45,7,norest,ArrowLeft,,,,Adults,2
799,230,8211,revaluation,[440.80000001192093],False,./assets/img/canyon/animals/lion.jpg,canyon,30.0,,True,Control,1.0,"{""ArrowUp,ArrowLeft"":23,""ArrowUp,ArrowRight"":10,""ArrowDown,ArrowLeft"":8,""ArrowDown,ArrowRight"":30}",5,,22.45,7,norest,ArrowRight,,,,Adults,2
800,232,8211,revaluation,[358.69999998807907],False,./assets/img/canyon/animals/lion.jpg,canyon,30.0,,True,Control,1.0,"{""ArrowUp,ArrowLeft"":23,""ArrowUp,ArrowRight"":10,""ArrowDown,ArrowLeft"":8,""ArrowDown,ArrowRight"":30}",6,,22.45,7,norest,ArrowRight,,,,Adults,3
801,234,8211,revaluation,[358],False,./assets/img/canyon/animals/lion.jpg,canyon,30.0,,True,Control,1.0,"{""ArrowUp,ArrowLeft"":23,""ArrowUp,ArrowRight"":10,""ArrowDown,ArrowLeft"":8,""ArrowDown,ArrowRight"":30}",7,,22.45,7,norest,ArrowRight,,,,Adults,4
802,236,8211,revaluation,[304.69999998807907],False,./assets/img/canyon/animals/lion.jpg,canyon,30.0,,True,Control,1.0,"{""ArrowUp,ArrowLeft"":23,""ArrowUp,ArrowRight"":10,""ArrowDown,ArrowLeft"":8,""ArrowDown,ArrowRight"":30}",8,,22.45,7,norest,ArrowRight,,,,Adults,5
803,238,8211,revaluation,[559.3999999761581],False,./assets/img/canyon/animals/giraffe.jpg,canyon,23.0,,True,Control,1.0,"{""ArrowUp,ArrowLeft"":23,""ArrowUp,ArrowRight"":10,""ArrowDown,ArrowLeft"":8,""ArrowDown,ArrowRight"":30}",9,,22.45,7,norest,ArrowLeft,,,,Adults,3
804,240,8211,revaluation,[464.5],False,./assets/img/canyon/animals/lion.jpg,canyon,30.0,,True,Control,1.0,"{""ArrowUp,ArrowLeft"":23,""ArrowUp,ArrowRight"":10,""ArrowDown,ArrowLeft"":8,""ArrowDown,ArrowRight"":30}",10,,22.45,7,norest,ArrowRight,,,,Adults,6
805,242,8211,revaluation,[416.89999997615814],False,./assets/img/canyon/animals/giraffe.jpg,canyon,23.0,,True,Control,1.0,"{""ArrowUp,ArrowLeft"":23,""ArrowUp,ArrowRight"":10,""ArrowDown,ArrowLeft"":8,""ArrowDown,ArrowRight"":30}",11,,22.45,7,norest,ArrowLeft,,,,Adults,4
806,244,8211,revaluation,[429.89999997615814],False,./assets/img/canyon/animals/lion.jpg,canyon,30.0,,True,Control,1.0,"{""ArrowUp,ArrowLeft"":23,""ArrowUp,ArrowRight"":10,""ArrowDown,ArrowLeft"":8,""ArrowDown,ArrowRight"":30}",12,,22.45,7,norest,ArrowRight,,,,Adults,7
807,246,8211,revaluation,[569.8999999761581],False,./assets/img/canyon/animals/giraffe.jpg,canyon,23.0,,True,Control,1.0,"{""ArrowUp,ArrowLeft"":23,""ArrowUp,ArrowRight"":10,""ArrowDown,ArrowLeft"":8,""ArrowDown,ArrowRight"":30}",13,,22.45,7,norest,ArrowLeft,,,,Adults,5
808,248,8211,revaluation,[330],False,./assets/img/canyon/animals/lion.jpg,canyon,30.0,,True,Control,1.0,"{""ArrowUp,ArrowLeft"":23,""ArrowUp,ArrowRight"":10,""ArrowDown,ArrowLeft"":8,""ArrowDown,ArrowRight"":30}",14,,22.45,7,norest,ArrowRight,,,,Adults,8
809,250,8211,revaluation,[632.6999999880791],False,./assets/img/canyon/animals/giraffe.jpg,canyon,23.0,,True,Control,1.0,"{""ArrowUp,ArrowLeft"":23,""ArrowUp,ArrowRight"":10,""ArrowDown,ArrowLeft"":8,""ArrowDown,ArrowRight"":30}",15,,22.45,7,norest,ArrowLeft,,,,Adults,6
810,252,8211,revaluation,[512.6999999880791],False,./assets/img/canyon/animals/giraffe.jpg,canyon,23.0,,True,Control,1.0,"{""ArrowUp,ArrowLeft"":23,""ArrowUp,ArrowRight"":10,""ArrowDown,ArrowLeft"":8,""ArrowDown,ArrowRight"":30}",16,,22.45,7,norest,ArrowLeft,,,,Adults,7
811,254,8211,revaluation,[543.9000000357628],False,./assets/img/canyon/animals/giraffe.jpg,canyon,23.0,,True,Control,1.0,"{""ArrowUp,ArrowLeft"":23,""ArrowUp,ArrowRight"":10,""ArrowDown,ArrowLeft"":8,""ArrowDown,ArrowRight"":30}",17,,22.45,7,norest,ArrowLeft,,,,Adults,8
874,395,8211,revaluation,[928.3000000119209],False,./assets/img/ocean/animals/octopus.jpg,ocean,2.0,,False,Revaluation,2.0,"{""ArrowUp,ArrowLeft"":2,""ArrowUp,ArrowRight"":11,""ArrowDown,ArrowLeft"":8,""ArrowDown,ArrowRight"":27}",0,,22.45,7,norest,ArrowLeft,,,,Adults,0
875,397,8211,revaluation,[774.8000000119209],False,./assets/img/ocean/animals/seahorse.jpg,ocean,8.0,,False,Revaluation,2.0,"{""ArrowUp,ArrowLeft"":2,""ArrowUp,ArrowRight"":11,""ArrowDown,ArrowLeft"":8,""ArrowDown,ArrowRight"":27}",1,,22.45,7,norest,ArrowLeft,,,,Adults,0
876,399,8211,revaluation,[583],False,./assets/img/ocean/animals/seahorse.jpg,ocean,27.0,,True,Revaluation,2.0,"{""ArrowUp,ArrowLeft"":2,""ArrowUp,ArrowRight"":11,""ArrowDown,ArrowLeft"":8,""ArrowDown,ArrowRight"":27}",2,,22.45,7,norest,ArrowRight,,,,Adults,1
877,401,8211,revaluation,[719.5],False,./assets/img/ocean/animals/octopus.jpg,ocean,2.0,,False,Revaluation,2.0,"{""ArrowUp,ArrowLeft"":2,""ArrowUp,ArrowRight"":11,""ArrowDown,ArrowLeft"":8,""ArrowDown,ArrowRight"":27}",3,,22.45,7,norest,ArrowLeft,,,,Adults,1
878,403,8211,revaluation,[1808.5999999642372],False,./assets/img/ocean/animals/octopus.jpg,ocean,2.0,,False,Revaluation,2.0,"{""ArrowUp,ArrowLeft"":2,""ArrowUp,ArrowRight"":11,""ArrowDown,ArrowLeft"":8,""ArrowDown,ArrowRight"":27}",4,,22.45,7,norest,ArrowLeft,,,,Adults,2
879,405,8211,revaluation,[555.6999999880791],False,./assets/img/ocean/animals/seahorse.jpg,ocean,27.0,,True,Revaluation,2.0,"{""ArrowUp,ArrowLeft"":2,""ArrowUp,ArrowRight"":11,""ArrowDown,ArrowLeft"":8,""ArrowDown,ArrowRight"":27}",5,,22.45,7,norest,ArrowRight,,,,Adults,2
880,407,8211,revaluation,[587.1999999880791],False,./assets/img/ocean/animals/seahorse.jpg,ocean,27.0,,True,Revaluation,2.0,"{""ArrowUp,ArrowLeft"":2,""ArrowUp,ArrowRight"":11,""ArrowDown,ArrowLeft"":8,""ArrowDown,ArrowRight"":27}",6,,22.45,7,norest,ArrowRight,,,,Adults,3
881,409,8211,revaluation,[354.30000001192093],False,./assets/img/ocean/animals/octopus.jpg,ocean,11.0,,True,Revaluation,2.0,"{""ArrowUp,ArrowLeft"":2,""ArrowUp,ArrowRight"":11,""ArrowDown,ArrowLeft"":8,""ArrowDown,ArrowRight"":27}",7,,22.45,7,norest,ArrowRight,,,,Adults,3
882,411,8211,revaluation,[380],False,./assets/img/ocean/animals/octopus.jpg,ocean,11.0,,True,Revaluation,2.0,"{""ArrowUp,ArrowLeft"":2,""ArrowUp,ArrowRight"":11,""ArrowDown,ArrowLeft"":8,""ArrowDown,ArrowRight"":27}",8,,22.45,7,norest,ArrowRight,,,,Adults,4
883,413,8211,revaluation,[282.80000001192093],False,./assets/img/ocean/animals/octopus.jpg,ocean,11.0,,True,Revaluation,2.0,"{""ArrowUp,ArrowLeft"":2,""ArrowUp,ArrowRight"":11,""ArrowDown,ArrowLeft"":8,""ArrowDown,ArrowRight"":27}",9,,22.45,7,norest,ArrowRight,,,,Adults,5
884,415,8211,revaluation,[990.3000000119209],False,./assets/img/ocean/animals/octopus.jpg,ocean,11.0,,True,Revaluation,2.0,"{""ArrowUp,ArrowLeft"":2,""ArrowUp,ArrowRight"":11,""ArrowDown,ArrowLeft"":8,""ArrowDown,ArrowRight"":27}",10,,22.45,7,norest,ArrowRight,,,,Adults,6
885,417,8211,revaluation,[368.5999999642372],False,./assets/img/ocean/animals/seahorse.jpg,ocean,27.0,,True,Revaluation,2.0,"{""ArrowUp,ArrowLeft"":2,""ArrowUp,ArrowRight"":11,""ArrowDown,ArrowLeft"":8,""ArrowDown,ArrowRight"":27}",11,,22.45,7,norest,ArrowRight,,,,Adults,4
886,419,8211,revaluation,[432.69999998807907],False,./assets/img/ocean/animals/seahorse.jpg,ocean,27.0,,True,Revaluation,2.0,"{""ArrowUp,ArrowLeft"":2,""ArrowUp,ArrowRight"":11,""ArrowDown,ArrowLeft"":8,""ArrowDown,ArrowRight"":27}",12,,22.45,7,norest,ArrowRight,,,,Adults,5
887,421,8211,revaluation,[415.5],False,./assets/img/ocean/animals/seahorse.jpg,ocean,27.0,,True,Revaluation,2.0,"{""ArrowUp,ArrowLeft"":2,""ArrowUp,ArrowRight"":11,""ArrowDown,ArrowLeft"":8,""ArrowDown,ArrowRight"":27}",13,,22.45,7,norest,ArrowRight,,,,Adults,6
888,423,8211,revaluation,[320.30000001192093],False,./assets/img/ocean/animals/octopus.jpg,ocean,11.0,,True,Revaluation,2.0,"{""ArrowUp,ArrowLeft"":2,""ArrowUp,ArrowRight"":11,""ArrowDown,ArrowLeft"":8,""ArrowDown,ArrowRight"":27}",14,,22.45,7,norest,ArrowRight,,,,Adults,7
889,425,8211,revaluation,[498.60000002384186],False,./assets/img/ocean/animals/seahorse.jpg,ocean,27.0,,True,Revaluation,2.0,"{""ArrowUp,ArrowLeft"":2,""ArrowUp,ArrowRight"":11,""ArrowDown,ArrowLeft"":8,""ArrowDown,ArrowRight"":27}",15,,22.45,7,norest,ArrowRight,,,,Adults,7
890,427,8211,revaluation,[494.7000000476837],False,./assets/img/ocean/animals/octopus.jpg,ocean,2.0,,False,Revaluation,2.0,"{""ArrowUp,ArrowLeft"":2,""ArrowUp,ArrowRight"":11,""ArrowDown,ArrowLeft"":8,""ArrowDown,ArrowRight"":27}",16,,22.45,7,norest,ArrowLeft,,,,Adults,8
891,429,8211,revaluation,[414.19999998807907],False,./assets/img/ocean/animals/seahorse.jpg,ocean,27.0,,True,Revaluation,2.0,"{""ArrowUp,ArrowLeft"":2,""ArrowUp,ArrowRight"":11,""ArrowDown,ArrowLeft"":8,""ArrowDown,ArrowRight"":27}",17,,22.45,7,norest,ArrowRight,,,,Adults,8
1042,218,8469,revaluation,[1871],False,./assets/img/ocean/animals/seahorse.jpg,ocean,10.0,,False,Control,1.0,"{""ArrowUp,ArrowLeft"":23,""ArrowUp,ArrowRight"":10,""ArrowDown,ArrowLeft"":8,""ArrowDown,ArrowRight"":30}",0,,20.88,3,norest,ArrowRight,,,,Adults,0
1043,220,8469,revaluation,[692.5999999046326],False,./assets/img/ocean/animals/octopus.jpg,ocean,30.0,,True,Control,1.0,"{""ArrowUp,ArrowLeft"":23,""ArrowUp,ArrowRight"":10,""ArrowDown,ArrowLeft"":8,""ArrowDown,ArrowRight"":30}",1,,20.88,3,norest,ArrowRight,,,,Adults,0
1044,222,8469,revaluation,[621.8000001907349],False,./assets/img/ocean/animals/octopus.jpg,ocean,30.0,,True,Control,1.0,"{""ArrowUp,ArrowLeft"":23,""ArrowUp,ArrowRight"":10,""ArrowDown,ArrowLeft"":8,""ArrowDown,ArrowRight"":30}",2,,20.88,3,norest,ArrowRight,,,,Adults,1
1045,224,8469,revaluation,[663.6999998092651],False,./assets/img/ocean/animals/seahorse.jpg,ocean,23.0,,True,Control,1.0,"{""ArrowUp,ArrowLeft"":23,""ArrowUp,ArrowRight"":10,""ArrowDown,ArrowLeft"":8,""ArrowDown,ArrowRight"":30}",3,,20.88,3,norest,ArrowLeft,,,,Adults,1
1046,226,8469,revaluation,[1245.5],False,./assets/img/ocean/animals/seahorse.jpg,ocean,23.0,,True,Control,1.0,"{""ArrowUp,ArrowLeft"":23,""ArrowUp,ArrowRight"":10,""ArrowDown,ArrowLeft"":8,""ArrowDown,ArrowRight"":30}",4,,20.88,3,norest,ArrowLeft,,,,Adults,2
1047,228,8469,revaluation,[537.5],False,./assets/img/ocean/animals/octopus.jpg,ocean,30.0,,True,Control,1.0,"{""ArrowUp,ArrowLeft"":23,""ArrowUp,ArrowRight"":10,""ArrowDown,ArrowLeft"":8,""ArrowDown,ArrowRight"":30}",5,,20.88,3,norest,ArrowRight,,,,Adults,2
1048,230,8469,revaluation,[542.1000003814697],False,./assets/img/ocean/animals/octopus.jpg,ocean,30.0,,True,Control,1.0,"{""ArrowUp,ArrowLeft"":23,""ArrowUp,ArrowRight"":10,""ArrowDown,ArrowLeft"":8,""ArrowDown,ArrowRight"":30}",6,,20.88,3,norest,ArrowRight,,,,Adults,3
1049,232,8469,revaluation,[773.4000000953674],False,./assets/img/ocean/animals/seahorse.jpg,ocean,23.0,,True,Control,1.0,"{""ArrowUp,ArrowLeft"":23,""ArrowUp,ArrowRight"":10,""ArrowDown,ArrowLeft"":8,""ArrowDown,ArrowRight"":30}",7,,20.88,3,norest,ArrowLeft,,,,Adults,3
1050,234,8469,revaluation,[526.5999999046326],False,./assets/img/ocean/animals/octopus.jpg,ocean,30.0,,True,Control,1.0,"{""ArrowUp,ArrowLeft"":23,""ArrowUp,ArrowRight"":10,""ArrowDown,ArrowLeft"":8,""ArrowDown,ArrowRight"":30}",8,,20.88,3,norest,ArrowRight,,,,Adults,4
1051,236,8469,revaluation,[573.5999999046326],False,./assets/img/ocean/animals/seahorse.jpg,ocean,23.0,,True,Control,1.0,"{""ArrowUp,ArrowLeft"":23,""ArrowUp,ArrowRight"":10,""ArrowDown,ArrowLeft"":8,""ArrowDown,ArrowRight"":30}",9,,20.88,3,norest,ArrowLeft,,,,Adults,4
1052,238,8469,revaluation,[483.80000019073486],False,./assets/img/ocean/animals/octopus.jpg,ocean,30.0,,True,Control,1.0,"{""ArrowUp,ArrowLeft"":23,""ArrowUp,ArrowRight"":10,""ArrowDown,ArrowLeft"":8,""ArrowDown,ArrowRight"":30}",10,,20.88,3,norest,ArrowRight,,,,Adults,5
1053,240,8469,revaluation,[598.1999998092651],False,./assets/img/ocean/animals/octopus.jpg,ocean,30.0,,True,Control,1.0,"{""ArrowUp,ArrowLeft"":23,""ArrowUp,ArrowRight"":10,""ArrowDown,ArrowLeft"":8,""ArrowDown,ArrowRight"":30}",11,,20.88,3,norest,ArrowRight,,,,Adults,6
1054,242,8469,revaluation,[511.7000002861023],False,./assets/img/ocean/animals/seahorse.jpg,ocean,23.0,,True,Control,1.0,"{""ArrowUp,ArrowLeft"":23,""ArrowUp,ArrowRight"":10,""ArrowDown,ArrowLeft"":8,""ArrowDown,ArrowRight"":30}",12,,20.88,3,norest,ArrowLeft,,,,Adults,5
1055,244,8469,revaluation,[431],False,./assets/img/ocean/animals/octopus.jpg,ocean,30.0,,True,Control,1.0,"{""ArrowUp,ArrowLeft"":23,""ArrowUp,ArrowRight"":10,""ArrowDown,ArrowLeft"":8,""ArrowDown,ArrowRight"":30}",13,,20.88,3,norest,ArrowRight,,,,Adults,7
1056,246,8469,revaluation,[672.5],False,./assets/img/ocean/animals/octopus.jpg,ocean,30.0,,True,Control,1.0,"{""ArrowUp,ArrowLeft"":23,""ArrowUp,ArrowRight"":10,""ArrowDown,ArrowLeft"":8,""ArrowDown,ArrowRight"":30}",14,,20.88,3,norest,ArrowRight,,,,Adults,8
1057,248,8469,revaluation,[588.0999999046326],False,./assets/img/ocean/animals/seahorse.jpg,ocean,23.0,,True,Control,1.0,"{""ArrowUp,ArrowLeft"":23,""ArrowUp,ArrowRight"":10,""ArrowDown,ArrowLeft"":8,""ArrowDown,ArrowRight"":30}",15,,20.88,3,norest,ArrowLeft,,,,Adults,6
1058,250,8469,revaluation,[779.5],False,./assets/img/ocean/animals/seahorse.jpg,ocean,23.0,,True,Control,1.0,"{""ArrowUp,ArrowLeft"":23,""ArrowUp,ArrowRight"":10,""ArrowDown,ArrowLeft"":8,""ArrowDown,ArrowRight"":30}",16,,20.88,3,norest,ArrowLeft,,,,Adults,7
1059,252,8469,revaluation,[586.2000002861023],False,./assets/img/ocean/animals/seahorse.jpg,ocean,23.0,,True,Control,1.0,"{""ArrowUp,ArrowLeft"":23,""ArrowUp,ArrowRight"":10,""ArrowDown,ArrowLeft"":8,""ArrowDown,ArrowRight"":30}",17,,20.88,3,norest,ArrowLeft,,,,Adults,8
1122,393,8469,revaluation,[886.3000001907349],False,./assets/img/canyon/animals/lion.jpg,canyon,27.0,,True,Revaluation,2.0,"{""ArrowUp,ArrowLeft"":2,""ArrowUp,ArrowRight"":11,""ArrowDown,ArrowLeft"":8,""ArrowDown,ArrowRight"":27}",0,,20.88,3,norest,ArrowRight,,,,Adults,0
1123,395,8469,revaluation,[440.6000003814697],False,./assets/img/canyon/animals/giraffe.jpg,canyon,11.0,,True,Revaluation,2.0,"{""ArrowUp,ArrowLeft"":2,""ArrowUp,ArrowRight"":11,""ArrowDown,ArrowLeft"":8,""ArrowDown,ArrowRight"":27}",1,,20.88,3,norest,ArrowRight,,,,Adults,0
1124,397,8469,revaluation,[399],False,./assets/img/canyon/animals/giraffe.jpg,canyon,2.0,,False,Revaluation,2.0,"{""ArrowUp,ArrowLeft"":2,""ArrowUp,ArrowRight"":11,""ArrowDown,ArrowLeft"":8,""ArrowDown,ArrowRight"":27}",2,,20.88,3,norest,ArrowLeft,,,,Adults,1
1125,399,8469,revaluation,[609.6999998092651],False,./assets/img/canyon/animals/giraffe.jpg,canyon,2.0,,False,Revaluation,2.0,"{""ArrowUp,ArrowLeft"":2,""ArrowUp,ArrowRight"":11,""ArrowDown,ArrowLeft"":8,""ArrowDown,ArrowRight"":27}",3,,20.88,3,norest,ArrowLeft,,,,Adults,2
1126,401,8469,revaluation,[499.5],False,./assets/img/canyon/animals/lion.jpg,canyon,27.0,,True,Revaluation,2.0,"{""ArrowUp,ArrowLeft"":2,""ArrowUp,ArrowRight"":11,""ArrowDown,ArrowLeft"":8,""ArrowDown,ArrowRight"":27}",4,,20.88,3,norest,ArrowRight,,,,Adults,1
1127,403,8469,revaluation,[712.0999999046326],False,./assets/img/canyon/animals/lion.jpg,canyon,27.0,,True,Revaluation,2.0,"{""ArrowUp,ArrowLeft"":2,""ArrowUp,ArrowRight"":11,""ArrowDown,ArrowLeft"":8,""ArrowDown,ArrowRight"":27}",5,,20.88,3,norest,ArrowRight,,,,Adults,2
1128,405,8469,revaluation,[582.0999999046326],False,./assets/img/canyon/animals/lion.jpg,canyon,8.0,,False,Revaluation,2.0,"{""ArrowUp,ArrowLeft"":2,""ArrowUp,ArrowRight"":11,""ArrowDown,ArrowLeft"":8,""ArrowDown,ArrowRight"":27}",6,,20.88,3,norest,ArrowLeft,,,,Adults,3
1129,407,8469,revaluation,[584.5],False,./assets/img/canyon/animals/giraffe.jpg,canyon,11.0,,True,Revaluation,2.0,"{""ArrowUp,ArrowLeft"":2,""ArrowUp,ArrowRight"":11,""ArrowDown,ArrowLeft"":8,""ArrowDown,ArrowRight"":27}",7,,20.88,3,norest,ArrowRight,,,,Adults,3
1130,409,8469,revaluation,[481.59999990463257],False,./assets/img/canyon/animals/lion.jpg,canyon,27.0,,True,Revaluation,2.0,"{""ArrowUp,ArrowLeft"":2,""ArrowUp,ArrowRight"":11,""ArrowDown,ArrowLeft"":8,""ArrowDown,ArrowRight"":27}",8,,20.88,3,norest,ArrowRight,,,,Adults,4
1131,411,8469,revaluation,[488.8999996185303],False,./assets/img/canyon/animals/giraffe.jpg,canyon,2.0,,False,Revaluation,2.0,"{""ArrowUp,ArrowLeft"":2,""ArrowUp,ArrowRight"":11,""ArrowDown,ArrowLeft"":8,""ArrowDown,ArrowRight"":27}",9,,20.88,3,norest,ArrowLeft,,,,Adults,4
1132,413,8469,revaluation,[366.5],False,./assets/img/canyon/animals/lion.jpg,canyon,27.0,,True,Revaluation,2.0,"{""ArrowUp,ArrowLeft"":2,""ArrowUp,ArrowRight"":11,""ArrowDown,ArrowLeft"":8,""ArrowDown,ArrowRight"":27}",10,,20.88,3,norest,ArrowRight,,,,Adults,5
1133,415,8469,revaluation,[370.40000009536743],False,./assets/img/canyon/animals/giraffe.jpg,canyon,11.0,,True,Revaluation,2.0,"{""ArrowUp,ArrowLeft"":2,""ArrowUp,ArrowRight"":11,""ArrowDown,ArrowLeft"":8,""ArrowDown,ArrowRight"":27}",11,,20.88,3,norest,ArrowRight,,,,Adults,5
1134,417,8469,revaluation,[473.5],False,./assets/img/canyon/animals/giraffe.jpg,canyon,11.0,,True,Revaluation,2.0,"{""ArrowUp,ArrowLeft"":2,""ArrowUp,ArrowRight"":11,""ArrowDown,ArrowLeft"":8,""ArrowDown,ArrowRight"":27}",12,,20.88,3,norest,ArrowRight,,,,Adults,6
1135,419,8469,revaluation,[515.1999998092651],False,./assets/img/canyon/animals/lion.jpg,canyon,27.0,,True,Revaluation,2.0,"{""ArrowUp,ArrowLeft"":2,""ArrowUp,ArrowRight"":11,""ArrowDown,ArrowLeft"":8,""ArrowDown,ArrowRight"":27}",13,,20.88,3,norest,ArrowRight,,,,Adults,6
1136,421,8469,revaluation,[495.5],False,./assets/img/canyon/animals/giraffe.jpg,canyon,11.0,,True,Revaluation,2.0,"{""ArrowUp,ArrowLeft"":2,""ArrowUp,ArrowRight"":11,""ArrowDown,ArrowLeft"":8,""ArrowDown,ArrowRight"":27}",14,,20.88,3,norest,ArrowRight,,,,Adults,7
1137,423,8469,revaluation,[369.90000009536743],False,./assets/img/canyon/animals/lion.jpg,canyon,27.0,,True,Revaluation,2.0,"{""ArrowUp,ArrowLeft"":2,""ArrowUp,ArrowRight"":11,""ArrowDown,ArrowLeft"":8,""ArrowDown,ArrowRight"":27}",15,,20.88,3,norest,ArrowRight,,,,Adults,7
1138,425,8469,revaluation,[420.2999997138977],False,./assets/img/canyon/animals/giraffe.jpg,canyon,11.0,,True,Revaluation,2.0,"{""ArrowUp,ArrowLeft"":2,""ArrowUp,ArrowRight"":11,""ArrowDown,ArrowLeft"":8,""ArrowDown,ArrowRight"":27}",16,,20.88,3,norest,ArrowRight,,,,Adults,8
1139,427,8469,revaluation,[365],False,./assets/img/canyon/animals/lion.jpg,canyon,27.0,,True,Revaluation,2.0,"{""ArrowUp,ArrowLeft"":2,""ArrowUp,ArrowRight"":11,""ArrowDown,ArrowLeft"":8,""ArrowDown,ArrowRight"":27}",17,,20.88,3,norest,ArrowRight,,,,Adults,8
1290,220,8191,revaluation,[790.8999996185303],False,./assets/img/canyon/animals/lion.jpg,canyon,11.0,,True,Revaluation,1.0,"{""ArrowUp,ArrowLeft"":2,""ArrowUp,ArrowRight"":11,""ArrowDown,ArrowLeft"":8,""ArrowDown,ArrowRight"":27}",0,,15.44,8,norest,ArrowRight,,,,Adolescents,0
1291,222,8191,revaluation,[985.4000005722046],False,./assets/img/canyon/animals/lion.jpg,canyon,2.0,,False,Revaluation,1.0,"{""ArrowUp,ArrowLeft"":2,""ArrowUp,ArrowRight"":11,""ArrowDown,ArrowLeft"":8,""ArrowDown,ArrowRight"":27}",1,,15.44,8,norest,ArrowLeft,,,,Adolescents,1
1292,224,8191,revaluation,[787.8000001907349],False,./assets/img/canyon/animals/lion.jpg,canyon,11.0,,True,Revaluation,1.0,"{""ArrowUp,ArrowLeft"":2,""ArrowUp,ArrowRight"":11,""ArrowDown,ArrowLeft"":8,""ArrowDown,ArrowRight"":27}",2,,15.44,8,norest,ArrowRight,,,,Adolescents,2
1293,226,8191,revaluation,[666.7999992370605],False,./assets/img/canyon/animals/giraffe.jpg,canyon,27.0,,True,Revaluation,1.0,"{""ArrowUp,ArrowLeft"":2,""ArrowUp,ArrowRight"":11,""ArrowDown,ArrowLeft"":8,""ArrowDown,ArrowRight"":27}",3,,15.44,8,norest,ArrowRight,,,,Adolescents,0
1294,228,8191,revaluation,[739.9000005722046],False,./assets/img/canyon/animals/giraffe.jpg,canyon,8.0,,False,Revaluation,1.0,"{""ArrowUp,ArrowLeft"":2,""ArrowUp,ArrowRight"":11,""ArrowDown,ArrowLeft"":8,""ArrowDown,ArrowRight"":27}",4,,15.44,8,norest,ArrowLeft,,,,Adolescents,1
1295,230,8191,revaluation,[407.69999980926514],False,./assets/img/canyon/animals/giraffe.jpg,canyon,27.0,,True,Revaluation,1.0,"{""ArrowUp,ArrowLeft"":2,""ArrowUp,ArrowRight"":11,""ArrowDown,ArrowLeft"":8,""ArrowDown,ArrowRight"":27}",5,,15.44,8,norest,ArrowRight,,,,Adolescents,2
1296,232,8191,revaluation,[918],False,./assets/img/canyon/animals/giraffe.jpg,canyon,27.0,,True,Revaluation,1.0,"{""ArrowUp,ArrowLeft"":2,""ArrowUp,ArrowRight"":11,""ArrowDown,ArrowLeft"":8,""ArrowDown,ArrowRight"":27}",6,,15.44,8,norest,ArrowRight,,,,Adolescents,3
1297,234,8191,revaluation,[749.1000003814697],False,./assets/img/canyon/animals/giraffe.jpg,canyon,27.0,,True,Revaluation,1.0,"{""ArrowUp,ArrowLeft"":2,""ArrowUp,ArrowRight"":11,""ArrowDown,ArrowLeft"":8,""ArrowDown,ArrowRight"":27}",7,,15.44,8,norest,ArrowRight,,,,Adolescents,4
1298,236,8191,revaluation,[362.80000019073486],False,./assets/img/canyon/animals/giraffe.jpg,canyon,27.0,,True,Revaluation,1.0,"{""ArrowUp,ArrowLeft"":2,""ArrowUp,ArrowRight"":11,""ArrowDown,ArrowLeft"":8,""ArrowDown,ArrowRight"":27}",8,,15.44,8,norest,ArrowRight,,,,Adolescents,5
1299,238,8191,revaluation,[533.9000005722046],False,./assets/img/canyon/animals/lion.jpg,canyon,11.0,,True,Revaluation,1.0,"{""ArrowUp,ArrowLeft"":2,""ArrowUp,ArrowRight"":11,""ArrowDown,ArrowLeft"":8,""ArrowDown,ArrowRight"":27}",9,,15.44,8,norest,ArrowRight,,,,Adolescents,3
1300,240,8191,revaluation,[674],False,./assets/img/canyon/animals/giraffe.jpg,canyon,27.0,,True,Revaluation,1.0,"{""ArrowUp,ArrowLeft"":2,""ArrowUp,ArrowRight"":11,""ArrowDown,ArrowLeft"":8,""ArrowDown,ArrowRight"":27}",10,,15.44,8,norest,ArrowRight,,,,Adolescents,6
1301,242,8191,revaluation,[657.8000001907349],False,./assets/img/canyon/animals/giraffe.jpg,canyon,27.0,,True,Revaluation,1.0,"{""ArrowUp,ArrowLeft"":2,""ArrowUp,ArrowRight"":11,""ArrowDown,ArrowLeft"":8,""ArrowDown,ArrowRight"":27}",11,,15.44,8,norest,ArrowRight,,,,Adolescents,7
1302,244,8191,revaluation,[1173.6999998092651],False,./assets/img/canyon/animals/lion.jpg,canyon,11.0,,True,Revaluation,1.0,"{""ArrowUp,ArrowLeft"":2,""ArrowUp,ArrowRight"":11,""ArrowDown,ArrowLeft"":8,""ArrowDown,ArrowRight"":27}",12,,15.44,8,norest,ArrowRight,,,,Adolescents,4
1303,246,8191,revaluation,[675],False,./assets/img/canyon/animals/lion.jpg,canyon,11.0,,True,Revaluation,1.0,"{""ArrowUp,ArrowLeft"":2,""ArrowUp,ArrowRight"":11,""ArrowDown,ArrowLeft"":8,""ArrowDown,ArrowRight"":27}",13,,15.44,8,norest,ArrowRight,,,,Adolescents,5
1304,248,8191,revaluation,[464.0999994277954],False,./assets/img/canyon/animals/lion.jpg,canyon,11.0,,True,Revaluation,1.0,"{""ArrowUp,ArrowLeft"":2,""ArrowUp,ArrowRight"":11,""ArrowDown,ArrowLeft"":8,""ArrowDown,ArrowRight"":27}",14,,15.44,8,norest,ArrowRight,,,,Adolescents,6
1305,250,8191,revaluation,[678.7999992370605],False,./assets/img/canyon/animals/lion.jpg,canyon,11.0,,True,Revaluation,1.0,"{""ArrowUp,ArrowLeft"":2,""ArrowUp,ArrowRight"":11,""ArrowDown,ArrowLeft"":8,""ArrowDown,ArrowRight"":27}",15,,15.44,8,norest,ArrowRight,,,,Adolescents,7
1306,252,8191,revaluation,[503.19999980926514],False,./assets/img/canyon/animals/lion.jpg,canyon,11.0,,True,Revaluation,1.0,"{""ArrowUp,ArrowLeft"":2,""ArrowUp,ArrowRight"":11,""ArrowDown,ArrowLeft"":8,""ArrowDown,ArrowRight"":27}",16,,15.44,8,norest,ArrowRight,,,,Adolescents,8
1307,254,8191,revaluation,[409.19999980926514],False,./assets/img/canyon/animals/giraffe.jpg,canyon,27.0,,True,Revaluation,1.0,"{""ArrowUp,ArrowLeft"":2,""ArrowUp,ArrowRight"":11,""ArrowDown,ArrowLeft"":8,""ArrowDown,ArrowRight"":27}",17,,15.44,8,norest,ArrowRight,,,,Adolescents,8
1370,395,8191,revaluation,[1393.8000001907349],False,./assets/img/ocean/animals/seahorse.jpg,ocean,23.0,,True,Control,2.0,"{""ArrowUp,ArrowLeft"":23,""ArrowUp,ArrowRight"":10,""ArrowDown,ArrowLeft"":8,""ArrowDown,ArrowRight"":30}",0,,15.44,8,norest,ArrowLeft,,,,Adolescents,0
1371,397,8191,revaluation,[726.6000003814697],False,./assets/img/ocean/animals/octopus.jpg,ocean,30.0,,True,Control,2.0,"{""ArrowUp,ArrowLeft"":23,""ArrowUp,ArrowRight"":10,""ArrowDown,ArrowLeft"":8,""ArrowDown,ArrowRight"":30}",1,,15.44,8,norest,ArrowRight,,,,Adolescents,0
1372,399,8191,revaluation,[766.5],False,./assets/img/ocean/animals/octopus.jpg,ocean,30.0,,True,Control,2.0,"{""ArrowUp,ArrowLeft"":23,""ArrowUp,ArrowRight"":10,""ArrowDown,ArrowLeft"":8,""ArrowDown,ArrowRight"":30}",2,,15.44,8,norest,ArrowRight,,,,Adolescents,1
1373,401,8191,revaluation,[746.6999998092651],False,./assets/img/ocean/animals/seahorse.jpg,ocean,23.0,,True,Control,2.0,"{""ArrowUp,ArrowLeft"":23,""ArrowUp,ArrowRight"":10,""ArrowDown,ArrowLeft"":8,""ArrowDown,ArrowRight"":30}",3,,15.44,8,norest,ArrowLeft,,,,Adolescents,1
1374,403,8191,revaluation,[424.19999980926514],False,./assets/img/ocean/animals/octopus.jpg,ocean,30.0,,True,Control,2.0,"{""ArrowUp,ArrowLeft"":23,""ArrowUp,ArrowRight"":10,""ArrowDown,ArrowLeft"":8,""ArrowDown,ArrowRight"":30}",4,,15.44,8,norest,ArrowRight,,,,Adolescents,2
1375,405,8191,revaluation,[1442],False,./assets/img/ocean/animals/octopus.jpg,ocean,30.0,,True,Control,2.0,"{""ArrowUp,ArrowLeft"":23,""ArrowUp,ArrowRight"":10,""ArrowDown,ArrowLeft"":8,""ArrowDown,ArrowRight"":30}",5,,15.44,8,norest,ArrowRight,,,,Adolescents,3
1376,407,8191,revaluation,[913.0999994277954],False,./assets/img/ocean/animals/octopus.jpg,ocean,30.0,,True,Control,2.0,"{""ArrowUp,ArrowLeft"":23,""ArrowUp,ArrowRight"":10,""ArrowDown,ArrowLeft"":8,""ArrowDown,ArrowRight"":30}",6,,15.44,8,norest,ArrowRight,,,,Adolescents,4
1377,409,8191,revaluation,[1237.8000001907349],False,./assets/img/ocean/animals/octopus.jpg,ocean,30.0,,True,Control,2.0,"{""ArrowUp,ArrowLeft"":23,""ArrowUp,ArrowRight"":10,""ArrowDown,ArrowLeft"":8,""ArrowDown,ArrowRight"":30}",7,,15.44,8,norest,ArrowRight,,,,Adolescents,5
1378,411,8191,revaluation,[629.3999996185303],False,./assets/img/ocean/animals/seahorse.jpg,ocean,23.0,,True,Control,2.0,"{""ArrowUp,ArrowLeft"":23,""ArrowUp,ArrowRight"":10,""ArrowDown,ArrowLeft"":8,""ArrowDown,ArrowRight"":30}",8,,15.44,8,norest,ArrowLeft,,,,Adolescents,2
1379,413,8191,revaluation,[686.8000001907349],False,./assets/img/ocean/animals/octopus.jpg,ocean,30.0,,True,Control,2.0,"{""ArrowUp,ArrowLeft"":23,""ArrowUp,ArrowRight"":10,""ArrowDown,ArrowLeft"":8,""ArrowDown,ArrowRight"":30}",9,,15.44,8,norest,ArrowRight,,,,Adolescents,6
1380,415,8191,revaluation,[1554.5],False,./assets/img/ocean/animals/seahorse.jpg,ocean,23.0,,True,Control,2.0,"{""ArrowUp,ArrowLeft"":23,""ArrowUp,ArrowRight"":10,""ArrowDown,ArrowLeft"":8,""ArrowDown,ArrowRight"":30}",10,,15.44,8,norest,ArrowLeft,,,,Adolescents,3
1381,417,8191,revaluation,[764.5],False,./assets/img/ocean/animals/seahorse.jpg,ocean,23.0,,True,Control,2.0,"{""ArrowUp,ArrowLeft"":23,""ArrowUp,ArrowRight"":10,""ArrowDown,ArrowLeft"":8,""ArrowDown,ArrowRight"":30}",11,,15.44,8,norest,ArrowLeft,,,,Adolescents,4
1382,419,8191,revaluation,[994.2999992370605],False,./assets/img/ocean/animals/octopus.jpg,ocean,30.0,,True,Control,2.0,"{""ArrowUp,ArrowLeft"":23,""ArrowUp,ArrowRight"":10,""ArrowDown,ArrowLeft"":8,""ArrowDown,ArrowRight"":30}",12,,15.44,8,norest,ArrowRight,,,,Adolescents,7
1383,421,8191,revaluation,[647.3999996185303],False,./assets/img/ocean/animals/seahorse.jpg,ocean,23.0,,True,Control,2.0,"{""ArrowUp,ArrowLeft"":23,""ArrowUp,ArrowRight"":10,""ArrowDown,ArrowLeft"":8,""ArrowDown,ArrowRight"":30}",13,,15.44,8,norest,ArrowLeft,,,,Adolescents,5
1384,423,8191,revaluation,[1137.5],False,./assets/img/ocean/animals/seahorse.jpg,ocean,23.0,,True,Control,2.0,"{""ArrowUp,ArrowLeft"":23,""ArrowUp,ArrowRight"":10,""ArrowDown,ArrowLeft"":8,""ArrowDown,ArrowRight"":30}",14,,15.44,8,norest,ArrowLeft,,,,Adolescents,6
1385,425,8191,revaluation,[1302.1999998092651],False,./assets/img/ocean/animals/octopus.jpg,ocean,30.0,,True,Control,2.0,"{""ArrowUp,ArrowLeft"":23,""ArrowUp,ArrowRight"":10,""ArrowDown,ArrowLeft"":8,""ArrowDown,ArrowRight"":30}",15,,15.44,8,norest,ArrowRight,,,,Adolescents,8
1386,427,8191,revaluation,[787.8000001907349],False,./assets/img/ocean/animals/seahorse.jpg,ocean,23.0,,True,Control,2.0,"{""ArrowUp,ArrowLeft"":23,""ArrowUp,ArrowRight"":10,""ArrowDown,ArrowLeft"":8,""ArrowDown,ArrowRight"":30}",16,,15.44,8,norest,ArrowLeft,,,,Adolescents,7
1387,429,8191,revaluation,[837.7000007629395],False,./assets/img/ocean/animals/seahorse.jpg,ocean,23.0,,True,Control,2.0,"{""ArrowUp,ArrowLeft"":23,""ArrowUp,ArrowRight"":10,""ArrowDown,ArrowLeft"":8,""ArrowDown,ArrowRight"":30}",17,,15.44,8,norest,ArrowLeft,,,,Adolescents,8
1538,218,9160,revaluation,[1052.3000000044703],False,./assets/img/canyon/animals/lion.jpg,canyon,26.0,,True,Control,1.0,"{""ArrowUp,ArrowLeft"":26,""ArrowUp,ArrowRight"":10,""ArrowDown,ArrowLeft"":5,""ArrowDown,ArrowRight"":17}",0,,15.11,5,norest,ArrowLeft,,,,Adolescents,0
1539,220,9160,revaluation,[451.59999999403954],False,./assets/img/canyon/animals/lion.jpg,canyon,26.0,,True,Control,1.0,"{""ArrowUp,ArrowLeft"":26,""ArrowUp,ArrowRight"":10,""ArrowDown,ArrowLeft"":5,""ArrowDown,ArrowRight"":17}",1,,15.11,5,norest,ArrowLeft,,,,Adolescents,1
1540,222,9160,revaluation,[325.8999999985099],False,./assets/img/canyon/animals/giraffe.jpg,canyon,5.0,,False,Control,1.0,"{""ArrowUp,ArrowLeft"":26,""ArrowUp,ArrowRight"":10,""ArrowDown,ArrowLeft"":5,""ArrowDown,ArrowRight"":17}",2,,15.11,5,norest,ArrowLeft,,,,Adolescents,0
1541,224,9160,revaluation,[281.69999999552965],False,./assets/img/canyon/animals/lion.jpg,canyon,26.0,,True,Control,1.0,"{""ArrowUp,ArrowLeft"":26,""ArrowUp,ArrowRight"":10,""ArrowDown,ArrowLeft"":5,""ArrowDown,ArrowRight"":17}",3,,15.11,5,norest,ArrowLeft,,,,Adolescents,2
1542,226,9160,revaluation,[398.6000000014901],False,./assets/img/canyon/animals/lion.jpg,canyon,26.0,,True,Control,1.0,"{""ArrowUp,ArrowLeft"":26,""ArrowUp,ArrowRight"":10,""ArrowDown,ArrowLeft"":5,""ArrowDown,ArrowRight"":17}",4,,15.11,5,norest,ArrowLeft,,,,Adolescents,3
1543,228,9160,revaluation,[423.79999999701977],False,./assets/img/canyon/animals/giraffe.jpg,canyon,17.0,,True,Control,1.0,"{""ArrowUp,ArrowLeft"":26,""ArrowUp,ArrowRight"":10,""ArrowDown,ArrowLeft"":5,""ArrowDown,ArrowRight"":17}",5,,15.11,5,norest,ArrowRight,,,,Adolescents,1
1544,230,9160,revaluation,[549.3000000044703],False,./assets/img/canyon/animals/giraffe.jpg,canyon,17.0,,True,Control,1.0,"{""ArrowUp,ArrowLeft"":26,""ArrowUp,ArrowRight"":10,""ArrowDown,ArrowLeft"":5,""ArrowDown,ArrowRight"":17}",6,,15.11,5,norest,ArrowRight,,,,Adolescents,2
1545,232,9160,revaluation,[621.7999999970198],False,./assets/img/canyon/animals/giraffe.jpg,canyon,17.0,,True,Control,1.0,"{""ArrowUp,ArrowLeft"":26,""ArrowUp,ArrowRight"":10,""ArrowDown,ArrowLeft"":5,""ArrowDown,ArrowRight"":17}",7,,15.11,5,norest,ArrowRight,,,,Adolescents,3
1546,234,9160,revaluation,[549],False,./assets/img/canyon/animals/lion.jpg,canyon,26.0,,True,Control,1.0,"{""ArrowUp,ArrowLeft"":26,""ArrowUp,ArrowRight"":10,""ArrowDown,ArrowLeft"":5,""ArrowDown,ArrowRight"":17}",8,,15.11,5,norest,ArrowLeft,,,,Adolescents,4
1547,236,9160,revaluation,[398.40000000596046],False,./assets/img/canyon/animals/lion.jpg,canyon,26.0,,True,Control,1.0,"{""ArrowUp,ArrowLeft"":26,""ArrowUp,ArrowRight"":10,""ArrowDown,ArrowLeft"":5,""ArrowDown,ArrowRight"":17}",9,,15.11,5,norest,ArrowLeft,,,,Adolescents,5
1548,238,9160,revaluation,[604.8999999985099],False,./assets/img/canyon/animals/giraffe.jpg,canyon,17.0,,True,Control,1.0,"{""ArrowUp,ArrowLeft"":26,""ArrowUp,ArrowRight"":10,""ArrowDown,ArrowLeft"":5,""ArrowDown,ArrowRight"":17}",10,,15.11,5,norest,ArrowRight,,,,Adolescents,4
1549,240,9160,revaluation,[633.3999999985099],False,./assets/img/canyon/animals/giraffe.jpg,canyon,17.0,,True,Control,1.0,"{""ArrowUp,ArrowLeft"":26,""ArrowUp,ArrowRight"":10,""ArrowDown,ArrowLeft"":5,""ArrowDown,ArrowRight"":17}",11,,15.11,5,norest,ArrowRight,,,,Adolescents,5
1550,242,9160,revaluation,[626.5999999940395],False,./assets/img/canyon/animals/lion.jpg,canyon,26.0,,True,Control,1.0,"{""ArrowUp,ArrowLeft"":26,""ArrowUp,ArrowRight"":10,""ArrowDown,ArrowLeft"":5,""ArrowDown,ArrowRight"":17}",12,,15.11,5,norest,ArrowLeft,,,,Adolescents,6
1551,244,9160,revaluation,[724.5],False,./assets/img/canyon/animals/giraffe.jpg,canyon,17.0,,True,Control,1.0,"{""ArrowUp,ArrowLeft"":26,""ArrowUp,ArrowRight"":10,""ArrowDown,ArrowLeft"":5,""ArrowDown,ArrowRight"":17}",13,,15.11,5,norest,ArrowRight,,,,Adolescents,6
1552,246,9160,revaluation,[525.3000000044703],False,./assets/img/canyon/animals/lion.jpg,canyon,26.0,,True,Control,1.0,"{""ArrowUp,ArrowLeft"":26,""ArrowUp,ArrowRight"":10,""ArrowDown,ArrowLeft"":5,""ArrowDown,ArrowRight"":17}",14,,15.11,5,norest,ArrowLeft,,,,Adolescents,7
1553,248,9160,revaluation,[1245.5],False,./assets/img/canyon/animals/giraffe.jpg,canyon,17.0,,True,Control,1.0,"{""ArrowUp,ArrowLeft"":26,""ArrowUp,ArrowRight"":10,""ArrowDown,ArrowLeft"":5,""ArrowDown,ArrowRight"":17}",15,,15.11,5,norest,ArrowRight,,,,Adolescents,7
1554,250,9160,revaluation,[750.2000000029802],False,./assets/img/canyon/animals/lion.jpg,canyon,26.0,,True,Control,1.0,"{""ArrowUp,ArrowLeft"":26,""ArrowUp,ArrowRight"":10,""ArrowDown,ArrowLeft"":5,""ArrowDown,ArrowRight"":17}",16,,15.11,5,norest,ArrowLeft,,,,Adolescents,8
1555,252,9160,revaluation,[599.4000000059605],False,./assets/img/canyon/animals/giraffe.jpg,canyon,17.0,,True,Control,1.0,"{""ArrowUp,ArrowLeft"":26,""ArrowUp,ArrowRight"":10,""ArrowDown,ArrowLeft"":5,""ArrowDown,ArrowRight"":17}",17,,15.11,5,norest,ArrowRight,,,,Adolescents,8
1618,393,9160,revaluation,[1087.5],False,./assets/img/ocean/animals/seahorse.jpg,ocean,7.0,,False,Revaluation,2.0,"{""ArrowUp,ArrowLeft"":27,""ArrowUp,ArrowRight"":15,""ArrowDown,ArrowLeft"":21,""ArrowDown,ArrowRight"":7}",0,,15.11,5,norest,ArrowRight,,,,Adolescents,0
1619,395,9160,revaluation,[559.5],False,./assets/img/ocean/animals/seahorse.jpg,ocean,21.0,,True,Revaluation,2.0,"{""ArrowUp,ArrowLeft"":27,""ArrowUp,ArrowRight"":15,""ArrowDown,ArrowLeft"":21,""ArrowDown,ArrowRight"":7}",1,,15.11,5,norest,ArrowLeft,,,,Adolescents,1
1620,397,9160,revaluation,[404.20000000298023],False,./assets/img/ocean/animals/octopus.jpg,ocean,27.0,,True,Revaluation,2.0,"{""ArrowUp,ArrowLeft"":27,""ArrowUp,ArrowRight"":15,""ArrowDown,ArrowLeft"":21,""ArrowDown,ArrowRight"":7}",2,,15.11,5,norest,ArrowLeft,,,,Adolescents,0
1621,399,9160,revaluation,[355.5],False,./assets/img/ocean/animals/octopus.jpg,ocean,27.0,,True,Revaluation,2.0,"{""ArrowUp,ArrowLeft"":27,""ArrowUp,ArrowRight"":15,""ArrowDown,ArrowLeft"":21,""ArrowDown,ArrowRight"":7}",3,,15.11,5,norest,ArrowLeft,,,,Adolescents,1
1622,401,9160,revaluation,[594.2999999970198],False,./assets/img/ocean/animals/seahorse.jpg,ocean,21.0,,True,Revaluation,2.0,"{""ArrowUp,ArrowLeft"":27,""ArrowUp,ArrowRight"":15,""ArrowDown,ArrowLeft"":21,""ArrowDown,ArrowRight"":7}",4,,15.11,5,norest,ArrowLeft,,,,Adolescents,2
1623,403,9160,revaluation,[386.8999999985099],False,./assets/img/ocean/animals/seahorse.jpg,ocean,21.0,,True,Revaluation,2.0,"{""ArrowUp,ArrowLeft"":27,""ArrowUp,ArrowRight"":15,""ArrowDown,ArrowLeft"":21,""ArrowDown,ArrowRight"":7}",5,,15.11,5,norest,ArrowLeft,,,,Adolescents,3
1624,405,9160,revaluation,[341],False,./assets/img/ocean/animals/seahorse.jpg,ocean,21.0,,True,Revaluation,2.0,"{""ArrowUp,ArrowLeft"":27,""ArrowUp,ArrowRight"":15,""ArrowDown,ArrowLeft"":21,""ArrowDown,ArrowRight"":7}",6,,15.11,5,norest,ArrowLeft,,,,Adolescents,4
1625,407,9160,revaluation,[868.1999999955297],False,./assets/img/ocean/animals/octopus.jpg,ocean,27.0,,True,Revaluation,2.0,"{""ArrowUp,ArrowLeft"":27,""ArrowUp,ArrowRight"":15,""ArrowDown,ArrowLeft"":21,""ArrowDown,ArrowRight"":7}",7,,15.11,5,norest,ArrowLeft,,,,Adolescents,2
1626,409,9160,revaluation,[592.2999999970198],False,./assets/img/ocean/animals/seahorse.jpg,ocean,21.0,,True,Revaluation,2.0,"{""ArrowUp,ArrowLeft"":27,""ArrowUp,ArrowRight"":15,""ArrowDown,ArrowLeft"":21,""ArrowDown,ArrowRight"":7}",8,,15.11,5,norest,ArrowLeft,,,,Adolescents,5
1627,411,9160,revaluation,[713.5],False,./assets/img/ocean/animals/octopus.jpg,ocean,27.0,,True,Revaluation,2.0,"{""ArrowUp,ArrowLeft"":27,""ArrowUp,ArrowRight"":15,""ArrowDown,ArrowLeft"":21,""ArrowDown,ArrowRight"":7}",9,,15.11,5,norest,ArrowLeft,,,,Adolescents,3
1628,413,9160,revaluation,[613.5],False,./assets/img/ocean/animals/octopus.jpg,ocean,27.0,,True,Revaluation,2.0,"{""ArrowUp,ArrowLeft"":27,""ArrowUp,ArrowRight"":15,""ArrowDown,ArrowLeft"":21,""ArrowDown,ArrowRight"":7}",10,,15.11,5,norest,ArrowLeft,,,,Adolescents,4
1629,415,9160,revaluation,[728.5999999940395],False,./assets/img/ocean/animals/octopus.jpg,ocean,27.0,,True,Revaluation,2.0,"{""ArrowUp,ArrowLeft"":27,""ArrowUp,ArrowRight"":15,""ArrowDown,ArrowLeft"":21,""ArrowDown,ArrowRight"":7}",11,,15.11,5,norest,ArrowLeft,,,,Adolescents,5
1630,417,9160,revaluation,[560.9000000059605],False,./assets/img/ocean/animals/seahorse.jpg,ocean,21.0,,True,Revaluation,2.0,"{""ArrowUp,ArrowLeft"":27,""ArrowUp,ArrowRight"":15,""ArrowDown,ArrowLeft"":21,""ArrowDown,ArrowRight"":7}",12,,15.11,5,norest,ArrowLeft,,,,Adolescents,6
1631,419,9160,revaluation,[479.30000000447035],False,./assets/img/ocean/animals/seahorse.jpg,ocean,21.0,,True,Revaluation,2.0,"{""ArrowUp,ArrowLeft"":27,""ArrowUp,ArrowRight"":15,""ArrowDown,ArrowLeft"":21,""ArrowDown,ArrowRight"":7}",13,,15.11,5,norest,ArrowLeft,,,,Adolescents,7
1632,421,9160,revaluation,[422.3999999985099],False,./assets/img/ocean/animals/octopus.jpg,ocean,27.0,,True,Revaluation,2.0,"{""ArrowUp,ArrowLeft"":27,""ArrowUp,ArrowRight"":15,""ArrowDown,ArrowLeft"":21,""ArrowDown,ArrowRight"":7}",14,,15.11,5,norest,ArrowLeft,,,,Adolescents,6
1633,423,9160,revaluation,[610.3999999985099],False,./assets/img/ocean/animals/seahorse.jpg,ocean,21.0,,True,Revaluation,2.0,"{""ArrowUp,ArrowLeft"":27,""ArrowUp,ArrowRight"":15,""ArrowDown,ArrowLeft"":21,""ArrowDown,ArrowRight"":7}",15,,15.11,5,norest,ArrowLeft,,,,Adolescents,8
1634,425,9160,revaluation,[530.1999999955297],False,./assets/img/ocean/animals/octopus.jpg,ocean,27.0,,True,Revaluation,2.0,"{""ArrowUp,ArrowLeft"":27,""ArrowUp,ArrowRight"":15,""ArrowDown,ArrowLeft"":21,""ArrowDown,ArrowRight"":7}",16,,15.11,5,norest,ArrowLeft,,,,Adolescents,7
1635,427,9160,revaluation,[680.6999999955297],False,./assets/img/ocean/animals/octopus.jpg,ocean,27.0,,True,Revaluation,2.0,"{""ArrowUp,ArrowLeft"":27,""ArrowUp,ArrowRight"":15,""ArrowDown,ArrowLeft"":21,""ArrowDown,ArrowRight"":7}",17,,15.11,5,norest,ArrowLeft,,,,Adolescents,8
1786,218,8322,revaluation,[736.5999999940395],False,./assets/img/ocean/animals/octopus.jpg,ocean,26.0,,True,Control,1.0,"{""ArrowUp,ArrowLeft"":26,""ArrowUp,ArrowRight"":10,""ArrowDown,ArrowLeft"":5,""ArrowDown,ArrowRight"":17}",0,,12.95,1,norest,ArrowLeft,,,,Children,0
1787,220,8322,revaluation,[205.59999999403954],False,./assets/img/ocean/animals/seahorse.jpg,ocean,5.0,,False,Control,1.0,"{""ArrowUp,ArrowLeft"":26,""ArrowUp,ArrowRight"":10,""ArrowDown,ArrowLeft"":5,""ArrowDown,ArrowRight"":17}",1,,12.95,1,norest,ArrowLeft,,,,Children,0
1788,222,8322,revaluation,[601.5],False,./assets/img/ocean/animals/seahorse.jpg,ocean,17.0,,True,Control,1.0,"{""ArrowUp,ArrowLeft"":26,""ArrowUp,ArrowRight"":10,""ArrowDown,ArrowLeft"":5,""ArrowDown,ArrowRight"":17}",2,,12.95,1,norest,ArrowRight,,,,Children,1
1789,224,8322,revaluation,[863.5],False,./assets/img/ocean/animals/seahorse.jpg,ocean,17.0,,True,Control,1.0,"{""ArrowUp,ArrowLeft"":26,""ArrowUp,ArrowRight"":10,""ArrowDown,ArrowLeft"":5,""ArrowDown,ArrowRight"":17}",3,,12.95,1,norest,ArrowRight,,,,Children,2
1790,226,8322,revaluation,[562.5],False,./assets/img/ocean/animals/octopus.jpg,ocean,26.0,,True,Control,1.0,"{""ArrowUp,ArrowLeft"":26,""ArrowUp,ArrowRight"":10,""ArrowDown,ArrowLeft"":5,""ArrowDown,ArrowRight"":17}",4,,12.95,1,norest,ArrowLeft,,,,Children,1
1791,228,8322,revaluation,[407.69999998807907],False,./assets/img/ocean/animals/octopus.jpg,ocean,26.0,,True,Control,1.0,"{""ArrowUp,ArrowLeft"":26,""ArrowUp,ArrowRight"":10,""ArrowDown,ArrowLeft"":5,""ArrowDown,ArrowRight"":17}",5,,12.95,1,norest,ArrowLeft,,,,Children,2
1792,230,8322,revaluation,[404.40000000596046],False,./assets/img/ocean/animals/seahorse.jpg,ocean,17.0,,True,Control,1.0,"{""ArrowUp,ArrowLeft"":26,""ArrowUp,ArrowRight"":10,""ArrowDown,ArrowLeft"":5,""ArrowDown,ArrowRight"":17}",6,,12.95,1,norest,ArrowRight,,,,Children,3
1793,232,8322,revaluation,[686.8000000119209],False,./assets/img/ocean/animals/seahorse.jpg,ocean,17.0,,True,Control,1.0,"{""ArrowUp,ArrowLeft"":26,""ArrowUp,ArrowRight"":10,""ArrowDown,ArrowLeft"":5,""ArrowDown,ArrowRight"":17}",7,,12.95,1,norest,ArrowRight,,,,Children,4
1794,234,8322,revaluation,[648.3000000119209],False,./assets/img/ocean/animals/seahorse.jpg,ocean,17.0,,True,Control,1.0,"{""ArrowUp,ArrowLeft"":26,""ArrowUp,ArrowRight"":10,""ArrowDown,ArrowLeft"":5,""ArrowDown,ArrowRight"":17}",8,,12.95,1,norest,ArrowRight,,,,Children,5
1795,236,8322,revaluation,[653],False,./assets/img/ocean/animals/seahorse.jpg,ocean,17.0,,True,Control,1.0,"{""ArrowUp,ArrowLeft"":26,""ArrowUp,ArrowRight"":10,""ArrowDown,ArrowLeft"":5,""ArrowDown,ArrowRight"":17}",9,,12.95,1,norest,ArrowRight,,,,Children,6
1796,238,8322,revaluation,[928.4000000059605],False,./assets/img/ocean/animals/octopus.jpg,ocean,26.0,,True,Control,1.0,"{""ArrowUp,ArrowLeft"":26,""ArrowUp,ArrowRight"":10,""ArrowDown,ArrowLeft"":5,""ArrowDown,ArrowRight"":17}",10,,12.95,1,norest,ArrowLeft,,,,Children,3
1797,240,8322,revaluation,[474.59999999403954],False,./assets/img/ocean/animals/seahorse.jpg,ocean,17.0,,True,Control,1.0,"{""ArrowUp,ArrowLeft"":26,""ArrowUp,ArrowRight"":10,""ArrowDown,ArrowLeft"":5,""ArrowDown,ArrowRight"":17}",11,,12.95,1,norest,ArrowRight,,,,Children,7
1798,242,8322,revaluation,[514.4000000059605],False,./assets/img/ocean/animals/octopus.jpg,ocean,26.0,,True,Control,1.0,"{""ArrowUp,ArrowLeft"":26,""ArrowUp,ArrowRight"":10,""ArrowDown,ArrowLeft"":5,""ArrowDown,ArrowRight"":17}",12,,12.95,1,norest,ArrowLeft,,,,Children,4
1799,244,8322,revaluation,[934.8000000119209],False,./assets/img/ocean/animals/octopus.jpg,ocean,26.0,,True,Control,1.0,"{""ArrowUp,ArrowLeft"":26,""ArrowUp,ArrowRight"":10,""ArrowDown,ArrowLeft"":5,""ArrowDown,ArrowRight"":17}",13,,12.95,1,norest,ArrowLeft,,,,Children,5
1800,246,8322,revaluation,[1382.5999999940395],False,./assets/img/ocean/animals/octopus.jpg,ocean,26.0,,True,Control,1.0,"{""ArrowUp,ArrowLeft"":26,""ArrowUp,ArrowRight"":10,""ArrowDown,ArrowLeft"":5,""ArrowDown,ArrowRight"":17}",14,,12.95,1,norest,ArrowLeft,,,,Children,6
1801,248,8322,revaluation,[528.7000000178814],False,./assets/img/ocean/animals/seahorse.jpg,ocean,17.0,,True,Control,1.0,"{""ArrowUp,ArrowLeft"":26,""ArrowUp,ArrowRight"":10,""ArrowDown,ArrowLeft"":5,""ArrowDown,ArrowRight"":17}",15,,12.95,1,norest,ArrowRight,,,,Children,8
1802,250,8322,revaluation,[514.5],False,./assets/img/ocean/animals/octopus.jpg,ocean,26.0,,True,Control,1.0,"{""ArrowUp,ArrowLeft"":26,""ArrowUp,ArrowRight"":10,""ArrowDown,ArrowLeft"":5,""ArrowDown,ArrowRight"":17}",16,,12.95,1,norest,ArrowLeft,,,,Children,7
1803,252,8322,revaluation,[643.1000000238419],False,./assets/img/ocean/animals/octopus.jpg,ocean,26.0,,True,Control,1.0,"{""ArrowUp,ArrowLeft"":26,""ArrowUp,ArrowRight"":10,""ArrowDown,ArrowLeft"":5,""ArrowDown,ArrowRight"":17}",17,,12.95,1,norest,ArrowLeft,,,,Children,8
1866,393,8322,revaluation,[1224.800000011921],False,./assets/img/canyon/animals/lion.jpg,canyon,7.0,,False,Revaluation,2.0,"{""ArrowUp,ArrowLeft"":27,""ArrowUp,ArrowRight"":15,""ArrowDown,ArrowLeft"":21,""ArrowDown,ArrowRight"":7}",0,,12.95,1,norest,ArrowRight,,,,Children,0
1867,395,8322,revaluation,[1036.5],False,./assets/img/canyon/animals/giraffe.jpg,canyon,27.0,,True,Revaluation,2.0,"{""ArrowUp,ArrowLeft"":27,""ArrowUp,ArrowRight"":15,""ArrowDown,ArrowLeft"":21,""ArrowDown,ArrowRight"":7}",1,,12.95,1,norest,ArrowLeft,,,,Children,0
1868,397,8322,revaluation,[649.2000000178814],False,./assets/img/canyon/animals/giraffe.jpg,canyon,15.0,,False,Revaluation,2.0,"{""ArrowUp,ArrowLeft"":27,""ArrowUp,ArrowRight"":15,""ArrowDown,ArrowLeft"":21,""ArrowDown,ArrowRight"":7}",2,,12.95,1,norest,ArrowRight,,,,Children,1
1869,399,8322,revaluation,[408.09999999403954],False,./assets/img/canyon/animals/lion.jpg,canyon,21.0,,True,Revaluation,2.0,"{""ArrowUp,ArrowLeft"":27,""ArrowUp,ArrowRight"":15,""ArrowDown,ArrowLeft"":21,""ArrowDown,ArrowRight"":7}",3,,12.95,1,norest,ArrowLeft,,,,Children,1
1870,401,8322,revaluation,[676.0999999940395],False,./assets/img/canyon/animals/lion.jpg,canyon,21.0,,True,Revaluation,2.0,"{""ArrowUp,ArrowLeft"":27,""ArrowUp,ArrowRight"":15,""ArrowDown,ArrowLeft"":21,""ArrowDown,ArrowRight"":7}",4,,12.95,1,norest,ArrowLeft,,,,Children,2
1871,403,8322,revaluation,[492.40000000596046],False,./assets/img/canyon/animals/lion.jpg,canyon,21.0,,True,Revaluation,2.0,"{""ArrowUp,ArrowLeft"":27,""ArrowUp,ArrowRight"":15,""ArrowDown,ArrowLeft"":21,""ArrowDown,ArrowRight"":7}",5,,12.95,1,norest,ArrowLeft,,,,Children,3
1872,405,8322,revaluation,[274.39999997615814],False,./assets/img/canyon/animals/lion.jpg,canyon,21.0,,True,Revaluation,2.0,"{""ArrowUp,ArrowLeft"":27,""ArrowUp,ArrowRight"":15,""ArrowDown,ArrowLeft"":21,""ArrowDown,ArrowRight"":7}",6,,12.95,1,norest,ArrowLeft,,,,Children,4
1873,407,8322,revaluation,[432.40000000596046],False,./assets/img/canyon/animals/giraffe.jpg,canyon,27.0,,True,Revaluation,2.0,"{""ArrowUp,ArrowLeft"":27,""ArrowUp,ArrowRight"":15,""ArrowDown,ArrowLeft"":21,""ArrowDown,ArrowRight"":7}",7,,12.95,1,norest,ArrowLeft,,,,Children,2
1874,409,8322,revaluation,[266.30000001192093],False,./assets/img/canyon/animals/lion.jpg,canyon,21.0,,True,Revaluation,2.0,"{""ArrowUp,ArrowLeft"":27,""ArrowUp,ArrowRight"":15,""ArrowDown,ArrowLeft"":21,""ArrowDown,ArrowRight"":7}",8,,12.95,1,norest,ArrowLeft,,,,Children,5
1875,411,8322,revaluation,[252.69999998807907],False,./assets/img/canyon/animals/giraffe.jpg,canyon,27.0,,True,Revaluation,2.0,"{""ArrowUp,ArrowLeft"":27,""ArrowUp,ArrowRight"":15,""ArrowDown,ArrowLeft"":21,""ArrowDown,ArrowRight"":7}",9,,12.95,1,norest,ArrowLeft,,,,Children,3
1876,413,8322,revaluation,[229.2000000178814],False,./assets/img/canyon/animals/lion.jpg,canyon,21.0,,True,Revaluation,2.0,"{""ArrowUp,ArrowLeft"":27,""ArrowUp,ArrowRight"":15,""ArrowDown,ArrowLeft"":21,""ArrowDown,ArrowRight"":7}",10,,12.95,1,norest,ArrowLeft,,,,Children,6
1877,415,8322,revaluation,[356.09999999403954],False,./assets/img/canyon/animals/giraffe.jpg,canyon,27.0,,True,Revaluation,2.0,"{""ArrowUp,ArrowLeft"":27,""ArrowUp,ArrowRight"":15,""ArrowDown,ArrowLeft"":21,""ArrowDown,ArrowRight"":7}",11,,12.95,1,norest,ArrowLeft,,,,Children,4
1878,417,8322,revaluation,[355.5],False,./assets/img/canyon/animals/giraffe.jpg,canyon,27.0,,True,Revaluation,2.0,"{""ArrowUp,ArrowLeft"":27,""ArrowUp,ArrowRight"":15,""ArrowDown,ArrowLeft"":21,""ArrowDown,ArrowRight"":7}",12,,12.95,1,norest,ArrowLeft,,,,Children,5
1879,419,8322,revaluation,[454.59999999403954],False,./assets/img/canyon/animals/giraffe.jpg,canyon,27.0,,True,Revaluation,2.0,"{""ArrowUp,ArrowLeft"":27,""ArrowUp,ArrowRight"":15,""ArrowDown,ArrowLeft"":21,""ArrowDown,ArrowRight"":7}",13,,12.95,1,norest,ArrowLeft,,,,Children,6
1880,421,8322,revaluation,[311.59999999403954],False,./assets/img/canyon/animals/lion.jpg,canyon,21.0,,True,Revaluation,2.0,"{""ArrowUp,ArrowLeft"":27,""ArrowUp,ArrowRight"":15,""ArrowDown,ArrowLeft"":21,""ArrowDown,ArrowRight"":7}",14,,12.95,1,norest,ArrowLeft,,,,Children,7
1881,423,8322,revaluation,[641.7999999821186],False,./assets/img/canyon/animals/giraffe.jpg,canyon,27.0,,True,Revaluation,2.0,"{""ArrowUp,ArrowLeft"":27,""ArrowUp,ArrowRight"":15,""ArrowDown,ArrowLeft"":21,""ArrowDown,ArrowRight"":7}",15,,12.95,1,norest,ArrowLeft,,,,Children,7
1882,425,8322,revaluation,[215.2000000178814],False,./assets/img/canyon/animals/lion.jpg,canyon,21.0,,True,Revaluation,2.0,"{""ArrowUp,ArrowLeft"":27,""ArrowUp,ArrowRight"":15,""ArrowDown,ArrowLeft"":21,""ArrowDown,ArrowRight"":7}",16,,12.95,1,norest,ArrowLeft,,,,Children,8
1883,427,8322,revaluation,[19.599999994039536],False,./assets/img/canyon/animals/giraffe.jpg,canyon,27.0,,True,Revaluation,2.0,"{""ArrowUp,ArrowLeft"":27,""ArrowUp,ArrowRight"":15,""ArrowDown,ArrowLeft"":21,""ArrowDown,ArrowRight"":7}",17,,12.95,1,norest,ArrowLeft,,,,Children,8
2034,218,10009,revaluation,[1315.5],False,./assets/img/ocean/animals/seahorse.jpg,ocean,10.0,,False,Control,1.0,"{""ArrowUp,ArrowLeft"":23,""ArrowUp,ArrowRight"":10,""ArrowDown,ArrowLeft"":8,""ArrowDown,ArrowRight"":30}",0,,18.53,3,norest,ArrowRight,,,,Adults,0
2035,220,10009,revaluation,[415.7000000476837],False,./assets/img/ocean/animals/octopus.jpg,ocean,30.0,,True,Control,1.0,"{""ArrowUp,ArrowLeft"":23,""ArrowUp,ArrowRight"":10,""ArrowDown,ArrowLeft"":8,""ArrowDown,ArrowRight"":30}",1,,18.53,3,norest,ArrowRight,,,,Adults,0
2036,222,10009,revaluation,[438.7000000476837],False,./assets/img/ocean/animals/octopus.jpg,ocean,30.0,,True,Control,1.0,"{""ArrowUp,ArrowLeft"":23,""ArrowUp,ArrowRight"":10,""ArrowDown,ArrowLeft"":8,""ArrowDown,ArrowRight"":30}",2,,18.53,3,norest,ArrowRight,,,,Adults,1
2037,224,10009,revaluation,[268.60000002384186],False,./assets/img/ocean/animals/seahorse.jpg,ocean,23.0,,True,Control,1.0,"{""ArrowUp,ArrowLeft"":23,""ArrowUp,ArrowRight"":10,""ArrowDown,ArrowLeft"":8,""ArrowDown,ArrowRight"":30}",3,,18.53,3,norest,ArrowLeft,,,,Adults,1
2038,226,10009,revaluation,[353.10000002384186],False,./assets/img/ocean/animals/seahorse.jpg,ocean,23.0,,True,Control,1.0,"{""ArrowUp,ArrowLeft"":23,""ArrowUp,ArrowRight"":10,""ArrowDown,ArrowLeft"":8,""ArrowDown,ArrowRight"":30}",4,,18.53,3,norest,ArrowLeft,,,,Adults,2
2039,228,10009,revaluation,[411.09999990463257],False,./assets/img/ocean/animals/seahorse.jpg,ocean,23.0,,True,Control,1.0,"{""ArrowUp,ArrowLeft"":23,""ArrowUp,ArrowRight"":10,""ArrowDown,ArrowLeft"":8,""ArrowDown,ArrowRight"":30}",5,,18.53,3,norest,ArrowLeft,,,,Adults,3
2040,230,10009,revaluation,[449.7999999523163],False,./assets/img/ocean/animals/seahorse.jpg,ocean,23.0,,True,Control,1.0,"{""ArrowUp,ArrowLeft"":23,""ArrowUp,ArrowRight"":10,""ArrowDown,ArrowLeft"":8,""ArrowDown,ArrowRight"":30}",6,,18.53,3,norest,ArrowLeft,,,,Adults,4
2041,232,10009,revaluation,[275.39999997615814],False,./assets/img/ocean/animals/octopus.jpg,ocean,30.0,,True,Control,1.0,"{""ArrowUp,ArrowLeft"":23,""ArrowUp,ArrowRight"":10,""ArrowDown,ArrowLeft"":8,""ArrowDown,ArrowRight"":30}",7,,18.53,3,norest,ArrowRight,,,,Adults,2
2042,234,10009,revaluation,[289],False,./assets/img/ocean/animals/octopus.jpg,ocean,30.0,,True,Control,1.0,"{""ArrowUp,ArrowLeft"":23,""ArrowUp,ArrowRight"":10,""ArrowDown,ArrowLeft"":8,""ArrowDown,ArrowRight"":30}",8,,18.53,3,norest,ArrowRight,,,,Adults,3
2043,236,10009,revaluation,[386.39999997615814],False,./assets/img/ocean/animals/octopus.jpg,ocean,30.0,,True,Control,1.0,"{""ArrowUp,ArrowLeft"":23,""ArrowUp,ArrowRight"":10,""ArrowDown,ArrowLeft"":8,""ArrowDown,ArrowRight"":30}",9,,18.53,3,norest,ArrowRight,,,,Adults,4
2044,238,10009,revaluation,[495.89999997615814],False,./assets/img/ocean/animals/seahorse.jpg,ocean,23.0,,True,Control,1.0,"{""ArrowUp,ArrowLeft"":23,""ArrowUp,ArrowRight"":10,""ArrowDown,ArrowLeft"":8,""ArrowDown,ArrowRight"":30}",10,,18.53,3,norest,ArrowLeft,,,,Adults,5
2045,240,10009,revaluation,[417],False,./assets/img/ocean/animals/octopus.jpg,ocean,30.0,,True,Control,1.0,"{""ArrowUp,ArrowLeft"":23,""ArrowUp,ArrowRight"":10,""ArrowDown,ArrowLeft"":8,""ArrowDown,ArrowRight"":30}",11,,18.53,3,norest,ArrowRight,,,,Adults,5
2046,242,10009,revaluation,[499.2000000476837],False,./assets/img/ocean/animals/octopus.jpg,ocean,30.0,,True,Control,1.0,"{""ArrowUp,ArrowLeft"":23,""ArrowUp,ArrowRight"":10,""ArrowDown,ArrowLeft"":8,""ArrowDown,ArrowRight"":30}",12,,18.53,3,norest,ArrowRight,,,,Adults,6
2047,244,10009,revaluation,[429.3000000715256],False,./assets/img/ocean/animals/seahorse.jpg,ocean,23.0,,True,Control,1.0,"{""ArrowUp,ArrowLeft"":23,""ArrowUp,ArrowRight"":10,""ArrowDown,ArrowLeft"":8,""ArrowDown,ArrowRight"":30}",13,,18.53,3,norest,ArrowLeft,,,,Adults,6
2048,246,10009,revaluation,[562.3999999761581],False,./assets/img/ocean/animals/seahorse.jpg,ocean,23.0,,True,Control,1.0,"{""ArrowUp,ArrowLeft"":23,""ArrowUp,ArrowRight"":10,""ArrowDown,ArrowLeft"":8,""ArrowDown,ArrowRight"":30}",14,,18.53,3,norest,ArrowLeft,,,,Adults,7
2049,248,10009,revaluation,[396.2000000476837],False,./assets/img/ocean/animals/octopus.jpg,ocean,30.0,,True,Control,1.0,"{""ArrowUp,ArrowLeft"":23,""ArrowUp,ArrowRight"":10,""ArrowDown,ArrowLeft"":8,""ArrowDown,ArrowRight"":30}",15,,18.53,3,norest,ArrowRight,,,,Adults,7
2050,250,10009,revaluation,[365.10000002384186],False,./assets/img/ocean/animals/octopus.jpg,ocean,30.0,,True,Control,1.0,"{""ArrowUp,ArrowLeft"":23,""ArrowUp,ArrowRight"":10,""ArrowDown,ArrowLeft"":8,""ArrowDown,ArrowRight"":30}",16,,18.53,3,norest,ArrowRight,,,,Adults,8
2051,252,10009,revaluation,[325.2999999523163],False,./assets/img/ocean/animals/seahorse.jpg,ocean,23.0,,True,Control,1.0,"{""ArrowUp,ArrowLeft"":23,""ArrowUp,ArrowRight"":10,""ArrowDown,ArrowLeft"":8,""ArrowDown,ArrowRight"":30}",17,,18.53,3,norest,ArrowLeft,,,,Adults,8
2114,393,10009,revaluation,[1129.8000000715256],False,./assets/img/canyon/animals/lion.jpg,canyon,27.0,,True,Revaluation,2.0,"{""ArrowUp,ArrowLeft"":2,""ArrowUp,ArrowRight"":11,""ArrowDown,ArrowLeft"":8,""ArrowDown,ArrowRight"":27}",0,,18.53,3,norest,ArrowRight,,,,Adults,0
2115,395,10009,revaluation,[372.59999990463257],False,./assets/img/canyon/animals/giraffe.jpg,canyon,2.0,,False,Revaluation,2.0,"{""ArrowUp,ArrowLeft"":2,""ArrowUp,ArrowRight"":11,""ArrowDown,ArrowLeft"":8,""ArrowDown,ArrowRight"":27}",1,,18.53,3,norest,ArrowLeft,,,,Adults,0
2116,397,10009,revaluation,[1213.3000000715256],False,./assets/img/canyon/animals/lion.jpg,canyon,27.0,,True,Revaluation,2.0,"{""ArrowUp,ArrowLeft"":2,""ArrowUp,ArrowRight"":11,""ArrowDown,ArrowLeft"":8,""ArrowDown,ArrowRight"":27}",2,,18.53,3,norest,ArrowRight,,,,Adults,1
2117,399,10009,revaluation,[619.8999999761581],False,./assets/img/canyon/animals/lion.jpg,canyon,27.0,,True,Revaluation,2.0,"{""ArrowUp,ArrowLeft"":2,""ArrowUp,ArrowRight"":11,""ArrowDown,ArrowLeft"":8,""ArrowDown,ArrowRight"":27}",3,,18.53,3,norest,ArrowRight,,,,Adults,2
2118,401,10009,revaluation,[901.5],False,./assets/img/canyon/animals/lion.jpg,canyon,8.0,,False,Revaluation,2.0,"{""ArrowUp,ArrowLeft"":2,""ArrowUp,ArrowRight"":11,""ArrowDown,ArrowLeft"":8,""ArrowDown,ArrowRight"":27}",4,,18.53,3,norest,ArrowLeft,,,,Adults,3
2119,403,10009,revaluation,[750.4000000953674],False,./assets/img/canyon/animals/giraffe.jpg,canyon,11.0,,True,Revaluation,2.0,"{""ArrowUp,ArrowLeft"":2,""ArrowUp,ArrowRight"":11,""ArrowDown,ArrowLeft"":8,""ArrowDown,ArrowRight"":27}",5,,18.53,3,norest,ArrowRight,,,,Adults,1
2120,405,10009,revaluation,[312.39999997615814],False,./assets/img/canyon/animals/lion.jpg,canyon,27.0,,True,Revaluation,2.0,"{""ArrowUp,ArrowLeft"":2,""ArrowUp,ArrowRight"":11,""ArrowDown,ArrowLeft"":8,""ArrowDown,ArrowRight"":27}",6,,18.53,3,norest,ArrowRight,,,,Adults,4
2121,407,10009,revaluation,[216.39999997615814],False,./assets/img/canyon/animals/giraffe.jpg,canyon,11.0,,True,Revaluation,2.0,"{""ArrowUp,ArrowLeft"":2,""ArrowUp,ArrowRight"":11,""ArrowDown,ArrowLeft"":8,""ArrowDown,ArrowRight"":27}",7,,18.53,3,norest,ArrowRight,,,,Adults,2
2122,409,10009,revaluation,[337],False,./assets/img/canyon/animals/giraffe.jpg,canyon,11.0,,True,Revaluation,2.0,"{""ArrowUp,ArrowLeft"":2,""ArrowUp,ArrowRight"":11,""ArrowDown,ArrowLeft"":8,""ArrowDown,ArrowRight"":27}",8,,18.53,3,norest,ArrowRight,,,,Adults,3
2123,411,10009,revaluation,[329.8000000715256],False,./assets/img/canyon/animals/giraffe.jpg,canyon,11.0,,True,Revaluation,2.0,"{""ArrowUp,ArrowLeft"":2,""ArrowUp,ArrowRight"":11,""ArrowDown,ArrowLeft"":8,""ArrowDown,ArrowRight"":27}",9,,18.53,3,norest,ArrowRight,,,,Adults,4
2124,413,10009,revaluation,[265.60000002384186],False,./assets/img/canyon/animals/lion.jpg,canyon,27.0,,True,Revaluation,2.0,"{""ArrowUp,ArrowLeft"":2,""ArrowUp,ArrowRight"":11,""ArrowDown,ArrowLeft"":8,""ArrowDown,ArrowRight"":27}",10,,18.53,3,norest,ArrowRight,,,,Adults,5
2125,415,10009,revaluation,[268],False,./assets/img/canyon/animals/lion.jpg,canyon,27.0,,True,Revaluation,2.0,"{""ArrowUp,ArrowLeft"":2,""ArrowUp,ArrowRight"":11,""ArrowDown,ArrowLeft"":8,""ArrowDown,ArrowRight"":27}",11,,18.53,3,norest,ArrowRight,,,,Adults,6
2126,417,10009,revaluation,[464.60000002384186],False,./assets/img/canyon/animals/giraffe.jpg,canyon,11.0,,True,Revaluation,2.0,"{""ArrowUp,ArrowLeft"":2,""ArrowUp,ArrowRight"":11,""ArrowDown,ArrowLeft"":8,""ArrowDown,ArrowRight"":27}",12,,18.53,3,norest,ArrowRight,,,,Adults,5
2127,419,10009,revaluation,[376],False,./assets/img/canyon/animals/lion.jpg,canyon,27.0,,True,Revaluation,2.0,"{""ArrowUp,ArrowLeft"":2,""ArrowUp,ArrowRight"":11,""ArrowDown,ArrowLeft"":8,""ArrowDown,ArrowRight"":27}",13,,18.53,3,norest,ArrowRight,,,,Adults,7
2128,421,10009,revaluation,[282.10000002384186],False,./assets/img/canyon/animals/giraffe.jpg,canyon,11.0,,True,Revaluation,2.0,"{""ArrowUp,ArrowLeft"":2,""ArrowUp,ArrowRight"":11,""ArrowDown,ArrowLeft"":8,""ArrowDown,ArrowRight"":27}",14,,18.53,3,norest,ArrowRight,,,,Adults,6
2129,423,10009,revaluation,[275.7999999523163],False,./assets/img/canyon/animals/giraffe.jpg,canyon,11.0,,True,Revaluation,2.0,"{""ArrowUp,ArrowLeft"":2,""ArrowUp,ArrowRight"":11,""ArrowDown,ArrowLeft"":8,""ArrowDown,ArrowRight"":27}",15,,18.53,3,norest,ArrowRight,,,,Adults,7
2130,425,10009,revaluation,[305.60000002384186],False,./assets/img/canyon/animals/giraffe.jpg,canyon,11.0,,True,Revaluation,2.0,"{""ArrowUp,ArrowLeft"":2,""ArrowUp,ArrowRight"":11,""ArrowDown,ArrowLeft"":8,""ArrowDown,ArrowRight"":27}",16,,18.53,3,norest,ArrowRight,,,,Adults,8
2131,427,10009,revaluation,[257.5],False,./assets/img/canyon/animals/lion.jpg,canyon,27.0,,True,Revaluation,2.0,"{""ArrowUp,ArrowLeft"":2,""ArrowUp,ArrowRight"":11,""ArrowDown,ArrowLeft"":8,""ArrowDown,ArrowRight"":27}",17,,18.53,3,norest,ArrowRight,,,,Adults,8
2282,222,9642,revaluation,[955.3999999761581],False,./assets/img/ocean/animals/seahorse.jpg,ocean,26.0,,True,Control,1.0,"{""ArrowUp,ArrowLeft"":26,""ArrowUp,ArrowRight"":10,""ArrowDown,ArrowLeft"":5,""ArrowDown,ArrowRight"":17}",0,,16.37,1,norest,ArrowLeft,,,,Adolescents,0
2283,224,9642,revaluation,[630.7000000476837],False,./assets/img/ocean/animals/octopus.jpg,ocean,5.0,,False,Control,1.0,"{""ArrowUp,ArrowLeft"":26,""ArrowUp,ArrowRight"":10,""ArrowDown,ArrowLeft"":5,""ArrowDown,ArrowRight"":17}",1,,16.37,1,norest,ArrowLeft,,,,Adolescents,0
2284,226,9642,revaluation,[450.60000002384186],False,./assets/img/ocean/animals/seahorse.jpg,ocean,26.0,,True,Control,1.0,"{""ArrowUp,ArrowLeft"":26,""ArrowUp,ArrowRight"":10,""ArrowDown,ArrowLeft"":5,""ArrowDown,ArrowRight"":17}",2,,16.37,1,norest,ArrowLeft,,,,Adolescents,1
2285,228,9642,revaluation,[662.3999999761581],False,./assets/img/ocean/animals/seahorse.jpg,ocean,26.0,,True,Control,1.0,"{""ArrowUp,ArrowLeft"":26,""ArrowUp,ArrowRight"":10,""ArrowDown,ArrowLeft"":5,""ArrowDown,ArrowRight"":17}",3,,16.37,1,norest,ArrowLeft,,,,Adolescents,2
2286,230,9642,revaluation,[382.60000002384186],False,./assets/img/ocean/animals/octopus.jpg,ocean,17.0,,True,Control,1.0,"{""ArrowUp,ArrowLeft"":26,""ArrowUp,ArrowRight"":10,""ArrowDown,ArrowLeft"":5,""ArrowDown,ArrowRight"":17}",4,,16.37,1,norest,ArrowRight,,,,Adolescents,1
2287,232,9642,revaluation,[373.2000000476837],False,./assets/img/ocean/animals/seahorse.jpg,ocean,26.0,,True,Control,1.0,"{""ArrowUp,ArrowLeft"":26,""ArrowUp,ArrowRight"":10,""ArrowDown,ArrowLeft"":5,""ArrowDown,ArrowRight"":17}",5,,16.37,1,norest,ArrowLeft,,,,Adolescents,3
2288,234,9642,revaluation,[479.2999999523163],False,./assets/img/ocean/animals/octopus.jpg,ocean,17.0,,True,Control,1.0,"{""ArrowUp,ArrowLeft"":26,""ArrowUp,ArrowRight"":10,""ArrowDown,ArrowLeft"":5,""ArrowDown,ArrowRight"":17}",6,,16.37,1,norest,ArrowRight,,,,Adolescents,2
2289,236,9642,revaluation,[410],False,./assets/img/ocean/animals/seahorse.jpg,ocean,26.0,,True,Control,1.0,"{""ArrowUp,ArrowLeft"":26,""ArrowUp,ArrowRight"":10,""ArrowDown,ArrowLeft"":5,""ArrowDown,ArrowRight"":17}",7,,16.37,1,norest,ArrowLeft,,,,Adolescents,4
2290,238,9642,revaluation,[537.4000000953674],False,./assets/img/ocean/animals/seahorse.jpg,ocean,26.0,,True,Control,1.0,"{""ArrowUp,ArrowLeft"":26,""ArrowUp,ArrowRight"":10,""ArrowDown,ArrowLeft"":5,""ArrowDown,ArrowRight"":17}",8,,16.37,1,norest,ArrowLeft,,,,Adolescents,5
2291,240,9642,revaluation,[430.8000000715256],False,./assets/img/ocean/animals/octopus.jpg,ocean,17.0,,True,Control,1.0,"{""ArrowUp,ArrowLeft"":26,""ArrowUp,ArrowRight"":10,""ArrowDown,ArrowLeft"":5,""ArrowDown,ArrowRight"":17}",9,,16.37,1,norest,ArrowRight,,,,Adolescents,3
2292,242,9642,revaluation,[501.5],False,./assets/img/ocean/animals/seahorse.jpg,ocean,26.0,,True,Control,1.0,"{""ArrowUp,ArrowLeft"":26,""ArrowUp,ArrowRight"":10,""ArrowDown,ArrowLeft"":5,""ArrowDown,ArrowRight"":17}",10,,16.37,1,norest,ArrowLeft,,,,Adolescents,6
2293,244,9642,revaluation,[427.5],False,./assets/img/ocean/animals/octopus.jpg,ocean,17.0,,True,Control,1.0,"{""ArrowUp,ArrowLeft"":26,""ArrowUp,ArrowRight"":10,""ArrowDown,ArrowLeft"":5,""ArrowDown,ArrowRight"":17}",11,,16.37,1,norest,ArrowRight,,,,Adolescents,4
2294,246,9642,revaluation,[381],False,./assets/img/ocean/animals/seahorse.jpg,ocean,26.0,,True,Control,1.0,"{""ArrowUp,ArrowLeft"":26,""ArrowUp,ArrowRight"":10,""ArrowDown,ArrowLeft"":5,""ArrowDown,ArrowRight"":17}",12,,16.37,1,norest,ArrowLeft,,,,Adolescents,7
2295,248,9642,revaluation,[506.7000000476837],False,./assets/img/ocean/animals/octopus.jpg,ocean,17.0,,True,Control,1.0,"{""ArrowUp,ArrowLeft"":26,""ArrowUp,ArrowRight"":10,""ArrowDown,ArrowLeft"":5,""ArrowDown,ArrowRight"":17}",13,,16.37,1,norest,ArrowRight,,,,Adolescents,5
2296,250,9642,revaluation,[649],False,./assets/img/ocean/animals/octopus.jpg,ocean,17.0,,True,Control,1.0,"{""ArrowUp,ArrowLeft"":26,""ArrowUp,ArrowRight"":10,""ArrowDown,ArrowLeft"":5,""ArrowDown,ArrowRight"":17}",14,,16.37,1,norest,ArrowRight,,,,Adolescents,6
2297,252,9642,revaluation,[458.2000000476837],False,./assets/img/ocean/animals/seahorse.jpg,ocean,26.0,,True,Control,1.0,"{""ArrowUp,ArrowLeft"":26,""ArrowUp,ArrowRight"":10,""ArrowDown,ArrowLeft"":5,""ArrowDown,ArrowRight"":17}",15,,16.37,1,norest,ArrowLeft,,,,Adolescents,8
2298,254,9642,revaluation,[531.2999999523163],False,./assets/img/ocean/animals/octopus.jpg,ocean,17.0,,True,Control,1.0,"{""ArrowUp,ArrowLeft"":26,""ArrowUp,ArrowRight"":10,""ArrowDown,ArrowLeft"":5,""ArrowDown,ArrowRight"":17}",16,,16.37,1,norest,ArrowRight,,,,Adolescents,7
2299,256,9642,revaluation,[540.1000000238419],False,./assets/img/ocean/animals/octopus.jpg,ocean,17.0,,True,Control,1.0,"{""ArrowUp,ArrowLeft"":26,""ArrowUp,ArrowRight"":10,""ArrowDown,ArrowLeft"":5,""ArrowDown,ArrowRight"":17}",17,,16.37,1,norest,ArrowRight,,,,Adolescents,8
2362,397,9642,revaluation,[1134],False,./assets/img/canyon/animals/giraffe.jpg,canyon,7.0,,False,Revaluation,2.0,"{""ArrowUp,ArrowLeft"":27,""ArrowUp,ArrowRight"":15,""ArrowDown,ArrowLeft"":21,""ArrowDown,ArrowRight"":7}",0,,16.37,1,norest,ArrowRight,,,,Adolescents,0
2363,399,9642,revaluation,[837.7999999523163],False,./assets/img/canyon/animals/lion.jpg,canyon,15.0,,False,Revaluation,2.0,"{""ArrowUp,ArrowLeft"":27,""ArrowUp,ArrowRight"":15,""ArrowDown,ArrowLeft"":21,""ArrowDown,ArrowRight"":7}",1,,16.37,1,norest,ArrowRight,,,,Adolescents,0
2364,401,9642,revaluation,[515.3000000715256],False,./assets/img/canyon/animals/giraffe.jpg,canyon,21.0,,True,Revaluation,2.0,"{""ArrowUp,ArrowLeft"":27,""ArrowUp,ArrowRight"":15,""ArrowDown,ArrowLeft"":21,""ArrowDown,ArrowRight"":7}",2,,16.37,1,norest,ArrowLeft,,,,Adolescents,1
2365,403,9642,revaluation,[340.8000000715256],False,./assets/img/canyon/animals/lion.jpg,canyon,27.0,,True,Revaluation,2.0,"{""ArrowUp,ArrowLeft"":27,""ArrowUp,ArrowRight"":15,""ArrowDown,ArrowLeft"":21,""ArrowDown,ArrowRight"":7}",3,,16.37,1,norest,ArrowLeft,,,,Adolescents,1
2366,405,9642,revaluation,[334.8000000715256],False,./assets/img/canyon/animals/giraffe.jpg,canyon,21.0,,True,Revaluation,2.0,"{""ArrowUp,ArrowLeft"":27,""ArrowUp,ArrowRight"":15,""ArrowDown,ArrowLeft"":21,""ArrowDown,ArrowRight"":7}",4,,16.37,1,norest,ArrowLeft,,,,Adolescents,2
2367,407,9642,revaluation,[279.2000000476837],False,./assets/img/canyon/animals/giraffe.jpg,canyon,21.0,,True,Revaluation,2.0,"{""ArrowUp,ArrowLeft"":27,""ArrowUp,ArrowRight"":15,""ArrowDown,ArrowLeft"":21,""ArrowDown,ArrowRight"":7}",5,,16.37,1,norest,ArrowLeft,,,,Adolescents,3
2368,409,9642,revaluation,[63.299999952316284],False,./assets/img/canyon/animals/lion.jpg,canyon,27.0,,True,Revaluation,2.0,"{""ArrowUp,ArrowLeft"":27,""ArrowUp,ArrowRight"":15,""ArrowDown,ArrowLeft"":21,""ArrowDown,ArrowRight"":7}",6,,16.37,1,norest,ArrowLeft,,,,Adolescents,2
2369,411,9642,revaluation,[268.89999997615814],False,./assets/img/canyon/animals/lion.jpg,canyon,27.0,,True,Revaluation,2.0,"{""ArrowUp,ArrowLeft"":27,""ArrowUp,ArrowRight"":15,""ArrowDown,ArrowLeft"":21,""ArrowDown,ArrowRight"":7}",7,,16.37,1,norest,ArrowLeft,,,,Adolescents,3
2370,413,9642,revaluation,[223.89999997615814],False,./assets/img/canyon/animals/giraffe.jpg,canyon,21.0,,True,Revaluation,2.0,"{""ArrowUp,ArrowLeft"":27,""ArrowUp,ArrowRight"":15,""ArrowDown,ArrowLeft"":21,""ArrowDown,ArrowRight"":7}",8,,16.37,1,norest,ArrowLeft,,,,Adolescents,4
2371,415,9642,revaluation,[232.90000009536743],False,./assets/img/canyon/animals/giraffe.jpg,canyon,21.0,,True,Revaluation,2.0,"{""ArrowUp,ArrowLeft"":27,""ArrowUp,ArrowRight"":15,""ArrowDown,ArrowLeft"":21,""ArrowDown,ArrowRight"":7}",9,,16.37,1,norest,ArrowLeft,,,,Adolescents,5
2372,417,9642,revaluation,[305.5],False,./assets/img/canyon/animals/lion.jpg,canyon,27.0,,True,Revaluation,2.0,"{""ArrowUp,ArrowLeft"":27,""ArrowUp,ArrowRight"":15,""ArrowDown,ArrowLeft"":21,""ArrowDown,ArrowRight"":7}",10,,16.37,1,norest,ArrowLeft,,,,Adolescents,4
2373,419,9642,revaluation,[315.10000002384186],False,./assets/img/canyon/animals/giraffe.jpg,canyon,21.0,,True,Revaluation,2.0,"{""ArrowUp,ArrowLeft"":27,""ArrowUp,ArrowRight"":15,""ArrowDown,ArrowLeft"":21,""ArrowDown,ArrowRight"":7}",11,,16.37,1,norest,ArrowLeft,,,,Adolescents,6
2374,421,9642,revaluation,[328.60000002384186],False,./assets/img/canyon/animals/giraffe.jpg,canyon,21.0,,True,Revaluation,2.0,"{""ArrowUp,ArrowLeft"":27,""ArrowUp,ArrowRight"":15,""ArrowDown,ArrowLeft"":21,""ArrowDown,ArrowRight"":7}",12,,16.37,1,norest,ArrowLeft,,,,Adolescents,7
2375,423,9642,revaluation,[569.3999999761581],False,./assets/img/canyon/animals/lion.jpg,canyon,27.0,,True,Revaluation,2.0,"{""ArrowUp,ArrowLeft"":27,""ArrowUp,ArrowRight"":15,""ArrowDown,ArrowLeft"":21,""ArrowDown,ArrowRight"":7}",13,,16.37,1,norest,ArrowLeft,,,,Adolescents,5
2376,425,9642,revaluation,[373.2000000476837],False,./assets/img/canyon/animals/giraffe.jpg,canyon,21.0,,True,Revaluation,2.0,"{""ArrowUp,ArrowLeft"":27,""ArrowUp,ArrowRight"":15,""ArrowDown,ArrowLeft"":21,""ArrowDown,ArrowRight"":7}",14,,16.37,1,norest,ArrowLeft,,,,Adolescents,8
2377,427,9642,revaluation,[429],False,./assets/img/canyon/animals/lion.jpg,canyon,27.0,,True,Revaluation,2.0,"{""ArrowUp,ArrowLeft"":27,""ArrowUp,ArrowRight"":15,""ArrowDown,ArrowLeft"":21,""ArrowDown,ArrowRight"":7}",15,,16.37,1,norest,ArrowLeft,,,,Adolescents,6
2378,429,9642,revaluation,[294.8000000715256],False,./assets/img/canyon/animals/lion.jpg,canyon,27.0,,True,Revaluation,2.0,"{""ArrowUp,ArrowLeft"":27,""ArrowUp,ArrowRight"":15,""ArrowDown,ArrowLeft"":21,""ArrowDown,ArrowRight"":7}",16,,16.37,1,norest,ArrowLeft,,,,Adolescents,7
2379,431,9642,revaluation,[350.2000000476837],False,./assets/img/canyon/animals/lion.jpg,canyon,27.0,,True,Revaluation,2.0,"{""ArrowUp,ArrowLeft"":27,""ArrowUp,ArrowRight"":15,""ArrowDown,ArrowLeft"":21,""ArrowDown,ArrowRight"":7}",17,,16.37,1,norest,ArrowLeft,,,,Adolescents,8
2530,218,14427,revaluation,[890.2999999970198],False,./assets/img/canyon/animals/giraffe.jpg,canyon,26.0,,True,Control,1.0,"{""ArrowUp,ArrowLeft"":26,""ArrowUp,ArrowRight"":10,""ArrowDown,ArrowLeft"":5,""ArrowDown,ArrowRight"":17}",0,,22.42,5,norest,ArrowLeft,,,,Adults,0
2531,220,14427,revaluation,[603],False,./assets/img/canyon/animals/lion.jpg,canyon,5.0,,False,Control,1.0,"{""ArrowUp,ArrowLeft"":26,""ArrowUp,ArrowRight"":10,""ArrowDown,ArrowLeft"":5,""ArrowDown,ArrowRight"":17}",1,,22.42,5,norest,ArrowLeft,,,,Adults,0
2532,222,14427,revaluation,[802.9000000022352],False,./assets/img/canyon/animals/lion.jpg,canyon,17.0,,True,Control,1.0,"{""ArrowUp,ArrowLeft"":26,""ArrowUp,ArrowRight"":10,""ArrowDown,ArrowLeft"":5,""ArrowDown,ArrowRight"":17}",2,,22.42,5,norest,ArrowRight,,,,Adults,1
2533,224,14427,revaluation,[541.1999999992549],False,./assets/img/canyon/animals/lion.jpg,canyon,17.0,,True,Control,1.0,"{""ArrowUp,ArrowLeft"":26,""ArrowUp,ArrowRight"":10,""ArrowDown,ArrowLeft"":5,""ArrowDown,ArrowRight"":17}",3,,22.42,5,norest,ArrowRight,,,,Adults,2
2534,226,14427,revaluation,[748.1999999992549],False,./assets/img/canyon/animals/giraffe.jpg,canyon,26.0,,True,Control,1.0,"{""ArrowUp,ArrowLeft"":26,""ArrowUp,ArrowRight"":10,""ArrowDown,ArrowLeft"":5,""ArrowDown,ArrowRight"":17}",4,,22.42,5,norest,ArrowLeft,,,,Adults,1
2535,228,14427,revaluation,[956.5999999977648],False,./assets/img/canyon/animals/giraffe.jpg,canyon,26.0,,True,Control,1.0,"{""ArrowUp,ArrowLeft"":26,""ArrowUp,ArrowRight"":10,""ArrowDown,ArrowLeft"":5,""ArrowDown,ArrowRight"":17}",5,,22.42,5,norest,ArrowLeft,,,,Adults,2
2536,230,14427,revaluation,[656.5],False,./assets/img/canyon/animals/lion.jpg,canyon,17.0,,True,Control,1.0,"{""ArrowUp,ArrowLeft"":26,""ArrowUp,ArrowRight"":10,""ArrowDown,ArrowLeft"":5,""ArrowDown,ArrowRight"":17}",6,,22.42,5,norest,ArrowRight,,,,Adults,3
2537,232,14427,revaluation,[575.0999999977648],False,./assets/img/canyon/animals/lion.jpg,canyon,17.0,,True,Control,1.0,"{""ArrowUp,ArrowLeft"":26,""ArrowUp,ArrowRight"":10,""ArrowDown,ArrowLeft"":5,""ArrowDown,ArrowRight"":17}",7,,22.42,5,norest,ArrowRight,,,,Adults,4
2538,234,14427,revaluation,[599.1999999992549],False,./assets/img/canyon/animals/lion.jpg,canyon,17.0,,True,Control,1.0,"{""ArrowUp,ArrowLeft"":26,""ArrowUp,ArrowRight"":10,""ArrowDown,ArrowLeft"":5,""ArrowDown,ArrowRight"":17}",8,,22.42,5,norest,ArrowRight,,,,Adults,5
2539,236,14427,revaluation,[779.1999999992549],False,./assets/img/canyon/animals/giraffe.jpg,canyon,26.0,,True,Control,1.0,"{""ArrowUp,ArrowLeft"":26,""ArrowUp,ArrowRight"":10,""ArrowDown,ArrowLeft"":5,""ArrowDown,ArrowRight"":17}",9,,22.42,5,norest,ArrowLeft,,,,Adults,3
2540,238,14427,revaluation,[854.3000000007451],False,./assets/img/canyon/animals/giraffe.jpg,canyon,26.0,,True,Control,1.0,"{""ArrowUp,ArrowLeft"":26,""ArrowUp,ArrowRight"":10,""ArrowDown,ArrowLeft"":5,""ArrowDown,ArrowRight"":17}",10,,22.42,5,norest,ArrowLeft,,,,Adults,4
