,level_0,index,subject_id,task_part,timeout,stimulus,environment,score,isCatch,correct,block_condition,block_order,rewardMap,trial_num,ground_truth,age,gender,subject_condition,rest,rt0,rt1,response0,response1,is_optimal_first,is_optimal_second,optimal_score,categorical_age,trial
50,50,220,9888,revaluation,False,./assets/img/ocean/animals/octopus.jpg,ocean,10.0,,False,original,1.0,"{""ArrowUp,ArrowLeft"":23,""ArrowUp,ArrowRight"":10,""ArrowDown,ArrowLeft"":8,""ArrowDown,ArrowRight"":30}",0,,7.05,Male,3,norest,1156.1000000238419,,ArrowRight,,,,,Children,0
51,51,222,9888,revaluation,True,./assets/img/ocean/animals/octopus.jpg,ocean,-5.0,,False,original,1.0,"{""ArrowUp,ArrowLeft"":23,""ArrowUp,ArrowRight"":10,""ArrowDown,ArrowLeft"":8,""ArrowDown,ArrowRight"":30}",1,,7.05,Male,3,norest,,,,,,,,Children,1
52,52,224,9888,revaluation,False,./assets/img/ocean/animals/octopus.jpg,ocean,23.0,,True,original,1.0,"{""ArrowUp,ArrowLeft"":23,""ArrowUp,ArrowRight"":10,""ArrowDown,ArrowLeft"":8,""ArrowDown,ArrowRight"":30}",2,,7.05,Male,3,norest,781.8999999761581,,ArrowLeft,,,,,Children,2
53,53,226,9888,revaluation,False,./assets/img/ocean/animals/seahorse.jpg,ocean,30.0,,True,original,1.0,"{""ArrowUp,ArrowLeft"":23,""ArrowUp,ArrowRight"":10,""ArrowDown,ArrowLeft"":8,""ArrowDown,ArrowRight"":30}",3,,7.05,Male,3,norest,1243.0999999642372,,ArrowRight,,,,,Children,0
54,54,228,9888,revaluation,False,./assets/img/ocean/animals/octopus.jpg,ocean,23.0,,True,original,1.0,"{""ArrowUp,ArrowLeft"":23,""ArrowUp,ArrowRight"":10,""ArrowDown,ArrowLeft"":8,""ArrowDown,ArrowRight"":30}",4,,7.05,Male,3,norest,746.5,,ArrowLeft,,,,,Children,3
55,55,230,9888,revaluation,False,./assets/img/ocean/animals/seahorse.jpg,ocean,30.0,,True,original,1.0,"{""ArrowUp,ArrowLeft"":23,""ArrowUp,ArrowRight"":10,""ArrowDown,ArrowLeft"":8,""ArrowDown,ArrowRight"":30}",5,,7.05,Male,3,norest,1181.699999988079,,ArrowRight,,,,,Children,1
56,56,232,9888,revaluation,False,./assets/img/ocean/animals/seahorse.jpg,ocean,30.0,,True,original,1.0,"{""ArrowUp,ArrowLeft"":23,""ArrowUp,ArrowRight"":10,""ArrowDown,ArrowLeft"":8,""ArrowDown,ArrowRight"":30}",6,,7.05,Male,3,norest,1308.699999988079,,ArrowRight,,,,,Children,2
57,57,234,9888,revaluation,False,./assets/img/ocean/animals/seahorse.jpg,ocean,30.0,,True,original,1.0,"{""ArrowUp,ArrowLeft"":23,""ArrowUp,ArrowRight"":10,""ArrowDown,ArrowLeft"":8,""ArrowDown,ArrowRight"":30}",7,,7.05,Male,3,norest,804.5,,ArrowRight,,,,,Children,3
58,58,236,9888,revaluation,False,./assets/img/ocean/animals/seahorse.jpg,ocean,30.0,,True,original,1.0,"{""ArrowUp,ArrowLeft"":23,""ArrowUp,ArrowRight"":10,""ArrowDown,ArrowLeft"":8,""ArrowDown,ArrowRight"":30}",8,,7.05,Male,3,norest,797.8999999761581,,ArrowRight,,,,,Children,4
59,59,238,9888,revaluation,False,./assets/img/ocean/animals/seahorse.jpg,ocean,30.0,,True,original,1.0,"{""ArrowUp,ArrowLeft"":23,""ArrowUp,ArrowRight"":10,""ArrowDown,ArrowLeft"":8,""ArrowDown,ArrowRight"":30}",9,,7.05,Male,3,norest,608.3999999761581,,ArrowRight,,,,,Children,5
60,60,240,9888,revaluation,False,./assets/img/ocean/animals/seahorse.jpg,ocean,30.0,,True,original,1.0,"{""ArrowUp,ArrowLeft"":23,""ArrowUp,ArrowRight"":10,""ArrowDown,ArrowLeft"":8,""ArrowDown,ArrowRight"":30}",10,,7.05,Male,3,norest,638.1999999880791,,ArrowRight,,,,,Children,6
61,61,242,9888,revaluation,False,./assets/img/ocean/animals/octopus.jpg,ocean,23.0,,True,original,1.0,"{""ArrowUp,ArrowLeft"":23,""ArrowUp,ArrowRight"":10,""ArrowDown,ArrowLeft"":8,""ArrowDown,ArrowRight"":30}",11,,7.05,Male,3,norest,1863.4000000357628,,ArrowLeft,,,,,Children,4
62,62,244,9888,revaluation,False,./assets/img/ocean/animals/seahorse.jpg,ocean,30.0,,True,original,1.0,"{""ArrowUp,ArrowLeft"":23,""ArrowUp,ArrowRight"":10,""ArrowDown,ArrowLeft"":8,""ArrowDown,ArrowRight"":30}",12,,7.05,Male,3,norest,661.8000000119209,,ArrowRight,,,,,Children,7
63,63,246,9888,revaluation,False,./assets/img/ocean/animals/octopus.jpg,ocean,23.0,,True,original,1.0,"{""ArrowUp,ArrowLeft"":23,""ArrowUp,ArrowRight"":10,""ArrowDown,ArrowLeft"":8,""ArrowDown,ArrowRight"":30}",13,,7.05,Male,3,norest,1447.800000011921,,ArrowLeft,,,,,Children,5
64,64,248,9888,revaluation,False,./assets/img/ocean/animals/octopus.jpg,ocean,23.0,,True,original,1.0,"{""ArrowUp,ArrowLeft"":23,""ArrowUp,ArrowRight"":10,""ArrowDown,ArrowLeft"":8,""ArrowDown,ArrowRight"":30}",14,,7.05,Male,3,norest,1316.199999988079,,ArrowLeft,,,,,Children,6
65,65,250,9888,revaluation,False,./assets/img/ocean/animals/octopus.jpg,ocean,23.0,,True,original,1.0,"{""ArrowUp,ArrowLeft"":23,""ArrowUp,ArrowRight"":10,""ArrowDown,ArrowLeft"":8,""ArrowDown,ArrowRight"":30}",15,,7.05,Male,3,norest,1077.1000000238419,,ArrowLeft,,,,,Children,7
66,66,252,9888,revaluation,False,./assets/img/ocean/animals/seahorse.jpg,ocean,30.0,,True,original,1.0,"{""ArrowUp,ArrowLeft"":23,""ArrowUp,ArrowRight"":10,""ArrowDown,ArrowLeft"":8,""ArrowDown,ArrowRight"":30}",16,,7.05,Male,3,norest,1155.699999988079,,ArrowRight,,,,,Children,8
67,67,254,9888,revaluation,False,./assets/img/ocean/animals/octopus.jpg,ocean,23.0,,True,original,1.0,"{""ArrowUp,ArrowLeft"":23,""ArrowUp,ArrowRight"":10,""ArrowDown,ArrowLeft"":8,""ArrowDown,ArrowRight"":30}",17,,7.05,Male,3,norest,1380.6000000238419,,ArrowLeft,,,,,Children,8
130,130,395,9888,revaluation,False,./assets/img/canyon/animals/lion.jpg,canyon,11.0,,True,revaluation,2.0,"{""ArrowUp,ArrowLeft"":2,""ArrowUp,ArrowRight"":11,""ArrowDown,ArrowLeft"":8,""ArrowDown,ArrowRight"":27}",0,,7.05,Male,3,norest,1235.5,,ArrowRight,,,,,Children,0
131,131,397,9888,revaluation,True,./assets/img/canyon/animals/giraffe.jpg,canyon,-5.0,,False,revaluation,2.0,"{""ArrowUp,ArrowLeft"":2,""ArrowUp,ArrowRight"":11,""ArrowDown,ArrowLeft"":8,""ArrowDown,ArrowRight"":27}",1,,7.05,Male,3,norest,,,,,,,,Children,0
132,132,399,9888,revaluation,False,./assets/img/canyon/animals/giraffe.jpg,canyon,27.0,,True,revaluation,2.0,"{""ArrowUp,ArrowLeft"":2,""ArrowUp,ArrowRight"":11,""ArrowDown,ArrowLeft"":8,""ArrowDown,ArrowRight"":27}",2,,7.05,Male,3,norest,848.7999999523163,,ArrowRight,,,,,Children,1
133,133,401,9888,revaluation,False,./assets/img/canyon/animals/lion.jpg,canyon,2.0,,False,revaluation,2.0,"{""ArrowUp,ArrowLeft"":2,""ArrowUp,ArrowRight"":11,""ArrowDown,ArrowLeft"":8,""ArrowDown,ArrowRight"":27}",3,,7.05,Male,3,norest,1503.199999988079,,ArrowLeft,,,,,Children,1
134,134,403,9888,revaluation,False,./assets/img/canyon/animals/lion.jpg,canyon,11.0,,True,revaluation,2.0,"{""ArrowUp,ArrowLeft"":2,""ArrowUp,ArrowRight"":11,""ArrowDown,ArrowLeft"":8,""ArrowDown,ArrowRight"":27}",4,,7.05,Male,3,norest,999.5,,ArrowRight,,,,,Children,2
135,135,405,9888,revaluation,False,./assets/img/canyon/animals/giraffe.jpg,canyon,27.0,,True,revaluation,2.0,"{""ArrowUp,ArrowLeft"":2,""ArrowUp,ArrowRight"":11,""ArrowDown,ArrowLeft"":8,""ArrowDown,ArrowRight"":27}",5,,7.05,Male,3,norest,1020.8999999761581,,ArrowRight,,,,,Children,2
136,136,407,9888,revaluation,False,./assets/img/canyon/animals/giraffe.jpg,canyon,27.0,,True,revaluation,2.0,"{""ArrowUp,ArrowLeft"":2,""ArrowUp,ArrowRight"":11,""ArrowDown,ArrowLeft"":8,""ArrowDown,ArrowRight"":27}",6,,7.05,Male,3,norest,1197.7000000476837,,ArrowRight,,,,,Children,3
137,137,409,9888,revaluation,False,./assets/img/canyon/animals/lion.jpg,canyon,2.0,,False,revaluation,2.0,"{""ArrowUp,ArrowLeft"":2,""ArrowUp,ArrowRight"":11,""ArrowDown,ArrowLeft"":8,""ArrowDown,ArrowRight"":27}",7,,7.05,Male,3,norest,1286.0,,ArrowLeft,,,,,Children,3
138,138,411,9888,revaluation,False,./assets/img/canyon/animals/giraffe.jpg,canyon,27.0,,True,revaluation,2.0,"{""ArrowUp,ArrowLeft"":2,""ArrowUp,ArrowRight"":11,""ArrowDown,ArrowLeft"":8,""ArrowDown,ArrowRight"":27}",8,,7.05,Male,3,norest,600.5,,ArrowRight,,,,,Children,4
139,139,413,9888,revaluation,False,./assets/img/canyon/animals/lion.jpg,canyon,11.0,,True,revaluation,2.0,"{""ArrowUp,ArrowLeft"":2,""ArrowUp,ArrowRight"":11,""ArrowDown,ArrowLeft"":8,""ArrowDown,ArrowRight"":27}",9,,7.05,Male,3,norest,689.1999999880791,,ArrowRight,,,,,Children,4
140,140,415,9888,revaluation,False,./assets/img/canyon/animals/giraffe.jpg,canyon,27.0,,True,revaluation,2.0,"{""ArrowUp,ArrowLeft"":2,""ArrowUp,ArrowRight"":11,""ArrowDown,ArrowLeft"":8,""ArrowDown,ArrowRight"":27}",10,,7.05,Male,3,norest,651.0,,ArrowRight,,,,,Children,5
141,141,417,9888,revaluation,False,./assets/img/canyon/animals/giraffe.jpg,canyon,27.0,,True,revaluation,2.0,"{""ArrowUp,ArrowLeft"":2,""ArrowUp,ArrowRight"":11,""ArrowDown,ArrowLeft"":8,""ArrowDown,ArrowRight"":27}",11,,7.05,Male,3,norest,791.0,,ArrowRight,,,,,Children,6
142,142,419,9888,revaluation,False,./assets/img/canyon/animals/giraffe.jpg,canyon,27.0,,True,revaluation,2.0,"{""ArrowUp,ArrowLeft"":2,""ArrowUp,ArrowRight"":11,""ArrowDown,ArrowLeft"":8,""ArrowDown,ArrowRight"":27}",12,,7.05,Male,3,norest,649.3000000119209,,ArrowRight,,,,,Children,7
143,143,421,9888,revaluation,False,./assets/img/canyon/animals/lion.jpg,canyon,11.0,,True,revaluation,2.0,"{""ArrowUp,ArrowLeft"":2,""ArrowUp,ArrowRight"":11,""ArrowDown,ArrowLeft"":8,""ArrowDown,ArrowRight"":27}",13,,7.05,Male,3,norest,614.8000000119209,,ArrowRight,,,,,Children,5
144,144,423,9888,revaluation,False,./assets/img/canyon/animals/lion.jpg,canyon,11.0,,True,revaluation,2.0,"{""ArrowUp,ArrowLeft"":2,""ArrowUp,ArrowRight"":11,""ArrowDown,ArrowLeft"":8,""ArrowDown,ArrowRight"":27}",14,,7.05,Male,3,norest,14.300000011920929,,ArrowRight,,,,,Children,6
145,145,425,9888,revaluation,False,./assets/img/canyon/animals/lion.jpg,canyon,11.0,,True,revaluation,2.0,"{""ArrowUp,ArrowLeft"":2,""ArrowUp,ArrowRight"":11,""ArrowDown,ArrowLeft"":8,""ArrowDown,ArrowRight"":27}",15,,7.05,Male,3,norest,182.39999997615814,,ArrowRight,,,,,Children,7
146,146,427,9888,revaluation,False,./assets/img/canyon/animals/giraffe.jpg,canyon,27.0,,True,revaluation,2.0,"{""ArrowUp,ArrowLeft"":2,""ArrowUp,ArrowRight"":11,""ArrowDown,ArrowLeft"":8,""ArrowDown,ArrowRight"":27}",16,,7.05,Male,3,norest,254.19999998807907,,ArrowRight,,,,,Children,8
147,147,429,9888,revaluation,False,./assets/img/canyon/animals/lion.jpg,canyon,11.0,,True,revaluation,2.0,"{""ArrowUp,ArrowLeft"":2,""ArrowUp,ArrowRight"":11,""ArrowDown,ArrowLeft"":8,""ArrowDown,ArrowRight"":27}",17,,7.05,Male,3,norest,318.10000002384186,,ArrowRight,,,,,Children,8
298,50,224,8200,revaluation,False,./assets/img/ocean/animals/seahorse.jpg,ocean,7.0,,False,revaluation,1.0,"{""ArrowUp,ArrowLeft"":27,""ArrowUp,ArrowRight"":15,""ArrowDown,ArrowLeft"":21,""ArrowDown,ArrowRight"":7}",0,,19.77,Male,2,norest,550.3999999761581,,ArrowRight,,,,,Adults,0
299,51,226,8200,revaluation,False,./assets/img/ocean/animals/octopus.jpg,ocean,27.0,,True,revaluation,1.0,"{""ArrowUp,ArrowLeft"":27,""ArrowUp,ArrowRight"":15,""ArrowDown,ArrowLeft"":21,""ArrowDown,ArrowRight"":7}",1,,19.77,Male,2,norest,593.5999999940395,,ArrowLeft,,,,,Adults,0
300,52,228,8200,revaluation,False,./assets/img/ocean/animals/octopus.jpg,ocean,27.0,,True,revaluation,1.0,"{""ArrowUp,ArrowLeft"":27,""ArrowUp,ArrowRight"":15,""ArrowDown,ArrowLeft"":21,""ArrowDown,ArrowRight"":7}",2,,19.77,Male,2,norest,528.2999999821186,,ArrowLeft,,,,,Adults,1
301,53,230,8200,revaluation,False,./assets/img/ocean/animals/octopus.jpg,ocean,27.0,,True,revaluation,1.0,"{""ArrowUp,ArrowLeft"":27,""ArrowUp,ArrowRight"":15,""ArrowDown,ArrowLeft"":21,""ArrowDown,ArrowRight"":7}",3,,19.77,Male,2,norest,478.19999998807907,,ArrowLeft,,,,,Adults,2
302,54,232,8200,revaluation,False,./assets/img/ocean/animals/seahorse.jpg,ocean,21.0,,True,revaluation,1.0,"{""ArrowUp,ArrowLeft"":27,""ArrowUp,ArrowRight"":15,""ArrowDown,ArrowLeft"":21,""ArrowDown,ArrowRight"":7}",4,,19.77,Male,2,norest,460.5,,ArrowLeft,,,,,Adults,1
303,55,234,8200,revaluation,False,./assets/img/ocean/animals/seahorse.jpg,ocean,21.0,,True,revaluation,1.0,"{""ArrowUp,ArrowLeft"":27,""ArrowUp,ArrowRight"":15,""ArrowDown,ArrowLeft"":21,""ArrowDown,ArrowRight"":7}",5,,19.77,Male,2,norest,574.2999999821186,,ArrowLeft,,,,,Adults,2
304,56,236,8200,revaluation,False,./assets/img/ocean/animals/octopus.jpg,ocean,27.0,,True,revaluation,1.0,"{""ArrowUp,ArrowLeft"":27,""ArrowUp,ArrowRight"":15,""ArrowDown,ArrowLeft"":21,""ArrowDown,ArrowRight"":7}",6,,19.77,Male,2,norest,978.2000000178814,,ArrowLeft,,,,,Adults,3
305,57,238,8200,revaluation,False,./assets/img/ocean/animals/seahorse.jpg,ocean,21.0,,True,revaluation,1.0,"{""ArrowUp,ArrowLeft"":27,""ArrowUp,ArrowRight"":15,""ArrowDown,ArrowLeft"":21,""ArrowDown,ArrowRight"":7}",7,,19.77,Male,2,norest,445.40000000596046,,ArrowLeft,,,,,Adults,3
306,58,240,8200,revaluation,False,./assets/img/ocean/animals/octopus.jpg,ocean,27.0,,True,revaluation,1.0,"{""ArrowUp,ArrowLeft"":27,""ArrowUp,ArrowRight"":15,""ArrowDown,ArrowLeft"":21,""ArrowDown,ArrowRight"":7}",8,,19.77,Male,2,norest,348.09999999403954,,ArrowLeft,,,,,Adults,4
307,59,242,8200,revaluation,False,./assets/img/ocean/animals/octopus.jpg,ocean,27.0,,True,revaluation,1.0,"{""ArrowUp,ArrowLeft"":27,""ArrowUp,ArrowRight"":15,""ArrowDown,ArrowLeft"":21,""ArrowDown,ArrowRight"":7}",9,,19.77,Male,2,norest,152.5,,ArrowLeft,,,,,Adults,5
308,60,244,8200,revaluation,False,./assets/img/ocean/animals/octopus.jpg,ocean,27.0,,True,revaluation,1.0,"{""ArrowUp,ArrowLeft"":27,""ArrowUp,ArrowRight"":15,""ArrowDown,ArrowLeft"":21,""ArrowDown,ArrowRight"":7}",10,,19.77,Male,2,norest,561.6999999880791,,ArrowLeft,,,,,Adults,6
309,61,246,8200,revaluation,False,./assets/img/ocean/animals/seahorse.jpg,ocean,21.0,,True,revaluation,1.0,"{""ArrowUp,ArrowLeft"":27,""ArrowUp,ArrowRight"":15,""ArrowDown,ArrowLeft"":21,""ArrowDown,ArrowRight"":7}",11,,19.77,Male,2,norest,26.900000005960464,,ArrowLeft,,,,,Adults,4
310,62,248,8200,revaluation,False,./assets/img/ocean/animals/seahorse.jpg,ocean,21.0,,True,revaluation,1.0,"{""ArrowUp,ArrowLeft"":27,""ArrowUp,ArrowRight"":15,""ArrowDown,ArrowLeft"":21,""ArrowDown,ArrowRight"":7}",12,,19.77,Male,2,norest,36.0,,ArrowLeft,,,,,Adults,5
311,63,250,8200,revaluation,False,./assets/img/ocean/animals/octopus.jpg,ocean,27.0,,True,revaluation,1.0,"{""ArrowUp,ArrowLeft"":27,""ArrowUp,ArrowRight"":15,""ArrowDown,ArrowLeft"":21,""ArrowDown,ArrowRight"":7}",13,,19.77,Male,2,norest,476.2999999821186,,ArrowLeft,,,,,Adults,7
312,64,252,8200,revaluation,False,./assets/img/ocean/animals/seahorse.jpg,ocean,21.0,,True,revaluation,1.0,"{""ArrowUp,ArrowLeft"":27,""ArrowUp,ArrowRight"":15,""ArrowDown,ArrowLeft"":21,""ArrowDown,ArrowRight"":7}",14,,19.77,Male,2,norest,422.0,,ArrowLeft,,,,,Adults,6
313,65,254,8200,revaluation,False,./assets/img/ocean/animals/seahorse.jpg,ocean,21.0,,True,revaluation,1.0,"{""ArrowUp,ArrowLeft"":27,""ArrowUp,ArrowRight"":15,""ArrowDown,ArrowLeft"":21,""ArrowDown,ArrowRight"":7}",15,,19.77,Male,2,norest,339.2999999821186,,ArrowLeft,,,,,Adults,7
314,66,256,8200,revaluation,False,./assets/img/ocean/animals/octopus.jpg,ocean,27.0,,True,revaluation,1.0,"{""ArrowUp,ArrowLeft"":27,""ArrowUp,ArrowRight"":15,""ArrowDown,ArrowLeft"":21,""ArrowDown,ArrowRight"":7}",16,,19.77,Male,2,norest,364.0,,ArrowLeft,,,,,Adults,8
315,67,258,8200,revaluation,False,./assets/img/ocean/animals/seahorse.jpg,ocean,21.0,,True,revaluation,1.0,"{""ArrowUp,ArrowLeft"":27,""ArrowUp,ArrowRight"":15,""ArrowDown,ArrowLeft"":21,""ArrowDown,ArrowRight"":7}",17,,19.77,Male,2,norest,361.2999999821186,,ArrowLeft,,,,,Adults,8
378,130,399,8200,revaluation,False,./assets/img/canyon/animals/lion.jpg,canyon,5.0,,False,original,2.0,"{""ArrowUp,ArrowLeft"":26,""ArrowUp,ArrowRight"":10,""ArrowDown,ArrowLeft"":5,""ArrowDown,ArrowRight"":17}",0,,19.77,Male,2,norest,1612.300000011921,,ArrowLeft,,,,,Adults,0
379,131,401,8200,revaluation,False,./assets/img/canyon/animals/lion.jpg,canyon,17.0,,True,original,2.0,"{""ArrowUp,ArrowLeft"":26,""ArrowUp,ArrowRight"":10,""ArrowDown,ArrowLeft"":5,""ArrowDown,ArrowRight"":17}",1,,19.77,Male,2,norest,554.4000000059605,,ArrowRight,,,,,Adults,1
380,132,403,8200,revaluation,False,./assets/img/canyon/animals/lion.jpg,canyon,17.0,,True,original,2.0,"{""ArrowUp,ArrowLeft"":26,""ArrowUp,ArrowRight"":10,""ArrowDown,ArrowLeft"":5,""ArrowDown,ArrowRight"":17}",2,,19.77,Male,2,norest,440.2999999821186,,ArrowRight,,,,,Adults,2
381,133,405,8200,revaluation,False,./assets/img/canyon/animals/giraffe.jpg,canyon,10.0,,False,original,2.0,"{""ArrowUp,ArrowLeft"":26,""ArrowUp,ArrowRight"":10,""ArrowDown,ArrowLeft"":5,""ArrowDown,ArrowRight"":17}",3,,19.77,Male,2,norest,449.90000000596046,,ArrowRight,,,,,Adults,0
382,134,407,8200,revaluation,False,./assets/img/canyon/animals/giraffe.jpg,canyon,26.0,,True,original,2.0,"{""ArrowUp,ArrowLeft"":26,""ArrowUp,ArrowRight"":10,""ArrowDown,ArrowLeft"":5,""ArrowDown,ArrowRight"":17}",4,,19.77,Male,2,norest,475.89999997615814,,ArrowLeft,,,,,Adults,1
383,135,409,8200,revaluation,False,./assets/img/canyon/animals/giraffe.jpg,canyon,26.0,,True,original,2.0,"{""ArrowUp,ArrowLeft"":26,""ArrowUp,ArrowRight"":10,""ArrowDown,ArrowLeft"":5,""ArrowDown,ArrowRight"":17}",5,,19.77,Male,2,norest,470.69999998807907,,ArrowLeft,,,,,Adults,2
384,136,411,8200,revaluation,False,./assets/img/canyon/animals/lion.jpg,canyon,17.0,,True,original,2.0,"{""ArrowUp,ArrowLeft"":26,""ArrowUp,ArrowRight"":10,""ArrowDown,ArrowLeft"":5,""ArrowDown,ArrowRight"":17}",6,,19.77,Male,2,norest,621.3999999761581,,ArrowRight,,,,,Adults,3
385,137,413,8200,revaluation,False,./assets/img/canyon/animals/lion.jpg,canyon,5.0,,False,original,2.0,"{""ArrowUp,ArrowLeft"":26,""ArrowUp,ArrowRight"":10,""ArrowDown,ArrowLeft"":5,""ArrowDown,ArrowRight"":17}",7,,19.77,Male,2,norest,416.5,,ArrowLeft,,,,,Adults,4
386,138,415,8200,revaluation,False,./assets/img/canyon/animals/giraffe.jpg,canyon,26.0,,True,original,2.0,"{""ArrowUp,ArrowLeft"":26,""ArrowUp,ArrowRight"":10,""ArrowDown,ArrowLeft"":5,""ArrowDown,ArrowRight"":17}",8,,19.77,Male,2,norest,558.5999999940395,,ArrowLeft,,,,,Adults,3
387,139,417,8200,revaluation,False,./assets/img/canyon/animals/giraffe.jpg,canyon,10.0,,False,original,2.0,"{""ArrowUp,ArrowLeft"":26,""ArrowUp,ArrowRight"":10,""ArrowDown,ArrowLeft"":5,""ArrowDown,ArrowRight"":17}",9,,19.77,Male,2,norest,422.59999999403954,,ArrowRight,,,,,Adults,4
388,140,419,8200,revaluation,False,./assets/img/canyon/animals/giraffe.jpg,canyon,26.0,,True,original,2.0,"{""ArrowUp,ArrowLeft"":26,""ArrowUp,ArrowRight"":10,""ArrowDown,ArrowLeft"":5,""ArrowDown,ArrowRight"":17}",10,,19.77,Male,2,norest,988.0,,ArrowLeft,,,,,Adults,5
389,141,421,8200,revaluation,False,./assets/img/canyon/animals/giraffe.jpg,canyon,26.0,,True,original,2.0,"{""ArrowUp,ArrowLeft"":26,""ArrowUp,ArrowRight"":10,""ArrowDown,ArrowLeft"":5,""ArrowDown,ArrowRight"":17}",11,,19.77,Male,2,norest,1105.800000011921,,ArrowLeft,,,,,Adults,6
390,142,423,8200,revaluation,False,./assets/img/canyon/animals/lion.jpg,canyon,5.0,,False,original,2.0,"{""ArrowUp,ArrowLeft"":26,""ArrowUp,ArrowRight"":10,""ArrowDown,ArrowLeft"":5,""ArrowDown,ArrowRight"":17}",12,,19.77,Male,2,norest,473.5,,ArrowLeft,,,,,Adults,5
391,143,425,8200,revaluation,False,./assets/img/canyon/animals/lion.jpg,canyon,17.0,,True,original,2.0,"{""ArrowUp,ArrowLeft"":26,""ArrowUp,ArrowRight"":10,""ArrowDown,ArrowLeft"":5,""ArrowDown,ArrowRight"":17}",13,,19.77,Male,2,norest,1951.9000000059605,,ArrowRight,,,,,Adults,6
392,144,427,8200,revaluation,False,./assets/img/canyon/animals/lion.jpg,canyon,17.0,,True,original,2.0,"{""ArrowUp,ArrowLeft"":26,""ArrowUp,ArrowRight"":10,""ArrowDown,ArrowLeft"":5,""ArrowDown,ArrowRight"":17}",14,,19.77,Male,2,norest,687.4000000059605,,ArrowRight,,,,,Adults,7
393,145,429,8200,revaluation,False,./assets/img/canyon/animals/giraffe.jpg,canyon,26.0,,True,original,2.0,"{""ArrowUp,ArrowLeft"":26,""ArrowUp,ArrowRight"":10,""ArrowDown,ArrowLeft"":5,""ArrowDown,ArrowRight"":17}",15,,19.77,Male,2,norest,648.1999999880791,,ArrowLeft,,,,,Adults,7
394,146,431,8200,revaluation,False,./assets/img/canyon/animals/giraffe.jpg,canyon,26.0,,True,original,2.0,"{""ArrowUp,ArrowLeft"":26,""ArrowUp,ArrowRight"":10,""ArrowDown,ArrowLeft"":5,""ArrowDown,ArrowRight"":17}",16,,19.77,Male,2,norest,455.80000001192093,,ArrowLeft,,,,,Adults,8
395,147,433,8200,revaluation,False,./assets/img/canyon/animals/lion.jpg,canyon,5.0,,False,original,2.0,"{""ArrowUp,ArrowLeft"":26,""ArrowUp,ArrowRight"":10,""ArrowDown,ArrowLeft"":5,""ArrowDown,ArrowRight"":17}",17,,19.77,Male,2,norest,512.2999999821186,,ArrowLeft,,,,,Adults,8
546,50,226,8566,revaluation,False,./assets/img/ocean/animals/octopus.jpg,ocean,10.0,,False,original,1.0,"{""ArrowUp,ArrowLeft"":26,""ArrowUp,ArrowRight"":10,""ArrowDown,ArrowLeft"":5,""ArrowDown,ArrowRight"":17}",0,,10.49,Male,1,norest,1166.2999999523163,,ArrowRight,,,,,Children,0
547,51,228,8566,revaluation,False,./assets/img/ocean/animals/octopus.jpg,ocean,26.0,,True,original,1.0,"{""ArrowUp,ArrowLeft"":26,""ArrowUp,ArrowRight"":10,""ArrowDown,ArrowLeft"":5,""ArrowDown,ArrowRight"":17}",1,,10.49,Male,1,norest,580.2999999523163,,ArrowLeft,,,,,Children,1
548,52,230,8566,revaluation,False,./assets/img/ocean/animals/seahorse.jpg,ocean,5.0,,False,original,1.0,"{""ArrowUp,ArrowLeft"":26,""ArrowUp,ArrowRight"":10,""ArrowDown,ArrowLeft"":5,""ArrowDown,ArrowRight"":17}",2,,10.49,Male,1,norest,482.60000002384186,,ArrowLeft,,,,,Children,0
549,53,232,8566,revaluation,False,./assets/img/ocean/animals/octopus.jpg,ocean,26.0,,True,original,1.0,"{""ArrowUp,ArrowLeft"":26,""ArrowUp,ArrowRight"":10,""ArrowDown,ArrowLeft"":5,""ArrowDown,ArrowRight"":17}",3,,10.49,Male,1,norest,397.3000000715256,,ArrowLeft,,,,,Children,2
550,54,234,8566,revaluation,False,./assets/img/ocean/animals/octopus.jpg,ocean,26.0,,True,original,1.0,"{""ArrowUp,ArrowLeft"":26,""ArrowUp,ArrowRight"":10,""ArrowDown,ArrowLeft"":5,""ArrowDown,ArrowRight"":17}",4,,10.49,Male,1,norest,566.8999999761581,,ArrowLeft,,,,,Children,3
551,55,236,8566,revaluation,False,./assets/img/ocean/animals/octopus.jpg,ocean,26.0,,True,original,1.0,"{""ArrowUp,ArrowLeft"":26,""ArrowUp,ArrowRight"":10,""ArrowDown,ArrowLeft"":5,""ArrowDown,ArrowRight"":17}",5,,10.49,Male,1,norest,1107.1000000238419,,ArrowLeft,,,,,Children,4
552,56,238,8566,revaluation,False,./assets/img/ocean/animals/seahorse.jpg,ocean,5.0,,False,original,1.0,"{""ArrowUp,ArrowLeft"":26,""ArrowUp,ArrowRight"":10,""ArrowDown,ArrowLeft"":5,""ArrowDown,ArrowRight"":17}",6,,10.49,Male,1,norest,729.5,,ArrowLeft,,,,,Children,1
553,57,240,8566,revaluation,False,./assets/img/ocean/animals/seahorse.jpg,ocean,17.0,,True,original,1.0,"{""ArrowUp,ArrowLeft"":26,""ArrowUp,ArrowRight"":10,""ArrowDown,ArrowLeft"":5,""ArrowDown,ArrowRight"":17}",7,,10.49,Male,1,norest,421.6999999284744,,ArrowRight,,,,,Children,2
554,58,242,8566,revaluation,False,./assets/img/ocean/animals/seahorse.jpg,ocean,5.0,,False,original,1.0,"{""ArrowUp,ArrowLeft"":26,""ArrowUp,ArrowRight"":10,""ArrowDown,ArrowLeft"":5,""ArrowDown,ArrowRight"":17}",8,,10.49,Male,1,norest,615.0999999046326,,ArrowLeft,,,,,Children,3
555,59,244,8566,revaluation,False,./assets/img/ocean/animals/seahorse.jpg,ocean,17.0,,True,original,1.0,"{""ArrowUp,ArrowLeft"":26,""ArrowUp,ArrowRight"":10,""ArrowDown,ArrowLeft"":5,""ArrowDown,ArrowRight"":17}",9,,10.49,Male,1,norest,727.6999999284744,,ArrowRight,,,,,Children,4
556,60,246,8566,revaluation,False,./assets/img/ocean/animals/seahorse.jpg,ocean,17.0,,True,original,1.0,"{""ArrowUp,ArrowLeft"":26,""ArrowUp,ArrowRight"":10,""ArrowDown,ArrowLeft"":5,""ArrowDown,ArrowRight"":17}",10,,10.49,Male,1,norest,607.7999999523163,,ArrowRight,,,,,Children,5
557,61,248,8566,revaluation,False,./assets/img/ocean/animals/seahorse.jpg,ocean,17.0,,True,original,1.0,"{""ArrowUp,ArrowLeft"":26,""ArrowUp,ArrowRight"":10,""ArrowDown,ArrowLeft"":5,""ArrowDown,ArrowRight"":17}",11,,10.49,Male,1,norest,920.0,,ArrowRight,,,,,Children,6
558,62,250,8566,revaluation,False,./assets/img/ocean/animals/octopus.jpg,ocean,26.0,,True,original,1.0,"{""ArrowUp,ArrowLeft"":26,""ArrowUp,ArrowRight"":10,""ArrowDown,ArrowLeft"":5,""ArrowDown,ArrowRight"":17}",12,,10.49,Male,1,norest,802.5999999046326,,ArrowLeft,,,,,Children,5
559,63,252,8566,revaluation,False,./assets/img/ocean/animals/seahorse.jpg,ocean,5.0,,False,original,1.0,"{""ArrowUp,ArrowLeft"":26,""ArrowUp,ArrowRight"":10,""ArrowDown,ArrowLeft"":5,""ArrowDown,ArrowRight"":17}",13,,10.49,Male,1,norest,475.60000002384186,,ArrowLeft,,,,,Children,7
560,64,254,8566,revaluation,False,./assets/img/ocean/animals/octopus.jpg,ocean,10.0,,False,original,1.0,"{""ArrowUp,ArrowLeft"":26,""ArrowUp,ArrowRight"":10,""ArrowDown,ArrowLeft"":5,""ArrowDown,ArrowRight"":17}",14,,10.49,Male,1,norest,2.5,,ArrowRight,,,,,Children,6
561,65,256,8566,revaluation,False,./assets/img/ocean/animals/octopus.jpg,ocean,26.0,,True,original,1.0,"{""ArrowUp,ArrowLeft"":26,""ArrowUp,ArrowRight"":10,""ArrowDown,ArrowLeft"":5,""ArrowDown,ArrowRight"":17}",15,,10.49,Male,1,norest,534.2999999523163,,ArrowLeft,,,,,Children,7
562,66,258,8566,revaluation,False,./assets/img/ocean/animals/seahorse.jpg,ocean,17.0,,True,original,1.0,"{""ArrowUp,ArrowLeft"":26,""ArrowUp,ArrowRight"":10,""ArrowDown,ArrowLeft"":5,""ArrowDown,ArrowRight"":17}",16,,10.49,Male,1,norest,0.20000004768371582,,ArrowRight,,,,,Children,8
563,67,260,8566,revaluation,False,./assets/img/ocean/animals/octopus.jpg,ocean,26.0,,True,original,1.0,"{""ArrowUp,ArrowLeft"":26,""ArrowUp,ArrowRight"":10,""ArrowDown,ArrowLeft"":5,""ArrowDown,ArrowRight"":17}",17,,10.49,Male,1,norest,838.2000000476837,,ArrowLeft,,,,,Children,8
626,130,401,8566,revaluation,False,./assets/img/canyon/animals/giraffe.jpg,canyon,15.0,,False,revaluation,2.0,"{""ArrowUp,ArrowLeft"":27,""ArrowUp,ArrowRight"":15,""ArrowDown,ArrowLeft"":21,""ArrowDown,ArrowRight"":7}",0,,10.49,Male,1,norest,900.2999999523163,,ArrowRight,,,,,Children,0
627,131,403,8566,revaluation,False,./assets/img/canyon/animals/giraffe.jpg,canyon,27.0,,True,revaluation,2.0,"{""ArrowUp,ArrowLeft"":27,""ArrowUp,ArrowRight"":15,""ArrowDown,ArrowLeft"":21,""ArrowDown,ArrowRight"":7}",1,,10.49,Male,1,norest,487.89999997615814,,ArrowLeft,,,,,Children,1
628,132,405,8566,revaluation,False,./assets/img/canyon/animals/lion.jpg,canyon,21.0,,True,revaluation,2.0,"{""ArrowUp,ArrowLeft"":27,""ArrowUp,ArrowRight"":15,""ArrowDown,ArrowLeft"":21,""ArrowDown,ArrowRight"":7}",2,,10.49,Male,1,norest,671.6000000238419,,ArrowLeft,,,,,Children,0
629,133,407,8566,revaluation,False,./assets/img/canyon/animals/giraffe.jpg,canyon,27.0,,True,revaluation,2.0,"{""ArrowUp,ArrowLeft"":27,""ArrowUp,ArrowRight"":15,""ArrowDown,ArrowLeft"":21,""ArrowDown,ArrowRight"":7}",3,,10.49,Male,1,norest,807.5,,ArrowLeft,,,,,Children,2
630,134,409,8566,revaluation,False,./assets/img/canyon/animals/giraffe.jpg,canyon,15.0,,False,revaluation,2.0,"{""ArrowUp,ArrowLeft"":27,""ArrowUp,ArrowRight"":15,""ArrowDown,ArrowLeft"":21,""ArrowDown,ArrowRight"":7}",4,,10.49,Male,1,norest,419.5,,ArrowRight,,,,,Children,3
631,135,411,8566,revaluation,False,./assets/img/canyon/animals/lion.jpg,canyon,7.0,,False,revaluation,2.0,"{""ArrowUp,ArrowLeft"":27,""ArrowUp,ArrowRight"":15,""ArrowDown,ArrowLeft"":21,""ArrowDown,ArrowRight"":7}",5,,10.49,Male,1,norest,897.1999999284744,,ArrowRight,,,,,Children,1
632,136,413,8566,revaluation,False,./assets/img/canyon/animals/giraffe.jpg,canyon,27.0,,True,revaluation,2.0,"{""ArrowUp,ArrowLeft"":27,""ArrowUp,ArrowRight"":15,""ArrowDown,ArrowLeft"":21,""ArrowDown,ArrowRight"":7}",6,,10.49,Male,1,norest,579.3000000715256,,ArrowLeft,,,,,Children,4
633,137,415,8566,revaluation,False,./assets/img/canyon/animals/giraffe.jpg,canyon,27.0,,True,revaluation,2.0,"{""ArrowUp,ArrowLeft"":27,""ArrowUp,ArrowRight"":15,""ArrowDown,ArrowLeft"":21,""ArrowDown,ArrowRight"":7}",7,,10.49,Male,1,norest,219.69999992847443,,ArrowLeft,,,,,Children,5
634,138,417,8566,revaluation,False,./assets/img/canyon/animals/giraffe.jpg,canyon,27.0,,True,revaluation,2.0,"{""ArrowUp,ArrowLeft"":27,""ArrowUp,ArrowRight"":15,""ArrowDown,ArrowLeft"":21,""ArrowDown,ArrowRight"":7}",8,,10.49,Male,1,norest,14.100000023841858,,ArrowLeft,,,,,Children,6
635,139,419,8566,revaluation,False,./assets/img/canyon/animals/giraffe.jpg,canyon,27.0,,True,revaluation,2.0,"{""ArrowUp,ArrowLeft"":27,""ArrowUp,ArrowRight"":15,""ArrowDown,ArrowLeft"":21,""ArrowDown,ArrowRight"":7}",9,,10.49,Male,1,norest,46.89999997615814,,ArrowLeft,,,,,Children,7
636,140,421,8566,revaluation,False,./assets/img/canyon/animals/lion.jpg,canyon,21.0,,True,revaluation,2.0,"{""ArrowUp,ArrowLeft"":27,""ArrowUp,ArrowRight"":15,""ArrowDown,ArrowLeft"":21,""ArrowDown,ArrowRight"":7}",10,,10.49,Male,1,norest,0.20000004768371582,,ArrowLeft,,,,,Children,2
637,141,423,8566,revaluation,False,./assets/img/canyon/animals/lion.jpg,canyon,21.0,,True,revaluation,2.0,"{""ArrowUp,ArrowLeft"":27,""ArrowUp,ArrowRight"":15,""ArrowDown,ArrowLeft"":21,""ArrowDown,ArrowRight"":7}",11,,10.49,Male,1,norest,672.7000000476837,,ArrowLeft,,,,,Children,3
638,142,425,8566,revaluation,False,./assets/img/canyon/animals/lion.jpg,canyon,21.0,,True,revaluation,2.0,"{""ArrowUp,ArrowLeft"":27,""ArrowUp,ArrowRight"":15,""ArrowDown,ArrowLeft"":21,""ArrowDown,ArrowRight"":7}",12,,10.49,Male,1,norest,224.10000002384186,,ArrowLeft,,,,,Children,4
639,143,427,8566,revaluation,False,./assets/img/canyon/animals/lion.jpg,canyon,21.0,,True,revaluation,2.0,"{""ArrowUp,ArrowLeft"":27,""ArrowUp,ArrowRight"":15,""ArrowDown,ArrowLeft"":21,""ArrowDown,ArrowRight"":7}",13,,10.49,Male,1,norest,278.3000000715256,,ArrowLeft,,,,,Children,5
640,144,429,8566,revaluation,False,./assets/img/canyon/animals/lion.jpg,canyon,21.0,,True,revaluation,2.0,"{""ArrowUp,ArrowLeft"":27,""ArrowUp,ArrowRight"":15,""ArrowDown,ArrowLeft"":21,""ArrowDown,ArrowRight"":7}",14,,10.49,Male,1,norest,89.69999992847443,,ArrowLeft,,,,,Children,6
641,145,431,8566,revaluation,False,./assets/img/canyon/animals/lion.jpg,canyon,21.0,,True,revaluation,2.0,"{""ArrowUp,ArrowLeft"":27,""ArrowUp,ArrowRight"":15,""ArrowDown,ArrowLeft"":21,""ArrowDown,ArrowRight"":7}",15,,10.49,Male,1,norest,382.39999997615814,,ArrowLeft,,,,,Children,7
642,146,433,8566,revaluation,False,./assets/img/canyon/animals/lion.jpg,canyon,21.0,,True,revaluation,2.0,"{""ArrowUp,ArrowLeft"":27,""ArrowUp,ArrowRight"":15,""ArrowDown,ArrowLeft"":21,""ArrowDown,ArrowRight"":7}",16,,10.49,Male,1,norest,396.10000002384186,,ArrowLeft,,,,,Children,8
643,147,435,8566,revaluation,False,./assets/img/canyon/animals/giraffe.jpg,canyon,27.0,,True,revaluation,2.0,"{""ArrowUp,ArrowLeft"":27,""ArrowUp,ArrowRight"":15,""ArrowDown,ArrowLeft"":21,""ArrowDown,ArrowRight"":7}",17,,10.49,Male,1,norest,496.2999999523163,,ArrowLeft,,,,,Children,8
794,50,219,8599,revaluation,False,./assets/img/canyon/animals/giraffe.jpg,canyon,17.0,,True,original,1.0,"{""ArrowUp,ArrowLeft"":26,""ArrowUp,ArrowRight"":10,""ArrowDown,ArrowLeft"":5,""ArrowDown,ArrowRight"":17}",0,,12.69,Female,5,norest,598.0,,ArrowRight,,,,,Children,0
795,51,221,8599,revaluation,False,./assets/img/canyon/animals/giraffe.jpg,canyon,17.0,,True,original,1.0,"{""ArrowUp,ArrowLeft"":26,""ArrowUp,ArrowRight"":10,""ArrowDown,ArrowLeft"":5,""ArrowDown,ArrowRight"":17}",1,,12.69,Female,5,norest,661.0,,ArrowRight,,,,,Children,1
796,52,223,8599,revaluation,False,./assets/img/canyon/animals/lion.jpg,canyon,26.0,,True,original,1.0,"{""ArrowUp,ArrowLeft"":26,""ArrowUp,ArrowRight"":10,""ArrowDown,ArrowLeft"":5,""ArrowDown,ArrowRight"":17}",2,,12.69,Female,5,norest,659.0,,ArrowLeft,,,,,Children,0
797,53,225,8599,revaluation,False,./assets/img/canyon/animals/lion.jpg,canyon,26.0,,True,original,1.0,"{""ArrowUp,ArrowLeft"":26,""ArrowUp,ArrowRight"":10,""ArrowDown,ArrowLeft"":5,""ArrowDown,ArrowRight"":17}",3,,12.69,Female,5,norest,514.0,,ArrowLeft,,,,,Children,1
798,54,227,8599,revaluation,False,./assets/img/canyon/animals/lion.jpg,canyon,26.0,,True,original,1.0,"{""ArrowUp,ArrowLeft"":26,""ArrowUp,ArrowRight"":10,""ArrowDown,ArrowLeft"":5,""ArrowDown,ArrowRight"":17}",4,,12.69,Female,5,norest,511.0,,ArrowLeft,,,,,Children,2
799,55,229,8599,revaluation,False,./assets/img/canyon/animals/giraffe.jpg,canyon,17.0,,True,original,1.0,"{""ArrowUp,ArrowLeft"":26,""ArrowUp,ArrowRight"":10,""ArrowDown,ArrowLeft"":5,""ArrowDown,ArrowRight"":17}",5,,12.69,Female,5,norest,613.0,,ArrowRight,,,,,Children,2
800,56,231,8599,revaluation,False,./assets/img/canyon/animals/lion.jpg,canyon,26.0,,True,original,1.0,"{""ArrowUp,ArrowLeft"":26,""ArrowUp,ArrowRight"":10,""ArrowDown,ArrowLeft"":5,""ArrowDown,ArrowRight"":17}",6,,12.69,Female,5,norest,472.0,,ArrowLeft,,,,,Children,3
801,57,233,8599,revaluation,False,./assets/img/canyon/animals/lion.jpg,canyon,26.0,,True,original,1.0,"{""ArrowUp,ArrowLeft"":26,""ArrowUp,ArrowRight"":10,""ArrowDown,ArrowLeft"":5,""ArrowDown,ArrowRight"":17}",7,,12.69,Female,5,norest,532.0,,ArrowLeft,,,,,Children,4
802,58,235,8599,revaluation,False,./assets/img/canyon/animals/lion.jpg,canyon,26.0,,True,original,1.0,"{""ArrowUp,ArrowLeft"":26,""ArrowUp,ArrowRight"":10,""ArrowDown,ArrowLeft"":5,""ArrowDown,ArrowRight"":17}",8,,12.69,Female,5,norest,575.0000000002328,,ArrowLeft,,,,,Children,5
803,59,237,8599,revaluation,False,./assets/img/canyon/animals/lion.jpg,canyon,26.0,,True,original,1.0,"{""ArrowUp,ArrowLeft"":26,""ArrowUp,ArrowRight"":10,""ArrowDown,ArrowLeft"":5,""ArrowDown,ArrowRight"":17}",9,,12.69,Female,5,norest,564.0,,ArrowLeft,,,,,Children,6
804,60,239,8599,revaluation,False,./assets/img/canyon/animals/giraffe.jpg,canyon,17.0,,True,original,1.0,"{""ArrowUp,ArrowLeft"":26,""ArrowUp,ArrowRight"":10,""ArrowDown,ArrowLeft"":5,""ArrowDown,ArrowRight"":17}",10,,12.69,Female,5,norest,491.0,,ArrowRight,,,,,Children,3
805,61,241,8599,revaluation,False,./assets/img/canyon/animals/giraffe.jpg,canyon,17.0,,True,original,1.0,"{""ArrowUp,ArrowLeft"":26,""ArrowUp,ArrowRight"":10,""ArrowDown,ArrowLeft"":5,""ArrowDown,ArrowRight"":17}",11,,12.69,Female,5,norest,629.0000000002328,,ArrowRight,,,,,Children,4
806,62,243,8599,revaluation,False,./assets/img/canyon/animals/giraffe.jpg,canyon,17.0,,True,original,1.0,"{""ArrowUp,ArrowLeft"":26,""ArrowUp,ArrowRight"":10,""ArrowDown,ArrowLeft"":5,""ArrowDown,ArrowRight"":17}",12,,12.69,Female,5,norest,671.0,,ArrowRight,,,,,Children,5
807,63,245,8599,revaluation,False,./assets/img/canyon/animals/giraffe.jpg,canyon,17.0,,True,original,1.0,"{""ArrowUp,ArrowLeft"":26,""ArrowUp,ArrowRight"":10,""ArrowDown,ArrowLeft"":5,""ArrowDown,ArrowRight"":17}",13,,12.69,Female,5,norest,709.0,,ArrowRight,,,,,Children,6
808,64,247,8599,revaluation,False,./assets/img/canyon/animals/lion.jpg,canyon,26.0,,True,original,1.0,"{""ArrowUp,ArrowLeft"":26,""ArrowUp,ArrowRight"":10,""ArrowDown,ArrowLeft"":5,""ArrowDown,ArrowRight"":17}",14,,12.69,Female,5,norest,466.0,,ArrowLeft,,,,,Children,7
809,65,249,8599,revaluation,False,./assets/img/canyon/animals/giraffe.jpg,canyon,17.0,,True,original,1.0,"{""ArrowUp,ArrowLeft"":26,""ArrowUp,ArrowRight"":10,""ArrowDown,ArrowLeft"":5,""ArrowDown,ArrowRight"":17}",15,,12.69,Female,5,norest,673.0,,ArrowRight,,,,,Children,7
810,66,251,8599,revaluation,False,./assets/img/canyon/animals/lion.jpg,canyon,26.0,,True,original,1.0,"{""ArrowUp,ArrowLeft"":26,""ArrowUp,ArrowRight"":10,""ArrowDown,ArrowLeft"":5,""ArrowDown,ArrowRight"":17}",16,,12.69,Female,5,norest,725.0,,ArrowLeft,,,,,Children,8
811,67,253,8599,revaluation,False,./assets/img/canyon/animals/giraffe.jpg,canyon,17.0,,True,original,1.0,"{""ArrowUp,ArrowLeft"":26,""ArrowUp,ArrowRight"":10,""ArrowDown,ArrowLeft"":5,""ArrowDown,ArrowRight"":17}",17,,12.69,Female,5,norest,478.0,,ArrowRight,,,,,Children,8
874,130,394,8599,revaluation,False,./assets/img/ocean/animals/seahorse.jpg,ocean,7.0,,False,revaluation,2.0,"{""ArrowUp,ArrowLeft"":27,""ArrowUp,ArrowRight"":15,""ArrowDown,ArrowLeft"":21,""ArrowDown,ArrowRight"":7}",0,,12.69,Female,5,norest,887.9999999997672,,ArrowRight,,,,,Children,0
875,131,396,8599,revaluation,False,./assets/img/ocean/animals/octopus.jpg,ocean,15.0,,False,revaluation,2.0,"{""ArrowUp,ArrowLeft"":27,""ArrowUp,ArrowRight"":15,""ArrowDown,ArrowLeft"":21,""ArrowDown,ArrowRight"":7}",1,,12.69,Female,5,norest,915.0,,ArrowRight,,,,,Children,0
876,132,398,8599,revaluation,False,./assets/img/ocean/animals/octopus.jpg,ocean,27.0,,True,revaluation,2.0,"{""ArrowUp,ArrowLeft"":27,""ArrowUp,ArrowRight"":15,""ArrowDown,ArrowLeft"":21,""ArrowDown,ArrowRight"":7}",2,,12.69,Female,5,norest,955.0,,ArrowLeft,,,,,Children,1
877,133,400,8599,revaluation,False,./assets/img/ocean/animals/seahorse.jpg,ocean,21.0,,True,revaluation,2.0,"{""ArrowUp,ArrowLeft"":27,""ArrowUp,ArrowRight"":15,""ArrowDown,ArrowLeft"":21,""ArrowDown,ArrowRight"":7}",3,,12.69,Female,5,norest,484.0,,ArrowLeft,,,,,Children,1
878,134,402,8599,revaluation,False,./assets/img/ocean/animals/octopus.jpg,ocean,27.0,,True,revaluation,2.0,"{""ArrowUp,ArrowLeft"":27,""ArrowUp,ArrowRight"":15,""ArrowDown,ArrowLeft"":21,""ArrowDown,ArrowRight"":7}",4,,12.69,Female,5,norest,442.0,,ArrowLeft,,,,,Children,2
879,135,404,8599,revaluation,False,./assets/img/ocean/animals/seahorse.jpg,ocean,21.0,,True,revaluation,2.0,"{""ArrowUp,ArrowLeft"":27,""ArrowUp,ArrowRight"":15,""ArrowDown,ArrowLeft"":21,""ArrowDown,ArrowRight"":7}",5,,12.69,Female,5,norest,495.0,,ArrowLeft,,,,,Children,2
880,136,406,8599,revaluation,False,./assets/img/ocean/animals/seahorse.jpg,ocean,21.0,,True,revaluation,2.0,"{""ArrowUp,ArrowLeft"":27,""ArrowUp,ArrowRight"":15,""ArrowDown,ArrowLeft"":21,""ArrowDown,ArrowRight"":7}",6,,12.69,Female,5,norest,583.0,,ArrowLeft,,,,,Children,3
881,137,408,8599,revaluation,False,./assets/img/ocean/animals/octopus.jpg,ocean,27.0,,True,revaluation,2.0,"{""ArrowUp,ArrowLeft"":27,""ArrowUp,ArrowRight"":15,""ArrowDown,ArrowLeft"":21,""ArrowDown,ArrowRight"":7}",7,,12.69,Female,5,norest,507.0,,ArrowLeft,,,,,Children,3
882,138,410,8599,revaluation,False,./assets/img/ocean/animals/octopus.jpg,ocean,27.0,,True,revaluation,2.0,"{""ArrowUp,ArrowLeft"":27,""ArrowUp,ArrowRight"":15,""ArrowDown,ArrowLeft"":21,""ArrowDown,ArrowRight"":7}",8,,12.69,Female,5,norest,318.0,,ArrowLeft,,,,,Children,4
883,139,412,8599,revaluation,False,./assets/img/ocean/animals/octopus.jpg,ocean,27.0,,True,revaluation,2.0,"{""ArrowUp,ArrowLeft"":27,""ArrowUp,ArrowRight"":15,""ArrowDown,ArrowLeft"":21,""ArrowDown,ArrowRight"":7}",9,,12.69,Female,5,norest,530.0000000002328,,ArrowLeft,,,,,Children,5
884,140,414,8599,revaluation,False,./assets/img/ocean/animals/octopus.jpg,ocean,27.0,,True,revaluation,2.0,"{""ArrowUp,ArrowLeft"":27,""ArrowUp,ArrowRight"":15,""ArrowDown,ArrowLeft"":21,""ArrowDown,ArrowRight"":7}",10,,12.69,Female,5,norest,511.0,,ArrowLeft,,,,,Children,6
885,141,416,8599,revaluation,False,./assets/img/ocean/animals/seahorse.jpg,ocean,21.0,,True,revaluation,2.0,"{""ArrowUp,ArrowLeft"":27,""ArrowUp,ArrowRight"":15,""ArrowDown,ArrowLeft"":21,""ArrowDown,ArrowRight"":7}",11,,12.69,Female,5,norest,362.0,,ArrowLeft,,,,,Children,4
886,142,418,8599,revaluation,False,./assets/img/ocean/animals/seahorse.jpg,ocean,21.0,,True,revaluation,2.0,"{""ArrowUp,ArrowLeft"":27,""ArrowUp,ArrowRight"":15,""ArrowDown,ArrowLeft"":21,""ArrowDown,ArrowRight"":7}",12,,12.69,Female,5,norest,297.0,,ArrowLeft,,,,,Children,5
887,143,420,8599,revaluation,False,./assets/img/ocean/animals/seahorse.jpg,ocean,21.0,,True,revaluation,2.0,"{""ArrowUp,ArrowLeft"":27,""ArrowUp,ArrowRight"":15,""ArrowDown,ArrowLeft"":21,""ArrowDown,ArrowRight"":7}",13,,12.69,Female,5,norest,639.0,,ArrowLeft,,,,,Children,6
888,144,422,8599,revaluation,False,./assets/img/ocean/animals/seahorse.jpg,ocean,21.0,,True,revaluation,2.0,"{""ArrowUp,ArrowLeft"":27,""ArrowUp,ArrowRight"":15,""ArrowDown,ArrowLeft"":21,""ArrowDown,ArrowRight"":7}",14,,12.69,Female,5,norest,417.0,,ArrowLeft,,,,,Children,7
889,145,424,8599,revaluation,False,./assets/img/ocean/animals/octopus.jpg,ocean,27.0,,True,revaluation,2.0,"{""ArrowUp,ArrowLeft"":27,""ArrowUp,ArrowRight"":15,""ArrowDown,ArrowLeft"":21,""ArrowDown,ArrowRight"":7}",15,,12.69,Female,5,norest,338.00000000023283,,ArrowLeft,,,,,Children,7
890,146,426,8599,revaluation,False,./assets/img/ocean/animals/seahorse.jpg,ocean,21.0,,True,revaluation,2.0,"{""ArrowUp,ArrowLeft"":27,""ArrowUp,ArrowRight"":15,""ArrowDown,ArrowLeft"":21,""ArrowDown,ArrowRight"":7}",16,,12.69,Female,5,norest,930.0000000002328,,ArrowLeft,,,,,Children,8
891,147,428,8599,revaluation,False,./assets/img/ocean/animals/octopus.jpg,ocean,27.0,,True,revaluation,2.0,"{""ArrowUp,ArrowLeft"":27,""ArrowUp,ArrowRight"":15,""ArrowDown,ArrowLeft"":21,""ArrowDown,ArrowRight"":7}",17,,12.69,Female,5,norest,422.0,,ArrowLeft,,,,,Children,8
1042,50,222,8610,revaluation,False,./assets/img/canyon/animals/lion.jpg,canyon,23.0,,True,original,1.0,"{""ArrowUp,ArrowLeft"":23,""ArrowUp,ArrowRight"":10,""ArrowDown,ArrowLeft"":8,""ArrowDown,ArrowRight"":30}",0,,13.28,Male,7,norest,1734.9000000357628,,ArrowLeft,,,,,Adolescents,0
1043,51,224,8610,revaluation,False,./assets/img/canyon/animals/giraffe.jpg,canyon,30.0,,True,original,1.0,"{""ArrowUp,ArrowLeft"":23,""ArrowUp,ArrowRight"":10,""ArrowDown,ArrowLeft"":8,""ArrowDown,ArrowRight"":30}",1,,13.28,Male,7,norest,951.6000000238419,,ArrowRight,,,,,Adolescents,0
1044,52,226,8610,revaluation,False,./assets/img/canyon/animals/lion.jpg,canyon,23.0,,True,original,1.0,"{""ArrowUp,ArrowLeft"":23,""ArrowUp,ArrowRight"":10,""ArrowDown,ArrowLeft"":8,""ArrowDown,ArrowRight"":30}",2,,13.28,Male,7,norest,980.8000000119209,,ArrowLeft,,,,,Adolescents,1
1045,53,228,8610,revaluation,False,./assets/img/canyon/animals/giraffe.jpg,canyon,30.0,,True,original,1.0,"{""ArrowUp,ArrowLeft"":23,""ArrowUp,ArrowRight"":10,""ArrowDown,ArrowLeft"":8,""ArrowDown,ArrowRight"":30}",3,,13.28,Male,7,norest,499.30000001192093,,ArrowRight,,,,,Adolescents,1
1046,54,230,8610,revaluation,False,./assets/img/canyon/animals/giraffe.jpg,canyon,30.0,,True,original,1.0,"{""ArrowUp,ArrowLeft"":23,""ArrowUp,ArrowRight"":10,""ArrowDown,ArrowLeft"":8,""ArrowDown,ArrowRight"":30}",4,,13.28,Male,7,norest,541.5,,ArrowRight,,,,,Adolescents,2
1047,55,232,8610,revaluation,False,./assets/img/canyon/animals/giraffe.jpg,canyon,30.0,,True,original,1.0,"{""ArrowUp,ArrowLeft"":23,""ArrowUp,ArrowRight"":10,""ArrowDown,ArrowLeft"":8,""ArrowDown,ArrowRight"":30}",5,,13.28,Male,7,norest,578.8000000119209,,ArrowRight,,,,,Adolescents,3
1048,56,234,8610,revaluation,False,./assets/img/canyon/animals/giraffe.jpg,canyon,30.0,,True,original,1.0,"{""ArrowUp,ArrowLeft"":23,""ArrowUp,ArrowRight"":10,""ArrowDown,ArrowLeft"":8,""ArrowDown,ArrowRight"":30}",6,,13.28,Male,7,norest,318.30000001192093,,ArrowRight,,,,,Adolescents,4
1049,57,236,8610,revaluation,False,./assets/img/canyon/animals/lion.jpg,canyon,10.0,,False,original,1.0,"{""ArrowUp,ArrowLeft"":23,""ArrowUp,ArrowRight"":10,""ArrowDown,ArrowLeft"":8,""ArrowDown,ArrowRight"":30}",7,,13.28,Male,7,norest,157.69999998807907,,ArrowRight,,,,,Adolescents,2
1050,58,238,8610,revaluation,False,./assets/img/canyon/animals/giraffe.jpg,canyon,30.0,,True,original,1.0,"{""ArrowUp,ArrowLeft"":23,""ArrowUp,ArrowRight"":10,""ArrowDown,ArrowLeft"":8,""ArrowDown,ArrowRight"":30}",8,,13.28,Male,7,norest,1084.699999988079,,ArrowRight,,,,,Adolescents,5
1051,59,240,8610,revaluation,False,./assets/img/canyon/animals/lion.jpg,canyon,23.0,,True,original,1.0,"{""ArrowUp,ArrowLeft"":23,""ArrowUp,ArrowRight"":10,""ArrowDown,ArrowLeft"":8,""ArrowDown,ArrowRight"":30}",9,,13.28,Male,7,norest,635.9000000357628,,ArrowLeft,,,,,Adolescents,3
1052,60,242,8610,revaluation,False,./assets/img/canyon/animals/giraffe.jpg,canyon,30.0,,True,original,1.0,"{""ArrowUp,ArrowLeft"":23,""ArrowUp,ArrowRight"":10,""ArrowDown,ArrowLeft"":8,""ArrowDown,ArrowRight"":30}",10,,13.28,Male,7,norest,417.60000002384186,,ArrowRight,,,,,Adolescents,6
1053,61,244,8610,revaluation,False,./assets/img/canyon/animals/lion.jpg,canyon,23.0,,True,original,1.0,"{""ArrowUp,ArrowLeft"":23,""ArrowUp,ArrowRight"":10,""ArrowDown,ArrowLeft"":8,""ArrowDown,ArrowRight"":30}",11,,13.28,Male,7,norest,817.3000000119209,,ArrowLeft,,,,,Adolescents,4
1054,62,246,8610,revaluation,False,./assets/img/canyon/animals/giraffe.jpg,canyon,30.0,,True,original,1.0,"{""ArrowUp,ArrowLeft"":23,""ArrowUp,ArrowRight"":10,""ArrowDown,ArrowLeft"":8,""ArrowDown,ArrowRight"":30}",12,,13.28,Male,7,norest,952.3999999761581,,ArrowRight,,,,,Adolescents,7
1055,63,248,8610,revaluation,False,./assets/img/canyon/animals/giraffe.jpg,canyon,8.0,,False,original,1.0,"{""ArrowUp,ArrowLeft"":23,""ArrowUp,ArrowRight"":10,""ArrowDown,ArrowLeft"":8,""ArrowDown,ArrowRight"":30}",13,,13.28,Male,7,norest,424.0999999642372,,ArrowLeft,,,,,Adolescents,8
1056,64,250,8610,revaluation,False,./assets/img/canyon/animals/lion.jpg,canyon,23.0,,True,original,1.0,"{""ArrowUp,ArrowLeft"":23,""ArrowUp,ArrowRight"":10,""ArrowDown,ArrowLeft"":8,""ArrowDown,ArrowRight"":30}",14,,13.28,Male,7,norest,735.0,,ArrowLeft,,,,,Adolescents,5
1057,65,252,8610,revaluation,False,./assets/img/canyon/animals/lion.jpg,canyon,10.0,,False,original,1.0,"{""ArrowUp,ArrowLeft"":23,""ArrowUp,ArrowRight"":10,""ArrowDown,ArrowLeft"":8,""ArrowDown,ArrowRight"":30}",15,,13.28,Male,7,norest,453.60000002384186,,ArrowRight,,,,,Adolescents,6
1058,66,254,8610,revaluation,False,./assets/img/canyon/animals/lion.jpg,canyon,10.0,,False,original,1.0,"{""ArrowUp,ArrowLeft"":23,""ArrowUp,ArrowRight"":10,""ArrowDown,ArrowLeft"":8,""ArrowDown,ArrowRight"":30}",16,,13.28,Male,7,norest,934.4000000357628,,ArrowRight,,,,,Adolescents,7
1059,67,256,8610,revaluation,False,./assets/img/canyon/animals/lion.jpg,canyon,23.0,,True,original,1.0,"{""ArrowUp,ArrowLeft"":23,""ArrowUp,ArrowRight"":10,""ArrowDown,ArrowLeft"":8,""ArrowDown,ArrowRight"":30}",17,,13.28,Male,7,norest,1517.300000011921,,ArrowLeft,,,,,Adolescents,8
1122,130,397,8610,revaluation,False,./assets/img/ocean/animals/seahorse.jpg,ocean,11.0,,True,revaluation,2.0,"{""ArrowUp,ArrowLeft"":2,""ArrowUp,ArrowRight"":11,""ArrowDown,ArrowLeft"":8,""ArrowDown,ArrowRight"":27}",0,,13.28,Male,7,norest,1206.6000000238419,,ArrowRight,,,,,Adolescents,0
1123,131,399,8610,revaluation,False,./assets/img/ocean/animals/octopus.jpg,ocean,27.0,,True,revaluation,2.0,"{""ArrowUp,ArrowLeft"":2,""ArrowUp,ArrowRight"":11,""ArrowDown,ArrowLeft"":8,""ArrowDown,ArrowRight"":27}",1,,13.28,Male,7,norest,719.2999999523163,,ArrowRight,,,,,Adolescents,0
1124,132,401,8610,revaluation,False,./assets/img/ocean/animals/octopus.jpg,ocean,27.0,,True,revaluation,2.0,"{""ArrowUp,ArrowLeft"":2,""ArrowUp,ArrowRight"":11,""ArrowDown,ArrowLeft"":8,""ArrowDown,ArrowRight"":27}",2,,13.28,Male,7,norest,695.7999999523163,,ArrowRight,,,,,Adolescents,1
1125,133,403,8610,revaluation,False,./assets/img/ocean/animals/octopus.jpg,ocean,27.0,,True,revaluation,2.0,"{""ArrowUp,ArrowLeft"":2,""ArrowUp,ArrowRight"":11,""ArrowDown,ArrowLeft"":8,""ArrowDown,ArrowRight"":27}",3,,13.28,Male,7,norest,1136.199999988079,,ArrowRight,,,,,Adolescents,2
1126,134,405,8610,revaluation,False,./assets/img/ocean/animals/octopus.jpg,ocean,27.0,,True,revaluation,2.0,"{""ArrowUp,ArrowLeft"":2,""ArrowUp,ArrowRight"":11,""ArrowDown,ArrowLeft"":8,""ArrowDown,ArrowRight"":27}",4,,13.28,Male,7,norest,1117.5999999642372,,ArrowRight,,,,,Adolescents,3
1127,135,407,8610,revaluation,False,./assets/img/ocean/animals/seahorse.jpg,ocean,11.0,,True,revaluation,2.0,"{""ArrowUp,ArrowLeft"":2,""ArrowUp,ArrowRight"":11,""ArrowDown,ArrowLeft"":8,""ArrowDown,ArrowRight"":27}",5,,13.28,Male,7,norest,418.5,,ArrowRight,,,,,Adolescents,1
1128,136,409,8610,revaluation,False,./assets/img/ocean/animals/seahorse.jpg,ocean,2.0,,False,revaluation,2.0,"{""ArrowUp,ArrowLeft"":2,""ArrowUp,ArrowRight"":11,""ArrowDown,ArrowLeft"":8,""ArrowDown,ArrowRight"":27}",6,,13.28,Male,7,norest,625.1999999880791,,ArrowLeft,,,,,Adolescents,2
1129,137,411,8610,revaluation,False,./assets/img/ocean/animals/octopus.jpg,ocean,27.0,,True,revaluation,2.0,"{""ArrowUp,ArrowLeft"":2,""ArrowUp,ArrowRight"":11,""ArrowDown,ArrowLeft"":8,""ArrowDown,ArrowRight"":27}",7,,13.28,Male,7,norest,73.5,,ArrowRight,,,,,Adolescents,4
1130,138,413,8610,revaluation,False,./assets/img/ocean/animals/seahorse.jpg,ocean,11.0,,True,revaluation,2.0,"{""ArrowUp,ArrowLeft"":2,""ArrowUp,ArrowRight"":11,""ArrowDown,ArrowLeft"":8,""ArrowDown,ArrowRight"":27}",8,,13.28,Male,7,norest,64.80000001192093,,ArrowRight,,,,,Adolescents,3
1131,139,415,8610,revaluation,False,./assets/img/ocean/animals/seahorse.jpg,ocean,11.0,,True,revaluation,2.0,"{""ArrowUp,ArrowLeft"":2,""ArrowUp,ArrowRight"":11,""ArrowDown,ArrowLeft"":8,""ArrowDown,ArrowRight"":27}",9,,13.28,Male,7,norest,111.69999998807907,,ArrowRight,,,,,Adolescents,4
1132,140,417,8610,revaluation,False,./assets/img/ocean/animals/seahorse.jpg,ocean,11.0,,True,revaluation,2.0,"{""ArrowUp,ArrowLeft"":2,""ArrowUp,ArrowRight"":11,""ArrowDown,ArrowLeft"":8,""ArrowDown,ArrowRight"":27}",10,,13.28,Male,7,norest,95.89999997615814,,ArrowRight,,,,,Adolescents,5
1133,141,419,8610,revaluation,False,./assets/img/ocean/animals/octopus.jpg,ocean,27.0,,True,revaluation,2.0,"{""ArrowUp,ArrowLeft"":2,""ArrowUp,ArrowRight"":11,""ArrowDown,ArrowLeft"":8,""ArrowDown,ArrowRight"":27}",11,,13.28,Male,7,norest,32.5,,ArrowRight,,,,,Adolescents,5
1134,142,421,8610,revaluation,False,./assets/img/ocean/animals/octopus.jpg,ocean,27.0,,True,revaluation,2.0,"{""ArrowUp,ArrowLeft"":2,""ArrowUp,ArrowRight"":11,""ArrowDown,ArrowLeft"":8,""ArrowDown,ArrowRight"":27}",12,,13.28,Male,7,norest,173.20000004768372,,ArrowRight,,,,,Adolescents,6
1135,143,423,8610,revaluation,False,./assets/img/ocean/animals/seahorse.jpg,ocean,11.0,,True,revaluation,2.0,"{""ArrowUp,ArrowLeft"":2,""ArrowUp,ArrowRight"":11,""ArrowDown,ArrowLeft"":8,""ArrowDown,ArrowRight"":27}",13,,13.28,Male,7,norest,124.89999997615814,,ArrowRight,,,,,Adolescents,6
1136,144,425,8610,revaluation,False,./assets/img/ocean/animals/octopus.jpg,ocean,27.0,,True,revaluation,2.0,"{""ArrowUp,ArrowLeft"":2,""ArrowUp,ArrowRight"":11,""ArrowDown,ArrowLeft"":8,""ArrowDown,ArrowRight"":27}",14,,13.28,Male,7,norest,28.899999976158142,,ArrowRight,,,,,Adolescents,7
1137,145,427,8610,revaluation,False,./assets/img/ocean/animals/octopus.jpg,ocean,27.0,,True,revaluation,2.0,"{""ArrowUp,ArrowLeft"":2,""ArrowUp,ArrowRight"":11,""ArrowDown,ArrowLeft"":8,""ArrowDown,ArrowRight"":27}",15,,13.28,Male,7,norest,163.69999998807907,,ArrowRight,,,,,Adolescents,8
1138,146,429,8610,revaluation,False,./assets/img/ocean/animals/seahorse.jpg,ocean,11.0,,True,revaluation,2.0,"{""ArrowUp,ArrowLeft"":2,""ArrowUp,ArrowRight"":11,""ArrowDown,ArrowLeft"":8,""ArrowDown,ArrowRight"":27}",16,,13.28,Male,7,norest,410.0,,ArrowRight,,,,,Adolescents,7
1139,147,431,8610,revaluation,False,./assets/img/ocean/animals/seahorse.jpg,ocean,11.0,,True,revaluation,2.0,"{""ArrowUp,ArrowLeft"":2,""ArrowUp,ArrowRight"":11,""ArrowDown,ArrowLeft"":8,""ArrowDown,ArrowRight"":27}",17,,13.28,Male,7,norest,624.3000000119209,,ArrowRight,,,,,Adolescents,8
1290,50,219,8771,revaluation,False,./assets/img/canyon/animals/giraffe.jpg,canyon,7.0,,False,revaluation,1.0,"{""ArrowUp,ArrowLeft"":27,""ArrowUp,ArrowRight"":15,""ArrowDown,ArrowLeft"":21,""ArrowDown,ArrowRight"":7}",0,,22.96,Female,6,norest,785.9000000953674,,ArrowRight,,,,,Adults,0
1291,51,221,8771,revaluation,False,./assets/img/canyon/animals/giraffe.jpg,canyon,7.0,,False,revaluation,1.0,"{""ArrowUp,ArrowLeft"":27,""ArrowUp,ArrowRight"":15,""ArrowDown,ArrowLeft"":21,""ArrowDown,ArrowRight"":7}",1,,22.96,Female,6,norest,673.1999999284744,,ArrowRight,,,,,Adults,1
1292,52,223,8771,revaluation,False,./assets/img/canyon/animals/lion.jpg,canyon,15.0,,False,revaluation,1.0,"{""ArrowUp,ArrowLeft"":27,""ArrowUp,ArrowRight"":15,""ArrowDown,ArrowLeft"":21,""ArrowDown,ArrowRight"":7}",2,,22.96,Female,6,norest,498.7999999523163,,ArrowRight,,,,,Adults,0
1293,53,225,8771,revaluation,False,./assets/img/canyon/animals/lion.jpg,canyon,27.0,,True,revaluation,1.0,"{""ArrowUp,ArrowLeft"":27,""ArrowUp,ArrowRight"":15,""ArrowDown,ArrowLeft"":21,""ArrowDown,ArrowRight"":7}",3,,22.96,Female,6,norest,476.7000000476837,,ArrowLeft,,,,,Adults,1
1294,54,227,8771,revaluation,False,./assets/img/canyon/animals/giraffe.jpg,canyon,21.0,,True,revaluation,1.0,"{""ArrowUp,ArrowLeft"":27,""ArrowUp,ArrowRight"":15,""ArrowDown,ArrowLeft"":21,""ArrowDown,ArrowRight"":7}",4,,22.96,Female,6,norest,413.2000000476837,,ArrowLeft,,,,,Adults,2
1295,55,229,8771,revaluation,False,./assets/img/canyon/animals/giraffe.jpg,canyon,21.0,,True,revaluation,1.0,"{""ArrowUp,ArrowLeft"":27,""ArrowUp,ArrowRight"":15,""ArrowDown,ArrowLeft"":21,""ArrowDown,ArrowRight"":7}",5,,22.96,Female,6,norest,512.2999999523163,,ArrowLeft,,,,,Adults,3
1296,56,231,8771,revaluation,False,./assets/img/canyon/animals/giraffe.jpg,canyon,21.0,,True,revaluation,1.0,"{""ArrowUp,ArrowLeft"":27,""ArrowUp,ArrowRight"":15,""ArrowDown,ArrowLeft"":21,""ArrowDown,ArrowRight"":7}",6,,22.96,Female,6,norest,321.89999997615814,,ArrowLeft,,,,,Adults,4
1297,57,233,8771,revaluation,False,./assets/img/canyon/animals/lion.jpg,canyon,27.0,,True,revaluation,1.0,"{""ArrowUp,ArrowLeft"":27,""ArrowUp,ArrowRight"":15,""ArrowDown,ArrowLeft"":21,""ArrowDown,ArrowRight"":7}",7,,22.96,Female,6,norest,353.89999997615814,,ArrowLeft,,,,,Adults,2
1298,58,235,8771,revaluation,False,./assets/img/canyon/animals/giraffe.jpg,canyon,21.0,,True,revaluation,1.0,"{""ArrowUp,ArrowLeft"":27,""ArrowUp,ArrowRight"":15,""ArrowDown,ArrowLeft"":21,""ArrowDown,ArrowRight"":7}",8,,22.96,Female,6,norest,473.2000000476837,,ArrowLeft,,,,,Adults,5
1299,59,237,8771,revaluation,False,./assets/img/canyon/animals/lion.jpg,canyon,27.0,,True,revaluation,1.0,"{""ArrowUp,ArrowLeft"":27,""ArrowUp,ArrowRight"":15,""ArrowDown,ArrowLeft"":21,""ArrowDown,ArrowRight"":7}",9,,22.96,Female,6,norest,342.60000002384186,,ArrowLeft,,,,,Adults,3
1300,60,239,8771,revaluation,False,./assets/img/canyon/animals/lion.jpg,canyon,27.0,,True,revaluation,1.0,"{""ArrowUp,ArrowLeft"":27,""ArrowUp,ArrowRight"":15,""ArrowDown,ArrowLeft"":21,""ArrowDown,ArrowRight"":7}",10,,22.96,Female,6,norest,549.3999999761581,,ArrowLeft,,,,,Adults,4
1301,61,241,8771,revaluation,False,./assets/img/canyon/animals/lion.jpg,canyon,27.0,,True,revaluation,1.0,"{""ArrowUp,ArrowLeft"":27,""ArrowUp,ArrowRight"":15,""ArrowDown,ArrowLeft"":21,""ArrowDown,ArrowRight"":7}",11,,22.96,Female,6,norest,304.09999990463257,,ArrowLeft,,,,,Adults,5
1302,62,243,8771,revaluation,False,./assets/img/canyon/animals/lion.jpg,canyon,27.0,,True,revaluation,1.0,"{""ArrowUp,ArrowLeft"":27,""ArrowUp,ArrowRight"":15,""ArrowDown,ArrowLeft"":21,""ArrowDown,ArrowRight"":7}",12,,22.96,Female,6,norest,460.90000009536743,,ArrowLeft,,,,,Adults,6
1303,63,245,8771,revaluation,False,./assets/img/canyon/animals/giraffe.jpg,canyon,21.0,,True,revaluation,1.0,"{""ArrowUp,ArrowLeft"":27,""ArrowUp,ArrowRight"":15,""ArrowDown,ArrowLeft"":21,""ArrowDown,ArrowRight"":7}",13,,22.96,Female,6,norest,327.60000002384186,,ArrowLeft,,,,,Adults,6
1304,64,247,8771,revaluation,False,./assets/img/canyon/animals/giraffe.jpg,canyon,21.0,,True,revaluation,1.0,"{""ArrowUp,ArrowLeft"":27,""ArrowUp,ArrowRight"":15,""ArrowDown,ArrowLeft"":21,""ArrowDown,ArrowRight"":7}",14,,22.96,Female,6,norest,322.60000002384186,,ArrowLeft,,,,,Adults,7
1305,65,249,8771,revaluation,False,./assets/img/canyon/animals/lion.jpg,canyon,27.0,,True,revaluation,1.0,"{""ArrowUp,ArrowLeft"":27,""ArrowUp,ArrowRight"":15,""ArrowDown,ArrowLeft"":21,""ArrowDown,ArrowRight"":7}",15,,22.96,Female,6,norest,310.8000000715256,,ArrowLeft,,,,,Adults,7
1306,66,251,8771,revaluation,False,./assets/img/canyon/animals/lion.jpg,canyon,27.0,,True,revaluation,1.0,"{""ArrowUp,ArrowLeft"":27,""ArrowUp,ArrowRight"":15,""ArrowDown,ArrowLeft"":21,""ArrowDown,ArrowRight"":7}",16,,22.96,Female,6,norest,470.6999999284744,,ArrowLeft,,,,,Adults,8
1307,67,253,8771,revaluation,False,./assets/img/canyon/animals/giraffe.jpg,canyon,21.0,,True,revaluation,1.0,"{""ArrowUp,ArrowLeft"":27,""ArrowUp,ArrowRight"":15,""ArrowDown,ArrowLeft"":21,""ArrowDown,ArrowRight"":7}",17,,22.96,Female,6,norest,427.90000009536743,,ArrowLeft,,,,,Adults,8
1370,130,394,8771,revaluation,False,./assets/img/ocean/animals/seahorse.jpg,ocean,17.0,,True,original,2.0,"{""ArrowUp,ArrowLeft"":26,""ArrowUp,ArrowRight"":10,""ArrowDown,ArrowLeft"":5,""ArrowDown,ArrowRight"":17}",0,,22.96,Female,6,norest,1079.3999999761581,,ArrowRight,,,,,Adults,0
1371,131,396,8771,revaluation,False,./assets/img/ocean/animals/octopus.jpg,ocean,26.0,,True,original,2.0,"{""ArrowUp,ArrowLeft"":26,""ArrowUp,ArrowRight"":10,""ArrowDown,ArrowLeft"":5,""ArrowDown,ArrowRight"":17}",1,,22.96,Female,6,norest,455.7000000476837,,ArrowLeft,,,,,Adults,0
1372,132,398,8771,revaluation,False,./assets/img/ocean/animals/octopus.jpg,ocean,26.0,,True,original,2.0,"{""ArrowUp,ArrowLeft"":26,""ArrowUp,ArrowRight"":10,""ArrowDown,ArrowLeft"":5,""ArrowDown,ArrowRight"":17}",2,,22.96,Female,6,norest,634.5,,ArrowLeft,,,,,Adults,1
1373,133,400,8771,revaluation,False,./assets/img/ocean/animals/octopus.jpg,ocean,26.0,,True,original,2.0,"{""ArrowUp,ArrowLeft"":26,""ArrowUp,ArrowRight"":10,""ArrowDown,ArrowLeft"":5,""ArrowDown,ArrowRight"":17}",3,,22.96,Female,6,norest,562.5,,ArrowLeft,,,,,Adults,2
1374,134,402,8771,revaluation,False,./assets/img/ocean/animals/seahorse.jpg,ocean,17.0,,True,original,2.0,"{""ArrowUp,ArrowLeft"":26,""ArrowUp,ArrowRight"":10,""ArrowDown,ArrowLeft"":5,""ArrowDown,ArrowRight"":17}",4,,22.96,Female,6,norest,580.5999999046326,,ArrowRight,,,,,Adults,1
1375,135,404,8771,revaluation,False,./assets/img/ocean/animals/octopus.jpg,ocean,26.0,,True,original,2.0,"{""ArrowUp,ArrowLeft"":26,""ArrowUp,ArrowRight"":10,""ArrowDown,ArrowLeft"":5,""ArrowDown,ArrowRight"":17}",5,,22.96,Female,6,norest,475.7999999523163,,ArrowLeft,,,,,Adults,3
1376,136,406,8771,revaluation,False,./assets/img/ocean/animals/octopus.jpg,ocean,26.0,,True,original,2.0,"{""ArrowUp,ArrowLeft"":26,""ArrowUp,ArrowRight"":10,""ArrowDown,ArrowLeft"":5,""ArrowDown,ArrowRight"":17}",6,,22.96,Female,6,norest,546.2000000476837,,ArrowLeft,,,,,Adults,4
1377,137,408,8771,revaluation,False,./assets/img/ocean/animals/seahorse.jpg,ocean,17.0,,True,original,2.0,"{""ArrowUp,ArrowLeft"":26,""ArrowUp,ArrowRight"":10,""ArrowDown,ArrowLeft"":5,""ArrowDown,ArrowRight"":17}",7,,22.96,Female,6,norest,499.89999997615814,,ArrowRight,,,,,Adults,2
1378,138,410,8771,revaluation,False,./assets/img/ocean/animals/seahorse.jpg,ocean,17.0,,True,original,2.0,"{""ArrowUp,ArrowLeft"":26,""ArrowUp,ArrowRight"":10,""ArrowDown,ArrowLeft"":5,""ArrowDown,ArrowRight"":17}",8,,22.96,Female,6,norest,533.3000000715256,,ArrowRight,,,,,Adults,3
1379,139,412,8771,revaluation,False,./assets/img/ocean/animals/seahorse.jpg,ocean,17.0,,True,original,2.0,"{""ArrowUp,ArrowLeft"":26,""ArrowUp,ArrowRight"":10,""ArrowDown,ArrowLeft"":5,""ArrowDown,ArrowRight"":17}",9,,22.96,Female,6,norest,891.7000000476837,,ArrowRight,,,,,Adults,4
1380,140,414,8771,revaluation,False,./assets/img/ocean/animals/octopus.jpg,ocean,26.0,,True,original,2.0,"{""ArrowUp,ArrowLeft"":26,""ArrowUp,ArrowRight"":10,""ArrowDown,ArrowLeft"":5,""ArrowDown,ArrowRight"":17}",10,,22.96,Female,6,norest,563.2000000476837,,ArrowLeft,,,,,Adults,5
1381,141,416,8771,revaluation,False,./assets/img/ocean/animals/octopus.jpg,ocean,26.0,,True,original,2.0,"{""ArrowUp,ArrowLeft"":26,""ArrowUp,ArrowRight"":10,""ArrowDown,ArrowLeft"":5,""ArrowDown,ArrowRight"":17}",11,,22.96,Female,6,norest,693.0,,ArrowLeft,,,,,Adults,6
1382,142,418,8771,revaluation,False,./assets/img/ocean/animals/octopus.jpg,ocean,26.0,,True,original,2.0,"{""ArrowUp,ArrowLeft"":26,""ArrowUp,ArrowRight"":10,""ArrowDown,ArrowLeft"":5,""ArrowDown,ArrowRight"":17}",12,,22.96,Female,6,norest,652.0,,ArrowLeft,,,,,Adults,7
1383,143,420,8771,revaluation,False,./assets/img/ocean/animals/seahorse.jpg,ocean,17.0,,True,original,2.0,"{""ArrowUp,ArrowLeft"":26,""ArrowUp,ArrowRight"":10,""ArrowDown,ArrowLeft"":5,""ArrowDown,ArrowRight"":17}",13,,22.96,Female,6,norest,498.90000009536743,,ArrowRight,,,,,Adults,5
1384,144,422,8771,revaluation,False,./assets/img/ocean/animals/seahorse.jpg,ocean,17.0,,True,original,2.0,"{""ArrowUp,ArrowLeft"":26,""ArrowUp,ArrowRight"":10,""ArrowDown,ArrowLeft"":5,""ArrowDown,ArrowRight"":17}",14,,22.96,Female,6,norest,508.60000002384186,,ArrowRight,,,,,Adults,6
1385,145,424,8771,revaluation,False,./assets/img/ocean/animals/octopus.jpg,ocean,26.0,,True,original,2.0,"{""ArrowUp,ArrowLeft"":26,""ArrowUp,ArrowRight"":10,""ArrowDown,ArrowLeft"":5,""ArrowDown,ArrowRight"":17}",15,,22.96,Female,6,norest,588.1999999284744,,ArrowLeft,,,,,Adults,8
1386,146,426,8771,revaluation,False,./assets/img/ocean/animals/seahorse.jpg,ocean,17.0,,True,original,2.0,"{""ArrowUp,ArrowLeft"":26,""ArrowUp,ArrowRight"":10,""ArrowDown,ArrowLeft"":5,""ArrowDown,ArrowRight"":17}",16,,22.96,Female,6,norest,583.7000000476837,,ArrowRight,,,,,Adults,7
1387,147,428,8771,revaluation,False,./assets/img/ocean/animals/seahorse.jpg,ocean,17.0,,True,original,2.0,"{""ArrowUp,ArrowLeft"":26,""ArrowUp,ArrowRight"":10,""ArrowDown,ArrowLeft"":5,""ArrowDown,ArrowRight"":17}",17,,22.96,Female,6,norest,543.6999999284744,,ArrowRight,,,,,Adults,8
1538,50,218,8201,revaluation,False,./assets/img/ocean/animals/seahorse.jpg,ocean,8.0,,False,revaluation,1.0,"{""ArrowUp,ArrowLeft"":2,""ArrowUp,ArrowRight"":11,""ArrowDown,ArrowLeft"":8,""ArrowDown,ArrowRight"":27}",0,,19.34,Male,4,norest,1715.5,,ArrowLeft,,,,,Adults,0
1539,51,220,8201,revaluation,False,./assets/img/ocean/animals/seahorse.jpg,ocean,27.0,,True,revaluation,1.0,"{""ArrowUp,ArrowLeft"":2,""ArrowUp,ArrowRight"":11,""ArrowDown,ArrowLeft"":8,""ArrowDown,ArrowRight"":27}",1,,19.34,Male,4,norest,355.19999999925494,,ArrowRight,,,,,Adults,1
1540,52,222,8201,revaluation,False,./assets/img/ocean/animals/seahorse.jpg,ocean,27.0,,True,revaluation,1.0,"{""ArrowUp,ArrowLeft"":2,""ArrowUp,ArrowRight"":11,""ArrowDown,ArrowLeft"":8,""ArrowDown,ArrowRight"":27}",2,,19.34,Male,4,norest,517.7999999988824,,ArrowRight,,,,,Adults,2
1541,53,224,8201,revaluation,False,./assets/img/ocean/animals/octopus.jpg,ocean,11.0,,True,revaluation,1.0,"{""ArrowUp,ArrowLeft"":2,""ArrowUp,ArrowRight"":11,""ArrowDown,ArrowLeft"":8,""ArrowDown,ArrowRight"":27}",3,,19.34,Male,4,norest,434.2999999988824,,ArrowRight,,,,,Adults,0
1542,54,226,8201,revaluation,False,./assets/img/ocean/animals/seahorse.jpg,ocean,27.0,,True,revaluation,1.0,"{""ArrowUp,ArrowLeft"":2,""ArrowUp,ArrowRight"":11,""ArrowDown,ArrowLeft"":8,""ArrowDown,ArrowRight"":27}",4,,19.34,Male,4,norest,876.1000000014901,,ArrowRight,,,,,Adults,3
1543,55,228,8201,revaluation,False,./assets/img/ocean/animals/octopus.jpg,ocean,2.0,,False,revaluation,1.0,"{""ArrowUp,ArrowLeft"":2,""ArrowUp,ArrowRight"":11,""ArrowDown,ArrowLeft"":8,""ArrowDown,ArrowRight"":27}",5,,19.34,Male,4,norest,765.7999999988824,,ArrowLeft,,,,,Adults,1
1544,56,230,8201,revaluation,False,./assets/img/ocean/animals/octopus.jpg,ocean,11.0,,True,revaluation,1.0,"{""ArrowUp,ArrowLeft"":2,""ArrowUp,ArrowRight"":11,""ArrowDown,ArrowLeft"":8,""ArrowDown,ArrowRight"":27}",6,,19.34,Male,4,norest,583.3000000007451,,ArrowRight,,,,,Adults,2
1545,57,232,8201,revaluation,False,./assets/img/ocean/animals/seahorse.jpg,ocean,27.0,,True,revaluation,1.0,"{""ArrowUp,ArrowLeft"":2,""ArrowUp,ArrowRight"":11,""ArrowDown,ArrowLeft"":8,""ArrowDown,ArrowRight"":27}",7,,19.34,Male,4,norest,558.0,,ArrowRight,,,,,Adults,4
1546,58,234,8201,revaluation,False,./assets/img/ocean/animals/octopus.jpg,ocean,11.0,,True,revaluation,1.0,"{""ArrowUp,ArrowLeft"":2,""ArrowUp,ArrowRight"":11,""ArrowDown,ArrowLeft"":8,""ArrowDown,ArrowRight"":27}",8,,19.34,Male,4,norest,450.7000000011176,,ArrowRight,,,,,Adults,3
1547,59,236,8201,revaluation,False,./assets/img/ocean/animals/seahorse.jpg,ocean,27.0,,True,revaluation,1.0,"{""ArrowUp,ArrowLeft"":2,""ArrowUp,ArrowRight"":11,""ArrowDown,ArrowLeft"":8,""ArrowDown,ArrowRight"":27}",9,,19.34,Male,4,norest,569.0,,ArrowRight,,,,,Adults,5
1548,60,238,8201,revaluation,False,./assets/img/ocean/animals/octopus.jpg,ocean,2.0,,False,revaluation,1.0,"{""ArrowUp,ArrowLeft"":2,""ArrowUp,ArrowRight"":11,""ArrowDown,ArrowLeft"":8,""ArrowDown,ArrowRight"":27}",10,,19.34,Male,4,norest,480.0,,ArrowLeft,,,,,Adults,4
1549,61,240,8201,revaluation,False,./assets/img/ocean/animals/octopus.jpg,ocean,11.0,,True,revaluation,1.0,"{""ArrowUp,ArrowLeft"":2,""ArrowUp,ArrowRight"":11,""ArrowDown,ArrowLeft"":8,""ArrowDown,ArrowRight"":27}",11,,19.34,Male,4,norest,374.3999999985099,,ArrowRight,,,,,Adults,5
1550,62,242,8201,revaluation,False,./assets/img/ocean/animals/octopus.jpg,ocean,11.0,,True,revaluation,1.0,"{""ArrowUp,ArrowLeft"":2,""ArrowUp,ArrowRight"":11,""ArrowDown,ArrowLeft"":8,""ArrowDown,ArrowRight"":27}",12,,19.34,Male,4,norest,291.40000000037253,,ArrowRight,,,,,Adults,6
1551,63,244,8201,revaluation,False,./assets/img/ocean/animals/seahorse.jpg,ocean,27.0,,True,revaluation,1.0,"{""ArrowUp,ArrowLeft"":2,""ArrowUp,ArrowRight"":11,""ArrowDown,ArrowLeft"":8,""ArrowDown,ArrowRight"":27}",13,,19.34,Male,4,norest,296.8999999985099,,ArrowRight,,,,,Adults,6
1552,64,246,8201,revaluation,False,./assets/img/ocean/animals/octopus.jpg,ocean,11.0,,True,revaluation,1.0,"{""ArrowUp,ArrowLeft"":2,""ArrowUp,ArrowRight"":11,""ArrowDown,ArrowLeft"":8,""ArrowDown,ArrowRight"":27}",14,,19.34,Male,4,norest,61.19999999925494,,ArrowRight,,,,,Adults,7
1553,65,248,8201,revaluation,False,./assets/img/ocean/animals/octopus.jpg,ocean,11.0,,True,revaluation,1.0,"{""ArrowUp,ArrowLeft"":2,""ArrowUp,ArrowRight"":11,""ArrowDown,ArrowLeft"":8,""ArrowDown,ArrowRight"":27}",15,,19.34,Male,4,norest,335.0,,ArrowRight,,,,,Adults,8
1554,66,250,8201,revaluation,False,./assets/img/ocean/animals/seahorse.jpg,ocean,27.0,,True,revaluation,1.0,"{""ArrowUp,ArrowLeft"":2,""ArrowUp,ArrowRight"":11,""ArrowDown,ArrowLeft"":8,""ArrowDown,ArrowRight"":27}",16,,19.34,Male,4,norest,247.0,,ArrowRight,,,,,Adults,7
1555,67,252,8201,revaluation,False,./assets/img/ocean/animals/seahorse.jpg,ocean,27.0,,True,revaluation,1.0,"{""ArrowUp,ArrowLeft"":2,""ArrowUp,ArrowRight"":11,""ArrowDown,ArrowLeft"":8,""ArrowDown,ArrowRight"":27}",17,,19.34,Male,4,norest,476.69999999925494,,ArrowRight,,,,,Adults,8
1618,130,393,8201,revaluation,False,./assets/img/canyon/animals/lion.jpg,canyon,10.0,,False,original,2.0,"{""ArrowUp,ArrowLeft"":23,""ArrowUp,ArrowRight"":10,""ArrowDown,ArrowLeft"":8,""ArrowDown,ArrowRight"":30}",0,,19.34,Male,4,norest,602.0,,ArrowRight,,,,,Adults,0
1619,131,395,8201,revaluation,False,./assets/img/canyon/animals/giraffe.jpg,canyon,30.0,,True,original,2.0,"{""ArrowUp,ArrowLeft"":23,""ArrowUp,ArrowRight"":10,""ArrowDown,ArrowLeft"":8,""ArrowDown,ArrowRight"":30}",1,,19.34,Male,4,norest,849.5999999996275,,ArrowRight,,,,,Adults,0
1620,132,397,8201,revaluation,False,./assets/img/canyon/animals/lion.jpg,canyon,23.0,,True,original,2.0,"{""ArrowUp,ArrowLeft"":23,""ArrowUp,ArrowRight"":10,""ArrowDown,ArrowLeft"":8,""ArrowDown,ArrowRight"":30}",2,,19.34,Male,4,norest,639.6999999992549,,ArrowLeft,,,,,Adults,1
1621,133,399,8201,revaluation,False,./assets/img/canyon/animals/giraffe.jpg,canyon,30.0,,True,original,2.0,"{""ArrowUp,ArrowLeft"":23,""ArrowUp,ArrowRight"":10,""ArrowDown,ArrowLeft"":8,""ArrowDown,ArrowRight"":30}",3,,19.34,Male,4,norest,806.8999999985099,,ArrowRight,,,,,Adults,1
1622,134,401,8201,revaluation,False,./assets/img/canyon/animals/giraffe.jpg,canyon,30.0,,True,original,2.0,"{""ArrowUp,ArrowLeft"":23,""ArrowUp,ArrowRight"":10,""ArrowDown,ArrowLeft"":8,""ArrowDown,ArrowRight"":30}",4,,19.34,Male,4,norest,739.3000000007451,,ArrowRight,,,,,Adults,2
1623,135,403,8201,revaluation,False,./assets/img/canyon/animals/giraffe.jpg,canyon,30.0,,True,original,2.0,"{""ArrowUp,ArrowLeft"":23,""ArrowUp,ArrowRight"":10,""ArrowDown,ArrowLeft"":8,""ArrowDown,ArrowRight"":30}",5,,19.34,Male,4,norest,587.3000000007451,,ArrowRight,,,,,Adults,3
1624,136,405,8201,revaluation,False,./assets/img/canyon/animals/lion.jpg,canyon,23.0,,True,original,2.0,"{""ArrowUp,ArrowLeft"":23,""ArrowUp,ArrowRight"":10,""ArrowDown,ArrowLeft"":8,""ArrowDown,ArrowRight"":30}",6,,19.34,Male,4,norest,541.9000000003725,,ArrowLeft,,,,,Adults,2
1625,137,407,8201,revaluation,False,./assets/img/canyon/animals/lion.jpg,canyon,23.0,,True,original,2.0,"{""ArrowUp,ArrowLeft"":23,""ArrowUp,ArrowRight"":10,""ArrowDown,ArrowLeft"":8,""ArrowDown,ArrowRight"":30}",7,,19.34,Male,4,norest,748.1999999992549,,ArrowLeft,,,,,Adults,3
1626,138,409,8201,revaluation,False,./assets/img/canyon/animals/giraffe.jpg,canyon,30.0,,True,original,2.0,"{""ArrowUp,ArrowLeft"":23,""ArrowUp,ArrowRight"":10,""ArrowDown,ArrowLeft"":8,""ArrowDown,ArrowRight"":30}",8,,19.34,Male,4,norest,1111.800000000745,,ArrowRight,,,,,Adults,4
1627,139,411,8201,revaluation,False,./assets/img/canyon/animals/giraffe.jpg,canyon,30.0,,True,original,2.0,"{""ArrowUp,ArrowLeft"":23,""ArrowUp,ArrowRight"":10,""ArrowDown,ArrowLeft"":8,""ArrowDown,ArrowRight"":30}",9,,19.34,Male,4,norest,976.5999999996275,,ArrowRight,,,,,Adults,5
1628,140,413,8201,revaluation,False,./assets/img/canyon/animals/lion.jpg,canyon,23.0,,True,original,2.0,"{""ArrowUp,ArrowLeft"":23,""ArrowUp,ArrowRight"":10,""ArrowDown,ArrowLeft"":8,""ArrowDown,ArrowRight"":30}",10,,19.34,Male,4,norest,658.0,,ArrowLeft,,,,,Adults,4
1629,141,415,8201,revaluation,False,./assets/img/canyon/animals/lion.jpg,canyon,23.0,,True,original,2.0,"{""ArrowUp,ArrowLeft"":23,""ArrowUp,ArrowRight"":10,""ArrowDown,ArrowLeft"":8,""ArrowDown,ArrowRight"":30}",11,,19.34,Male,4,norest,1489.300000000745,,ArrowLeft,,,,,Adults,5
1630,142,417,8201,revaluation,False,./assets/img/canyon/animals/giraffe.jpg,canyon,30.0,,True,original,2.0,"{""ArrowUp,ArrowLeft"":23,""ArrowUp,ArrowRight"":10,""ArrowDown,ArrowLeft"":8,""ArrowDown,ArrowRight"":30}",12,,19.34,Male,4,norest,723.6000000014901,,ArrowRight,,,,,Adults,6
1631,143,419,8201,revaluation,False,./assets/img/canyon/animals/giraffe.jpg,canyon,30.0,,True,original,2.0,"{""ArrowUp,ArrowLeft"":23,""ArrowUp,ArrowRight"":10,""ArrowDown,ArrowLeft"":8,""ArrowDown,ArrowRight"":30}",13,,19.34,Male,4,norest,1113.800000000745,,ArrowRight,,,,,Adults,7
1632,144,421,8201,revaluation,False,./assets/img/canyon/animals/giraffe.jpg,canyon,30.0,,True,original,2.0,"{""ArrowUp,ArrowLeft"":23,""ArrowUp,ArrowRight"":10,""ArrowDown,ArrowLeft"":8,""ArrowDown,ArrowRight"":30}",14,,19.34,Male,4,norest,543.7999999988824,,ArrowRight,,,,,Adults,8
1633,145,423,8201,revaluation,False,./assets/img/canyon/animals/lion.jpg,canyon,23.0,,True,original,2.0,"{""ArrowUp,ArrowLeft"":23,""ArrowUp,ArrowRight"":10,""ArrowDown,ArrowLeft"":8,""ArrowDown,ArrowRight"":30}",15,,19.34,Male,4,norest,766.5999999996275,,ArrowLeft,,,,,Adults,6
1634,146,425,8201,revaluation,False,./assets/img/canyon/animals/lion.jpg,canyon,23.0,,True,original,2.0,"{""ArrowUp,ArrowLeft"":23,""ArrowUp,ArrowRight"":10,""ArrowDown,ArrowLeft"":8,""ArrowDown,ArrowRight"":30}",16,,19.34,Male,4,norest,789.9000000003725,,ArrowLeft,,,,,Adults,7
1635,147,427,8201,revaluation,False,./assets/img/canyon/animals/lion.jpg,canyon,23.0,,True,original,2.0,"{""ArrowUp,ArrowLeft"":23,""ArrowUp,ArrowRight"":10,""ArrowDown,ArrowLeft"":8,""ArrowDown,ArrowRight"":30}",17,,19.34,Male,4,norest,1126.5,,ArrowLeft,,,,,Adults,8
1786,50,218,8559,revaluation,False,./assets/img/canyon/animals/giraffe.jpg,canyon,15.0,,False,revaluation,1.0,"{""ArrowUp,ArrowLeft"":27,""ArrowUp,ArrowRight"":15,""ArrowDown,ArrowLeft"":21,""ArrowDown,ArrowRight"":7}",0,,10.18,Male,6,norest,910.9000000001397,,ArrowRight,,,,,Children,0
1787,51,220,8559,revaluation,False,./assets/img/canyon/animals/giraffe.jpg,canyon,27.0,,True,revaluation,1.0,"{""ArrowUp,ArrowLeft"":27,""ArrowUp,ArrowRight"":15,""ArrowDown,ArrowLeft"":21,""ArrowDown,ArrowRight"":7}",1,,10.18,Male,6,norest,925.4000000001397,,ArrowLeft,,,,,Children,1
1788,52,222,8559,revaluation,False,./assets/img/canyon/animals/lion.jpg,canyon,21.0,,True,revaluation,1.0,"{""ArrowUp,ArrowLeft"":27,""ArrowUp,ArrowRight"":15,""ArrowDown,ArrowLeft"":21,""ArrowDown,ArrowRight"":7}",2,,10.18,Male,6,norest,612.6999999999534,,ArrowLeft,,,,,Children,0
1789,53,224,8559,revaluation,False,./assets/img/canyon/animals/lion.jpg,canyon,7.0,,False,revaluation,1.0,"{""ArrowUp,ArrowLeft"":27,""ArrowUp,ArrowRight"":15,""ArrowDown,ArrowLeft"":21,""ArrowDown,ArrowRight"":7}",3,,10.18,Male,6,norest,536.8000000000466,,ArrowRight,,,,,Children,1
1790,54,226,8559,revaluation,False,./assets/img/canyon/animals/lion.jpg,canyon,21.0,,True,revaluation,1.0,"{""ArrowUp,ArrowLeft"":27,""ArrowUp,ArrowRight"":15,""ArrowDown,ArrowLeft"":21,""ArrowDown,ArrowRight"":7}",4,,10.18,Male,6,norest,817.6999999999534,,ArrowLeft,,,,,Children,2
1791,55,228,8559,revaluation,False,./assets/img/canyon/animals/giraffe.jpg,canyon,27.0,,True,revaluation,1.0,"{""ArrowUp,ArrowLeft"":27,""ArrowUp,ArrowRight"":15,""ArrowDown,ArrowLeft"":21,""ArrowDown,ArrowRight"":7}",5,,10.18,Male,6,norest,480.60000000009313,,ArrowLeft,,,,,Children,2
1792,56,230,8559,revaluation,False,./assets/img/canyon/animals/giraffe.jpg,canyon,27.0,,True,revaluation,1.0,"{""ArrowUp,ArrowLeft"":27,""ArrowUp,ArrowRight"":15,""ArrowDown,ArrowLeft"":21,""ArrowDown,ArrowRight"":7}",6,,10.18,Male,6,norest,515.8999999999069,,ArrowLeft,,,,,Children,3
1793,57,232,8559,revaluation,False,./assets/img/canyon/animals/lion.jpg,canyon,21.0,,True,revaluation,1.0,"{""ArrowUp,ArrowLeft"":27,""ArrowUp,ArrowRight"":15,""ArrowDown,ArrowLeft"":21,""ArrowDown,ArrowRight"":7}",7,,10.18,Male,6,norest,571.0,,ArrowLeft,,,,,Children,3
1794,58,234,8559,revaluation,False,./assets/img/canyon/animals/lion.jpg,canyon,21.0,,True,revaluation,1.0,"{""ArrowUp,ArrowLeft"":27,""ArrowUp,ArrowRight"":15,""ArrowDown,ArrowLeft"":21,""ArrowDown,ArrowRight"":7}",8,,10.18,Male,6,norest,450.19999999995343,,ArrowLeft,,,,,Children,4
1795,59,236,8559,revaluation,False,./assets/img/canyon/animals/giraffe.jpg,canyon,27.0,,True,revaluation,1.0,"{""ArrowUp,ArrowLeft"":27,""ArrowUp,ArrowRight"":15,""ArrowDown,ArrowLeft"":21,""ArrowDown,ArrowRight"":7}",9,,10.18,Male,6,norest,662.4000000001397,,ArrowLeft,,,,,Children,4
1796,60,238,8559,revaluation,False,./assets/img/canyon/animals/lion.jpg,canyon,21.0,,True,revaluation,1.0,"{""ArrowUp,ArrowLeft"":27,""ArrowUp,ArrowRight"":15,""ArrowDown,ArrowLeft"":21,""ArrowDown,ArrowRight"":7}",10,,10.18,Male,6,norest,461.0,,ArrowLeft,,,,,Children,5
1797,61,240,8559,revaluation,False,./assets/img/canyon/animals/giraffe.jpg,canyon,27.0,,True,revaluation,1.0,"{""ArrowUp,ArrowLeft"":27,""ArrowUp,ArrowRight"":15,""ArrowDown,ArrowLeft"":21,""ArrowDown,ArrowRight"":7}",11,,10.18,Male,6,norest,780.8999999999069,,ArrowLeft,,,,,Children,5
1798,62,242,8559,revaluation,False,./assets/img/canyon/animals/giraffe.jpg,canyon,27.0,,True,revaluation,1.0,"{""ArrowUp,ArrowLeft"":27,""ArrowUp,ArrowRight"":15,""ArrowDown,ArrowLeft"":21,""ArrowDown,ArrowRight"":7}",12,,10.18,Male,6,norest,771.3000000002794,,ArrowLeft,,,,,Children,6
1799,63,244,8559,revaluation,False,./assets/img/canyon/animals/lion.jpg,canyon,21.0,,True,revaluation,1.0,"{""ArrowUp,ArrowLeft"":27,""ArrowUp,ArrowRight"":15,""ArrowDown,ArrowLeft"":21,""ArrowDown,ArrowRight"":7}",13,,10.18,Male,6,norest,1172.5,,ArrowLeft,,,,,Children,6
1800,64,246,8559,revaluation,False,./assets/img/canyon/animals/lion.jpg,canyon,21.0,,True,revaluation,1.0,"{""ArrowUp,ArrowLeft"":27,""ArrowUp,ArrowRight"":15,""ArrowDown,ArrowLeft"":21,""ArrowDown,ArrowRight"":7}",14,,10.18,Male,6,norest,697.5999999996275,,ArrowLeft,,,,,Children,7
1801,65,248,8559,revaluation,False,./assets/img/canyon/animals/lion.jpg,canyon,21.0,,True,revaluation,1.0,"{""ArrowUp,ArrowLeft"":27,""ArrowUp,ArrowRight"":15,""ArrowDown,ArrowLeft"":21,""ArrowDown,ArrowRight"":7}",15,,10.18,Male,6,norest,772.2999999998137,,ArrowLeft,,,,,Children,8
1802,66,250,8559,revaluation,False,./assets/img/canyon/animals/giraffe.jpg,canyon,27.0,,True,revaluation,1.0,"{""ArrowUp,ArrowLeft"":27,""ArrowUp,ArrowRight"":15,""ArrowDown,ArrowLeft"":21,""ArrowDown,ArrowRight"":7}",16,,10.18,Male,6,norest,1245.4000000003725,,ArrowLeft,,,,,Children,7
1803,67,252,8559,revaluation,False,./assets/img/canyon/animals/giraffe.jpg,canyon,27.0,,True,revaluation,1.0,"{""ArrowUp,ArrowLeft"":27,""ArrowUp,ArrowRight"":15,""ArrowDown,ArrowLeft"":21,""ArrowDown,ArrowRight"":7}",17,,10.18,Male,6,norest,820.1999999997206,,ArrowLeft,,,,,Children,8
1866,130,393,8559,revaluation,False,./assets/img/ocean/animals/octopus.jpg,ocean,26.0,,True,original,2.0,"{""ArrowUp,ArrowLeft"":26,""ArrowUp,ArrowRight"":10,""ArrowDown,ArrowLeft"":5,""ArrowDown,ArrowRight"":17}",0,,10.18,Male,6,norest,728.1000000000931,,ArrowLeft,,,,,Children,0
1867,131,395,8559,revaluation,False,./assets/img/ocean/animals/seahorse.jpg,ocean,5.0,,False,original,2.0,"{""ArrowUp,ArrowLeft"":26,""ArrowUp,ArrowRight"":10,""ArrowDown,ArrowLeft"":5,""ArrowDown,ArrowRight"":17}",1,,10.18,Male,6,norest,1046.7000000001863,,ArrowLeft,,,,,Children,0
1868,132,397,8559,revaluation,False,./assets/img/ocean/animals/seahorse.jpg,ocean,17.0,,True,original,2.0,"{""ArrowUp,ArrowLeft"":26,""ArrowUp,ArrowRight"":10,""ArrowDown,ArrowLeft"":5,""ArrowDown,ArrowRight"":17}",2,,10.18,Male,6,norest,588.6000000000931,,ArrowRight,,,,,Children,1
1869,133,399,8559,revaluation,False,./assets/img/ocean/animals/seahorse.jpg,ocean,17.0,,True,original,2.0,"{""ArrowUp,ArrowLeft"":26,""ArrowUp,ArrowRight"":10,""ArrowDown,ArrowLeft"":5,""ArrowDown,ArrowRight"":17}",3,,10.18,Male,6,norest,413.0,,ArrowRight,,,,,Children,2
1870,134,401,8559,revaluation,False,./assets/img/ocean/animals/octopus.jpg,ocean,26.0,,True,original,2.0,"{""ArrowUp,ArrowLeft"":26,""ArrowUp,ArrowRight"":10,""ArrowDown,ArrowLeft"":5,""ArrowDown,ArrowRight"":17}",4,,10.18,Male,6,norest,34.700000000186265,,ArrowLeft,,,,,Children,1
1871,135,403,8559,revaluation,False,./assets/img/ocean/animals/seahorse.jpg,ocean,17.0,,True,original,2.0,"{""ArrowUp,ArrowLeft"":26,""ArrowUp,ArrowRight"":10,""ArrowDown,ArrowLeft"":5,""ArrowDown,ArrowRight"":17}",5,,10.18,Male,6,norest,742.1000000000931,,ArrowRight,,,,,Children,3
1872,136,405,8559,revaluation,False,./assets/img/ocean/animals/octopus.jpg,ocean,26.0,,True,original,2.0,"{""ArrowUp,ArrowLeft"":26,""ArrowUp,ArrowRight"":10,""ArrowDown,ArrowLeft"":5,""ArrowDown,ArrowRight"":17}",6,,10.18,Male,6,norest,398.1999999997206,,ArrowLeft,,,,,Children,2
1873,137,407,8559,revaluation,False,./assets/img/ocean/animals/octopus.jpg,ocean,26.0,,True,original,2.0,"{""ArrowUp,ArrowLeft"":26,""ArrowUp,ArrowRight"":10,""ArrowDown,ArrowLeft"":5,""ArrowDown,ArrowRight"":17}",7,,10.18,Male,6,norest,548.1000000000931,,ArrowLeft,,,,,Children,3
1874,138,409,8559,revaluation,False,./assets/img/ocean/animals/octopus.jpg,ocean,26.0,,True,original,2.0,"{""ArrowUp,ArrowLeft"":26,""ArrowUp,ArrowRight"":10,""ArrowDown,ArrowLeft"":5,""ArrowDown,ArrowRight"":17}",8,,10.18,Male,6,norest,508.79999999981374,,ArrowLeft,,,,,Children,4
1875,139,411,8559,revaluation,False,./assets/img/ocean/animals/seahorse.jpg,ocean,17.0,,True,original,2.0,"{""ArrowUp,ArrowLeft"":26,""ArrowUp,ArrowRight"":10,""ArrowDown,ArrowLeft"":5,""ArrowDown,ArrowRight"":17}",9,,10.18,Male,6,norest,485.29999999981374,,ArrowRight,,,,,Children,4
1876,140,413,8559,revaluation,False,./assets/img/ocean/animals/octopus.jpg,ocean,26.0,,True,original,2.0,"{""ArrowUp,ArrowLeft"":26,""ArrowUp,ArrowRight"":10,""ArrowDown,ArrowLeft"":5,""ArrowDown,ArrowRight"":17}",10,,10.18,Male,6,norest,471.89999999990687,,ArrowLeft,,,,,Children,5
1877,141,415,8559,revaluation,False,./assets/img/ocean/animals/seahorse.jpg,ocean,17.0,,True,original,2.0,"{""ArrowUp,ArrowLeft"":26,""ArrowUp,ArrowRight"":10,""ArrowDown,ArrowLeft"":5,""ArrowDown,ArrowRight"":17}",11,,10.18,Male,6,norest,646.4000000003725,,ArrowRight,,,,,Children,5
1878,142,417,8559,revaluation,False,./assets/img/ocean/animals/seahorse.jpg,ocean,17.0,,True,original,2.0,"{""ArrowUp,ArrowLeft"":26,""ArrowUp,ArrowRight"":10,""ArrowDown,ArrowLeft"":5,""ArrowDown,ArrowRight"":17}",12,,10.18,Male,6,norest,551.0,,ArrowRight,,,,,Children,6
1879,143,419,8559,revaluation,False,./assets/img/ocean/animals/seahorse.jpg,ocean,17.0,,True,original,2.0,"{""ArrowUp,ArrowLeft"":26,""ArrowUp,ArrowRight"":10,""ArrowDown,ArrowLeft"":5,""ArrowDown,ArrowRight"":17}",13,,10.18,Male,6,norest,489.90000000037253,,ArrowRight,,,,,Children,7
1880,144,421,8559,revaluation,False,./assets/img/ocean/animals/octopus.jpg,ocean,26.0,,True,original,2.0,"{""ArrowUp,ArrowLeft"":26,""ArrowUp,ArrowRight"":10,""ArrowDown,ArrowLeft"":5,""ArrowDown,ArrowRight"":17}",14,,10.18,Male,6,norest,533.3999999999069,,ArrowLeft,,,,,Children,6
1881,145,423,8559,revaluation,False,./assets/img/ocean/animals/octopus.jpg,ocean,26.0,,True,original,2.0,"{""ArrowUp,ArrowLeft"":26,""ArrowUp,ArrowRight"":10,""ArrowDown,ArrowLeft"":5,""ArrowDown,ArrowRight"":17}",15,,10.18,Male,6,norest,401.6999999997206,,ArrowLeft,,,,,Children,7
1882,146,425,8559,revaluation,False,./assets/img/ocean/animals/seahorse.jpg,ocean,17.0,,True,original,2.0,"{""ArrowUp,ArrowLeft"":26,""ArrowUp,ArrowRight"":10,""ArrowDown,ArrowLeft"":5,""ArrowDown,ArrowRight"":17}",16,,10.18,Male,6,norest,1027.6999999997206,,ArrowRight,,,,,Children,8
1883,147,427,8559,revaluation,False,./assets/img/ocean/animals/octopus.jpg,ocean,26.0,,True,original,2.0,"{""ArrowUp,ArrowLeft"":26,""ArrowUp,ArrowRight"":10,""ArrowDown,ArrowLeft"":5,""ArrowDown,ArrowRight"":17}",17,,10.18,Male,6,norest,403.29999999981374,,ArrowLeft,,,,,Children,8
2034,50,220,8217,revaluation,False,./assets/img/ocean/animals/seahorse.jpg,ocean,7.0,,False,revaluation,1.0,"{""ArrowUp,ArrowLeft"":27,""ArrowUp,ArrowRight"":15,""ArrowDown,ArrowLeft"":21,""ArrowDown,ArrowRight"":7}",0,,13.6,Female,2,norest,585.5999999940395,,ArrowRight,,,,,Adolescents,0
2035,51,222,8217,revaluation,False,./assets/img/ocean/animals/octopus.jpg,ocean,27.0,,True,revaluation,1.0,"{""ArrowUp,ArrowLeft"":27,""ArrowUp,ArrowRight"":15,""ArrowDown,ArrowLeft"":21,""ArrowDown,ArrowRight"":7}",1,,13.6,Female,2,norest,1291.7000000178814,,ArrowLeft,,,,,Adolescents,0
2036,52,224,8217,revaluation,False,./assets/img/ocean/animals/octopus.jpg,ocean,15.0,,False,revaluation,1.0,"{""ArrowUp,ArrowLeft"":27,""ArrowUp,ArrowRight"":15,""ArrowDown,ArrowLeft"":21,""ArrowDown,ArrowRight"":7}",2,,13.6,Female,2,norest,844.4000000059605,,ArrowRight,,,,,Adolescents,1
2037,53,226,8217,revaluation,False,./assets/img/ocean/animals/seahorse.jpg,ocean,21.0,,True,revaluation,1.0,"{""ArrowUp,ArrowLeft"":27,""ArrowUp,ArrowRight"":15,""ArrowDown,ArrowLeft"":21,""ArrowDown,ArrowRight"":7}",3,,13.6,Female,2,norest,589.5999999940395,,ArrowLeft,,,,,Adolescents,1
2038,54,228,8217,revaluation,False,./assets/img/ocean/animals/seahorse.jpg,ocean,21.0,,True,revaluation,1.0,"{""ArrowUp,ArrowLeft"":27,""ArrowUp,ArrowRight"":15,""ArrowDown,ArrowLeft"":21,""ArrowDown,ArrowRight"":7}",4,,13.6,Female,2,norest,866.8000000119209,,ArrowLeft,,,,,Adolescents,2
2039,55,230,8217,revaluation,False,./assets/img/ocean/animals/seahorse.jpg,ocean,21.0,,True,revaluation,1.0,"{""ArrowUp,ArrowLeft"":27,""ArrowUp,ArrowRight"":15,""ArrowDown,ArrowLeft"":21,""ArrowDown,ArrowRight"":7}",5,,13.6,Female,2,norest,1090.7000000178814,,ArrowLeft,,,,,Adolescents,3
2040,56,232,8217,revaluation,False,./assets/img/ocean/animals/seahorse.jpg,ocean,21.0,,True,revaluation,1.0,"{""ArrowUp,ArrowLeft"":27,""ArrowUp,ArrowRight"":15,""ArrowDown,ArrowLeft"":21,""ArrowDown,ArrowRight"":7}",6,,13.6,Female,2,norest,641.4000000059605,,ArrowLeft,,,,,Adolescents,4
2041,57,234,8217,revaluation,False,./assets/img/ocean/animals/seahorse.jpg,ocean,21.0,,True,revaluation,1.0,"{""ArrowUp,ArrowLeft"":27,""ArrowUp,ArrowRight"":15,""ArrowDown,ArrowLeft"":21,""ArrowDown,ArrowRight"":7}",7,,13.6,Female,2,norest,498.5,,ArrowLeft,,,,,Adolescents,5
2042,58,236,8217,revaluation,False,./assets/img/ocean/animals/seahorse.jpg,ocean,21.0,,True,revaluation,1.0,"{""ArrowUp,ArrowLeft"":27,""ArrowUp,ArrowRight"":15,""ArrowDown,ArrowLeft"":21,""ArrowDown,ArrowRight"":7}",8,,13.6,Female,2,norest,554.7999999821186,,ArrowLeft,,,,,Adolescents,6
2043,59,238,8217,revaluation,False,./assets/img/ocean/animals/octopus.jpg,ocean,27.0,,True,revaluation,1.0,"{""ArrowUp,ArrowLeft"":27,""ArrowUp,ArrowRight"":15,""ArrowDown,ArrowLeft"":21,""ArrowDown,ArrowRight"":7}",9,,13.6,Female,2,norest,524.7000000178814,,ArrowLeft,,,,,Adolescents,2
2044,60,240,8217,revaluation,False,./assets/img/ocean/animals/octopus.jpg,ocean,27.0,,True,revaluation,1.0,"{""ArrowUp,ArrowLeft"":27,""ArrowUp,ArrowRight"":15,""ArrowDown,ArrowLeft"":21,""ArrowDown,ArrowRight"":7}",10,,13.6,Female,2,norest,658.8000000119209,,ArrowLeft,,,,,Adolescents,3
2045,61,242,8217,revaluation,False,./assets/img/ocean/animals/octopus.jpg,ocean,27.0,,True,revaluation,1.0,"{""ArrowUp,ArrowLeft"":27,""ArrowUp,ArrowRight"":15,""ArrowDown,ArrowLeft"":21,""ArrowDown,ArrowRight"":7}",11,,13.6,Female,2,norest,647.2000000178814,,ArrowLeft,,,,,Adolescents,4
2046,62,244,8217,revaluation,False,./assets/img/ocean/animals/octopus.jpg,ocean,27.0,,True,revaluation,1.0,"{""ArrowUp,ArrowLeft"":27,""ArrowUp,ArrowRight"":15,""ArrowDown,ArrowLeft"":21,""ArrowDown,ArrowRight"":7}",12,,13.6,Female,2,norest,572.5999999940395,,ArrowLeft,,,,,Adolescents,5
2047,63,246,8217,revaluation,False,./assets/img/ocean/animals/seahorse.jpg,ocean,21.0,,True,revaluation,1.0,"{""ArrowUp,ArrowLeft"":27,""ArrowUp,ArrowRight"":15,""ArrowDown,ArrowLeft"":21,""ArrowDown,ArrowRight"":7}",13,,13.6,Female,2,norest,523.5,,ArrowLeft,,,,,Adolescents,7
2048,64,248,8217,revaluation,False,./assets/img/ocean/animals/octopus.jpg,ocean,27.0,,True,revaluation,1.0,"{""ArrowUp,ArrowLeft"":27,""ArrowUp,ArrowRight"":15,""ArrowDown,ArrowLeft"":21,""ArrowDown,ArrowRight"":7}",14,,13.6,Female,2,norest,890.0999999940395,,ArrowLeft,,,,,Adolescents,6
2049,65,250,8217,revaluation,False,./assets/img/ocean/animals/octopus.jpg,ocean,27.0,,True,revaluation,1.0,"{""ArrowUp,ArrowLeft"":27,""ArrowUp,ArrowRight"":15,""ArrowDown,ArrowLeft"":21,""ArrowDown,ArrowRight"":7}",15,,13.6,Female,2,norest,380.90000000596046,,ArrowLeft,,,,,Adolescents,7
2050,66,252,8217,revaluation,False,./assets/img/ocean/animals/octopus.jpg,ocean,27.0,,True,revaluation,1.0,"{""ArrowUp,ArrowLeft"":27,""ArrowUp,ArrowRight"":15,""ArrowDown,ArrowLeft"":21,""ArrowDown,ArrowRight"":7}",16,,13.6,Female,2,norest,181.0,,ArrowLeft,,,,,Adolescents,8
2051,67,254,8217,revaluation,False,./assets/img/ocean/animals/seahorse.jpg,ocean,21.0,,True,revaluation,1.0,"{""ArrowUp,ArrowLeft"":27,""ArrowUp,ArrowRight"":15,""ArrowDown,ArrowLeft"":21,""ArrowDown,ArrowRight"":7}",17,,13.6,Female,2,norest,479.80000001192093,,ArrowLeft,,,,,Adolescents,8
2114,130,395,8217,revaluation,False,./assets/img/canyon/animals/lion.jpg,canyon,5.0,,False,original,2.0,"{""ArrowUp,ArrowLeft"":26,""ArrowUp,ArrowRight"":10,""ArrowDown,ArrowLeft"":5,""ArrowDown,ArrowRight"":17}",0,,13.6,Female,2,norest,936.4000000059605,,ArrowLeft,,,,,Adolescents,0
2115,131,397,8217,revaluation,False,./assets/img/canyon/animals/giraffe.jpg,canyon,26.0,,True,original,2.0,"{""ArrowUp,ArrowLeft"":26,""ArrowUp,ArrowRight"":10,""ArrowDown,ArrowLeft"":5,""ArrowDown,ArrowRight"":17}",1,,13.6,Female,2,norest,447.80000001192093,,ArrowLeft,,,,,Adolescents,0
2116,132,399,8217,revaluation,False,./assets/img/canyon/animals/lion.jpg,canyon,17.0,,True,original,2.0,"{""ArrowUp,ArrowLeft"":26,""ArrowUp,ArrowRight"":10,""ArrowDown,ArrowLeft"":5,""ArrowDown,ArrowRight"":17}",2,,13.6,Female,2,norest,922.4000000059605,,ArrowRight,,,,,Adolescents,1
2117,133,401,8217,revaluation,False,./assets/img/canyon/animals/lion.jpg,canyon,17.0,,True,original,2.0,"{""ArrowUp,ArrowLeft"":26,""ArrowUp,ArrowRight"":10,""ArrowDown,ArrowLeft"":5,""ArrowDown,ArrowRight"":17}",3,,13.6,Female,2,norest,450.59999999403954,,ArrowRight,,,,,Adolescents,2
2118,134,403,8217,revaluation,False,./assets/img/canyon/animals/giraffe.jpg,canyon,26.0,,True,original,2.0,"{""ArrowUp,ArrowLeft"":26,""ArrowUp,ArrowRight"":10,""ArrowDown,ArrowLeft"":5,""ArrowDown,ArrowRight"":17}",4,,13.6,Female,2,norest,549.4000000059605,,ArrowLeft,,,,,Adolescents,1
2119,135,405,8217,revaluation,False,./assets/img/canyon/animals/giraffe.jpg,canyon,26.0,,True,original,2.0,"{""ArrowUp,ArrowLeft"":26,""ArrowUp,ArrowRight"":10,""ArrowDown,ArrowLeft"":5,""ArrowDown,ArrowRight"":17}",5,,13.6,Female,2,norest,797.5999999940395,,ArrowLeft,,,,,Adolescents,2
2120,136,407,8217,revaluation,False,./assets/img/canyon/animals/lion.jpg,canyon,17.0,,True,original,2.0,"{""ArrowUp,ArrowLeft"":26,""ArrowUp,ArrowRight"":10,""ArrowDown,ArrowLeft"":5,""ArrowDown,ArrowRight"":17}",6,,13.6,Female,2,norest,796.5999999940395,,ArrowRight,,,,,Adolescents,3
2121,137,409,8217,revaluation,False,./assets/img/canyon/animals/lion.jpg,canyon,17.0,,True,original,2.0,"{""ArrowUp,ArrowLeft"":26,""ArrowUp,ArrowRight"":10,""ArrowDown,ArrowLeft"":5,""ArrowDown,ArrowRight"":17}",7,,13.6,Female,2,norest,602.3000000119209,,ArrowRight,,,,,Adolescents,4
2122,138,411,8217,revaluation,False,./assets/img/canyon/animals/lion.jpg,canyon,17.0,,True,original,2.0,"{""ArrowUp,ArrowLeft"":26,""ArrowUp,ArrowRight"":10,""ArrowDown,ArrowLeft"":5,""ArrowDown,ArrowRight"":17}",8,,13.6,Female,2,norest,545.0999999940395,,ArrowRight,,,,,Adolescents,5
2123,139,413,8217,revaluation,False,./assets/img/canyon/animals/lion.jpg,canyon,17.0,,True,original,2.0,"{""ArrowUp,ArrowLeft"":26,""ArrowUp,ArrowRight"":10,""ArrowDown,ArrowLeft"":5,""ArrowDown,ArrowRight"":17}",9,,13.6,Female,2,norest,526.6999999880791,,ArrowRight,,,,,Adolescents,6
2124,140,415,8217,revaluation,False,./assets/img/canyon/animals/giraffe.jpg,canyon,10.0,,False,original,2.0,"{""ArrowUp,ArrowLeft"":26,""ArrowUp,ArrowRight"":10,""ArrowDown,ArrowLeft"":5,""ArrowDown,ArrowRight"":17}",10,,13.6,Female,2,norest,547.9000000059605,,ArrowRight,,,,,Adolescents,3
2125,141,417,8217,revaluation,False,./assets/img/canyon/animals/lion.jpg,canyon,17.0,,True,original,2.0,"{""ArrowUp,ArrowLeft"":26,""ArrowUp,ArrowRight"":10,""ArrowDown,ArrowLeft"":5,""ArrowDown,ArrowRight"":17}",11,,13.6,Female,2,norest,670.6999999880791,,ArrowRight,,,,,Adolescents,7
2126,142,419,8217,revaluation,False,./assets/img/canyon/animals/giraffe.jpg,canyon,26.0,,True,original,2.0,"{""ArrowUp,ArrowLeft"":26,""ArrowUp,ArrowRight"":10,""ArrowDown,ArrowLeft"":5,""ArrowDown,ArrowRight"":17}",12,,13.6,Female,2,norest,705.2999999821186,,ArrowLeft,,,,,Adolescents,4
2127,143,421,8217,revaluation,False,./assets/img/canyon/animals/giraffe.jpg,canyon,26.0,,True,original,2.0,"{""ArrowUp,ArrowLeft"":26,""ArrowUp,ArrowRight"":10,""ArrowDown,ArrowLeft"":5,""ArrowDown,ArrowRight"":17}",13,,13.6,Female,2,norest,692.3999999761581,,ArrowLeft,,,,,Adolescents,5
2128,144,423,8217,revaluation,False,./assets/img/canyon/animals/lion.jpg,canyon,17.0,,True,original,2.0,"{""ArrowUp,ArrowLeft"":26,""ArrowUp,ArrowRight"":10,""ArrowDown,ArrowLeft"":5,""ArrowDown,ArrowRight"":17}",14,,13.6,Female,2,norest,1271.7999999821186,,ArrowRight,,,,,Adolescents,8
2129,145,425,8217,revaluation,False,./assets/img/canyon/animals/giraffe.jpg,canyon,26.0,,True,original,2.0,"{""ArrowUp,ArrowLeft"":26,""ArrowUp,ArrowRight"":10,""ArrowDown,ArrowLeft"":5,""ArrowDown,ArrowRight"":17}",15,,13.6,Female,2,norest,517.0,,ArrowLeft,,,,,Adolescents,6
2130,146,427,8217,revaluation,False,./assets/img/canyon/animals/giraffe.jpg,canyon,26.0,,True,original,2.0,"{""ArrowUp,ArrowLeft"":26,""ArrowUp,ArrowRight"":10,""ArrowDown,ArrowLeft"":5,""ArrowDown,ArrowRight"":17}",16,,13.6,Female,2,norest,1008.3000000119209,,ArrowLeft,,,,,Adolescents,7
2131,147,429,8217,revaluation,False,./assets/img/canyon/animals/giraffe.jpg,canyon,26.0,,True,original,2.0,"{""ArrowUp,ArrowLeft"":26,""ArrowUp,ArrowRight"":10,""ArrowDown,ArrowLeft"":5,""ArrowDown,ArrowRight"":17}",17,,13.6,Female,2,norest,1446.8999999761581,,ArrowLeft,,,,,Adolescents,8
2282,50,220,8175,revaluation,False,./assets/img/ocean/animals/seahorse.jpg,ocean,27.0,,True,revaluation,1.0,"{""ArrowUp,ArrowLeft"":2,""ArrowUp,ArrowRight"":11,""ArrowDown,ArrowLeft"":8,""ArrowDown,ArrowRight"":27}",0,,11.64,Female,4,norest,790.9000000003725,,ArrowRight,,,,,Children,0
2283,51,222,8175,revaluation,False,./assets/img/ocean/animals/seahorse.jpg,ocean,27.0,,True,revaluation,1.0,"{""ArrowUp,ArrowLeft"":2,""ArrowUp,ArrowRight"":11,""ArrowDown,ArrowLeft"":8,""ArrowDown,ArrowRight"":27}",1,,11.64,Female,4,norest,686.1000000014901,,ArrowRight,,,,,Children,1
2284,52,224,8175,revaluation,False,./assets/img/ocean/animals/octopus.jpg,ocean,2.0,,False,revaluation,1.0,"{""ArrowUp,ArrowLeft"":2,""ArrowUp,ArrowRight"":11,""ArrowDown,ArrowLeft"":8,""ArrowDown,ArrowRight"":27}",2,,11.64,Female,4,norest,505.2999999988824,,ArrowLeft,,,,,Children,0
2285,53,226,8175,revaluation,False,./assets/img/ocean/animals/seahorse.jpg,ocean,27.0,,True,revaluation,1.0,"{""ArrowUp,ArrowLeft"":2,""ArrowUp,ArrowRight"":11,""ArrowDown,ArrowLeft"":8,""ArrowDown,ArrowRight"":27}",3,,11.64,Female,4,norest,453.40000000037253,,ArrowRight,,,,,Children,2
2286,54,228,8175,revaluation,False,./assets/img/ocean/animals/seahorse.jpg,ocean,27.0,,True,revaluation,1.0,"{""ArrowUp,ArrowLeft"":2,""ArrowUp,ArrowRight"":11,""ArrowDown,ArrowLeft"":8,""ArrowDown,ArrowRight"":27}",4,,11.64,Female,4,norest,305.19999999925494,,ArrowRight,,,,,Children,3
2287,55,230,8175,revaluation,False,./assets/img/ocean/animals/octopus.jpg,ocean,11.0,,True,revaluation,1.0,"{""ArrowUp,ArrowLeft"":2,""ArrowUp,ArrowRight"":11,""ArrowDown,ArrowLeft"":8,""ArrowDown,ArrowRight"":27}",5,,11.64,Female,4,norest,319.59999999962747,,ArrowRight,,,,,Children,1
2288,56,232,8175,revaluation,False,./assets/img/ocean/animals/seahorse.jpg,ocean,27.0,,True,revaluation,1.0,"{""ArrowUp,ArrowLeft"":2,""ArrowUp,ArrowRight"":11,""ArrowDown,ArrowLeft"":8,""ArrowDown,ArrowRight"":27}",6,,11.64,Female,4,norest,354.0,,ArrowRight,,,,,Children,4
2289,57,234,8175,revaluation,False,./assets/img/ocean/animals/seahorse.jpg,ocean,27.0,,True,revaluation,1.0,"{""ArrowUp,ArrowLeft"":2,""ArrowUp,ArrowRight"":11,""ArrowDown,ArrowLeft"":8,""ArrowDown,ArrowRight"":27}",7,,11.64,Female,4,norest,422.09999999962747,,ArrowRight,,,,,Children,5
2290,58,236,8175,revaluation,False,./assets/img/ocean/animals/octopus.jpg,ocean,11.0,,True,revaluation,1.0,"{""ArrowUp,ArrowLeft"":2,""ArrowUp,ArrowRight"":11,""ArrowDown,ArrowLeft"":8,""ArrowDown,ArrowRight"":27}",8,,11.64,Female,4,norest,1111.199999999255,,ArrowRight,,,,,Children,2
2291,59,238,8175,revaluation,False,./assets/img/ocean/animals/seahorse.jpg,ocean,27.0,,True,revaluation,1.0,"{""ArrowUp,ArrowLeft"":2,""ArrowUp,ArrowRight"":11,""ArrowDown,ArrowLeft"":8,""ArrowDown,ArrowRight"":27}",9,,11.64,Female,4,norest,328.40000000037253,,ArrowRight,,,,,Children,6
2292,60,240,8175,revaluation,False,./assets/img/ocean/animals/seahorse.jpg,ocean,27.0,,True,revaluation,1.0,"{""ArrowUp,ArrowLeft"":2,""ArrowUp,ArrowRight"":11,""ArrowDown,ArrowLeft"":8,""ArrowDown,ArrowRight"":27}",10,,11.64,Female,4,norest,390.5,,ArrowRight,,,,,Children,7
2293,61,242,8175,revaluation,False,./assets/img/ocean/animals/octopus.jpg,ocean,11.0,,True,revaluation,1.0,"{""ArrowUp,ArrowLeft"":2,""ArrowUp,ArrowRight"":11,""ArrowDown,ArrowLeft"":8,""ArrowDown,ArrowRight"":27}",11,,11.64,Female,4,norest,483.7000000011176,,ArrowRight,,,,,Children,3
2294,62,244,8175,revaluation,False,./assets/img/ocean/animals/octopus.jpg,ocean,11.0,,True,revaluation,1.0,"{""ArrowUp,ArrowLeft"":2,""ArrowUp,ArrowRight"":11,""ArrowDown,ArrowLeft"":8,""ArrowDown,ArrowRight"":27}",12,,11.64,Female,4,norest,408.0,,ArrowRight,,,,,Children,4
2295,63,246,8175,revaluation,False,./assets/img/ocean/animals/octopus.jpg,ocean,2.0,,False,revaluation,1.0,"{""ArrowUp,ArrowLeft"":2,""ArrowUp,ArrowRight"":11,""ArrowDown,ArrowLeft"":8,""ArrowDown,ArrowRight"":27}",13,,11.64,Female,4,norest,572.5999999996275,,ArrowLeft,,,,,Children,5
2296,64,248,8175,revaluation,False,./assets/img/ocean/animals/octopus.jpg,ocean,11.0,,True,revaluation,1.0,"{""ArrowUp,ArrowLeft"":2,""ArrowUp,ArrowRight"":11,""ArrowDown,ArrowLeft"":8,""ArrowDown,ArrowRight"":27}",14,,11.64,Female,4,norest,460.0,,ArrowRight,,,,,Children,6
2297,65,250,8175,revaluation,False,./assets/img/ocean/animals/seahorse.jpg,ocean,27.0,,True,revaluation,1.0,"{""ArrowUp,ArrowLeft"":2,""ArrowUp,ArrowRight"":11,""ArrowDown,ArrowLeft"":8,""ArrowDown,ArrowRight"":27}",15,,11.64,Female,4,norest,250.30000000074506,,ArrowRight,,,,,Children,8
2298,66,252,8175,revaluation,False,./assets/img/ocean/animals/octopus.jpg,ocean,11.0,,True,revaluation,1.0,"{""ArrowUp,ArrowLeft"":2,""ArrowUp,ArrowRight"":11,""ArrowDown,ArrowLeft"":8,""ArrowDown,ArrowRight"":27}",16,,11.64,Female,4,norest,175.0,,ArrowRight,,,,,Children,7
2299,67,254,8175,revaluation,False,./assets/img/ocean/animals/octopus.jpg,ocean,11.0,,True,revaluation,1.0,"{""ArrowUp,ArrowLeft"":2,""ArrowUp,ArrowRight"":11,""ArrowDown,ArrowLeft"":8,""ArrowDown,ArrowRight"":27}",17,,11.64,Female,4,norest,36.5,,ArrowRight,,,,,Children,8
2362,130,395,8175,revaluation,False,./assets/img/canyon/animals/giraffe.jpg,canyon,30.0,,True,original,2.0,"{""ArrowUp,ArrowLeft"":23,""ArrowUp,ArrowRight"":10,""ArrowDown,ArrowLeft"":8,""ArrowDown,ArrowRight"":30}",0,,11.64,Female,4,norest,1328.800000000745,,ArrowRight,,,,,Children,0
2363,131,397,8175,revaluation,False,./assets/img/canyon/animals/giraffe.jpg,canyon,30.0,,True,original,2.0,"{""ArrowUp,ArrowLeft"":23,""ArrowUp,ArrowRight"":10,""ArrowDown,ArrowLeft"":8,""ArrowDown,ArrowRight"":30}",1,,11.64,Female,4,norest,233.59999999962747,,ArrowRight,,,,,Children,1
2364,132,399,8175,revaluation,False,./assets/img/canyon/animals/giraffe.jpg,canyon,30.0,,True,original,2.0,"{""ArrowUp,ArrowLeft"":23,""ArrowUp,ArrowRight"":10,""ArrowDown,ArrowLeft"":8,""ArrowDown,ArrowRight"":30}",2,,11.64,Female,4,norest,379.69999999925494,,ArrowRight,,,,,Children,2
2365,133,401,8175,revaluation,False,./assets/img/canyon/animals/giraffe.jpg,canyon,30.0,,True,original,2.0,"{""ArrowUp,ArrowLeft"":23,""ArrowUp,ArrowRight"":10,""ArrowDown,ArrowLeft"":8,""ArrowDown,ArrowRight"":30}",3,,11.64,Female,4,norest,321.80000000074506,,ArrowRight,,,,,Children,3
2366,134,403,8175,revaluation,False,./assets/img/canyon/animals/lion.jpg,canyon,10.0,,False,original,2.0,"{""ArrowUp,ArrowLeft"":23,""ArrowUp,ArrowRight"":10,""ArrowDown,ArrowLeft"":8,""ArrowDown,ArrowRight"":30}",4,,11.64,Female,4,norest,160.09999999962747,,ArrowRight,,,,,Children,0
2367,135,405,8175,revaluation,False,./assets/img/canyon/animals/giraffe.jpg,canyon,30.0,,True,original,2.0,"{""ArrowUp,ArrowLeft"":23,""ArrowUp,ArrowRight"":10,""ArrowDown,ArrowLeft"":8,""ArrowDown,ArrowRight"":30}",5,,11.64,Female,4,norest,302.80000000074506,,ArrowRight,,,,,Children,4
2368,136,407,8175,revaluation,False,./assets/img/canyon/animals/lion.jpg,canyon,10.0,,False,original,2.0,"{""ArrowUp,ArrowLeft"":23,""ArrowUp,ArrowRight"":10,""ArrowDown,ArrowLeft"":8,""ArrowDown,ArrowRight"":30}",6,,11.64,Female,4,norest,42.5,,ArrowRight,,,,,Children,1
2369,137,409,8175,revaluation,False,./assets/img/canyon/animals/lion.jpg,canyon,10.0,,False,original,2.0,"{""ArrowUp,ArrowLeft"":23,""ArrowUp,ArrowRight"":10,""ArrowDown,ArrowLeft"":8,""ArrowDown,ArrowRight"":30}",7,,11.64,Female,4,norest,41.59999999962747,,ArrowRight,,,,,Children,2
2370,138,411,8175,revaluation,False,./assets/img/canyon/animals/lion.jpg,canyon,10.0,,False,original,2.0,"{""ArrowUp,ArrowLeft"":23,""ArrowUp,ArrowRight"":10,""ArrowDown,ArrowLeft"":8,""ArrowDown,ArrowRight"":30}",8,,11.64,Female,4,norest,254.5,,ArrowRight,,,,,Children,3
2371,139,413,8175,revaluation,False,./assets/img/canyon/animals/giraffe.jpg,canyon,30.0,,True,original,2.0,"{""ArrowUp,ArrowLeft"":23,""ArrowUp,ArrowRight"":10,""ArrowDown,ArrowLeft"":8,""ArrowDown,ArrowRight"":30}",9,,11.64,Female,4,norest,530.8000000007451,,ArrowRight,,,,,Children,5
2372,140,415,8175,revaluation,False,./assets/img/canyon/animals/lion.jpg,canyon,10.0,,False,original,2.0,"{""ArrowUp,ArrowLeft"":23,""ArrowUp,ArrowRight"":10,""ArrowDown,ArrowLeft"":8,""ArrowDown,ArrowRight"":30}",10,,11.64,Female,4,norest,403.69999999925494,,ArrowRight,,,,,Children,4
2373,141,417,8175,revaluation,False,./assets/img/canyon/animals/lion.jpg,canyon,10.0,,False,original,2.0,"{""ArrowUp,ArrowLeft"":23,""ArrowUp,ArrowRight"":10,""ArrowDown,ArrowLeft"":8,""ArrowDown,ArrowRight"":30}",11,,11.64,Female,4,norest,574.6000000014901,,ArrowRight,,,,,Children,5
2374,142,419,8175,revaluation,False,./assets/img/canyon/animals/lion.jpg,canyon,10.0,,False,original,2.0,"{""ArrowUp,ArrowLeft"":23,""ArrowUp,ArrowRight"":10,""ArrowDown,ArrowLeft"":8,""ArrowDown,ArrowRight"":30}",12,,11.64,Female,4,norest,240.0,,ArrowRight,,,,,Children,6
