,level_0,index,subject_id,task_part,timeout,stimulus,environment,score,isCatch,correct,block_condition,block_order,rewardMap,trial_num,ground_truth,age,gender,subject_condition,rest,rt0,rt1,response0,response1,is_optimal_first,is_optimal_second,optimal_score,categorical_age,trial_bin,is_optimal
0,0,114,7472,value training,False,./assets/img/ocean/memory/6.jpg,ocean,10.0,False,False,revaluation,1.0,"{""ArrowUp,ArrowLeft"":23,""ArrowUp,ArrowRight"":10,""ArrowDown,ArrowLeft"":8,""ArrowDown,ArrowRight"":30}",1,,20.16,Female,2,rest,729.4000000953674,372.6999999284744,ArrowUp,ArrowRight,False,False,30.0,Adults,0,False
1,1,116,7472,value training,False,./assets/img/ocean/memory/33.jpg,ocean,23.0,False,False,revaluation,1.0,"{""ArrowUp,ArrowLeft"":23,""ArrowUp,ArrowRight"":10,""ArrowDown,ArrowLeft"":8,""ArrowDown,ArrowRight"":30}",2,,20.16,Female,2,rest,430.39999997615814,297.60000002384186,ArrowUp,ArrowLeft,False,True,30.0,Adults,0,False
2,2,118,7472,value training,False,./assets/img/ocean/memory/27.jpg,ocean,8.0,False,False,revaluation,1.0,"{""ArrowUp,ArrowLeft"":23,""ArrowUp,ArrowRight"":10,""ArrowDown,ArrowLeft"":8,""ArrowDown,ArrowRight"":30}",3,,20.16,Female,2,rest,429.8000000715256,302.7000000476837,ArrowDown,ArrowLeft,True,False,30.0,Adults,0,False
3,3,120,7472,value training,False,./assets/img/ocean/memory/25.jpg,ocean,30.0,False,True,revaluation,1.0,"{""ArrowUp,ArrowLeft"":23,""ArrowUp,ArrowRight"":10,""ArrowDown,ArrowLeft"":8,""ArrowDown,ArrowRight"":30}",4,,20.16,Female,2,rest,450.0,262.60000002384186,ArrowDown,ArrowRight,True,True,30.0,Adults,0,True
4,4,122,7472,value training,False,./assets/img/ocean/memory/2.jpg,ocean,23.0,False,False,revaluation,1.0,"{""ArrowUp,ArrowLeft"":23,""ArrowUp,ArrowRight"":10,""ArrowDown,ArrowLeft"":8,""ArrowDown,ArrowRight"":30}",5,,20.16,Female,2,rest,480.39999997615814,272.1999999284744,ArrowUp,ArrowLeft,False,True,30.0,Adults,0,False
5,5,124,7472,value training,False,./assets/img/ocean/memory/14.jpg,ocean,30.0,False,True,revaluation,1.0,"{""ArrowUp,ArrowLeft"":23,""ArrowUp,ArrowRight"":10,""ArrowDown,ArrowLeft"":8,""ArrowDown,ArrowRight"":30}",6,,20.16,Female,2,rest,566.5999999046326,236.79999995231628,ArrowDown,ArrowRight,True,True,30.0,Adults,5,True
6,6,126,7472,value training,False,./assets/img/ocean/memory/39.jpg,ocean,23.0,False,False,revaluation,1.0,"{""ArrowUp,ArrowLeft"":23,""ArrowUp,ArrowRight"":10,""ArrowDown,ArrowLeft"":8,""ArrowDown,ArrowRight"":30}",7,,20.16,Female,2,rest,730.8000000715256,228.0,ArrowUp,ArrowLeft,False,True,30.0,Adults,5,False
7,7,128,7472,value training,False,./assets/img/ocean/memory/28.jpg,ocean,30.0,False,True,revaluation,1.0,"{""ArrowUp,ArrowLeft"":23,""ArrowUp,ArrowRight"":10,""ArrowDown,ArrowLeft"":8,""ArrowDown,ArrowRight"":30}",8,,20.16,Female,2,rest,564.8000000715256,243.59999990463257,ArrowDown,ArrowRight,True,True,30.0,Adults,5,True
8,8,130,7472,value training,False,./assets/img/ocean/memory/14.jpg,ocean,30.0,False,True,revaluation,1.0,"{""ArrowUp,ArrowLeft"":23,""ArrowUp,ArrowRight"":10,""ArrowDown,ArrowLeft"":8,""ArrowDown,ArrowRight"":30}",9,,20.16,Female,2,rest,596.7000000476837,275.0,ArrowDown,ArrowRight,True,True,30.0,Adults,5,True
11,11,136,7472,value training,False,./assets/img/ocean/memory/4.jpg,ocean,30.0,False,True,revaluation,1.0,"{""ArrowUp,ArrowLeft"":23,""ArrowUp,ArrowRight"":10,""ArrowDown,ArrowLeft"":8,""ArrowDown,ArrowRight"":30}",10,,20.16,Female,2,rest,415.7000000476837,305.2999999523163,ArrowDown,ArrowRight,True,True,30.0,Adults,5,True
12,12,138,7472,value training,False,./assets/img/ocean/memory/3.jpg,ocean,30.0,False,True,revaluation,1.0,"{""ArrowUp,ArrowLeft"":23,""ArrowUp,ArrowRight"":10,""ArrowDown,ArrowLeft"":8,""ArrowDown,ArrowRight"":30}",11,,20.16,Female,2,rest,420.39999997615814,178.89999997615814,ArrowDown,ArrowRight,True,True,30.0,Adults,10,True
13,13,140,7472,value training,False,./assets/img/ocean/memory/22.jpg,ocean,30.0,False,True,revaluation,1.0,"{""ArrowUp,ArrowLeft"":23,""ArrowUp,ArrowRight"":10,""ArrowDown,ArrowLeft"":8,""ArrowDown,ArrowRight"":30}",12,,20.16,Female,2,rest,372.7000000476837,232.39999997615814,ArrowDown,ArrowRight,True,True,30.0,Adults,10,True
14,14,142,7472,value training,False,./assets/img/ocean/memory/28.jpg,ocean,30.0,False,True,revaluation,1.0,"{""ArrowUp,ArrowLeft"":23,""ArrowUp,ArrowRight"":10,""ArrowDown,ArrowLeft"":8,""ArrowDown,ArrowRight"":30}",13,,20.16,Female,2,rest,355.10000002384186,544.1999999284744,ArrowDown,ArrowRight,True,True,30.0,Adults,10,True
15,15,144,7472,value training,False,./assets/img/ocean/memory/4.jpg,ocean,30.0,False,True,revaluation,1.0,"{""ArrowUp,ArrowLeft"":23,""ArrowUp,ArrowRight"":10,""ArrowDown,ArrowLeft"":8,""ArrowDown,ArrowRight"":30}",14,,20.16,Female,2,rest,511.59999990463257,261.5,ArrowDown,ArrowRight,True,True,30.0,Adults,10,True
16,16,146,7472,value training,False,./assets/img/ocean/memory/16.jpg,ocean,30.0,False,True,revaluation,1.0,"{""ArrowUp,ArrowLeft"":23,""ArrowUp,ArrowRight"":10,""ArrowDown,ArrowLeft"":8,""ArrowDown,ArrowRight"":30}",15,,20.16,Female,2,rest,404.7999999523163,124.20000004768372,ArrowDown,ArrowRight,True,True,30.0,Adults,10,True
17,17,148,7472,value training,False,./assets/img/ocean/memory/34.jpg,ocean,30.0,False,True,revaluation,1.0,"{""ArrowUp,ArrowLeft"":23,""ArrowUp,ArrowRight"":10,""ArrowDown,ArrowLeft"":8,""ArrowDown,ArrowRight"":30}",16,,20.16,Female,2,rest,388.89999997615814,237.70000004768372,ArrowDown,ArrowRight,True,True,30.0,Adults,15,True
18,18,150,7472,value training,False,./assets/img/ocean/memory/11.jpg,ocean,30.0,False,True,revaluation,1.0,"{""ArrowUp,ArrowLeft"":23,""ArrowUp,ArrowRight"":10,""ArrowDown,ArrowLeft"":8,""ArrowDown,ArrowRight"":30}",17,,20.16,Female,2,rest,502.0,430.7999999523163,ArrowDown,ArrowRight,True,True,30.0,Adults,15,True
19,19,152,7472,value training,False,./assets/img/ocean/memory/7.jpg,ocean,30.0,False,True,revaluation,1.0,"{""ArrowUp,ArrowLeft"":23,""ArrowUp,ArrowRight"":10,""ArrowDown,ArrowLeft"":8,""ArrowDown,ArrowRight"":30}",18,,20.16,Female,2,rest,376.0,214.29999995231628,ArrowDown,ArrowRight,True,True,30.0,Adults,15,True
20,20,154,7472,value training,False,./assets/img/ocean/memory/22.jpg,ocean,30.0,False,True,revaluation,1.0,"{""ArrowUp,ArrowLeft"":23,""ArrowUp,ArrowRight"":10,""ArrowDown,ArrowLeft"":8,""ArrowDown,ArrowRight"":30}",19,,20.16,Female,2,rest,297.0,236.10000002384186,ArrowDown,ArrowRight,True,True,30.0,Adults,15,True
21,21,156,7472,value training,False,./assets/img/ocean/memory/37.jpg,ocean,30.0,False,True,revaluation,1.0,"{""ArrowUp,ArrowLeft"":23,""ArrowUp,ArrowRight"":10,""ArrowDown,ArrowLeft"":8,""ArrowDown,ArrowRight"":30}",20,,20.16,Female,2,rest,414.59999990463257,83.19999992847443,ArrowDown,ArrowRight,True,True,30.0,Adults,15,True
22,22,158,7472,value training,False,./assets/img/ocean/memory/36.jpg,ocean,30.0,False,True,revaluation,1.0,"{""ArrowUp,ArrowLeft"":23,""ArrowUp,ArrowRight"":10,""ArrowDown,ArrowLeft"":8,""ArrowDown,ArrowRight"":30}",21,,20.16,Female,2,rest,389.0,438.59999990463257,ArrowDown,ArrowRight,True,True,30.0,Adults,20,True
23,23,160,7472,value training,False,./assets/img/ocean/memory/13.jpg,ocean,30.0,False,True,revaluation,1.0,"{""ArrowUp,ArrowLeft"":23,""ArrowUp,ArrowRight"":10,""ArrowDown,ArrowLeft"":8,""ArrowDown,ArrowRight"":30}",22,,20.16,Female,2,rest,401.5,260.8000000715256,ArrowDown,ArrowRight,True,True,30.0,Adults,20,True
24,24,162,7472,value training,False,./assets/img/ocean/memory/33.jpg,ocean,30.0,False,True,revaluation,1.0,"{""ArrowUp,ArrowLeft"":23,""ArrowUp,ArrowRight"":10,""ArrowDown,ArrowLeft"":8,""ArrowDown,ArrowRight"":30}",23,,20.16,Female,2,rest,344.10000002384186,183.40000009536743,ArrowDown,ArrowRight,True,True,30.0,Adults,20,True
27,27,168,7472,value training,False,./assets/img/ocean/memory/16.jpg,ocean,30.0,False,True,revaluation,1.0,"{""ArrowUp,ArrowLeft"":23,""ArrowUp,ArrowRight"":10,""ArrowDown,ArrowLeft"":8,""ArrowDown,ArrowRight"":30}",24,,20.16,Female,2,rest,483.6999999284744,232.29999995231628,ArrowDown,ArrowRight,True,True,30.0,Adults,20,True
29,29,172,7472,value training,False,./assets/img/ocean/memory/27.jpg,ocean,30.0,False,True,revaluation,1.0,"{""ArrowUp,ArrowLeft"":23,""ArrowUp,ArrowRight"":10,""ArrowDown,ArrowLeft"":8,""ArrowDown,ArrowRight"":30}",25,,20.16,Female,2,rest,502.2000000476837,269.3000000715256,ArrowDown,ArrowRight,True,True,30.0,Adults,20,True
30,30,174,7472,value training,False,./assets/img/ocean/memory/39.jpg,ocean,30.0,False,True,revaluation,1.0,"{""ArrowUp,ArrowLeft"":23,""ArrowUp,ArrowRight"":10,""ArrowDown,ArrowLeft"":8,""ArrowDown,ArrowRight"":30}",26,,20.16,Female,2,rest,393.2999999523163,311.90000009536743,ArrowDown,ArrowRight,True,True,30.0,Adults,25,True
31,31,176,7472,value training,False,./assets/img/ocean/memory/13.jpg,ocean,30.0,False,True,revaluation,1.0,"{""ArrowUp,ArrowLeft"":23,""ArrowUp,ArrowRight"":10,""ArrowDown,ArrowLeft"":8,""ArrowDown,ArrowRight"":30}",27,,20.16,Female,2,rest,974.8999999761581,274.2000000476837,ArrowDown,ArrowRight,True,True,30.0,Adults,25,True
32,32,178,7472,value training,False,./assets/img/ocean/memory/25.jpg,ocean,30.0,False,True,revaluation,1.0,"{""ArrowUp,ArrowLeft"":23,""ArrowUp,ArrowRight"":10,""ArrowDown,ArrowLeft"":8,""ArrowDown,ArrowRight"":30}",28,,20.16,Female,2,rest,502.10000002384186,331.0,ArrowDown,ArrowRight,True,True,30.0,Adults,25,True
33,33,180,7472,value training,False,./assets/img/ocean/memory/37.jpg,ocean,30.0,False,True,revaluation,1.0,"{""ArrowUp,ArrowLeft"":23,""ArrowUp,ArrowRight"":10,""ArrowDown,ArrowLeft"":8,""ArrowDown,ArrowRight"":30}",29,,20.16,Female,2,rest,372.2000000476837,271.10000002384186,ArrowDown,ArrowRight,True,True,30.0,Adults,25,True
34,34,182,7472,value training,False,./assets/img/ocean/memory/3.jpg,ocean,30.0,False,True,revaluation,1.0,"{""ArrowUp,ArrowLeft"":23,""ArrowUp,ArrowRight"":10,""ArrowDown,ArrowLeft"":8,""ArrowDown,ArrowRight"":30}",30,,20.16,Female,2,rest,434.5,273.89999997615814,ArrowDown,ArrowRight,True,True,30.0,Adults,25,True
35,35,184,7472,value training,False,./assets/img/ocean/memory/1.jpg,ocean,30.0,False,True,revaluation,1.0,"{""ArrowUp,ArrowLeft"":23,""ArrowUp,ArrowRight"":10,""ArrowDown,ArrowLeft"":8,""ArrowDown,ArrowRight"":30}",31,,20.16,Female,2,rest,418.0,237.69999992847443,ArrowDown,ArrowRight,True,True,30.0,Adults,30,True
36,36,186,7472,value training,False,./assets/img/ocean/memory/34.jpg,ocean,30.0,False,True,revaluation,1.0,"{""ArrowUp,ArrowLeft"":23,""ArrowUp,ArrowRight"":10,""ArrowDown,ArrowLeft"":8,""ArrowDown,ArrowRight"":30}",32,,20.16,Female,2,rest,630.7999999523163,469.2000000476837,ArrowDown,ArrowRight,True,True,30.0,Adults,30,True
38,38,190,7472,value training,False,./assets/img/ocean/memory/7.jpg,ocean,30.0,False,True,revaluation,1.0,"{""ArrowUp,ArrowLeft"":23,""ArrowUp,ArrowRight"":10,""ArrowDown,ArrowLeft"":8,""ArrowDown,ArrowRight"":30}",33,,20.16,Female,2,rest,387.2999999523163,356.39999997615814,ArrowDown,ArrowRight,True,True,30.0,Adults,30,True
39,39,192,7472,value training,False,./assets/img/ocean/memory/2.jpg,ocean,30.0,False,True,revaluation,1.0,"{""ArrowUp,ArrowLeft"":23,""ArrowUp,ArrowRight"":10,""ArrowDown,ArrowLeft"":8,""ArrowDown,ArrowRight"":30}",34,,20.16,Female,2,rest,428.90000009536743,206.89999997615814,ArrowDown,ArrowRight,True,True,30.0,Adults,30,True
40,40,194,7472,value training,False,./assets/img/ocean/memory/5.jpg,ocean,30.0,False,True,revaluation,1.0,"{""ArrowUp,ArrowLeft"":23,""ArrowUp,ArrowRight"":10,""ArrowDown,ArrowLeft"":8,""ArrowDown,ArrowRight"":30}",35,,20.16,Female,2,rest,389.89999997615814,329.2999999523163,ArrowDown,ArrowRight,True,True,30.0,Adults,30,True
41,41,196,7472,value training,False,./assets/img/ocean/memory/5.jpg,ocean,30.0,False,True,revaluation,1.0,"{""ArrowUp,ArrowLeft"":23,""ArrowUp,ArrowRight"":10,""ArrowDown,ArrowLeft"":8,""ArrowDown,ArrowRight"":30}",36,,20.16,Female,2,rest,532.5,273.09999990463257,ArrowDown,ArrowRight,True,True,30.0,Adults,35,True
42,42,198,7472,value training,False,./assets/img/ocean/memory/11.jpg,ocean,30.0,False,True,revaluation,1.0,"{""ArrowUp,ArrowLeft"":23,""ArrowUp,ArrowRight"":10,""ArrowDown,ArrowLeft"":8,""ArrowDown,ArrowRight"":30}",37,,20.16,Female,2,rest,374.60000002384186,384.0,ArrowDown,ArrowRight,True,True,30.0,Adults,35,True
43,43,200,7472,value training,False,./assets/img/ocean/memory/36.jpg,ocean,30.0,False,True,revaluation,1.0,"{""ArrowUp,ArrowLeft"":23,""ArrowUp,ArrowRight"":10,""ArrowDown,ArrowLeft"":8,""ArrowDown,ArrowRight"":30}",38,,20.16,Female,2,rest,531.3000000715256,130.29999995231628,ArrowDown,ArrowRight,True,True,30.0,Adults,35,True
45,45,204,7472,value training,False,./assets/img/ocean/memory/32.jpg,ocean,30.0,False,True,revaluation,1.0,"{""ArrowUp,ArrowLeft"":23,""ArrowUp,ArrowRight"":10,""ArrowDown,ArrowLeft"":8,""ArrowDown,ArrowRight"":30}",39,,20.16,Female,2,rest,536.2000000476837,244.39999997615814,ArrowDown,ArrowRight,True,True,30.0,Adults,35,True
47,47,208,7472,value training,False,./assets/img/ocean/memory/32.jpg,ocean,30.0,False,True,revaluation,1.0,"{""ArrowUp,ArrowLeft"":23,""ArrowUp,ArrowRight"":10,""ArrowDown,ArrowLeft"":8,""ArrowDown,ArrowRight"":30}",40,,20.16,Female,2,rest,441.7000000476837,201.70000004768372,ArrowDown,ArrowRight,True,True,30.0,Adults,35,True
48,48,210,7472,value training,False,./assets/img/ocean/memory/6.jpg,ocean,30.0,False,True,revaluation,1.0,"{""ArrowUp,ArrowLeft"":23,""ArrowUp,ArrowRight"":10,""ArrowDown,ArrowLeft"":8,""ArrowDown,ArrowRight"":30}",41,,20.16,Female,2,rest,386.6999999284744,226.59999990463257,ArrowDown,ArrowRight,True,True,30.0,Adults,40,True
49,49,212,7472,value training,False,./assets/img/ocean/memory/1.jpg,ocean,30.0,False,True,revaluation,1.0,"{""ArrowUp,ArrowLeft"":23,""ArrowUp,ArrowRight"":10,""ArrowDown,ArrowLeft"":8,""ArrowDown,ArrowRight"":30}",42,,20.16,Female,2,rest,506.39999997615814,204.80000007152557,ArrowDown,ArrowRight,True,True,30.0,Adults,40,True
81,81,285,7472,value training,False,./assets/img/canyon/memory/4.jpg,canyon,17.0,False,False,original,2.0,"{""ArrowUp,ArrowLeft"":26,""ArrowUp,ArrowRight"":10,""ArrowDown,ArrowLeft"":5,""ArrowDown,ArrowRight"":17}",1,,20.16,Female,2,rest,870.3000000715256,440.89999997615814,ArrowDown,ArrowRight,False,True,26.0,Adults,0,False
82,82,287,7472,value training,False,./assets/img/canyon/memory/25.jpg,canyon,5.0,False,False,original,2.0,"{""ArrowUp,ArrowLeft"":26,""ArrowUp,ArrowRight"":10,""ArrowDown,ArrowLeft"":5,""ArrowDown,ArrowRight"":17}",2,,20.16,Female,2,rest,368.5,231.30000007152557,ArrowDown,ArrowLeft,False,False,26.0,Adults,0,False
83,83,289,7472,value training,False,./assets/img/canyon/memory/22.jpg,canyon,10.0,False,False,original,2.0,"{""ArrowUp,ArrowLeft"":26,""ArrowUp,ArrowRight"":10,""ArrowDown,ArrowLeft"":5,""ArrowDown,ArrowRight"":17}",3,,20.16,Female,2,rest,387.89999997615814,254.29999995231628,ArrowUp,ArrowRight,True,False,26.0,Adults,0,False
86,86,295,7472,value training,False,./assets/img/canyon/memory/6.jpg,canyon,26.0,False,True,original,2.0,"{""ArrowUp,ArrowLeft"":26,""ArrowUp,ArrowRight"":10,""ArrowDown,ArrowLeft"":5,""ArrowDown,ArrowRight"":17}",4,,20.16,Female,2,rest,520.3000000715256,370.10000002384186,ArrowUp,ArrowLeft,True,True,26.0,Adults,0,True
87,87,297,7472,value training,False,./assets/img/canyon/memory/36.jpg,canyon,26.0,False,True,original,2.0,"{""ArrowUp,ArrowLeft"":26,""ArrowUp,ArrowRight"":10,""ArrowDown,ArrowLeft"":5,""ArrowDown,ArrowRight"":17}",5,,20.16,Female,2,rest,473.10000002384186,212.0,ArrowUp,ArrowLeft,True,True,26.0,Adults,0,True
89,89,301,7472,value training,False,./assets/img/canyon/memory/3.jpg,canyon,26.0,False,True,original,2.0,"{""ArrowUp,ArrowLeft"":26,""ArrowUp,ArrowRight"":10,""ArrowDown,ArrowLeft"":5,""ArrowDown,ArrowRight"":17}",6,,20.16,Female,2,rest,510.10000002384186,257.7000000476837,ArrowUp,ArrowLeft,True,True,26.0,Adults,5,True
91,91,305,7472,value training,False,./assets/img/canyon/memory/27.jpg,canyon,26.0,False,True,original,2.0,"{""ArrowUp,ArrowLeft"":26,""ArrowUp,ArrowRight"":10,""ArrowDown,ArrowLeft"":5,""ArrowDown,ArrowRight"":17}",7,,20.16,Female,2,rest,445.7999999523163,256.6999999284744,ArrowUp,ArrowLeft,True,True,26.0,Adults,5,True
92,92,307,7472,value training,False,./assets/img/canyon/memory/33.jpg,canyon,26.0,False,True,original,2.0,"{""ArrowUp,ArrowLeft"":26,""ArrowUp,ArrowRight"":10,""ArrowDown,ArrowLeft"":5,""ArrowDown,ArrowRight"":17}",8,,20.16,Female,2,rest,566.6000000238419,246.19999992847443,ArrowUp,ArrowLeft,True,True,26.0,Adults,5,True
93,93,309,7472,value training,False,./assets/img/canyon/memory/13.jpg,canyon,26.0,False,True,original,2.0,"{""ArrowUp,ArrowLeft"":26,""ArrowUp,ArrowRight"":10,""ArrowDown,ArrowLeft"":5,""ArrowDown,ArrowRight"":17}",9,,20.16,Female,2,rest,401.2999999523163,250.0,ArrowUp,ArrowLeft,True,True,26.0,Adults,5,True
94,94,311,7472,value training,False,./assets/img/canyon/memory/11.jpg,canyon,26.0,False,True,original,2.0,"{""ArrowUp,ArrowLeft"":26,""ArrowUp,ArrowRight"":10,""ArrowDown,ArrowLeft"":5,""ArrowDown,ArrowRight"":17}",10,,20.16,Female,2,rest,433.60000002384186,272.89999997615814,ArrowUp,ArrowLeft,True,True,26.0,Adults,5,True
95,95,313,7472,value training,False,./assets/img/canyon/memory/2.jpg,canyon,26.0,False,True,original,2.0,"{""ArrowUp,ArrowLeft"":26,""ArrowUp,ArrowRight"":10,""ArrowDown,ArrowLeft"":5,""ArrowDown,ArrowRight"":17}",11,,20.16,Female,2,rest,435.2999999523163,393.8000000715256,ArrowUp,ArrowLeft,True,True,26.0,Adults,10,True
96,96,315,7472,value training,False,./assets/img/canyon/memory/7.jpg,canyon,26.0,False,True,original,2.0,"{""ArrowUp,ArrowLeft"":26,""ArrowUp,ArrowRight"":10,""ArrowDown,ArrowLeft"":5,""ArrowDown,ArrowRight"":17}",12,,20.16,Female,2,rest,416.8000000715256,274.3000000715256,ArrowUp,ArrowLeft,True,True,26.0,Adults,10,True
97,97,317,7472,value training,False,./assets/img/canyon/memory/7.jpg,canyon,26.0,False,True,original,2.0,"{""ArrowUp,ArrowLeft"":26,""ArrowUp,ArrowRight"":10,""ArrowDown,ArrowLeft"":5,""ArrowDown,ArrowRight"":17}",13,,20.16,Female,2,rest,385.0,205.29999995231628,ArrowUp,ArrowLeft,True,True,26.0,Adults,10,True
98,98,319,7472,value training,False,./assets/img/canyon/memory/34.jpg,canyon,26.0,False,True,original,2.0,"{""ArrowUp,ArrowLeft"":26,""ArrowUp,ArrowRight"":10,""ArrowDown,ArrowLeft"":5,""ArrowDown,ArrowRight"":17}",14,,20.16,Female,2,rest,508.39999997615814,47.300000071525574,ArrowUp,ArrowLeft,True,True,26.0,Adults,10,True
99,99,321,7472,value training,False,./assets/img/canyon/memory/5.jpg,canyon,26.0,False,True,original,2.0,"{""ArrowUp,ArrowLeft"":26,""ArrowUp,ArrowRight"":10,""ArrowDown,ArrowLeft"":5,""ArrowDown,ArrowRight"":17}",15,,20.16,Female,2,rest,422.5,110.80000007152557,ArrowUp,ArrowLeft,True,True,26.0,Adults,10,True
101,101,325,7472,value training,False,./assets/img/canyon/memory/33.jpg,canyon,26.0,False,True,original,2.0,"{""ArrowUp,ArrowLeft"":26,""ArrowUp,ArrowRight"":10,""ArrowDown,ArrowLeft"":5,""ArrowDown,ArrowRight"":17}",16,,20.16,Female,2,rest,468.39999997615814,196.29999995231628,ArrowUp,ArrowLeft,True,True,26.0,Adults,15,True
102,102,327,7472,value training,False,./assets/img/canyon/memory/28.jpg,canyon,26.0,False,True,original,2.0,"{""ArrowUp,ArrowLeft"":26,""ArrowUp,ArrowRight"":10,""ArrowDown,ArrowLeft"":5,""ArrowDown,ArrowRight"":17}",17,,20.16,Female,2,rest,391.0,311.09999990463257,ArrowUp,ArrowLeft,True,True,26.0,Adults,15,True
103,103,329,7472,value training,False,./assets/img/canyon/memory/25.jpg,canyon,26.0,False,True,original,2.0,"{""ArrowUp,ArrowLeft"":26,""ArrowUp,ArrowRight"":10,""ArrowDown,ArrowLeft"":5,""ArrowDown,ArrowRight"":17}",18,,20.16,Female,2,rest,643.8999999761581,343.2999999523163,ArrowUp,ArrowLeft,True,True,26.0,Adults,15,True
104,104,331,7472,value training,False,./assets/img/canyon/memory/1.jpg,canyon,26.0,False,True,original,2.0,"{""ArrowUp,ArrowLeft"":26,""ArrowUp,ArrowRight"":10,""ArrowDown,ArrowLeft"":5,""ArrowDown,ArrowRight"":17}",19,,20.16,Female,2,rest,436.40000009536743,376.5,ArrowUp,ArrowLeft,True,True,26.0,Adults,15,True
105,105,333,7472,value training,False,./assets/img/canyon/memory/36.jpg,canyon,26.0,False,True,original,2.0,"{""ArrowUp,ArrowLeft"":26,""ArrowUp,ArrowRight"":10,""ArrowDown,ArrowLeft"":5,""ArrowDown,ArrowRight"":17}",20,,20.16,Female,2,rest,379.5,188.20000004768372,ArrowUp,ArrowLeft,True,True,26.0,Adults,15,True
107,107,337,7472,value training,False,./assets/img/canyon/memory/39.jpg,canyon,26.0,False,True,original,2.0,"{""ArrowUp,ArrowLeft"":26,""ArrowUp,ArrowRight"":10,""ArrowDown,ArrowLeft"":5,""ArrowDown,ArrowRight"":17}",21,,20.16,Female,2,rest,446.6999999284744,246.5,ArrowUp,ArrowLeft,True,True,26.0,Adults,20,True
108,108,339,7472,value training,False,./assets/img/canyon/memory/14.jpg,canyon,26.0,False,True,original,2.0,"{""ArrowUp,ArrowLeft"":26,""ArrowUp,ArrowRight"":10,""ArrowDown,ArrowLeft"":5,""ArrowDown,ArrowRight"":17}",22,,20.16,Female,2,rest,426.39999997615814,287.2000000476837,ArrowUp,ArrowLeft,True,True,26.0,Adults,20,True
109,109,341,7472,value training,False,./assets/img/canyon/memory/16.jpg,canyon,26.0,False,True,original,2.0,"{""ArrowUp,ArrowLeft"":26,""ArrowUp,ArrowRight"":10,""ArrowDown,ArrowLeft"":5,""ArrowDown,ArrowRight"":17}",23,,20.16,Female,2,rest,393.0,92.5,ArrowUp,ArrowLeft,True,True,26.0,Adults,20,True
110,110,343,7472,value training,False,./assets/img/canyon/memory/13.jpg,canyon,26.0,False,True,original,2.0,"{""ArrowUp,ArrowLeft"":26,""ArrowUp,ArrowRight"":10,""ArrowDown,ArrowLeft"":5,""ArrowDown,ArrowRight"":17}",24,,20.16,Female,2,rest,375.2000000476837,303.89999997615814,ArrowUp,ArrowLeft,True,True,26.0,Adults,20,True
111,111,345,7472,value training,False,./assets/img/canyon/memory/5.jpg,canyon,26.0,False,True,original,2.0,"{""ArrowUp,ArrowLeft"":26,""ArrowUp,ArrowRight"":10,""ArrowDown,ArrowLeft"":5,""ArrowDown,ArrowRight"":17}",25,,20.16,Female,2,rest,347.5,196.59999990463257,ArrowUp,ArrowLeft,True,True,26.0,Adults,20,True
112,112,347,7472,value training,False,./assets/img/canyon/memory/11.jpg,canyon,26.0,False,True,original,2.0,"{""ArrowUp,ArrowLeft"":26,""ArrowUp,ArrowRight"":10,""ArrowDown,ArrowLeft"":5,""ArrowDown,ArrowRight"":17}",26,,20.16,Female,2,rest,380.0,208.80000007152557,ArrowUp,ArrowLeft,True,True,26.0,Adults,25,True
113,113,349,7472,value training,False,./assets/img/canyon/memory/3.jpg,canyon,26.0,False,True,original,2.0,"{""ArrowUp,ArrowLeft"":26,""ArrowUp,ArrowRight"":10,""ArrowDown,ArrowLeft"":5,""ArrowDown,ArrowRight"":17}",27,,20.16,Female,2,rest,403.3000000715256,242.10000002384186,ArrowUp,ArrowLeft,True,True,26.0,Adults,25,True
114,114,351,7472,value training,False,./assets/img/canyon/memory/32.jpg,canyon,26.0,False,True,original,2.0,"{""ArrowUp,ArrowLeft"":26,""ArrowUp,ArrowRight"":10,""ArrowDown,ArrowLeft"":5,""ArrowDown,ArrowRight"":17}",28,,20.16,Female,2,rest,354.7000000476837,245.80000007152557,ArrowUp,ArrowLeft,True,True,26.0,Adults,25,True
115,115,353,7472,value training,False,./assets/img/canyon/memory/39.jpg,canyon,26.0,False,True,original,2.0,"{""ArrowUp,ArrowLeft"":26,""ArrowUp,ArrowRight"":10,""ArrowDown,ArrowLeft"":5,""ArrowDown,ArrowRight"":17}",29,,20.16,Female,2,rest,387.60000002384186,206.90000009536743,ArrowUp,ArrowLeft,True,True,26.0,Adults,25,True
116,116,355,7472,value training,False,./assets/img/canyon/memory/14.jpg,canyon,26.0,False,True,original,2.0,"{""ArrowUp,ArrowLeft"":26,""ArrowUp,ArrowRight"":10,""ArrowDown,ArrowLeft"":5,""ArrowDown,ArrowRight"":17}",30,,20.16,Female,2,rest,438.60000002384186,427.2000000476837,ArrowUp,ArrowLeft,True,True,26.0,Adults,25,True
118,118,359,7472,value training,False,./assets/img/canyon/memory/37.jpg,canyon,26.0,False,True,original,2.0,"{""ArrowUp,ArrowLeft"":26,""ArrowUp,ArrowRight"":10,""ArrowDown,ArrowLeft"":5,""ArrowDown,ArrowRight"":17}",31,,20.16,Female,2,rest,702.2000000476837,838.0,ArrowUp,ArrowLeft,True,True,26.0,Adults,30,True
119,119,361,7472,value training,False,./assets/img/canyon/memory/16.jpg,canyon,26.0,False,True,original,2.0,"{""ArrowUp,ArrowLeft"":26,""ArrowUp,ArrowRight"":10,""ArrowDown,ArrowLeft"":5,""ArrowDown,ArrowRight"":17}",32,,20.16,Female,2,rest,410.40000009536743,279.60000002384186,ArrowUp,ArrowLeft,True,True,26.0,Adults,30,True
120,120,363,7472,value training,False,./assets/img/canyon/memory/37.jpg,canyon,26.0,False,True,original,2.0,"{""ArrowUp,ArrowLeft"":26,""ArrowUp,ArrowRight"":10,""ArrowDown,ArrowLeft"":5,""ArrowDown,ArrowRight"":17}",33,,20.16,Female,2,rest,432.6999999284744,292.1999999284744,ArrowUp,ArrowLeft,True,True,26.0,Adults,30,True
121,121,365,7472,value training,False,./assets/img/canyon/memory/4.jpg,canyon,26.0,False,True,original,2.0,"{""ArrowUp,ArrowLeft"":26,""ArrowUp,ArrowRight"":10,""ArrowDown,ArrowLeft"":5,""ArrowDown,ArrowRight"":17}",34,,20.16,Female,2,rest,676.0,354.7999999523163,ArrowUp,ArrowLeft,True,True,26.0,Adults,30,True
122,122,367,7472,value training,False,./assets/img/canyon/memory/1.jpg,canyon,26.0,False,True,original,2.0,"{""ArrowUp,ArrowLeft"":26,""ArrowUp,ArrowRight"":10,""ArrowDown,ArrowLeft"":5,""ArrowDown,ArrowRight"":17}",35,,20.16,Female,2,rest,528.7000000476837,227.79999995231628,ArrowUp,ArrowLeft,True,True,26.0,Adults,30,True
123,123,369,7472,value training,False,./assets/img/canyon/memory/32.jpg,canyon,26.0,False,True,original,2.0,"{""ArrowUp,ArrowLeft"":26,""ArrowUp,ArrowRight"":10,""ArrowDown,ArrowLeft"":5,""ArrowDown,ArrowRight"":17}",36,,20.16,Female,2,rest,552.0,241.5,ArrowUp,ArrowLeft,True,True,26.0,Adults,35,True
124,124,371,7472,value training,False,./assets/img/canyon/memory/34.jpg,canyon,26.0,False,True,original,2.0,"{""ArrowUp,ArrowLeft"":26,""ArrowUp,ArrowRight"":10,""ArrowDown,ArrowLeft"":5,""ArrowDown,ArrowRight"":17}",37,,20.16,Female,2,rest,576.0,234.60000002384186,ArrowUp,ArrowLeft,True,True,26.0,Adults,35,True
125,125,373,7472,value training,False,./assets/img/canyon/memory/22.jpg,canyon,26.0,False,True,original,2.0,"{""ArrowUp,ArrowLeft"":26,""ArrowUp,ArrowRight"":10,""ArrowDown,ArrowLeft"":5,""ArrowDown,ArrowRight"":17}",38,,20.16,Female,2,rest,675.5,235.5,ArrowUp,ArrowLeft,True,True,26.0,Adults,35,True
126,126,375,7472,value training,False,./assets/img/canyon/memory/28.jpg,canyon,26.0,False,True,original,2.0,"{""ArrowUp,ArrowLeft"":26,""ArrowUp,ArrowRight"":10,""ArrowDown,ArrowLeft"":5,""ArrowDown,ArrowRight"":17}",39,,20.16,Female,2,rest,518.6000000238419,217.89999997615814,ArrowUp,ArrowLeft,True,True,26.0,Adults,35,True
127,127,377,7472,value training,False,./assets/img/canyon/memory/27.jpg,canyon,26.0,False,True,original,2.0,"{""ArrowUp,ArrowLeft"":26,""ArrowUp,ArrowRight"":10,""ArrowDown,ArrowLeft"":5,""ArrowDown,ArrowRight"":17}",40,,20.16,Female,2,rest,1179.2999999523163,337.8000000715256,ArrowUp,ArrowLeft,True,True,26.0,Adults,35,True
128,128,379,7472,value training,False,./assets/img/canyon/memory/6.jpg,canyon,26.0,False,True,original,2.0,"{""ArrowUp,ArrowLeft"":26,""ArrowUp,ArrowRight"":10,""ArrowDown,ArrowLeft"":5,""ArrowDown,ArrowRight"":17}",41,,20.16,Female,2,rest,512.2999999523163,410.90000009536743,ArrowUp,ArrowLeft,True,True,26.0,Adults,40,True
129,129,381,7472,value training,False,./assets/img/canyon/memory/2.jpg,canyon,26.0,False,True,original,2.0,"{""ArrowUp,ArrowLeft"":26,""ArrowUp,ArrowRight"":10,""ArrowDown,ArrowLeft"":5,""ArrowDown,ArrowRight"":17}",42,,20.16,Female,2,rest,503.2999999523163,252.29999995231628,ArrowUp,ArrowLeft,True,True,26.0,Adults,40,True
249,1,118,8153,value training,False,./assets/img/canyon/memory/26.jpg,canyon,10.0,False,False,revaluation,1.0,"{""ArrowUp,ArrowLeft"":26,""ArrowUp,ArrowRight"":10,""ArrowDown,ArrowLeft"":5,""ArrowDown,ArrowRight"":17}",1,,9.8,Male,8,rest,704.6999999999534,1130.4000000000233,ArrowUp,ArrowRight,True,False,26.0,Children,0,False
250,2,120,8153,value training,False,./assets/img/canyon/memory/32.jpg,canyon,26.0,False,True,revaluation,1.0,"{""ArrowUp,ArrowLeft"":26,""ArrowUp,ArrowRight"":10,""ArrowDown,ArrowLeft"":5,""ArrowDown,ArrowRight"":17}",2,,9.8,Male,8,rest,614.8000000000466,659.0999999999767,ArrowUp,ArrowLeft,True,True,26.0,Children,0,True
251,3,122,8153,value training,False,./assets/img/canyon/memory/30.jpg,canyon,17.0,False,False,revaluation,1.0,"{""ArrowUp,ArrowLeft"":26,""ArrowUp,ArrowRight"":10,""ArrowDown,ArrowLeft"":5,""ArrowDown,ArrowRight"":17}",3,,9.8,Male,8,rest,383.0,1072.4000000000233,ArrowDown,ArrowRight,False,True,26.0,Children,0,False
252,4,124,8153,value training,False,./assets/img/canyon/memory/0.jpg,canyon,5.0,False,False,revaluation,1.0,"{""ArrowUp,ArrowLeft"":26,""ArrowUp,ArrowRight"":10,""ArrowDown,ArrowLeft"":5,""ArrowDown,ArrowRight"":17}",4,,9.8,Male,8,rest,476.0999999999767,527.9000000000233,ArrowDown,ArrowLeft,False,False,26.0,Children,0,False
253,5,126,8153,value training,False,./assets/img/canyon/memory/11.jpg,canyon,10.0,False,False,revaluation,1.0,"{""ArrowUp,ArrowLeft"":26,""ArrowUp,ArrowRight"":10,""ArrowDown,ArrowLeft"":5,""ArrowDown,ArrowRight"":17}",5,,9.8,Male,8,rest,724.0999999999767,568.6999999999534,ArrowUp,ArrowRight,True,False,26.0,Children,0,False
255,7,130,8153,value training,False,./assets/img/canyon/memory/17.jpg,canyon,5.0,False,False,revaluation,1.0,"{""ArrowUp,ArrowLeft"":26,""ArrowUp,ArrowRight"":10,""ArrowDown,ArrowLeft"":5,""ArrowDown,ArrowRight"":17}",7,,9.8,Male,8,rest,619.5,591.3000000000466,ArrowDown,ArrowLeft,False,False,26.0,Children,5,False
256,8,132,8153,value training,False,./assets/img/canyon/memory/11.jpg,canyon,26.0,False,True,revaluation,1.0,"{""ArrowUp,ArrowLeft"":26,""ArrowUp,ArrowRight"":10,""ArrowDown,ArrowLeft"":5,""ArrowDown,ArrowRight"":17}",8,,9.8,Male,8,rest,919.5,493.30000000004657,ArrowUp,ArrowLeft,True,True,26.0,Children,5,True
257,9,134,8153,value training,False,./assets/img/canyon/memory/18.jpg,canyon,26.0,False,True,revaluation,1.0,"{""ArrowUp,ArrowLeft"":26,""ArrowUp,ArrowRight"":10,""ArrowDown,ArrowLeft"":5,""ArrowDown,ArrowRight"":17}",9,,9.8,Male,8,rest,599.5,395.0,ArrowUp,ArrowLeft,True,True,26.0,Children,5,True
258,10,136,8153,value training,False,./assets/img/canyon/memory/24.jpg,canyon,26.0,False,True,revaluation,1.0,"{""ArrowUp,ArrowLeft"":26,""ArrowUp,ArrowRight"":10,""ArrowDown,ArrowLeft"":5,""ArrowDown,ArrowRight"":17}",10,,9.8,Male,8,rest,546.4000000000233,431.10000000009313,ArrowUp,ArrowLeft,True,True,26.0,Children,5,True
259,11,138,8153,value training,False,./assets/img/canyon/memory/39.jpg,canyon,26.0,False,True,revaluation,1.0,"{""ArrowUp,ArrowLeft"":26,""ArrowUp,ArrowRight"":10,""ArrowDown,ArrowLeft"":5,""ArrowDown,ArrowRight"":17}",11,,9.8,Male,8,rest,476.69999999995343,342.60000000009313,ArrowUp,ArrowLeft,True,True,26.0,Children,10,True
260,12,140,8153,value training,False,./assets/img/canyon/memory/30.jpg,canyon,26.0,False,True,revaluation,1.0,"{""ArrowUp,ArrowLeft"":26,""ArrowUp,ArrowRight"":10,""ArrowDown,ArrowLeft"":5,""ArrowDown,ArrowRight"":17}",12,,9.8,Male,8,rest,467.30000000004657,433.4000000000233,ArrowUp,ArrowLeft,True,True,26.0,Children,10,True
261,13,142,8153,value training,False,./assets/img/canyon/memory/13.jpg,canyon,26.0,False,True,revaluation,1.0,"{""ArrowUp,ArrowLeft"":26,""ArrowUp,ArrowRight"":10,""ArrowDown,ArrowLeft"":5,""ArrowDown,ArrowRight"":17}",13,,9.8,Male,8,rest,397.70000000006985,327.0999999999767,ArrowUp,ArrowLeft,True,True,26.0,Children,10,True
262,14,144,8153,value training,False,./assets/img/canyon/memory/27.jpg,canyon,26.0,False,True,revaluation,1.0,"{""ArrowUp,ArrowLeft"":26,""ArrowUp,ArrowRight"":10,""ArrowDown,ArrowLeft"":5,""ArrowDown,ArrowRight"":17}",14,,9.8,Male,8,rest,317.4000000000233,143.40000000002328,ArrowUp,ArrowLeft,True,True,26.0,Children,10,True
263,15,146,8153,value training,False,./assets/img/canyon/memory/20.jpg,canyon,26.0,False,True,revaluation,1.0,"{""ArrowUp,ArrowLeft"":26,""ArrowUp,ArrowRight"":10,""ArrowDown,ArrowLeft"":5,""ArrowDown,ArrowRight"":17}",15,,9.8,Male,8,rest,952.6999999999534,519.0999999999767,ArrowUp,ArrowLeft,True,True,26.0,Children,10,True
265,17,150,8153,value training,False,./assets/img/canyon/memory/15.jpg,canyon,26.0,False,True,revaluation,1.0,"{""ArrowUp,ArrowLeft"":26,""ArrowUp,ArrowRight"":10,""ArrowDown,ArrowLeft"":5,""ArrowDown,ArrowRight"":17}",16,,9.8,Male,8,rest,559.5,576.2999999999302,ArrowUp,ArrowLeft,True,True,26.0,Children,15,True
267,19,154,8153,value training,False,./assets/img/canyon/memory/2.jpg,canyon,26.0,False,True,revaluation,1.0,"{""ArrowUp,ArrowLeft"":26,""ArrowUp,ArrowRight"":10,""ArrowDown,ArrowLeft"":5,""ArrowDown,ArrowRight"":17}",17,,9.8,Male,8,rest,607.0,559.6999999999534,ArrowUp,ArrowLeft,True,True,26.0,Children,15,True
268,20,156,8153,value training,False,./assets/img/canyon/memory/14.jpg,canyon,26.0,False,True,revaluation,1.0,"{""ArrowUp,ArrowLeft"":26,""ArrowUp,ArrowRight"":10,""ArrowDown,ArrowLeft"":5,""ArrowDown,ArrowRight"":17}",18,,9.8,Male,8,rest,519.5,413.30000000004657,ArrowUp,ArrowLeft,True,True,26.0,Children,15,True
269,21,158,8153,value training,False,./assets/img/canyon/memory/15.jpg,canyon,26.0,False,True,revaluation,1.0,"{""ArrowUp,ArrowLeft"":26,""ArrowUp,ArrowRight"":10,""ArrowDown,ArrowLeft"":5,""ArrowDown,ArrowRight"":17}",19,,9.8,Male,8,rest,577.8999999999069,441.5,ArrowUp,ArrowLeft,True,True,26.0,Children,15,True
271,23,162,8153,value training,False,./assets/img/canyon/memory/35.jpg,canyon,26.0,False,True,revaluation,1.0,"{""ArrowUp,ArrowLeft"":26,""ArrowUp,ArrowRight"":10,""ArrowDown,ArrowLeft"":5,""ArrowDown,ArrowRight"":17}",21,,9.8,Male,8,rest,478.0,422.30000000004657,ArrowUp,ArrowLeft,True,True,26.0,Children,20,True
272,24,164,8153,value training,False,./assets/img/canyon/memory/26.jpg,canyon,26.0,False,True,revaluation,1.0,"{""ArrowUp,ArrowLeft"":26,""ArrowUp,ArrowRight"":10,""ArrowDown,ArrowLeft"":5,""ArrowDown,ArrowRight"":17}",22,,9.8,Male,8,rest,921.8999999999069,592.4000000001397,ArrowUp,ArrowLeft,True,True,26.0,Children,20,True
275,27,170,8153,value training,False,./assets/img/canyon/memory/17.jpg,canyon,26.0,False,True,revaluation,1.0,"{""ArrowUp,ArrowLeft"":26,""ArrowUp,ArrowRight"":10,""ArrowDown,ArrowLeft"":5,""ArrowDown,ArrowRight"":17}",24,,9.8,Male,8,rest,704.6999999999534,1898.1000000000931,ArrowUp,ArrowLeft,True,True,26.0,Children,20,True
276,28,172,8153,value training,False,./assets/img/canyon/memory/18.jpg,canyon,26.0,False,True,revaluation,1.0,"{""ArrowUp,ArrowLeft"":26,""ArrowUp,ArrowRight"":10,""ArrowDown,ArrowLeft"":5,""ArrowDown,ArrowRight"":17}",25,,9.8,Male,8,rest,452.5,589.3999999999069,ArrowUp,ArrowLeft,True,True,26.0,Children,20,True
277,29,174,8153,value training,False,./assets/img/canyon/memory/34.jpg,canyon,26.0,False,True,revaluation,1.0,"{""ArrowUp,ArrowLeft"":26,""ArrowUp,ArrowRight"":10,""ArrowDown,ArrowLeft"":5,""ArrowDown,ArrowRight"":17}",26,,9.8,Male,8,rest,663.6999999999534,461.80000000004657,ArrowUp,ArrowLeft,True,True,26.0,Children,25,True
278,30,176,8153,value training,False,./assets/img/canyon/memory/23.jpg,canyon,26.0,False,True,revaluation,1.0,"{""ArrowUp,ArrowLeft"":26,""ArrowUp,ArrowRight"":10,""ArrowDown,ArrowLeft"":5,""ArrowDown,ArrowRight"":17}",27,,9.8,Male,8,rest,914.5,614.5,ArrowUp,ArrowLeft,True,True,26.0,Children,25,True
281,33,182,8153,value training,False,./assets/img/canyon/memory/3.jpg,canyon,26.0,False,True,revaluation,1.0,"{""ArrowUp,ArrowLeft"":26,""ArrowUp,ArrowRight"":10,""ArrowDown,ArrowLeft"":5,""ArrowDown,ArrowRight"":17}",28,,9.8,Male,8,rest,1699.7000000001863,1100.1999999999534,ArrowUp,ArrowLeft,True,True,26.0,Children,25,True
282,34,184,8153,value training,False,./assets/img/canyon/memory/14.jpg,canyon,26.0,False,True,revaluation,1.0,"{""ArrowUp,ArrowLeft"":26,""ArrowUp,ArrowRight"":10,""ArrowDown,ArrowLeft"":5,""ArrowDown,ArrowRight"":17}",29,,9.8,Male,8,rest,591.5,439.5,ArrowUp,ArrowLeft,True,True,26.0,Children,25,True
283,35,186,8153,value training,False,./assets/img/canyon/memory/38.jpg,canyon,26.0,False,True,revaluation,1.0,"{""ArrowUp,ArrowLeft"":26,""ArrowUp,ArrowRight"":10,""ArrowDown,ArrowLeft"":5,""ArrowDown,ArrowRight"":17}",30,,9.8,Male,8,rest,540.3999999999069,489.80000000004657,ArrowUp,ArrowLeft,True,True,26.0,Children,25,True
284,36,188,8153,value training,False,./assets/img/canyon/memory/0.jpg,canyon,26.0,False,True,revaluation,1.0,"{""ArrowUp,ArrowLeft"":26,""ArrowUp,ArrowRight"":10,""ArrowDown,ArrowLeft"":5,""ArrowDown,ArrowRight"":17}",31,,9.8,Male,8,rest,547.0999999998603,890.0,ArrowUp,ArrowLeft,True,True,26.0,Children,30,True
285,37,190,8153,value training,False,./assets/img/canyon/memory/35.jpg,canyon,26.0,False,True,revaluation,1.0,"{""ArrowUp,ArrowLeft"":26,""ArrowUp,ArrowRight"":10,""ArrowDown,ArrowLeft"":5,""ArrowDown,ArrowRight"":17}",32,,9.8,Male,8,rest,1601.6000000000931,731.2000000001863,ArrowUp,ArrowLeft,True,True,26.0,Children,30,True
286,38,192,8153,value training,False,./assets/img/canyon/memory/24.jpg,canyon,26.0,False,True,revaluation,1.0,"{""ArrowUp,ArrowLeft"":26,""ArrowUp,ArrowRight"":10,""ArrowDown,ArrowLeft"":5,""ArrowDown,ArrowRight"":17}",33,,9.8,Male,8,rest,521.2999999998137,469.4000000001397,ArrowUp,ArrowLeft,True,True,26.0,Children,30,True
287,39,194,8153,value training,False,./assets/img/canyon/memory/27.jpg,canyon,26.0,False,True,revaluation,1.0,"{""ArrowUp,ArrowLeft"":26,""ArrowUp,ArrowRight"":10,""ArrowDown,ArrowLeft"":5,""ArrowDown,ArrowRight"":17}",34,,9.8,Male,8,rest,579.3999999999069,956.9000000001397,ArrowUp,ArrowLeft,True,True,26.0,Children,30,True
289,41,198,8153,value training,False,./assets/img/canyon/memory/34.jpg,canyon,26.0,False,True,revaluation,1.0,"{""ArrowUp,ArrowLeft"":26,""ArrowUp,ArrowRight"":10,""ArrowDown,ArrowLeft"":5,""ArrowDown,ArrowRight"":17}",36,,9.8,Male,8,rest,617.0,404.60000000009313,ArrowUp,ArrowLeft,True,True,26.0,Children,35,True
291,43,202,8153,value training,False,./assets/img/canyon/memory/3.jpg,canyon,26.0,False,True,revaluation,1.0,"{""ArrowUp,ArrowLeft"":26,""ArrowUp,ArrowRight"":10,""ArrowDown,ArrowLeft"":5,""ArrowDown,ArrowRight"":17}",37,,9.8,Male,8,rest,854.6000000000931,632.2000000001863,ArrowUp,ArrowLeft,True,True,26.0,Children,35,True
292,44,204,8153,value training,False,./assets/img/canyon/memory/20.jpg,canyon,26.0,False,True,revaluation,1.0,"{""ArrowUp,ArrowLeft"":26,""ArrowUp,ArrowRight"":10,""ArrowDown,ArrowLeft"":5,""ArrowDown,ArrowRight"":17}",38,,9.8,Male,8,rest,579.0999999998603,1496.8000000000466,ArrowUp,ArrowLeft,True,True,26.0,Children,35,True
293,45,206,8153,value training,False,./assets/img/canyon/memory/1.jpg,canyon,26.0,False,True,revaluation,1.0,"{""ArrowUp,ArrowLeft"":26,""ArrowUp,ArrowRight"":10,""ArrowDown,ArrowLeft"":5,""ArrowDown,ArrowRight"":17}",39,,9.8,Male,8,rest,603.1000000000931,1127.0,ArrowUp,ArrowLeft,True,True,26.0,Children,35,True
295,47,210,8153,value training,False,./assets/img/canyon/memory/39.jpg,canyon,26.0,False,True,revaluation,1.0,"{""ArrowUp,ArrowLeft"":26,""ArrowUp,ArrowRight"":10,""ArrowDown,ArrowLeft"":5,""ArrowDown,ArrowRight"":17}",40,,9.8,Male,8,rest,855.6000000000931,608.3000000000466,ArrowUp,ArrowLeft,True,True,26.0,Children,35,True
296,48,212,8153,value training,False,./assets/img/canyon/memory/1.jpg,canyon,26.0,False,True,revaluation,1.0,"{""ArrowUp,ArrowLeft"":26,""ArrowUp,ArrowRight"":10,""ArrowDown,ArrowLeft"":5,""ArrowDown,ArrowRight"":17}",41,,9.8,Male,8,rest,1522.5999999998603,527.1000000000931,ArrowUp,ArrowLeft,True,True,26.0,Children,40,True
297,49,214,8153,value training,False,./assets/img/canyon/memory/38.jpg,canyon,26.0,False,True,revaluation,1.0,"{""ArrowUp,ArrowLeft"":26,""ArrowUp,ArrowRight"":10,""ArrowDown,ArrowLeft"":5,""ArrowDown,ArrowRight"":17}",42,,9.8,Male,8,rest,302.5,401.0,ArrowUp,ArrowLeft,True,True,26.0,Children,40,True
328,80,285,8153,value training,False,./assets/img/ocean/memory/17.jpg,ocean,30.0,False,True,original,2.0,"{""ArrowUp,ArrowLeft"":23,""ArrowUp,ArrowRight"":10,""ArrowDown,ArrowLeft"":8,""ArrowDown,ArrowRight"":30}",1,,9.8,Male,8,rest,1345.5999999998603,1706.3000000000466,ArrowDown,ArrowRight,True,True,30.0,Children,0,True
329,81,287,8153,value training,False,./assets/img/ocean/memory/30.jpg,ocean,8.0,False,False,original,2.0,"{""ArrowUp,ArrowLeft"":23,""ArrowUp,ArrowRight"":10,""ArrowDown,ArrowLeft"":8,""ArrowDown,ArrowRight"":30}",2,,9.8,Male,8,rest,807.3000000000466,490.5,ArrowDown,ArrowLeft,True,False,30.0,Children,0,False
330,82,289,8153,value training,False,./assets/img/ocean/memory/35.jpg,ocean,23.0,False,False,original,2.0,"{""ArrowUp,ArrowLeft"":23,""ArrowUp,ArrowRight"":10,""ArrowDown,ArrowLeft"":8,""ArrowDown,ArrowRight"":30}",3,,9.8,Male,8,rest,711.5,921.6999999999534,ArrowUp,ArrowLeft,False,True,30.0,Children,0,False
331,83,291,8153,value training,False,./assets/img/ocean/memory/3.jpg,ocean,10.0,False,False,original,2.0,"{""ArrowUp,ArrowLeft"":23,""ArrowUp,ArrowRight"":10,""ArrowDown,ArrowLeft"":8,""ArrowDown,ArrowRight"":30}",4,,9.8,Male,8,rest,686.6999999999534,654.3999999999069,ArrowUp,ArrowRight,False,False,30.0,Children,0,False
332,84,293,8153,value training,False,./assets/img/ocean/memory/11.jpg,ocean,30.0,False,True,original,2.0,"{""ArrowUp,ArrowLeft"":23,""ArrowUp,ArrowRight"":10,""ArrowDown,ArrowLeft"":8,""ArrowDown,ArrowRight"":30}",5,,9.8,Male,8,rest,773.3999999999069,625.5,ArrowDown,ArrowRight,True,True,30.0,Children,0,True
333,85,295,8153,value training,False,./assets/img/ocean/memory/39.jpg,ocean,30.0,False,True,original,2.0,"{""ArrowUp,ArrowLeft"":23,""ArrowUp,ArrowRight"":10,""ArrowDown,ArrowLeft"":8,""ArrowDown,ArrowRight"":30}",6,,9.8,Male,8,rest,1111.9000000001397,557.3999999999069,ArrowDown,ArrowRight,True,True,30.0,Children,5,True
334,86,297,8153,value training,False,./assets/img/ocean/memory/23.jpg,ocean,30.0,False,True,original,2.0,"{""ArrowUp,ArrowLeft"":23,""ArrowUp,ArrowRight"":10,""ArrowDown,ArrowLeft"":8,""ArrowDown,ArrowRight"":30}",7,,9.8,Male,8,rest,741.8000000000466,537.6999999999534,ArrowDown,ArrowRight,True,True,30.0,Children,5,True
336,88,301,8153,value training,False,./assets/img/ocean/memory/38.jpg,ocean,30.0,False,True,original,2.0,"{""ArrowUp,ArrowLeft"":23,""ArrowUp,ArrowRight"":10,""ArrowDown,ArrowLeft"":8,""ArrowDown,ArrowRight"":30}",8,,9.8,Male,8,rest,875.5,700.0,ArrowDown,ArrowRight,True,True,30.0,Children,5,True
338,90,305,8153,value training,False,./assets/img/ocean/memory/14.jpg,ocean,30.0,False,True,original,2.0,"{""ArrowUp,ArrowLeft"":23,""ArrowUp,ArrowRight"":10,""ArrowDown,ArrowLeft"":8,""ArrowDown,ArrowRight"":30}",10,,9.8,Male,8,rest,894.0,511.0,ArrowDown,ArrowRight,True,True,30.0,Children,5,True
339,91,307,8153,value training,False,./assets/img/ocean/memory/15.jpg,ocean,30.0,False,True,original,2.0,"{""ArrowUp,ArrowLeft"":23,""ArrowUp,ArrowRight"":10,""ArrowDown,ArrowLeft"":8,""ArrowDown,ArrowRight"":30}",11,,9.8,Male,8,rest,682.3999999999069,494.9000000001397,ArrowDown,ArrowRight,True,True,30.0,Children,10,True
340,92,309,8153,value training,False,./assets/img/ocean/memory/0.jpg,ocean,30.0,False,True,original,2.0,"{""ArrowUp,ArrowLeft"":23,""ArrowUp,ArrowRight"":10,""ArrowDown,ArrowLeft"":8,""ArrowDown,ArrowRight"":30}",12,,9.8,Male,8,rest,492.0,427.30000000004657,ArrowDown,ArrowRight,True,True,30.0,Children,10,True
341,93,311,8153,value training,False,./assets/img/ocean/memory/15.jpg,ocean,30.0,False,True,original,2.0,"{""ArrowUp,ArrowLeft"":23,""ArrowUp,ArrowRight"":10,""ArrowDown,ArrowLeft"":8,""ArrowDown,ArrowRight"":30}",13,,9.8,Male,8,rest,378.10000000009313,381.0,ArrowDown,ArrowRight,True,True,30.0,Children,10,True
342,94,313,8153,value training,False,./assets/img/ocean/memory/26.jpg,ocean,30.0,False,True,original,2.0,"{""ArrowUp,ArrowLeft"":23,""ArrowUp,ArrowRight"":10,""ArrowDown,ArrowLeft"":8,""ArrowDown,ArrowRight"":30}",14,,9.8,Male,8,rest,640.9000000001397,515.1000000000931,ArrowDown,ArrowRight,True,True,30.0,Children,10,True
344,96,317,8153,value training,False,./assets/img/ocean/memory/32.jpg,ocean,30.0,False,True,original,2.0,"{""ArrowUp,ArrowLeft"":23,""ArrowUp,ArrowRight"":10,""ArrowDown,ArrowLeft"":8,""ArrowDown,ArrowRight"":30}",15,,9.8,Male,8,rest,1202.9000000001397,1034.8000000000466,ArrowDown,ArrowRight,True,True,30.0,Children,10,True
345,97,319,8153,value training,False,./assets/img/ocean/memory/39.jpg,ocean,30.0,False,True,original,2.0,"{""ArrowUp,ArrowLeft"":23,""ArrowUp,ArrowRight"":10,""ArrowDown,ArrowLeft"":8,""ArrowDown,ArrowRight"":30}",16,,9.8,Male,8,rest,661.6000000000931,498.39999999990687,ArrowDown,ArrowRight,True,True,30.0,Children,15,True
346,98,321,8153,value training,False,./assets/img/ocean/memory/14.jpg,ocean,30.0,False,True,original,2.0,"{""ArrowUp,ArrowLeft"":23,""ArrowUp,ArrowRight"":10,""ArrowDown,ArrowLeft"":8,""ArrowDown,ArrowRight"":30}",17,,9.8,Male,8,rest,664.3000000000466,427.0,ArrowDown,ArrowRight,True,True,30.0,Children,15,True
347,99,323,8153,value training,False,./assets/img/ocean/memory/20.jpg,ocean,30.0,False,True,original,2.0,"{""ArrowUp,ArrowLeft"":23,""ArrowUp,ArrowRight"":10,""ArrowDown,ArrowLeft"":8,""ArrowDown,ArrowRight"":30}",18,,9.8,Male,8,rest,915.6000000000931,619.5,ArrowDown,ArrowRight,True,True,30.0,Children,15,True
349,101,327,8153,value training,False,./assets/img/ocean/memory/3.jpg,ocean,30.0,False,True,original,2.0,"{""ArrowUp,ArrowLeft"":23,""ArrowUp,ArrowRight"":10,""ArrowDown,ArrowLeft"":8,""ArrowDown,ArrowRight"":30}",19,,9.8,Male,8,rest,749.8000000000466,744.8999999999069,ArrowDown,ArrowRight,True,True,30.0,Children,15,True
350,102,329,8153,value training,False,./assets/img/ocean/memory/24.jpg,ocean,30.0,False,True,original,2.0,"{""ArrowUp,ArrowLeft"":23,""ArrowUp,ArrowRight"":10,""ArrowDown,ArrowLeft"":8,""ArrowDown,ArrowRight"":30}",20,,9.8,Male,8,rest,717.6999999999534,421.19999999995343,ArrowDown,ArrowRight,True,True,30.0,Children,15,True
351,103,331,8153,value training,False,./assets/img/ocean/memory/0.jpg,ocean,30.0,False,True,original,2.0,"{""ArrowUp,ArrowLeft"":23,""ArrowUp,ArrowRight"":10,""ArrowDown,ArrowLeft"":8,""ArrowDown,ArrowRight"":30}",21,,9.8,Male,8,rest,422.0,368.0,ArrowDown,ArrowRight,True,True,30.0,Children,20,True
352,104,333,8153,value training,False,./assets/img/ocean/memory/17.jpg,ocean,30.0,False,True,original,2.0,"{""ArrowUp,ArrowLeft"":23,""ArrowUp,ArrowRight"":10,""ArrowDown,ArrowLeft"":8,""ArrowDown,ArrowRight"":30}",22,,9.8,Male,8,rest,462.5,636.8000000000466,ArrowDown,ArrowRight,True,True,30.0,Children,20,True
353,105,335,8153,value training,False,./assets/img/ocean/memory/18.jpg,ocean,30.0,False,True,original,2.0,"{""ArrowUp,ArrowLeft"":23,""ArrowUp,ArrowRight"":10,""ArrowDown,ArrowLeft"":8,""ArrowDown,ArrowRight"":30}",23,,9.8,Male,8,rest,474.60000000009313,575.1000000000931,ArrowDown,ArrowRight,True,True,30.0,Children,20,True
354,106,337,8153,value training,False,./assets/img/ocean/memory/18.jpg,ocean,30.0,False,True,original,2.0,"{""ArrowUp,ArrowLeft"":23,""ArrowUp,ArrowRight"":10,""ArrowDown,ArrowLeft"":8,""ArrowDown,ArrowRight"":30}",24,,9.8,Male,8,rest,505.80000000004657,321.5,ArrowDown,ArrowRight,True,True,30.0,Children,20,True
355,107,339,8153,value training,False,./assets/img/ocean/memory/34.jpg,ocean,30.0,False,True,original,2.0,"{""ArrowUp,ArrowLeft"":23,""ArrowUp,ArrowRight"":10,""ArrowDown,ArrowLeft"":8,""ArrowDown,ArrowRight"":30}",25,,9.8,Male,8,rest,486.89999999990687,490.0,ArrowDown,ArrowRight,True,True,30.0,Children,20,True
357,109,343,8153,value training,False,./assets/img/ocean/memory/1.jpg,ocean,30.0,False,True,original,2.0,"{""ArrowUp,ArrowLeft"":23,""ArrowUp,ArrowRight"":10,""ArrowDown,ArrowLeft"":8,""ArrowDown,ArrowRight"":30}",26,,9.8,Male,8,rest,685.1999999999534,332.10000000009313,ArrowDown,ArrowRight,True,True,30.0,Children,25,True
358,110,345,8153,value training,False,./assets/img/ocean/memory/20.jpg,ocean,30.0,False,True,original,2.0,"{""ArrowUp,ArrowLeft"":23,""ArrowUp,ArrowRight"":10,""ArrowDown,ArrowLeft"":8,""ArrowDown,ArrowRight"":30}",27,,9.8,Male,8,rest,359.10000000009313,510.5,ArrowDown,ArrowRight,True,True,30.0,Children,25,True
359,111,347,8153,value training,False,./assets/img/ocean/memory/26.jpg,ocean,30.0,False,True,original,2.0,"{""ArrowUp,ArrowLeft"":23,""ArrowUp,ArrowRight"":10,""ArrowDown,ArrowLeft"":8,""ArrowDown,ArrowRight"":30}",28,,9.8,Male,8,rest,544.9000000001397,562.6999999999534,ArrowDown,ArrowRight,True,True,30.0,Children,25,True
362,114,353,8153,value training,False,./assets/img/ocean/memory/23.jpg,ocean,30.0,False,True,original,2.0,"{""ArrowUp,ArrowLeft"":23,""ArrowUp,ArrowRight"":10,""ArrowDown,ArrowLeft"":8,""ArrowDown,ArrowRight"":30}",29,,9.8,Male,8,rest,771.6999999999534,392.39999999990687,ArrowDown,ArrowRight,True,True,30.0,Children,25,True
363,115,355,8153,value training,False,./assets/img/ocean/memory/27.jpg,ocean,30.0,False,True,original,2.0,"{""ArrowUp,ArrowLeft"":23,""ArrowUp,ArrowRight"":10,""ArrowDown,ArrowLeft"":8,""ArrowDown,ArrowRight"":30}",30,,9.8,Male,8,rest,1510.8000000000466,420.39999999990687,ArrowDown,ArrowRight,True,True,30.0,Children,25,True
364,116,357,8153,value training,False,./assets/img/ocean/memory/30.jpg,ocean,30.0,False,True,original,2.0,"{""ArrowUp,ArrowLeft"":23,""ArrowUp,ArrowRight"":10,""ArrowDown,ArrowLeft"":8,""ArrowDown,ArrowRight"":30}",31,,9.8,Male,8,rest,576.8999999999069,559.6000000000931,ArrowDown,ArrowRight,True,True,30.0,Children,30,True
365,117,359,8153,value training,False,./assets/img/ocean/memory/24.jpg,ocean,30.0,False,True,original,2.0,"{""ArrowUp,ArrowLeft"":23,""ArrowUp,ArrowRight"":10,""ArrowDown,ArrowLeft"":8,""ArrowDown,ArrowRight"":30}",32,,9.8,Male,8,rest,743.5999999998603,755.6999999999534,ArrowDown,ArrowRight,True,True,30.0,Children,30,True
366,118,361,8153,value training,False,./assets/img/ocean/memory/11.jpg,ocean,30.0,False,True,original,2.0,"{""ArrowUp,ArrowLeft"":23,""ArrowUp,ArrowRight"":10,""ArrowDown,ArrowLeft"":8,""ArrowDown,ArrowRight"":30}",33,,9.8,Male,8,rest,448.80000000004657,532.8000000000466,ArrowDown,ArrowRight,True,True,30.0,Children,30,True
367,119,363,8153,value training,False,./assets/img/ocean/memory/2.jpg,ocean,30.0,False,True,original,2.0,"{""ArrowUp,ArrowLeft"":23,""ArrowUp,ArrowRight"":10,""ArrowDown,ArrowLeft"":8,""ArrowDown,ArrowRight"":30}",34,,9.8,Male,8,rest,655.4000000001397,1161.5,ArrowDown,ArrowRight,True,True,30.0,Children,30,True
368,120,365,8153,value training,False,./assets/img/ocean/memory/32.jpg,ocean,30.0,False,True,original,2.0,"{""ArrowUp,ArrowLeft"":23,""ArrowUp,ArrowRight"":10,""ArrowDown,ArrowLeft"":8,""ArrowDown,ArrowRight"":30}",35,,9.8,Male,8,rest,1242.2000000001863,617.8000000000466,ArrowDown,ArrowRight,True,True,30.0,Children,30,True
369,121,367,8153,value training,False,./assets/img/ocean/memory/34.jpg,ocean,30.0,False,True,original,2.0,"{""ArrowUp,ArrowLeft"":23,""ArrowUp,ArrowRight"":10,""ArrowDown,ArrowLeft"":8,""ArrowDown,ArrowRight"":30}",36,,9.8,Male,8,rest,422.29999999981374,407.60000000009313,ArrowDown,ArrowRight,True,True,30.0,Children,35,True
371,123,371,8153,value training,False,./assets/img/ocean/memory/38.jpg,ocean,30.0,False,True,original,2.0,"{""ArrowUp,ArrowLeft"":23,""ArrowUp,ArrowRight"":10,""ArrowDown,ArrowLeft"":8,""ArrowDown,ArrowRight"":30}",37,,9.8,Male,8,rest,801.5,685.8999999999069,ArrowDown,ArrowRight,True,True,30.0,Children,35,True
372,124,373,8153,value training,False,./assets/img/ocean/memory/13.jpg,ocean,30.0,False,True,original,2.0,"{""ArrowUp,ArrowLeft"":23,""ArrowUp,ArrowRight"":10,""ArrowDown,ArrowLeft"":8,""ArrowDown,ArrowRight"":30}",38,,9.8,Male,8,rest,592.0,642.6000000000931,ArrowDown,ArrowRight,True,True,30.0,Children,35,True
373,125,375,8153,value training,False,./assets/img/ocean/memory/27.jpg,ocean,30.0,False,True,original,2.0,"{""ArrowUp,ArrowLeft"":23,""ArrowUp,ArrowRight"":10,""ArrowDown,ArrowLeft"":8,""ArrowDown,ArrowRight"":30}",39,,9.8,Male,8,rest,1179.5,611.7999999998137,ArrowDown,ArrowRight,True,True,30.0,Children,35,True
374,126,377,8153,value training,False,./assets/img/ocean/memory/35.jpg,ocean,30.0,False,True,original,2.0,"{""ArrowUp,ArrowLeft"":23,""ArrowUp,ArrowRight"":10,""ArrowDown,ArrowLeft"":8,""ArrowDown,ArrowRight"":30}",40,,9.8,Male,8,rest,488.39999999990687,86.89999999990687,ArrowDown,ArrowRight,True,True,30.0,Children,35,True
375,127,379,8153,value training,False,./assets/img/ocean/memory/13.jpg,ocean,30.0,False,True,original,2.0,"{""ArrowUp,ArrowLeft"":23,""ArrowUp,ArrowRight"":10,""ArrowDown,ArrowLeft"":8,""ArrowDown,ArrowRight"":30}",41,,9.8,Male,8,rest,373.30000000004657,786.2999999998137,ArrowDown,ArrowRight,True,True,30.0,Children,40,True
376,128,381,8153,value training,False,./assets/img/ocean/memory/2.jpg,ocean,30.0,False,True,original,2.0,"{""ArrowUp,ArrowLeft"":23,""ArrowUp,ArrowRight"":10,""ArrowDown,ArrowLeft"":8,""ArrowDown,ArrowRight"":30}",42,,9.8,Male,8,rest,1408.8000000000466,414.5,ArrowDown,ArrowRight,True,True,30.0,Children,40,True
496,0,116,8152,value training,False,./assets/img/ocean/memory/26.jpg,ocean,10.0,False,False,original,1.0,"{""ArrowUp,ArrowLeft"":23,""ArrowUp,ArrowRight"":10,""ArrowDown,ArrowLeft"":8,""ArrowDown,ArrowRight"":30}",1,,7.69,Male,3,rest,1044.6999999999534,1120.2000000000698,ArrowUp,ArrowRight,False,False,30.0,Children,0,False
497,1,118,8152,value training,False,./assets/img/ocean/memory/40.jpg,ocean,8.0,False,False,original,1.0,"{""ArrowUp,ArrowLeft"":23,""ArrowUp,ArrowRight"":10,""ArrowDown,ArrowLeft"":8,""ArrowDown,ArrowRight"":30}",2,,7.69,Male,3,rest,1119.6999999999534,613.3000000000466,ArrowDown,ArrowLeft,True,False,30.0,Children,0,False
498,2,120,8152,value training,False,./assets/img/ocean/memory/4.jpg,ocean,10.0,False,False,original,1.0,"{""ArrowUp,ArrowLeft"":23,""ArrowUp,ArrowRight"":10,""ArrowDown,ArrowLeft"":8,""ArrowDown,ArrowRight"":30}",3,,7.69,Male,3,rest,604.4000000000233,531.4000000000233,ArrowUp,ArrowRight,False,False,30.0,Children,0,False
499,3,122,8152,value training,False,./assets/img/ocean/memory/1.jpg,ocean,23.0,False,False,original,1.0,"{""ArrowUp,ArrowLeft"":23,""ArrowUp,ArrowRight"":10,""ArrowDown,ArrowLeft"":8,""ArrowDown,ArrowRight"":30}",4,,7.69,Male,3,rest,809.5,871.2999999999302,ArrowUp,ArrowLeft,False,True,30.0,Children,0,False
500,4,124,8152,value training,False,./assets/img/ocean/memory/3.jpg,ocean,8.0,False,False,original,1.0,"{""ArrowUp,ArrowLeft"":23,""ArrowUp,ArrowRight"":10,""ArrowDown,ArrowLeft"":8,""ArrowDown,ArrowRight"":30}",5,,7.69,Male,3,rest,687.0,665.5999999999767,ArrowDown,ArrowLeft,True,False,30.0,Children,0,False
501,5,126,8152,value training,False,./assets/img/ocean/memory/27.jpg,ocean,10.0,False,False,original,1.0,"{""ArrowUp,ArrowLeft"":23,""ArrowUp,ArrowRight"":10,""ArrowDown,ArrowLeft"":8,""ArrowDown,ArrowRight"":30}",6,,7.69,Male,3,rest,1433.8999999999069,960.5,ArrowUp,ArrowRight,False,False,30.0,Children,5,False
504,8,132,8152,value training,False,./assets/img/ocean/memory/7.jpg,ocean,30.0,False,True,original,1.0,"{""ArrowUp,ArrowLeft"":23,""ArrowUp,ArrowRight"":10,""ArrowDown,ArrowLeft"":8,""ArrowDown,ArrowRight"":30}",7,,7.69,Male,3,rest,1540.0,1462.3999999999069,ArrowDown,ArrowRight,True,True,30.0,Children,5,True
505,9,134,8152,value training,False,./assets/img/ocean/memory/21.jpg,ocean,23.0,False,False,original,1.0,"{""ArrowUp,ArrowLeft"":23,""ArrowUp,ArrowRight"":10,""ArrowDown,ArrowLeft"":8,""ArrowDown,ArrowRight"":30}",8,,7.69,Male,3,rest,1537.3000000000466,1676.3000000000466,ArrowUp,ArrowLeft,False,True,30.0,Children,5,False
506,10,136,8152,value training,False,./assets/img/ocean/memory/1.jpg,ocean,8.0,False,False,original,1.0,"{""ArrowUp,ArrowLeft"":23,""ArrowUp,ArrowRight"":10,""ArrowDown,ArrowLeft"":8,""ArrowDown,ArrowRight"":30}",9,,7.69,Male,3,rest,1416.6000000000931,384.89999999990687,ArrowDown,ArrowLeft,True,False,30.0,Children,5,False
508,12,140,8152,value training,False,./assets/img/ocean/memory/4.jpg,ocean,30.0,False,True,original,1.0,"{""ArrowUp,ArrowLeft"":23,""ArrowUp,ArrowRight"":10,""ArrowDown,ArrowLeft"":8,""ArrowDown,ArrowRight"":30}",10,,7.69,Male,3,rest,1171.1000000000931,585.3999999999069,ArrowDown,ArrowRight,True,True,30.0,Children,5,True
509,13,142,8152,value training,False,./assets/img/ocean/memory/13.jpg,ocean,30.0,False,True,original,1.0,"{""ArrowUp,ArrowLeft"":23,""ArrowUp,ArrowRight"":10,""ArrowDown,ArrowLeft"":8,""ArrowDown,ArrowRight"":30}",11,,7.69,Male,3,rest,1188.3000000000466,489.19999999995343,ArrowDown,ArrowRight,True,True,30.0,Children,10,True
511,15,146,8152,value training,False,./assets/img/ocean/memory/26.jpg,ocean,30.0,False,True,original,1.0,"{""ArrowUp,ArrowLeft"":23,""ArrowUp,ArrowRight"":10,""ArrowDown,ArrowLeft"":8,""ArrowDown,ArrowRight"":30}",12,,7.69,Male,3,rest,1124.8000000000466,806.3999999999069,ArrowDown,ArrowRight,True,True,30.0,Children,10,True
512,16,148,8152,value training,False,./assets/img/ocean/memory/22.jpg,ocean,30.0,False,True,original,1.0,"{""ArrowUp,ArrowLeft"":23,""ArrowUp,ArrowRight"":10,""ArrowDown,ArrowLeft"":8,""ArrowDown,ArrowRight"":30}",13,,7.69,Male,3,rest,693.1999999999534,450.89999999990687,ArrowDown,ArrowRight,True,True,30.0,Children,10,True
513,17,150,8152,value training,False,./assets/img/ocean/memory/22.jpg,ocean,30.0,False,True,original,1.0,"{""ArrowUp,ArrowLeft"":23,""ArrowUp,ArrowRight"":10,""ArrowDown,ArrowLeft"":8,""ArrowDown,ArrowRight"":30}",14,,7.69,Male,3,rest,952.0999999998603,474.30000000004657,ArrowDown,ArrowRight,True,True,30.0,Children,10,True
514,18,152,8152,value training,False,./assets/img/ocean/memory/6.jpg,ocean,30.0,False,True,original,1.0,"{""ArrowUp,ArrowLeft"":23,""ArrowUp,ArrowRight"":10,""ArrowDown,ArrowLeft"":8,""ArrowDown,ArrowRight"":30}",15,,7.69,Male,3,rest,969.3000000000466,691.4000000001397,ArrowDown,ArrowRight,True,True,30.0,Children,10,True
515,19,154,8152,value training,False,./assets/img/ocean/memory/15.jpg,ocean,30.0,False,True,original,1.0,"{""ArrowUp,ArrowLeft"":23,""ArrowUp,ArrowRight"":10,""ArrowDown,ArrowLeft"":8,""ArrowDown,ArrowRight"":30}",16,,7.69,Male,3,rest,1811.8000000000466,524.3000000000466,ArrowDown,ArrowRight,True,True,30.0,Children,15,True
516,20,156,8152,value training,False,./assets/img/ocean/memory/23.jpg,ocean,30.0,False,True,original,1.0,"{""ArrowUp,ArrowLeft"":23,""ArrowUp,ArrowRight"":10,""ArrowDown,ArrowLeft"":8,""ArrowDown,ArrowRight"":30}",17,,7.69,Male,3,rest,669.2000000001863,806.7999999998137,ArrowDown,ArrowRight,True,True,30.0,Children,15,True
517,21,158,8152,value training,False,./assets/img/ocean/memory/9.jpg,ocean,30.0,False,True,original,1.0,"{""ArrowUp,ArrowLeft"":23,""ArrowUp,ArrowRight"":10,""ArrowDown,ArrowLeft"":8,""ArrowDown,ArrowRight"":30}",18,,7.69,Male,3,rest,1035.0,556.0,ArrowDown,ArrowRight,True,True,30.0,Children,15,True
518,22,160,8152,value training,False,./assets/img/ocean/memory/27.jpg,ocean,30.0,False,True,original,1.0,"{""ArrowUp,ArrowLeft"":23,""ArrowUp,ArrowRight"":10,""ArrowDown,ArrowLeft"":8,""ArrowDown,ArrowRight"":30}",19,,7.69,Male,3,rest,1121.5999999998603,533.2000000001863,ArrowDown,ArrowRight,True,True,30.0,Children,15,True
519,23,162,8152,value training,False,./assets/img/ocean/memory/31.jpg,ocean,30.0,False,True,original,1.0,"{""ArrowUp,ArrowLeft"":23,""ArrowUp,ArrowRight"":10,""ArrowDown,ArrowLeft"":8,""ArrowDown,ArrowRight"":30}",20,,7.69,Male,3,rest,1055.4000000001397,542.5,ArrowDown,ArrowRight,True,True,30.0,Children,15,True
520,24,164,8152,value training,False,./assets/img/ocean/memory/23.jpg,ocean,30.0,False,True,original,1.0,"{""ArrowUp,ArrowLeft"":23,""ArrowUp,ArrowRight"":10,""ArrowDown,ArrowLeft"":8,""ArrowDown,ArrowRight"":30}",21,,7.69,Male,3,rest,755.6000000000931,424.0,ArrowDown,ArrowRight,True,True,30.0,Children,20,True
521,25,166,8152,value training,False,./assets/img/ocean/memory/19.jpg,ocean,30.0,False,True,original,1.0,"{""ArrowUp,ArrowLeft"":23,""ArrowUp,ArrowRight"":10,""ArrowDown,ArrowLeft"":8,""ArrowDown,ArrowRight"":30}",22,,7.69,Male,3,rest,777.5,515.1999999999534,ArrowDown,ArrowRight,True,True,30.0,Children,20,True
522,26,168,8152,value training,False,./assets/img/ocean/memory/24.jpg,ocean,30.0,False,True,original,1.0,"{""ArrowUp,ArrowLeft"":23,""ArrowUp,ArrowRight"":10,""ArrowDown,ArrowLeft"":8,""ArrowDown,ArrowRight"":30}",23,,7.69,Male,3,rest,1036.8999999999069,524.3000000000466,ArrowDown,ArrowRight,True,True,30.0,Children,20,True
523,27,170,8152,value training,False,./assets/img/ocean/memory/29.jpg,ocean,30.0,False,True,original,1.0,"{""ArrowUp,ArrowLeft"":23,""ArrowUp,ArrowRight"":10,""ArrowDown,ArrowLeft"":8,""ArrowDown,ArrowRight"":30}",24,,7.69,Male,3,rest,896.8000000000466,423.60000000009313,ArrowDown,ArrowRight,True,True,30.0,Children,20,True
525,29,174,8152,value training,False,./assets/img/ocean/memory/13.jpg,ocean,30.0,False,True,original,1.0,"{""ArrowUp,ArrowLeft"":23,""ArrowUp,ArrowRight"":10,""ArrowDown,ArrowLeft"":8,""ArrowDown,ArrowRight"":30}",25,,7.69,Male,3,rest,724.8999999999069,692.3000000000466,ArrowDown,ArrowRight,True,True,30.0,Children,20,True
526,30,176,8152,value training,False,./assets/img/ocean/memory/34.jpg,ocean,30.0,False,True,original,1.0,"{""ArrowUp,ArrowLeft"":23,""ArrowUp,ArrowRight"":10,""ArrowDown,ArrowLeft"":8,""ArrowDown,ArrowRight"":30}",26,,7.69,Male,3,rest,595.8999999999069,126.69999999995343,ArrowDown,ArrowRight,True,True,30.0,Children,25,True
528,32,180,8152,value training,False,./assets/img/ocean/memory/40.jpg,ocean,30.0,False,True,original,1.0,"{""ArrowUp,ArrowLeft"":23,""ArrowUp,ArrowRight"":10,""ArrowDown,ArrowLeft"":8,""ArrowDown,ArrowRight"":30}",27,,7.69,Male,3,rest,928.8999999999069,395.30000000004657,ArrowDown,ArrowRight,True,True,30.0,Children,25,True
530,34,184,8152,value training,False,./assets/img/ocean/memory/38.jpg,ocean,30.0,False,True,original,1.0,"{""ArrowUp,ArrowLeft"":23,""ArrowUp,ArrowRight"":10,""ArrowDown,ArrowLeft"":8,""ArrowDown,ArrowRight"":30}",28,,7.69,Male,3,rest,1485.2999999998137,397.19999999995343,ArrowDown,ArrowRight,True,True,30.0,Children,25,True
531,35,186,8152,value training,False,./assets/img/ocean/memory/21.jpg,ocean,30.0,False,True,original,1.0,"{""ArrowUp,ArrowLeft"":23,""ArrowUp,ArrowRight"":10,""ArrowDown,ArrowLeft"":8,""ArrowDown,ArrowRight"":30}",29,,7.69,Male,3,rest,861.8000000000466,451.60000000009313,ArrowDown,ArrowRight,True,True,30.0,Children,25,True
532,36,188,8152,value training,False,./assets/img/ocean/memory/31.jpg,ocean,30.0,False,True,original,1.0,"{""ArrowUp,ArrowLeft"":23,""ArrowUp,ArrowRight"":10,""ArrowDown,ArrowLeft"":8,""ArrowDown,ArrowRight"":30}",30,,7.69,Male,3,rest,1406.8999999999069,561.7999999998137,ArrowDown,ArrowRight,True,True,30.0,Children,25,True
533,37,190,8152,value training,False,./assets/img/ocean/memory/6.jpg,ocean,30.0,False,True,original,1.0,"{""ArrowUp,ArrowLeft"":23,""ArrowUp,ArrowRight"":10,""ArrowDown,ArrowLeft"":8,""ArrowDown,ArrowRight"":30}",31,,7.69,Male,3,rest,929.1999999999534,330.30000000004657,ArrowDown,ArrowRight,True,True,30.0,Children,30,True
534,38,192,8152,value training,False,./assets/img/ocean/memory/34.jpg,ocean,30.0,False,True,original,1.0,"{""ArrowUp,ArrowLeft"":23,""ArrowUp,ArrowRight"":10,""ArrowDown,ArrowLeft"":8,""ArrowDown,ArrowRight"":30}",32,,7.69,Male,3,rest,577.8999999999069,70.39999999990687,ArrowDown,ArrowRight,True,True,30.0,Children,30,True
535,39,194,8152,value training,False,./assets/img/ocean/memory/5.jpg,ocean,30.0,False,True,original,1.0,"{""ArrowUp,ArrowLeft"":23,""ArrowUp,ArrowRight"":10,""ArrowDown,ArrowLeft"":8,""ArrowDown,ArrowRight"":30}",33,,7.69,Male,3,rest,724.8999999999069,396.0,ArrowDown,ArrowRight,True,True,30.0,Children,30,True
536,40,196,8152,value training,False,./assets/img/ocean/memory/9.jpg,ocean,30.0,False,True,original,1.0,"{""ArrowUp,ArrowLeft"":23,""ArrowUp,ArrowRight"":10,""ArrowDown,ArrowLeft"":8,""ArrowDown,ArrowRight"":30}",34,,7.69,Male,3,rest,1054.3000000000466,691.5,ArrowDown,ArrowRight,True,True,30.0,Children,30,True
537,41,198,8152,value training,False,./assets/img/ocean/memory/24.jpg,ocean,30.0,False,True,original,1.0,"{""ArrowUp,ArrowLeft"":23,""ArrowUp,ArrowRight"":10,""ArrowDown,ArrowLeft"":8,""ArrowDown,ArrowRight"":30}",35,,7.69,Male,3,rest,677.3999999999069,417.19999999995343,ArrowDown,ArrowRight,True,True,30.0,Children,30,True
538,42,200,8152,value training,False,./assets/img/ocean/memory/29.jpg,ocean,30.0,False,True,original,1.0,"{""ArrowUp,ArrowLeft"":23,""ArrowUp,ArrowRight"":10,""ArrowDown,ArrowLeft"":8,""ArrowDown,ArrowRight"":30}",36,,7.69,Male,3,rest,570.5,567.0,ArrowDown,ArrowRight,True,True,30.0,Children,35,True
539,43,202,8152,value training,False,./assets/img/ocean/memory/19.jpg,ocean,30.0,False,True,original,1.0,"{""ArrowUp,ArrowLeft"":23,""ArrowUp,ArrowRight"":10,""ArrowDown,ArrowLeft"":8,""ArrowDown,ArrowRight"":30}",37,,7.69,Male,3,rest,802.8999999999069,409.39999999990687,ArrowDown,ArrowRight,True,True,30.0,Children,35,True
540,44,204,8152,value training,False,./assets/img/ocean/memory/5.jpg,ocean,30.0,False,True,original,1.0,"{""ArrowUp,ArrowLeft"":23,""ArrowUp,ArrowRight"":10,""ArrowDown,ArrowLeft"":8,""ArrowDown,ArrowRight"":30}",38,,7.69,Male,3,rest,897.3000000000466,525.3000000000466,ArrowDown,ArrowRight,True,True,30.0,Children,35,True
542,46,208,8152,value training,False,./assets/img/ocean/memory/3.jpg,ocean,30.0,False,True,original,1.0,"{""ArrowUp,ArrowLeft"":23,""ArrowUp,ArrowRight"":10,""ArrowDown,ArrowLeft"":8,""ArrowDown,ArrowRight"":30}",39,,7.69,Male,3,rest,928.5999999998603,261.10000000009313,ArrowDown,ArrowRight,True,True,30.0,Children,35,True
543,47,210,8152,value training,False,./assets/img/ocean/memory/7.jpg,ocean,30.0,False,True,original,1.0,"{""ArrowUp,ArrowLeft"":23,""ArrowUp,ArrowRight"":10,""ArrowDown,ArrowLeft"":8,""ArrowDown,ArrowRight"":30}",40,,7.69,Male,3,rest,673.8999999999069,304.19999999995343,ArrowDown,ArrowRight,True,True,30.0,Children,35,True
544,48,212,8152,value training,False,./assets/img/ocean/memory/38.jpg,ocean,30.0,False,True,original,1.0,"{""ArrowUp,ArrowLeft"":23,""ArrowUp,ArrowRight"":10,""ArrowDown,ArrowLeft"":8,""ArrowDown,ArrowRight"":30}",41,,7.69,Male,3,rest,1428.8000000000466,686.4000000001397,ArrowDown,ArrowRight,True,True,30.0,Children,40,True
545,49,214,8152,value training,False,./assets/img/ocean/memory/15.jpg,ocean,30.0,False,True,original,1.0,"{""ArrowUp,ArrowLeft"":23,""ArrowUp,ArrowRight"":10,""ArrowDown,ArrowLeft"":8,""ArrowDown,ArrowRight"":30}",42,,7.69,Male,3,rest,848.9000000001397,450.5,ArrowDown,ArrowRight,True,True,30.0,Children,40,True
577,81,287,8152,value training,False,./assets/img/canyon/memory/19.jpg,canyon,10.0,False,False,revaluation,2.0,"{""ArrowUp,ArrowLeft"":26,""ArrowUp,ArrowRight"":10,""ArrowDown,ArrowLeft"":5,""ArrowDown,ArrowRight"":17}",1,,7.69,Male,3,rest,1258.6000000000931,846.2000000001863,ArrowUp,ArrowRight,True,False,26.0,Children,0,False
578,82,289,8152,value training,False,./assets/img/canyon/memory/7.jpg,canyon,26.0,False,True,revaluation,2.0,"{""ArrowUp,ArrowLeft"":26,""ArrowUp,ArrowRight"":10,""ArrowDown,ArrowLeft"":5,""ArrowDown,ArrowRight"":17}",2,,7.69,Male,3,rest,886.3999999999069,498.89999999990687,ArrowUp,ArrowLeft,True,True,26.0,Children,0,True
579,83,291,8152,value training,False,./assets/img/canyon/memory/9.jpg,canyon,5.0,False,False,revaluation,2.0,"{""ArrowUp,ArrowLeft"":26,""ArrowUp,ArrowRight"":10,""ArrowDown,ArrowLeft"":5,""ArrowDown,ArrowRight"":17}",3,,7.69,Male,3,rest,901.6000000000931,1149.5,ArrowDown,ArrowLeft,False,False,26.0,Children,0,False
580,84,293,8152,value training,False,./assets/img/canyon/memory/13.jpg,canyon,17.0,False,False,revaluation,2.0,"{""ArrowUp,ArrowLeft"":26,""ArrowUp,ArrowRight"":10,""ArrowDown,ArrowLeft"":5,""ArrowDown,ArrowRight"":17}",4,,7.69,Male,3,rest,1342.6000000000931,686.8999999999069,ArrowDown,ArrowRight,False,True,26.0,Children,0,False
581,85,295,8152,value training,False,./assets/img/canyon/memory/21.jpg,canyon,10.0,False,False,revaluation,2.0,"{""ArrowUp,ArrowLeft"":26,""ArrowUp,ArrowRight"":10,""ArrowDown,ArrowLeft"":5,""ArrowDown,ArrowRight"":17}",5,,7.69,Male,3,rest,924.6000000000931,875.2999999998137,ArrowUp,ArrowRight,True,False,26.0,Children,0,False
582,86,297,8152,value training,False,./assets/img/canyon/memory/27.jpg,canyon,17.0,False,False,revaluation,2.0,"{""ArrowUp,ArrowLeft"":26,""ArrowUp,ArrowRight"":10,""ArrowDown,ArrowLeft"":5,""ArrowDown,ArrowRight"":17}",6,,7.69,Male,3,rest,898.8000000002794,452.3000000002794,ArrowDown,ArrowRight,False,True,26.0,Children,5,False
583,87,299,8152,value training,False,./assets/img/canyon/memory/15.jpg,canyon,26.0,False,True,revaluation,2.0,"{""ArrowUp,ArrowLeft"":26,""ArrowUp,ArrowRight"":10,""ArrowDown,ArrowLeft"":5,""ArrowDown,ArrowRight"":17}",7,,7.69,Male,3,rest,630.0,1288.3000000002794,ArrowUp,ArrowLeft,True,True,26.0,Children,5,True
584,88,301,8152,value training,False,./assets/img/canyon/memory/1.jpg,canyon,26.0,False,True,revaluation,2.0,"{""ArrowUp,ArrowLeft"":26,""ArrowUp,ArrowRight"":10,""ArrowDown,ArrowLeft"":5,""ArrowDown,ArrowRight"":17}",8,,7.69,Male,3,rest,798.3000000002794,619.0,ArrowUp,ArrowLeft,True,True,26.0,Children,5,True
585,89,303,8152,value training,False,./assets/img/canyon/memory/31.jpg,canyon,26.0,False,True,revaluation,2.0,"{""ArrowUp,ArrowLeft"":26,""ArrowUp,ArrowRight"":10,""ArrowDown,ArrowLeft"":5,""ArrowDown,ArrowRight"":17}",9,,7.69,Male,3,rest,949.3999999999069,489.09999999962747,ArrowUp,ArrowLeft,True,True,26.0,Children,5,True
587,91,307,8152,value training,False,./assets/img/canyon/memory/22.jpg,canyon,26.0,False,True,revaluation,2.0,"{""ArrowUp,ArrowLeft"":26,""ArrowUp,ArrowRight"":10,""ArrowDown,ArrowLeft"":5,""ArrowDown,ArrowRight"":17}",10,,7.69,Male,3,rest,1090.1999999997206,977.8000000002794,ArrowUp,ArrowLeft,True,True,26.0,Children,5,True
588,92,309,8152,value training,False,./assets/img/canyon/memory/5.jpg,canyon,26.0,False,True,revaluation,2.0,"{""ArrowUp,ArrowLeft"":26,""ArrowUp,ArrowRight"":10,""ArrowDown,ArrowLeft"":5,""ArrowDown,ArrowRight"":17}",11,,7.69,Male,3,rest,750.8000000002794,509.5,ArrowUp,ArrowLeft,True,True,26.0,Children,10,True
589,93,311,8152,value training,False,./assets/img/canyon/memory/22.jpg,canyon,26.0,False,True,revaluation,2.0,"{""ArrowUp,ArrowLeft"":26,""ArrowUp,ArrowRight"":10,""ArrowDown,ArrowLeft"":5,""ArrowDown,ArrowRight"":17}",12,,7.69,Male,3,rest,520.5,490.0,ArrowUp,ArrowLeft,True,True,26.0,Children,10,True
590,94,313,8152,value training,False,./assets/img/canyon/memory/29.jpg,canyon,26.0,False,True,revaluation,2.0,"{""ArrowUp,ArrowLeft"":26,""ArrowUp,ArrowRight"":10,""ArrowDown,ArrowLeft"":5,""ArrowDown,ArrowRight"":17}",13,,7.69,Male,3,rest,694.0,447.0,ArrowUp,ArrowLeft,True,True,26.0,Children,10,True
591,95,315,8152,value training,False,./assets/img/canyon/memory/4.jpg,canyon,26.0,False,True,revaluation,2.0,"{""ArrowUp,ArrowLeft"":26,""ArrowUp,ArrowRight"":10,""ArrowDown,ArrowLeft"":5,""ArrowDown,ArrowRight"":17}",14,,7.69,Male,3,rest,907.8999999999069,493.0,ArrowUp,ArrowLeft,True,True,26.0,Children,10,True
592,96,317,8152,value training,False,./assets/img/canyon/memory/24.jpg,canyon,26.0,False,True,revaluation,2.0,"{""ArrowUp,ArrowLeft"":26,""ArrowUp,ArrowRight"":10,""ArrowDown,ArrowLeft"":5,""ArrowDown,ArrowRight"":17}",15,,7.69,Male,3,rest,936.8999999999069,424.39999999990687,ArrowUp,ArrowLeft,True,True,26.0,Children,10,True
593,97,319,8152,value training,False,./assets/img/canyon/memory/19.jpg,canyon,26.0,False,True,revaluation,2.0,"{""ArrowUp,ArrowLeft"":26,""ArrowUp,ArrowRight"":10,""ArrowDown,ArrowLeft"":5,""ArrowDown,ArrowRight"":17}",16,,7.69,Male,3,rest,892.9000000003725,136.60000000009313,ArrowUp,ArrowLeft,True,True,26.0,Children,15,True
594,98,321,8152,value training,False,./assets/img/canyon/memory/13.jpg,canyon,26.0,False,True,revaluation,2.0,"{""ArrowUp,ArrowLeft"":26,""ArrowUp,ArrowRight"":10,""ArrowDown,ArrowLeft"":5,""ArrowDown,ArrowRight"":17}",17,,7.69,Male,3,rest,534.0,361.40000000037253,ArrowUp,ArrowLeft,True,True,26.0,Children,15,True
595,99,323,8152,value training,False,./assets/img/canyon/memory/1.jpg,canyon,26.0,False,True,revaluation,2.0,"{""ArrowUp,ArrowLeft"":26,""ArrowUp,ArrowRight"":10,""ArrowDown,ArrowLeft"":5,""ArrowDown,ArrowRight"":17}",18,,7.69,Male,3,rest,707.9000000003725,367.8000000002794,ArrowUp,ArrowLeft,True,True,26.0,Children,15,True
596,100,325,8152,value training,False,./assets/img/canyon/memory/4.jpg,canyon,26.0,False,True,revaluation,2.0,"{""ArrowUp,ArrowLeft"":26,""ArrowUp,ArrowRight"":10,""ArrowDown,ArrowLeft"":5,""ArrowDown,ArrowRight"":17}",19,,7.69,Male,3,rest,1049.7999999998137,473.8000000002794,ArrowUp,ArrowLeft,True,True,26.0,Children,15,True
597,101,327,8152,value training,False,./assets/img/canyon/memory/38.jpg,canyon,26.0,False,True,revaluation,2.0,"{""ArrowUp,ArrowLeft"":26,""ArrowUp,ArrowRight"":10,""ArrowDown,ArrowLeft"":5,""ArrowDown,ArrowRight"":17}",20,,7.69,Male,3,rest,1255.6999999997206,449.89999999990687,ArrowUp,ArrowLeft,True,True,26.0,Children,15,True
598,102,329,8152,value training,False,./assets/img/canyon/memory/24.jpg,canyon,26.0,False,True,revaluation,2.0,"{""ArrowUp,ArrowLeft"":26,""ArrowUp,ArrowRight"":10,""ArrowDown,ArrowLeft"":5,""ArrowDown,ArrowRight"":17}",21,,7.69,Male,3,rest,767.5,361.0,ArrowUp,ArrowLeft,True,True,26.0,Children,20,True
600,104,333,8152,value training,False,./assets/img/canyon/memory/26.jpg,canyon,26.0,False,True,revaluation,2.0,"{""ArrowUp,ArrowLeft"":26,""ArrowUp,ArrowRight"":10,""ArrowDown,ArrowLeft"":5,""ArrowDown,ArrowRight"":17}",22,,7.69,Male,3,rest,989.9000000003725,423.3000000002794,ArrowUp,ArrowLeft,True,True,26.0,Children,20,True
601,105,335,8152,value training,False,./assets/img/canyon/memory/26.jpg,canyon,26.0,False,True,revaluation,2.0,"{""ArrowUp,ArrowLeft"":26,""ArrowUp,ArrowRight"":10,""ArrowDown,ArrowLeft"":5,""ArrowDown,ArrowRight"":17}",23,,7.69,Male,3,rest,800.5,493.8000000002794,ArrowUp,ArrowLeft,True,True,26.0,Children,20,True
602,106,337,8152,value training,False,./assets/img/canyon/memory/29.jpg,canyon,26.0,False,True,revaluation,2.0,"{""ArrowUp,ArrowLeft"":26,""ArrowUp,ArrowRight"":10,""ArrowDown,ArrowLeft"":5,""ArrowDown,ArrowRight"":17}",24,,7.69,Male,3,rest,899.7000000001863,498.20000000018626,ArrowUp,ArrowLeft,True,True,26.0,Children,20,True
603,107,339,8152,value training,False,./assets/img/canyon/memory/34.jpg,canyon,26.0,False,True,revaluation,2.0,"{""ArrowUp,ArrowLeft"":26,""ArrowUp,ArrowRight"":10,""ArrowDown,ArrowLeft"":5,""ArrowDown,ArrowRight"":17}",25,,7.69,Male,3,rest,942.8999999999069,644.2000000001863,ArrowUp,ArrowLeft,True,True,26.0,Children,20,True
605,109,343,8152,value training,False,./assets/img/canyon/memory/27.jpg,canyon,26.0,False,True,revaluation,2.0,"{""ArrowUp,ArrowLeft"":26,""ArrowUp,ArrowRight"":10,""ArrowDown,ArrowLeft"":5,""ArrowDown,ArrowRight"":17}",26,,7.69,Male,3,rest,1060.1000000000931,472.10000000009313,ArrowUp,ArrowLeft,True,True,26.0,Children,25,True
606,110,345,8152,value training,False,./assets/img/canyon/memory/6.jpg,canyon,26.0,False,True,revaluation,2.0,"{""ArrowUp,ArrowLeft"":26,""ArrowUp,ArrowRight"":10,""ArrowDown,ArrowLeft"":5,""ArrowDown,ArrowRight"":17}",27,,7.69,Male,3,rest,692.2000000001863,430.60000000009313,ArrowUp,ArrowLeft,True,True,26.0,Children,25,True
607,111,347,8152,value training,False,./assets/img/canyon/memory/3.jpg,canyon,26.0,False,True,revaluation,2.0,"{""ArrowUp,ArrowLeft"":26,""ArrowUp,ArrowRight"":10,""ArrowDown,ArrowLeft"":5,""ArrowDown,ArrowRight"":17}",28,,7.69,Male,3,rest,608.0,172.0,ArrowUp,ArrowLeft,True,True,26.0,Children,25,True
608,112,349,8152,value training,False,./assets/img/canyon/memory/5.jpg,canyon,26.0,False,True,revaluation,2.0,"{""ArrowUp,ArrowLeft"":26,""ArrowUp,ArrowRight"":10,""ArrowDown,ArrowLeft"":5,""ArrowDown,ArrowRight"":17}",29,,7.69,Male,3,rest,637.8999999999069,407.0,ArrowUp,ArrowLeft,True,True,26.0,Children,25,True
609,113,351,8152,value training,False,./assets/img/canyon/memory/15.jpg,canyon,26.0,False,True,revaluation,2.0,"{""ArrowUp,ArrowLeft"":26,""ArrowUp,ArrowRight"":10,""ArrowDown,ArrowLeft"":5,""ArrowDown,ArrowRight"":17}",30,,7.69,Male,3,rest,995.1000000000931,431.70000000018626,ArrowUp,ArrowLeft,True,True,26.0,Children,25,True
610,114,353,8152,value training,False,./assets/img/canyon/memory/40.jpg,canyon,26.0,False,True,revaluation,2.0,"{""ArrowUp,ArrowLeft"":26,""ArrowUp,ArrowRight"":10,""ArrowDown,ArrowLeft"":5,""ArrowDown,ArrowRight"":17}",31,,7.69,Male,3,rest,685.6000000000931,446.10000000009313,ArrowUp,ArrowLeft,True,True,26.0,Children,30,True
611,115,355,8152,value training,False,./assets/img/canyon/memory/23.jpg,canyon,26.0,False,True,revaluation,2.0,"{""ArrowUp,ArrowLeft"":26,""ArrowUp,ArrowRight"":10,""ArrowDown,ArrowLeft"":5,""ArrowDown,ArrowRight"":17}",32,,7.69,Male,3,rest,1138.1999999997206,473.5,ArrowUp,ArrowLeft,True,True,26.0,Children,30,True
612,116,357,8152,value training,False,./assets/img/canyon/memory/23.jpg,canyon,26.0,False,True,revaluation,2.0,"{""ArrowUp,ArrowLeft"":26,""ArrowUp,ArrowRight"":10,""ArrowDown,ArrowLeft"":5,""ArrowDown,ArrowRight"":17}",33,,7.69,Male,3,rest,745.6999999997206,449.89999999990687,ArrowUp,ArrowLeft,True,True,26.0,Children,30,True
613,117,359,8152,value training,False,./assets/img/canyon/memory/3.jpg,canyon,26.0,False,True,revaluation,2.0,"{""ArrowUp,ArrowLeft"":26,""ArrowUp,ArrowRight"":10,""ArrowDown,ArrowLeft"":5,""ArrowDown,ArrowRight"":17}",34,,7.69,Male,3,rest,857.1000000000931,464.89999999990687,ArrowUp,ArrowLeft,True,True,26.0,Children,30,True
615,119,363,8152,value training,False,./assets/img/canyon/memory/31.jpg,canyon,26.0,False,True,revaluation,2.0,"{""ArrowUp,ArrowLeft"":26,""ArrowUp,ArrowRight"":10,""ArrowDown,ArrowLeft"":5,""ArrowDown,ArrowRight"":17}",35,,7.69,Male,3,rest,927.8999999999069,631.0,ArrowUp,ArrowLeft,True,True,26.0,Children,30,True
616,120,365,8152,value training,False,./assets/img/canyon/memory/21.jpg,canyon,26.0,False,True,revaluation,2.0,"{""ArrowUp,ArrowLeft"":26,""ArrowUp,ArrowRight"":10,""ArrowDown,ArrowLeft"":5,""ArrowDown,ArrowRight"":17}",36,,7.69,Male,3,rest,593.5,278.39999999990687,ArrowUp,ArrowLeft,True,True,26.0,Children,35,True
617,121,367,8152,value training,False,./assets/img/canyon/memory/34.jpg,canyon,26.0,False,True,revaluation,2.0,"{""ArrowUp,ArrowLeft"":26,""ArrowUp,ArrowRight"":10,""ArrowDown,ArrowLeft"":5,""ArrowDown,ArrowRight"":17}",37,,7.69,Male,3,rest,629.6000000000931,471.8000000002794,ArrowUp,ArrowLeft,True,True,26.0,Children,35,True
618,122,369,8152,value training,False,./assets/img/canyon/memory/40.jpg,canyon,26.0,False,True,revaluation,2.0,"{""ArrowUp,ArrowLeft"":26,""ArrowUp,ArrowRight"":10,""ArrowDown,ArrowLeft"":5,""ArrowDown,ArrowRight"":17}",38,,7.69,Male,3,rest,620.5,433.10000000009313,ArrowUp,ArrowLeft,True,True,26.0,Children,35,True
619,123,371,8152,value training,False,./assets/img/canyon/memory/6.jpg,canyon,26.0,False,True,revaluation,2.0,"{""ArrowUp,ArrowLeft"":26,""ArrowUp,ArrowRight"":10,""ArrowDown,ArrowLeft"":5,""ArrowDown,ArrowRight"":17}",39,,7.69,Male,3,rest,511.0,544.2999999998137,ArrowUp,ArrowLeft,True,True,26.0,Children,35,True
621,125,375,8152,value training,False,./assets/img/canyon/memory/38.jpg,canyon,26.0,False,True,revaluation,2.0,"{""ArrowUp,ArrowLeft"":26,""ArrowUp,ArrowRight"":10,""ArrowDown,ArrowLeft"":5,""ArrowDown,ArrowRight"":17}",40,,7.69,Male,3,rest,887.5,386.10000000009313,ArrowUp,ArrowLeft,True,True,26.0,Children,35,True
622,126,377,8152,value training,False,./assets/img/canyon/memory/9.jpg,canyon,26.0,False,True,revaluation,2.0,"{""ArrowUp,ArrowLeft"":26,""ArrowUp,ArrowRight"":10,""ArrowDown,ArrowLeft"":5,""ArrowDown,ArrowRight"":17}",41,,7.69,Male,3,rest,1128.0999999996275,436.8000000002794,ArrowUp,ArrowLeft,True,True,26.0,Children,40,True
623,127,379,8152,value training,False,./assets/img/canyon/memory/7.jpg,canyon,26.0,False,True,revaluation,2.0,"{""ArrowUp,ArrowLeft"":26,""ArrowUp,ArrowRight"":10,""ArrowDown,ArrowLeft"":5,""ArrowDown,ArrowRight"":17}",42,,7.69,Male,3,rest,618.6000000000931,520.3000000002794,ArrowUp,ArrowLeft,True,True,26.0,Children,40,True
744,0,114,7513,value training,False,./assets/img/ocean/memory/11.jpg,ocean,10.0,False,False,original,1.0,"{""ArrowUp,ArrowLeft"":23,""ArrowUp,ArrowRight"":10,""ArrowDown,ArrowLeft"":8,""ArrowDown,ArrowRight"":30}",1,,23.74,Male,3,rest,1220.8999999761581,745.5,ArrowUp,ArrowRight,False,False,30.0,Adults,0,False
745,1,116,7513,value training,False,./assets/img/ocean/memory/20.jpg,ocean,23.0,False,False,original,1.0,"{""ArrowUp,ArrowLeft"":23,""ArrowUp,ArrowRight"":10,""ArrowDown,ArrowLeft"":8,""ArrowDown,ArrowRight"":30}",2,,23.74,Male,3,rest,1787.6999999284744,646.3999999761581,ArrowUp,ArrowLeft,False,True,30.0,Adults,0,False
746,2,118,7513,value training,False,./assets/img/ocean/memory/41.jpg,ocean,8.0,False,False,original,1.0,"{""ArrowUp,ArrowLeft"":23,""ArrowUp,ArrowRight"":10,""ArrowDown,ArrowLeft"":8,""ArrowDown,ArrowRight"":30}",3,,23.74,Male,3,rest,971.6999999284744,591.8999999761581,ArrowDown,ArrowLeft,True,False,30.0,Adults,0,False
748,4,122,7513,value training,False,./assets/img/ocean/memory/1.jpg,ocean,30.0,False,True,original,1.0,"{""ArrowUp,ArrowLeft"":23,""ArrowUp,ArrowRight"":10,""ArrowDown,ArrowLeft"":8,""ArrowDown,ArrowRight"":30}",4,,23.74,Male,3,rest,833.1999999284744,343.10000002384186,ArrowDown,ArrowRight,True,True,30.0,Adults,0,True
749,5,124,7513,value training,False,./assets/img/ocean/memory/4.jpg,ocean,10.0,False,False,original,1.0,"{""ArrowUp,ArrowLeft"":23,""ArrowUp,ArrowRight"":10,""ArrowDown,ArrowLeft"":8,""ArrowDown,ArrowRight"":30}",5,,23.74,Male,3,rest,833.8999999761581,524.1999999284744,ArrowUp,ArrowRight,False,False,30.0,Adults,0,False
750,6,126,7513,value training,False,./assets/img/ocean/memory/18.jpg,ocean,30.0,False,True,original,1.0,"{""ArrowUp,ArrowLeft"":23,""ArrowUp,ArrowRight"":10,""ArrowDown,ArrowLeft"":8,""ArrowDown,ArrowRight"":30}",6,,23.74,Male,3,rest,750.8999999761581,310.0,ArrowDown,ArrowRight,True,True,30.0,Adults,5,True
752,8,130,7513,value training,False,./assets/img/ocean/memory/23.jpg,ocean,30.0,False,True,original,1.0,"{""ArrowUp,ArrowLeft"":23,""ArrowUp,ArrowRight"":10,""ArrowDown,ArrowLeft"":8,""ArrowDown,ArrowRight"":30}",7,,23.74,Male,3,rest,510.7999999523163,360.0,ArrowDown,ArrowRight,True,True,30.0,Adults,5,True
753,9,132,7513,value training,False,./assets/img/ocean/memory/35.jpg,ocean,30.0,False,True,original,1.0,"{""ArrowUp,ArrowLeft"":23,""ArrowUp,ArrowRight"":10,""ArrowDown,ArrowLeft"":8,""ArrowDown,ArrowRight"":30}",8,,23.74,Male,3,rest,658.2000000476837,388.60000002384186,ArrowDown,ArrowRight,True,True,30.0,Adults,5,True
754,10,134,7513,value training,False,./assets/img/ocean/memory/33.jpg,ocean,30.0,False,True,original,1.0,"{""ArrowUp,ArrowLeft"":23,""ArrowUp,ArrowRight"":10,""ArrowDown,ArrowLeft"":8,""ArrowDown,ArrowRight"":30}",9,,23.74,Male,3,rest,607.8999999761581,507.1999999284744,ArrowDown,ArrowRight,True,True,30.0,Adults,5,True
755,11,136,7513,value training,False,./assets/img/ocean/memory/9.jpg,ocean,30.0,False,True,original,1.0,"{""ArrowUp,ArrowLeft"":23,""ArrowUp,ArrowRight"":10,""ArrowDown,ArrowLeft"":8,""ArrowDown,ArrowRight"":30}",10,,23.74,Male,3,rest,643.8999999761581,325.1999999284744,ArrowDown,ArrowRight,True,True,30.0,Adults,5,True
756,12,138,7513,value training,False,./assets/img/ocean/memory/27.jpg,ocean,30.0,False,True,original,1.0,"{""ArrowUp,ArrowLeft"":23,""ArrowUp,ArrowRight"":10,""ArrowDown,ArrowLeft"":8,""ArrowDown,ArrowRight"":30}",11,,23.74,Male,3,rest,719.2000000476837,326.5,ArrowDown,ArrowRight,True,True,30.0,Adults,10,True
757,13,140,7513,value training,False,./assets/img/ocean/memory/28.jpg,ocean,30.0,False,True,original,1.0,"{""ArrowUp,ArrowLeft"":23,""ArrowUp,ArrowRight"":10,""ArrowDown,ArrowLeft"":8,""ArrowDown,ArrowRight"":30}",12,,23.74,Male,3,rest,546.6999999284744,408.7000000476837,ArrowDown,ArrowRight,True,True,30.0,Adults,10,True
759,15,144,7513,value training,False,./assets/img/ocean/memory/18.jpg,ocean,30.0,False,True,original,1.0,"{""ArrowUp,ArrowLeft"":23,""ArrowUp,ArrowRight"":10,""ArrowDown,ArrowLeft"":8,""ArrowDown,ArrowRight"":30}",13,,23.74,Male,3,rest,528.3999999761581,335.10000002384186,ArrowDown,ArrowRight,True,True,30.0,Adults,10,True
761,17,148,7513,value training,False,./assets/img/ocean/memory/4.jpg,ocean,30.0,False,True,original,1.0,"{""ArrowUp,ArrowLeft"":23,""ArrowUp,ArrowRight"":10,""ArrowDown,ArrowLeft"":8,""ArrowDown,ArrowRight"":30}",14,,23.74,Male,3,rest,442.60000002384186,336.10000002384186,ArrowDown,ArrowRight,True,True,30.0,Adults,10,True
762,18,150,7513,value training,False,./assets/img/ocean/memory/35.jpg,ocean,30.0,False,True,original,1.0,"{""ArrowUp,ArrowLeft"":23,""ArrowUp,ArrowRight"":10,""ArrowDown,ArrowLeft"":8,""ArrowDown,ArrowRight"":30}",15,,23.74,Male,3,rest,717.6000000238419,412.0,ArrowDown,ArrowRight,True,True,30.0,Adults,10,True
763,19,152,7513,value training,False,./assets/img/ocean/memory/37.jpg,ocean,30.0,False,True,original,1.0,"{""ArrowUp,ArrowLeft"":23,""ArrowUp,ArrowRight"":10,""ArrowDown,ArrowLeft"":8,""ArrowDown,ArrowRight"":30}",16,,23.74,Male,3,rest,647.1999999284744,295.89999997615814,ArrowDown,ArrowRight,True,True,30.0,Adults,15,True
764,20,154,7513,value training,False,./assets/img/ocean/memory/32.jpg,ocean,30.0,False,True,original,1.0,"{""ArrowUp,ArrowLeft"":23,""ArrowUp,ArrowRight"":10,""ArrowDown,ArrowLeft"":8,""ArrowDown,ArrowRight"":30}",17,,23.74,Male,3,rest,592.6000000238419,312.89999997615814,ArrowDown,ArrowRight,True,True,30.0,Adults,15,True
765,21,156,7513,value training,False,./assets/img/ocean/memory/32.jpg,ocean,30.0,False,True,original,1.0,"{""ArrowUp,ArrowLeft"":23,""ArrowUp,ArrowRight"":10,""ArrowDown,ArrowLeft"":8,""ArrowDown,ArrowRight"":30}",18,,23.74,Male,3,rest,592.8999999761581,329.39999997615814,ArrowDown,ArrowRight,True,True,30.0,Adults,15,True
766,22,158,7513,value training,False,./assets/img/ocean/memory/9.jpg,ocean,30.0,False,True,original,1.0,"{""ArrowUp,ArrowLeft"":23,""ArrowUp,ArrowRight"":10,""ArrowDown,ArrowLeft"":8,""ArrowDown,ArrowRight"":30}",19,,23.74,Male,3,rest,609.8999999761581,307.6999999284744,ArrowDown,ArrowRight,True,True,30.0,Adults,15,True
768,24,162,7513,value training,False,./assets/img/ocean/memory/33.jpg,ocean,30.0,False,True,original,1.0,"{""ArrowUp,ArrowLeft"":23,""ArrowUp,ArrowRight"":10,""ArrowDown,ArrowLeft"":8,""ArrowDown,ArrowRight"":30}",20,,23.74,Male,3,rest,754.7000000476837,327.2999999523163,ArrowDown,ArrowRight,True,True,30.0,Adults,15,True
769,25,164,7513,value training,False,./assets/img/ocean/memory/20.jpg,ocean,30.0,False,True,original,1.0,"{""ArrowUp,ArrowLeft"":23,""ArrowUp,ArrowRight"":10,""ArrowDown,ArrowLeft"":8,""ArrowDown,ArrowRight"":30}",21,,23.74,Male,3,rest,754.6000000238419,278.5,ArrowDown,ArrowRight,True,True,30.0,Adults,20,True
770,26,166,7513,value training,False,./assets/img/ocean/memory/23.jpg,ocean,30.0,False,True,original,1.0,"{""ArrowUp,ArrowLeft"":23,""ArrowUp,ArrowRight"":10,""ArrowDown,ArrowLeft"":8,""ArrowDown,ArrowRight"":30}",22,,23.74,Male,3,rest,489.7999999523163,323.10000002384186,ArrowDown,ArrowRight,True,True,30.0,Adults,20,True
771,27,168,7513,value training,False,./assets/img/ocean/memory/37.jpg,ocean,30.0,False,True,original,1.0,"{""ArrowUp,ArrowLeft"":23,""ArrowUp,ArrowRight"":10,""ArrowDown,ArrowLeft"":8,""ArrowDown,ArrowRight"":30}",23,,23.74,Male,3,rest,631.2999999523163,320.0,ArrowDown,ArrowRight,True,True,30.0,Adults,20,True
772,28,170,7513,value training,False,./assets/img/ocean/memory/25.jpg,ocean,30.0,False,True,original,1.0,"{""ArrowUp,ArrowLeft"":23,""ArrowUp,ArrowRight"":10,""ArrowDown,ArrowLeft"":8,""ArrowDown,ArrowRight"":30}",24,,23.74,Male,3,rest,530.3000000715256,290.39999997615814,ArrowDown,ArrowRight,True,True,30.0,Adults,20,True
773,29,172,7513,value training,False,./assets/img/ocean/memory/19.jpg,ocean,30.0,False,True,original,1.0,"{""ArrowUp,ArrowLeft"":23,""ArrowUp,ArrowRight"":10,""ArrowDown,ArrowLeft"":8,""ArrowDown,ArrowRight"":30}",25,,23.74,Male,3,rest,583.0,583.3999999761581,ArrowDown,ArrowRight,True,True,30.0,Adults,20,True
774,30,174,7513,value training,False,./assets/img/ocean/memory/10.jpg,ocean,30.0,False,True,original,1.0,"{""ArrowUp,ArrowLeft"":23,""ArrowUp,ArrowRight"":10,""ArrowDown,ArrowLeft"":8,""ArrowDown,ArrowRight"":30}",26,,23.74,Male,3,rest,584.7999999523163,283.2999999523163,ArrowDown,ArrowRight,True,True,30.0,Adults,25,True
775,31,176,7513,value training,False,./assets/img/ocean/memory/28.jpg,ocean,30.0,False,True,original,1.0,"{""ArrowUp,ArrowLeft"":23,""ArrowUp,ArrowRight"":10,""ArrowDown,ArrowLeft"":8,""ArrowDown,ArrowRight"":30}",27,,23.74,Male,3,rest,473.0,244.0,ArrowDown,ArrowRight,True,True,30.0,Adults,25,True
776,32,178,7513,value training,False,./assets/img/ocean/memory/11.jpg,ocean,30.0,False,True,original,1.0,"{""ArrowUp,ArrowLeft"":23,""ArrowUp,ArrowRight"":10,""ArrowDown,ArrowLeft"":8,""ArrowDown,ArrowRight"":30}",28,,23.74,Male,3,rest,643.6999999284744,387.7999999523163,ArrowDown,ArrowRight,True,True,30.0,Adults,25,True
777,33,180,7513,value training,False,./assets/img/ocean/memory/5.jpg,ocean,30.0,False,True,original,1.0,"{""ArrowUp,ArrowLeft"":23,""ArrowUp,ArrowRight"":10,""ArrowDown,ArrowLeft"":8,""ArrowDown,ArrowRight"":30}",29,,23.74,Male,3,rest,506.0,272.7999999523163,ArrowDown,ArrowRight,True,True,30.0,Adults,25,True
778,34,182,7513,value training,False,./assets/img/ocean/memory/0.jpg,ocean,30.0,False,True,original,1.0,"{""ArrowUp,ArrowLeft"":23,""ArrowUp,ArrowRight"":10,""ArrowDown,ArrowLeft"":8,""ArrowDown,ArrowRight"":30}",30,,23.74,Male,3,rest,815.1000000238419,272.7000000476837,ArrowDown,ArrowRight,True,True,30.0,Adults,25,True
780,36,186,7513,value training,False,./assets/img/ocean/memory/27.jpg,ocean,30.0,False,True,original,1.0,"{""ArrowUp,ArrowLeft"":23,""ArrowUp,ArrowRight"":10,""ArrowDown,ArrowLeft"":8,""ArrowDown,ArrowRight"":30}",31,,23.74,Male,3,rest,529.0,985.2999999523163,ArrowDown,ArrowRight,True,True,30.0,Adults,30,True
782,38,190,7513,value training,False,./assets/img/ocean/memory/10.jpg,ocean,30.0,False,True,original,1.0,"{""ArrowUp,ArrowLeft"":23,""ArrowUp,ArrowRight"":10,""ArrowDown,ArrowLeft"":8,""ArrowDown,ArrowRight"":30}",32,,23.74,Male,3,rest,546.6000000238419,506.89999997615814,ArrowDown,ArrowRight,True,True,30.0,Adults,30,True
783,39,192,7513,value training,False,./assets/img/ocean/memory/5.jpg,ocean,30.0,False,True,original,1.0,"{""ArrowUp,ArrowLeft"":23,""ArrowUp,ArrowRight"":10,""ArrowDown,ArrowLeft"":8,""ArrowDown,ArrowRight"":30}",33,,23.74,Male,3,rest,485.2000000476837,500.39999997615814,ArrowDown,ArrowRight,True,True,30.0,Adults,30,True
784,40,194,7513,value training,False,./assets/img/ocean/memory/0.jpg,ocean,30.0,False,True,original,1.0,"{""ArrowUp,ArrowLeft"":23,""ArrowUp,ArrowRight"":10,""ArrowDown,ArrowLeft"":8,""ArrowDown,ArrowRight"":30}",34,,23.74,Male,3,rest,535.6000000238419,326.10000002384186,ArrowDown,ArrowRight,True,True,30.0,Adults,30,True
785,41,196,7513,value training,False,./assets/img/ocean/memory/6.jpg,ocean,30.0,False,True,original,1.0,"{""ArrowUp,ArrowLeft"":23,""ArrowUp,ArrowRight"":10,""ArrowDown,ArrowLeft"":8,""ArrowDown,ArrowRight"":30}",35,,23.74,Male,3,rest,469.89999997615814,412.60000002384186,ArrowDown,ArrowRight,True,True,30.0,Adults,30,True
786,42,198,7513,value training,False,./assets/img/ocean/memory/30.jpg,ocean,30.0,False,True,original,1.0,"{""ArrowUp,ArrowLeft"":23,""ArrowUp,ArrowRight"":10,""ArrowDown,ArrowLeft"":8,""ArrowDown,ArrowRight"":30}",36,,23.74,Male,3,rest,555.8999999761581,505.5,ArrowDown,ArrowRight,True,True,30.0,Adults,35,True
787,43,200,7513,value training,False,./assets/img/ocean/memory/41.jpg,ocean,30.0,False,True,original,1.0,"{""ArrowUp,ArrowLeft"":23,""ArrowUp,ArrowRight"":10,""ArrowDown,ArrowLeft"":8,""ArrowDown,ArrowRight"":30}",37,,23.74,Male,3,rest,428.89999997615814,296.7000000476837,ArrowDown,ArrowRight,True,True,30.0,Adults,35,True
788,44,202,7513,value training,False,./assets/img/ocean/memory/19.jpg,ocean,30.0,False,True,original,1.0,"{""ArrowUp,ArrowLeft"":23,""ArrowUp,ArrowRight"":10,""ArrowDown,ArrowLeft"":8,""ArrowDown,ArrowRight"":30}",38,,23.74,Male,3,rest,665.8999999761581,268.5,ArrowDown,ArrowRight,True,True,30.0,Adults,35,True
789,45,204,7513,value training,False,./assets/img/ocean/memory/1.jpg,ocean,30.0,False,True,original,1.0,"{""ArrowUp,ArrowLeft"":23,""ArrowUp,ArrowRight"":10,""ArrowDown,ArrowLeft"":8,""ArrowDown,ArrowRight"":30}",39,,23.74,Male,3,rest,474.7000000476837,296.39999997615814,ArrowDown,ArrowRight,True,True,30.0,Adults,35,True
791,47,208,7513,value training,False,./assets/img/ocean/memory/25.jpg,ocean,30.0,False,True,original,1.0,"{""ArrowUp,ArrowLeft"":23,""ArrowUp,ArrowRight"":10,""ArrowDown,ArrowLeft"":8,""ArrowDown,ArrowRight"":30}",40,,23.74,Male,3,rest,395.60000002384186,307.0,ArrowDown,ArrowRight,True,True,30.0,Adults,35,True
792,48,210,7513,value training,False,./assets/img/ocean/memory/6.jpg,ocean,30.0,False,True,original,1.0,"{""ArrowUp,ArrowLeft"":23,""ArrowUp,ArrowRight"":10,""ArrowDown,ArrowLeft"":8,""ArrowDown,ArrowRight"":30}",41,,23.74,Male,3,rest,529.3999999761581,732.3999999761581,ArrowDown,ArrowRight,True,True,30.0,Adults,40,True
793,49,212,7513,value training,False,./assets/img/ocean/memory/30.jpg,ocean,30.0,False,True,original,1.0,"{""ArrowUp,ArrowLeft"":23,""ArrowUp,ArrowRight"":10,""ArrowDown,ArrowLeft"":8,""ArrowDown,ArrowRight"":30}",42,,23.74,Male,3,rest,569.5999999046326,397.59999990463257,ArrowDown,ArrowRight,True,True,30.0,Adults,40,True
824,80,283,7513,value training,False,./assets/img/canyon/memory/1.jpg,canyon,5.0,False,False,revaluation,2.0,"{""ArrowUp,ArrowLeft"":26,""ArrowUp,ArrowRight"":10,""ArrowDown,ArrowLeft"":5,""ArrowDown,ArrowRight"":17}",1,,23.74,Male,3,rest,1141.8999999761581,643.9000000953674,ArrowDown,ArrowLeft,False,False,26.0,Adults,0,False
825,81,285,7513,value training,False,./assets/img/canyon/memory/28.jpg,canyon,26.0,False,True,revaluation,2.0,"{""ArrowUp,ArrowLeft"":26,""ArrowUp,ArrowRight"":10,""ArrowDown,ArrowLeft"":5,""ArrowDown,ArrowRight"":17}",2,,23.74,Male,3,rest,896.6000000238419,423.60000002384186,ArrowUp,ArrowLeft,True,True,26.0,Adults,0,True
826,82,287,7513,value training,False,./assets/img/canyon/memory/33.jpg,canyon,10.0,False,False,revaluation,2.0,"{""ArrowUp,ArrowLeft"":26,""ArrowUp,ArrowRight"":10,""ArrowDown,ArrowLeft"":5,""ArrowDown,ArrowRight"":17}",3,,23.74,Male,3,rest,582.0,400.5,ArrowUp,ArrowRight,True,False,26.0,Adults,0,False
827,83,289,7513,value training,False,./assets/img/canyon/memory/25.jpg,canyon,17.0,False,False,revaluation,2.0,"{""ArrowUp,ArrowLeft"":26,""ArrowUp,ArrowRight"":10,""ArrowDown,ArrowLeft"":5,""ArrowDown,ArrowRight"":17}",4,,23.74,Male,3,rest,389.60000002384186,294.7999999523163,ArrowDown,ArrowRight,False,True,26.0,Adults,0,False
828,84,291,7513,value training,False,./assets/img/canyon/memory/20.jpg,canyon,26.0,False,True,revaluation,2.0,"{""ArrowUp,ArrowLeft"":26,""ArrowUp,ArrowRight"":10,""ArrowDown,ArrowLeft"":5,""ArrowDown,ArrowRight"":17}",5,,23.74,Male,3,rest,464.3000000715256,418.5,ArrowUp,ArrowLeft,True,True,26.0,Adults,0,True
829,85,293,7513,value training,False,./assets/img/canyon/memory/37.jpg,canyon,26.0,False,True,revaluation,2.0,"{""ArrowUp,ArrowLeft"":26,""ArrowUp,ArrowRight"":10,""ArrowDown,ArrowLeft"":5,""ArrowDown,ArrowRight"":17}",6,,23.74,Male,3,rest,430.10000002384186,414.7999999523163,ArrowUp,ArrowLeft,True,True,26.0,Adults,5,True
830,86,295,7513,value training,False,./assets/img/canyon/memory/18.jpg,canyon,26.0,False,True,revaluation,2.0,"{""ArrowUp,ArrowLeft"":26,""ArrowUp,ArrowRight"":10,""ArrowDown,ArrowLeft"":5,""ArrowDown,ArrowRight"":17}",7,,23.74,Male,3,rest,442.2000000476837,367.5,ArrowUp,ArrowLeft,True,True,26.0,Adults,5,True
832,88,299,7513,value training,False,./assets/img/canyon/memory/1.jpg,canyon,26.0,False,True,revaluation,2.0,"{""ArrowUp,ArrowLeft"":26,""ArrowUp,ArrowRight"":10,""ArrowDown,ArrowLeft"":5,""ArrowDown,ArrowRight"":17}",8,,23.74,Male,3,rest,396.60000002384186,403.7000000476837,ArrowUp,ArrowLeft,True,True,26.0,Adults,5,True
833,89,301,7513,value training,False,./assets/img/canyon/memory/27.jpg,canyon,26.0,False,True,revaluation,2.0,"{""ArrowUp,ArrowLeft"":26,""ArrowUp,ArrowRight"":10,""ArrowDown,ArrowLeft"":5,""ArrowDown,ArrowRight"":17}",9,,23.74,Male,3,rest,693.0,346.5,ArrowUp,ArrowLeft,True,True,26.0,Adults,5,True
834,90,303,7513,value training,False,./assets/img/canyon/memory/32.jpg,canyon,26.0,False,True,revaluation,2.0,"{""ArrowUp,ArrowLeft"":26,""ArrowUp,ArrowRight"":10,""ArrowDown,ArrowLeft"":5,""ArrowDown,ArrowRight"":17}",10,,23.74,Male,3,rest,473.0,352.1999999284744,ArrowUp,ArrowLeft,True,True,26.0,Adults,5,True
835,91,305,7513,value training,False,./assets/img/canyon/memory/23.jpg,canyon,26.0,False,True,revaluation,2.0,"{""ArrowUp,ArrowLeft"":26,""ArrowUp,ArrowRight"":10,""ArrowDown,ArrowLeft"":5,""ArrowDown,ArrowRight"":17}",11,,23.74,Male,3,rest,605.6999999284744,337.89999997615814,ArrowUp,ArrowLeft,True,True,26.0,Adults,10,True
836,92,307,7513,value training,False,./assets/img/canyon/memory/19.jpg,canyon,26.0,False,True,revaluation,2.0,"{""ArrowUp,ArrowLeft"":26,""ArrowUp,ArrowRight"":10,""ArrowDown,ArrowLeft"":5,""ArrowDown,ArrowRight"":17}",12,,23.74,Male,3,rest,515.3999999761581,764.0,ArrowUp,ArrowLeft,True,True,26.0,Adults,10,True
838,94,311,7513,value training,False,./assets/img/canyon/memory/9.jpg,canyon,26.0,False,True,revaluation,2.0,"{""ArrowUp,ArrowLeft"":26,""ArrowUp,ArrowRight"":10,""ArrowDown,ArrowLeft"":5,""ArrowDown,ArrowRight"":17}",13,,23.74,Male,3,rest,627.0,295.60000002384186,ArrowUp,ArrowLeft,True,True,26.0,Adults,10,True
839,95,313,7513,value training,False,./assets/img/canyon/memory/41.jpg,canyon,26.0,False,True,revaluation,2.0,"{""ArrowUp,ArrowLeft"":26,""ArrowUp,ArrowRight"":10,""ArrowDown,ArrowLeft"":5,""ArrowDown,ArrowRight"":17}",14,,23.74,Male,3,rest,506.2999999523163,452.89999997615814,ArrowUp,ArrowLeft,True,True,26.0,Adults,10,True
841,97,317,7513,value training,False,./assets/img/canyon/memory/35.jpg,canyon,26.0,False,True,revaluation,2.0,"{""ArrowUp,ArrowLeft"":26,""ArrowUp,ArrowRight"":10,""ArrowDown,ArrowLeft"":5,""ArrowDown,ArrowRight"":17}",15,,23.74,Male,3,rest,1036.1000000238419,394.2000000476837,ArrowUp,ArrowLeft,True,True,26.0,Adults,10,True
843,99,321,7513,value training,False,./assets/img/canyon/memory/19.jpg,canyon,26.0,False,True,revaluation,2.0,"{""ArrowUp,ArrowLeft"":26,""ArrowUp,ArrowRight"":10,""ArrowDown,ArrowLeft"":5,""ArrowDown,ArrowRight"":17}",16,,23.74,Male,3,rest,447.5,282.60000002384186,ArrowUp,ArrowLeft,True,True,26.0,Adults,15,True
845,101,325,7513,value training,False,./assets/img/canyon/memory/41.jpg,canyon,26.0,False,True,revaluation,2.0,"{""ArrowUp,ArrowLeft"":26,""ArrowUp,ArrowRight"":10,""ArrowDown,ArrowLeft"":5,""ArrowDown,ArrowRight"":17}",17,,23.74,Male,3,rest,1446.2000000476837,633.8999999761581,ArrowUp,ArrowLeft,True,True,26.0,Adults,15,True
846,102,327,7513,value training,False,./assets/img/canyon/memory/28.jpg,canyon,26.0,False,True,revaluation,2.0,"{""ArrowUp,ArrowLeft"":26,""ArrowUp,ArrowRight"":10,""ArrowDown,ArrowLeft"":5,""ArrowDown,ArrowRight"":17}",18,,23.74,Male,3,rest,1034.1000000238419,283.2999999523163,ArrowUp,ArrowLeft,True,True,26.0,Adults,15,True
847,103,329,7513,value training,False,./assets/img/canyon/memory/10.jpg,canyon,26.0,False,True,revaluation,2.0,"{""ArrowUp,ArrowLeft"":26,""ArrowUp,ArrowRight"":10,""ArrowDown,ArrowLeft"":5,""ArrowDown,ArrowRight"":17}",19,,23.74,Male,3,rest,1679.8000000715256,615.1999999284744,ArrowUp,ArrowLeft,True,True,26.0,Adults,15,True
848,104,331,7513,value training,False,./assets/img/canyon/memory/27.jpg,canyon,26.0,False,True,revaluation,2.0,"{""ArrowUp,ArrowLeft"":26,""ArrowUp,ArrowRight"":10,""ArrowDown,ArrowLeft"":5,""ArrowDown,ArrowRight"":17}",20,,23.74,Male,3,rest,815.2999999523163,468.39999997615814,ArrowUp,ArrowLeft,True,True,26.0,Adults,15,True
849,105,333,7513,value training,False,./assets/img/canyon/memory/4.jpg,canyon,26.0,False,True,revaluation,2.0,"{""ArrowUp,ArrowLeft"":26,""ArrowUp,ArrowRight"":10,""ArrowDown,ArrowLeft"":5,""ArrowDown,ArrowRight"":17}",21,,23.74,Male,3,rest,729.6999999284744,484.7000000476837,ArrowUp,ArrowLeft,True,True,26.0,Adults,20,True
850,106,335,7513,value training,False,./assets/img/canyon/memory/35.jpg,canyon,26.0,False,True,revaluation,2.0,"{""ArrowUp,ArrowLeft"":26,""ArrowUp,ArrowRight"":10,""ArrowDown,ArrowLeft"":5,""ArrowDown,ArrowRight"":17}",22,,23.74,Male,3,rest,731.2999999523163,302.8000000715256,ArrowUp,ArrowLeft,True,True,26.0,Adults,20,True
