,index,subject_id,task_part,rt,timeout,stimulus,environment,score,isCatch,correct,block_condition,block_order,rewardMap,trial_num,ground_truth,age,subject_condition,rest,response0,response1,is_optimal_first,is_optimal_second,categorical_age,trial_bin
0,116,7787,value training,"[1087.3000000715256,387.5]",False,./assets/img/canyon/memory/22.jpg,canyon,26.0,False,True,Revaluation,1.0,"{""ArrowUp,ArrowLeft"":26,""ArrowUp,ArrowRight"":10,""ArrowDown,ArrowLeft"":5,""ArrowDown,ArrowRight"":17}",1,,20.35,8,rest,ArrowUp,ArrowLeft,True,True,Adults,0
1,118,7787,value training,"[375.2000000476837,367.7999999523163]",False,./assets/img/canyon/memory/9.jpg,canyon,10.0,False,False,Revaluation,1.0,"{""ArrowUp,ArrowLeft"":26,""ArrowUp,ArrowRight"":10,""ArrowDown,ArrowLeft"":5,""ArrowDown,ArrowRight"":17}",2,,20.35,8,rest,ArrowUp,ArrowRight,True,True,Adults,0
3,122,7787,value training,"[600.7000000476837,472.7999999523163]",False,./assets/img/canyon/memory/5.jpg,canyon,5.0,False,False,Revaluation,1.0,"{""ArrowUp,ArrowLeft"":26,""ArrowUp,ArrowRight"":10,""ArrowDown,ArrowLeft"":5,""ArrowDown,ArrowRight"":17}",3,,20.35,8,rest,ArrowDown,ArrowLeft,False,False,Adults,0
4,124,7787,value training,"[376.7999999523163,555.7999999523163]",False,./assets/img/canyon/memory/41.jpg,canyon,17.0,False,False,Revaluation,1.0,"{""ArrowUp,ArrowLeft"":26,""ArrowUp,ArrowRight"":10,""ArrowDown,ArrowLeft"":5,""ArrowDown,ArrowRight"":17}",4,,20.35,8,rest,ArrowDown,ArrowRight,False,False,Adults,0
5,126,7787,value training,"[458.60000002384186,297.7999999523163]",False,./assets/img/canyon/memory/34.jpg,canyon,26.0,False,True,Revaluation,1.0,"{""ArrowUp,ArrowLeft"":26,""ArrowUp,ArrowRight"":10,""ArrowDown,ArrowLeft"":5,""ArrowDown,ArrowRight"":17}",5,,20.35,8,rest,ArrowUp,ArrowLeft,True,True,Adults,0
6,128,7787,value training,"[420.7999999523163,601.6000000238419]",False,./assets/img/canyon/memory/20.jpg,canyon,26.0,False,True,Revaluation,1.0,"{""ArrowUp,ArrowLeft"":26,""ArrowUp,ArrowRight"":10,""ArrowDown,ArrowLeft"":5,""ArrowDown,ArrowRight"":17}",6,,20.35,8,rest,ArrowUp,ArrowLeft,True,True,Adults,5
7,130,7787,value training,"[403.89999997615814,481.7999999523163]",False,./assets/img/canyon/memory/34.jpg,canyon,26.0,False,True,Revaluation,1.0,"{""ArrowUp,ArrowLeft"":26,""ArrowUp,ArrowRight"":10,""ArrowDown,ArrowLeft"":5,""ArrowDown,ArrowRight"":17}",7,,20.35,8,rest,ArrowUp,ArrowLeft,True,True,Adults,5
8,132,7787,value training,"[457.39999997615814,347.60000002384186]",False,./assets/img/canyon/memory/8.jpg,canyon,26.0,False,True,Revaluation,1.0,"{""ArrowUp,ArrowLeft"":26,""ArrowUp,ArrowRight"":10,""ArrowDown,ArrowLeft"":5,""ArrowDown,ArrowRight"":17}",8,,20.35,8,rest,ArrowUp,ArrowLeft,True,True,Adults,5
9,134,7787,value training,"[405.7000000476837,362.7000000476837]",False,./assets/img/canyon/memory/1.jpg,canyon,26.0,False,True,Revaluation,1.0,"{""ArrowUp,ArrowLeft"":26,""ArrowUp,ArrowRight"":10,""ArrowDown,ArrowLeft"":5,""ArrowDown,ArrowRight"":17}",9,,20.35,8,rest,ArrowUp,ArrowLeft,True,True,Adults,5
10,136,7787,value training,"[456.7999999523163,351.39999997615814]",False,./assets/img/canyon/memory/36.jpg,canyon,26.0,False,True,Revaluation,1.0,"{""ArrowUp,ArrowLeft"":26,""ArrowUp,ArrowRight"":10,""ArrowDown,ArrowLeft"":5,""ArrowDown,ArrowRight"":17}",10,,20.35,8,rest,ArrowUp,ArrowLeft,True,True,Adults,5
11,138,7787,value training,"[438.8000000715256,310.10000002384186]",False,./assets/img/canyon/memory/14.jpg,canyon,26.0,False,True,Revaluation,1.0,"{""ArrowUp,ArrowLeft"":26,""ArrowUp,ArrowRight"":10,""ArrowDown,ArrowLeft"":5,""ArrowDown,ArrowRight"":17}",11,,20.35,8,rest,ArrowUp,ArrowLeft,True,True,Adults,10
12,140,7787,value training,"[595.2999999523163,349]",False,./assets/img/canyon/memory/41.jpg,canyon,26.0,False,True,Revaluation,1.0,"{""ArrowUp,ArrowLeft"":26,""ArrowUp,ArrowRight"":10,""ArrowDown,ArrowLeft"":5,""ArrowDown,ArrowRight"":17}",12,,20.35,8,rest,ArrowUp,ArrowLeft,True,True,Adults,10
13,142,7787,value training,"[413,293.2000000476837]",False,./assets/img/canyon/memory/4.jpg,canyon,26.0,False,True,Revaluation,1.0,"{""ArrowUp,ArrowLeft"":26,""ArrowUp,ArrowRight"":10,""ArrowDown,ArrowLeft"":5,""ArrowDown,ArrowRight"":17}",13,,20.35,8,rest,ArrowUp,ArrowLeft,True,True,Adults,10
14,144,7787,value training,"[396.7999999523163,289.5]",False,./assets/img/canyon/memory/20.jpg,canyon,26.0,False,True,Revaluation,1.0,"{""ArrowUp,ArrowLeft"":26,""ArrowUp,ArrowRight"":10,""ArrowDown,ArrowLeft"":5,""ArrowDown,ArrowRight"":17}",14,,20.35,8,rest,ArrowUp,ArrowLeft,True,True,Adults,10
15,146,7787,value training,"[392.89999997615814,472.10000002384186]",False,./assets/img/canyon/memory/38.jpg,canyon,26.0,False,True,Revaluation,1.0,"{""ArrowUp,ArrowLeft"":26,""ArrowUp,ArrowRight"":10,""ArrowDown,ArrowLeft"":5,""ArrowDown,ArrowRight"":17}",15,,20.35,8,rest,ArrowUp,ArrowLeft,True,True,Adults,10
17,150,7787,value training,"[395.10000002384186,326.6999999284744]",False,./assets/img/canyon/memory/36.jpg,canyon,26.0,False,True,Revaluation,1.0,"{""ArrowUp,ArrowLeft"":26,""ArrowUp,ArrowRight"":10,""ArrowDown,ArrowLeft"":5,""ArrowDown,ArrowRight"":17}",16,,20.35,8,rest,ArrowUp,ArrowLeft,True,True,Adults,15
18,152,7787,value training,"[424.7999999523163,328]",False,./assets/img/canyon/memory/30.jpg,canyon,26.0,False,True,Revaluation,1.0,"{""ArrowUp,ArrowLeft"":26,""ArrowUp,ArrowRight"":10,""ArrowDown,ArrowLeft"":5,""ArrowDown,ArrowRight"":17}",17,,20.35,8,rest,ArrowUp,ArrowLeft,True,True,Adults,15
19,154,7787,value training,"[392.59999990463257,320.5]",False,./assets/img/canyon/memory/26.jpg,canyon,26.0,False,True,Revaluation,1.0,"{""ArrowUp,ArrowLeft"":26,""ArrowUp,ArrowRight"":10,""ArrowDown,ArrowLeft"":5,""ArrowDown,ArrowRight"":17}",18,,20.35,8,rest,ArrowUp,ArrowLeft,True,True,Adults,15
20,156,7787,value training,"[385.60000002384186,411.3000000715256]",False,./assets/img/canyon/memory/21.jpg,canyon,26.0,False,True,Revaluation,1.0,"{""ArrowUp,ArrowLeft"":26,""ArrowUp,ArrowRight"":10,""ArrowDown,ArrowLeft"":5,""ArrowDown,ArrowRight"":17}",19,,20.35,8,rest,ArrowUp,ArrowLeft,True,True,Adults,15
21,158,7787,value training,"[424.2000000476837,293.7999999523163]",False,./assets/img/canyon/memory/17.jpg,canyon,26.0,False,True,Revaluation,1.0,"{""ArrowUp,ArrowLeft"":26,""ArrowUp,ArrowRight"":10,""ArrowDown,ArrowLeft"":5,""ArrowDown,ArrowRight"":17}",20,,20.35,8,rest,ArrowUp,ArrowLeft,True,True,Adults,15
22,160,7787,value training,"[469.59999990463257,346.5]",False,./assets/img/canyon/memory/9.jpg,canyon,26.0,False,True,Revaluation,1.0,"{""ArrowUp,ArrowLeft"":26,""ArrowUp,ArrowRight"":10,""ArrowDown,ArrowLeft"":5,""ArrowDown,ArrowRight"":17}",21,,20.35,8,rest,ArrowUp,ArrowLeft,True,True,Adults,20
23,162,7787,value training,"[456.7999999523163,365.5]",False,./assets/img/canyon/memory/28.jpg,canyon,26.0,False,True,Revaluation,1.0,"{""ArrowUp,ArrowLeft"":26,""ArrowUp,ArrowRight"":10,""ArrowDown,ArrowLeft"":5,""ArrowDown,ArrowRight"":17}",22,,20.35,8,rest,ArrowUp,ArrowLeft,True,True,Adults,20
24,164,7787,value training,"[427.1999999284744,335.40000009536743]",False,./assets/img/canyon/memory/18.jpg,canyon,26.0,False,True,Revaluation,1.0,"{""ArrowUp,ArrowLeft"":26,""ArrowUp,ArrowRight"":10,""ArrowDown,ArrowLeft"":5,""ArrowDown,ArrowRight"":17}",23,,20.35,8,rest,ArrowUp,ArrowLeft,True,True,Adults,20
25,166,7787,value training,"[420.7000000476837,312.10000002384186]",False,./assets/img/canyon/memory/12.jpg,canyon,26.0,False,True,Revaluation,1.0,"{""ArrowUp,ArrowLeft"":26,""ArrowUp,ArrowRight"":10,""ArrowDown,ArrowLeft"":5,""ArrowDown,ArrowRight"":17}",24,,20.35,8,rest,ArrowUp,ArrowLeft,True,True,Adults,20
26,168,7787,value training,"[454.5,339.5]",False,./assets/img/canyon/memory/16.jpg,canyon,26.0,False,True,Revaluation,1.0,"{""ArrowUp,ArrowLeft"":26,""ArrowUp,ArrowRight"":10,""ArrowDown,ArrowLeft"":5,""ArrowDown,ArrowRight"":17}",25,,20.35,8,rest,ArrowUp,ArrowLeft,True,True,Adults,20
27,170,7787,value training,"[543.8000000715256,895.3999999761581]",False,./assets/img/canyon/memory/22.jpg,canyon,26.0,False,True,Revaluation,1.0,"{""ArrowUp,ArrowLeft"":26,""ArrowUp,ArrowRight"":10,""ArrowDown,ArrowLeft"":5,""ArrowDown,ArrowRight"":17}",26,,20.35,8,rest,ArrowUp,ArrowLeft,True,True,Adults,25
28,172,7787,value training,"[435.2999999523163,564.3000000715256]",False,./assets/img/canyon/memory/1.jpg,canyon,26.0,False,True,Revaluation,1.0,"{""ArrowUp,ArrowLeft"":26,""ArrowUp,ArrowRight"":10,""ArrowDown,ArrowLeft"":5,""ArrowDown,ArrowRight"":17}",27,,20.35,8,rest,ArrowUp,ArrowLeft,True,True,Adults,25
29,174,7787,value training,"[384,1065.3999999761581]",False,./assets/img/canyon/memory/16.jpg,canyon,26.0,False,True,Revaluation,1.0,"{""ArrowUp,ArrowLeft"":26,""ArrowUp,ArrowRight"":10,""ArrowDown,ArrowLeft"":5,""ArrowDown,ArrowRight"":17}",28,,20.35,8,rest,ArrowUp,ArrowLeft,True,True,Adults,25
30,176,7787,value training,"[394.6999999284744,378.39999997615814]",False,./assets/img/canyon/memory/6.jpg,canyon,26.0,False,True,Revaluation,1.0,"{""ArrowUp,ArrowLeft"":26,""ArrowUp,ArrowRight"":10,""ArrowDown,ArrowLeft"":5,""ArrowDown,ArrowRight"":17}",29,,20.35,8,rest,ArrowUp,ArrowLeft,True,True,Adults,25
31,178,7787,value training,"[398.5,484.10000002384186]",False,./assets/img/canyon/memory/8.jpg,canyon,26.0,False,True,Revaluation,1.0,"{""ArrowUp,ArrowLeft"":26,""ArrowUp,ArrowRight"":10,""ArrowDown,ArrowLeft"":5,""ArrowDown,ArrowRight"":17}",30,,20.35,8,rest,ArrowUp,ArrowLeft,True,True,Adults,25
32,180,7787,value training,"[367.89999997615814,359.8000000715256]",False,./assets/img/canyon/memory/18.jpg,canyon,26.0,False,True,Revaluation,1.0,"{""ArrowUp,ArrowLeft"":26,""ArrowUp,ArrowRight"":10,""ArrowDown,ArrowLeft"":5,""ArrowDown,ArrowRight"":17}",31,,20.35,8,rest,ArrowUp,ArrowLeft,True,True,Adults,30
33,182,7787,value training,"[401.10000002384186,472.39999997615814]",False,./assets/img/canyon/memory/5.jpg,canyon,26.0,False,True,Revaluation,1.0,"{""ArrowUp,ArrowLeft"":26,""ArrowUp,ArrowRight"":10,""ArrowDown,ArrowLeft"":5,""ArrowDown,ArrowRight"":17}",32,,20.35,8,rest,ArrowUp,ArrowLeft,True,True,Adults,30
34,184,7787,value training,"[396.60000002384186,393.10000002384186]",False,./assets/img/canyon/memory/17.jpg,canyon,26.0,False,True,Revaluation,1.0,"{""ArrowUp,ArrowLeft"":26,""ArrowUp,ArrowRight"":10,""ArrowDown,ArrowLeft"":5,""ArrowDown,ArrowRight"":17}",33,,20.35,8,rest,ArrowUp,ArrowLeft,True,True,Adults,30
35,186,7787,value training,"[424.10000002384186,340.39999997615814]",False,./assets/img/canyon/memory/28.jpg,canyon,26.0,False,True,Revaluation,1.0,"{""ArrowUp,ArrowLeft"":26,""ArrowUp,ArrowRight"":10,""ArrowDown,ArrowLeft"":5,""ArrowDown,ArrowRight"":17}",34,,20.35,8,rest,ArrowUp,ArrowLeft,True,True,Adults,30
37,190,7787,value training,"[497.7999999523163,353.10000002384186]",False,./assets/img/canyon/memory/12.jpg,canyon,26.0,False,True,Revaluation,1.0,"{""ArrowUp,ArrowLeft"":26,""ArrowUp,ArrowRight"":10,""ArrowDown,ArrowLeft"":5,""ArrowDown,ArrowRight"":17}",35,,20.35,8,rest,ArrowUp,ArrowLeft,True,True,Adults,30
38,192,7787,value training,"[451,635.0999999046326]",False,./assets/img/canyon/memory/4.jpg,canyon,26.0,False,True,Revaluation,1.0,"{""ArrowUp,ArrowLeft"":26,""ArrowUp,ArrowRight"":10,""ArrowDown,ArrowLeft"":5,""ArrowDown,ArrowRight"":17}",36,,20.35,8,rest,ArrowUp,ArrowLeft,True,True,Adults,35
43,202,7787,value training,"[905.8999999761581,512.6000000238419]",False,./assets/img/canyon/memory/21.jpg,canyon,26.0,False,True,Revaluation,1.0,"{""ArrowUp,ArrowLeft"":26,""ArrowUp,ArrowRight"":10,""ArrowDown,ArrowLeft"":5,""ArrowDown,ArrowRight"":17}",37,,20.35,8,rest,ArrowUp,ArrowLeft,True,True,Adults,35
44,204,7787,value training,"[426.10000002384186,497.7000000476837]",False,./assets/img/canyon/memory/38.jpg,canyon,26.0,False,True,Revaluation,1.0,"{""ArrowUp,ArrowLeft"":26,""ArrowUp,ArrowRight"":10,""ArrowDown,ArrowLeft"":5,""ArrowDown,ArrowRight"":17}",38,,20.35,8,rest,ArrowUp,ArrowLeft,True,True,Adults,35
45,206,7787,value training,"[405.5,411.6999999284744]",False,./assets/img/canyon/memory/6.jpg,canyon,26.0,False,True,Revaluation,1.0,"{""ArrowUp,ArrowLeft"":26,""ArrowUp,ArrowRight"":10,""ArrowDown,ArrowLeft"":5,""ArrowDown,ArrowRight"":17}",39,,20.35,8,rest,ArrowUp,ArrowLeft,True,True,Adults,35
47,210,7787,value training,"[421.2999999523163,700.4000000953674]",False,./assets/img/canyon/memory/26.jpg,canyon,26.0,False,True,Revaluation,1.0,"{""ArrowUp,ArrowLeft"":26,""ArrowUp,ArrowRight"":10,""ArrowDown,ArrowLeft"":5,""ArrowDown,ArrowRight"":17}",40,,20.35,8,rest,ArrowUp,ArrowLeft,True,True,Adults,35
48,212,7787,value training,"[594.7999999523163,826.7999999523163]",False,./assets/img/canyon/memory/14.jpg,canyon,26.0,False,True,Revaluation,1.0,"{""ArrowUp,ArrowLeft"":26,""ArrowUp,ArrowRight"":10,""ArrowDown,ArrowLeft"":5,""ArrowDown,ArrowRight"":17}",41,,20.35,8,rest,ArrowUp,ArrowLeft,True,True,Adults,40
49,214,7787,value training,"[446.7999999523163,310.90000009536743]",False,./assets/img/canyon/memory/30.jpg,canyon,26.0,False,True,Revaluation,1.0,"{""ArrowUp,ArrowLeft"":26,""ArrowUp,ArrowRight"":10,""ArrowDown,ArrowLeft"":5,""ArrowDown,ArrowRight"":17}",42,,20.35,8,rest,ArrowUp,ArrowLeft,True,True,Adults,40
80,285,7787,value training,"[951.8999999761581,457.5]",False,./assets/img/ocean/memory/6.jpg,ocean,23.0,False,False,Control,2.0,"{""ArrowUp,ArrowLeft"":23,""ArrowUp,ArrowRight"":10,""ArrowDown,ArrowLeft"":8,""ArrowDown,ArrowRight"":30}",1,,20.35,8,rest,ArrowUp,ArrowLeft,False,False,Adults,0
81,287,7787,value training,"[406.3000000715256,357.09999990463257]",False,./assets/img/ocean/memory/14.jpg,ocean,10.0,False,False,Control,2.0,"{""ArrowUp,ArrowLeft"":23,""ArrowUp,ArrowRight"":10,""ArrowDown,ArrowLeft"":8,""ArrowDown,ArrowRight"":30}",2,,20.35,8,rest,ArrowUp,ArrowRight,False,False,Adults,0
82,289,7787,value training,"[390.10000002384186,373.6999999284744]",False,./assets/img/ocean/memory/9.jpg,ocean,8.0,False,False,Control,2.0,"{""ArrowUp,ArrowLeft"":23,""ArrowUp,ArrowRight"":10,""ArrowDown,ArrowLeft"":8,""ArrowDown,ArrowRight"":30}",3,,20.35,8,rest,ArrowDown,ArrowLeft,True,True,Adults,0
83,291,7787,value training,"[500.39999997615814,348.2000000476837]",False,./assets/img/ocean/memory/21.jpg,ocean,30.0,False,True,Control,2.0,"{""ArrowUp,ArrowLeft"":23,""ArrowUp,ArrowRight"":10,""ArrowDown,ArrowLeft"":8,""ArrowDown,ArrowRight"":30}",4,,20.35,8,rest,ArrowDown,ArrowRight,True,True,Adults,0
85,295,7787,value training,"[429.39999997615814,315.10000002384186]",False,./assets/img/ocean/memory/36.jpg,ocean,30.0,False,True,Control,2.0,"{""ArrowUp,ArrowLeft"":23,""ArrowUp,ArrowRight"":10,""ArrowDown,ArrowLeft"":8,""ArrowDown,ArrowRight"":30}",5,,20.35,8,rest,ArrowDown,ArrowRight,True,True,Adults,0
86,297,7787,value training,"[426.7999999523163,676.2000000476837]",False,./assets/img/ocean/memory/5.jpg,ocean,30.0,False,True,Control,2.0,"{""ArrowUp,ArrowLeft"":23,""ArrowUp,ArrowRight"":10,""ArrowDown,ArrowLeft"":8,""ArrowDown,ArrowRight"":30}",6,,20.35,8,rest,ArrowDown,ArrowRight,True,True,Adults,5
87,299,7787,value training,"[386.59999990463257,397.1999999284744]",False,./assets/img/ocean/memory/38.jpg,ocean,30.0,False,True,Control,2.0,"{""ArrowUp,ArrowLeft"":23,""ArrowUp,ArrowRight"":10,""ArrowDown,ArrowLeft"":8,""ArrowDown,ArrowRight"":30}",7,,20.35,8,rest,ArrowDown,ArrowRight,True,True,Adults,5
88,301,7787,value training,"[370.39999997615814,397.40000009536743]",False,./assets/img/ocean/memory/17.jpg,ocean,30.0,False,True,Control,2.0,"{""ArrowUp,ArrowLeft"":23,""ArrowUp,ArrowRight"":10,""ArrowDown,ArrowLeft"":8,""ArrowDown,ArrowRight"":30}",8,,20.35,8,rest,ArrowDown,ArrowRight,True,True,Adults,5
89,303,7787,value training,"[549.1999999284744,365.8000000715256]",False,./assets/img/ocean/memory/20.jpg,ocean,30.0,False,True,Control,2.0,"{""ArrowUp,ArrowLeft"":23,""ArrowUp,ArrowRight"":10,""ArrowDown,ArrowLeft"":8,""ArrowDown,ArrowRight"":30}",9,,20.35,8,rest,ArrowDown,ArrowRight,True,True,Adults,5
91,307,7787,value training,"[986.7000000476837,310.40000009536743]",False,./assets/img/ocean/memory/20.jpg,ocean,30.0,False,True,Control,2.0,"{""ArrowUp,ArrowLeft"":23,""ArrowUp,ArrowRight"":10,""ArrowDown,ArrowLeft"":8,""ArrowDown,ArrowRight"":30}",10,,20.35,8,rest,ArrowDown,ArrowRight,True,True,Adults,5
92,309,7787,value training,"[445.5,398.2000000476837]",False,./assets/img/ocean/memory/28.jpg,ocean,30.0,False,True,Control,2.0,"{""ArrowUp,ArrowLeft"":23,""ArrowUp,ArrowRight"":10,""ArrowDown,ArrowLeft"":8,""ArrowDown,ArrowRight"":30}",11,,20.35,8,rest,ArrowDown,ArrowRight,True,True,Adults,10
94,313,7787,value training,"[620.7000000476837,369.10000002384186]",False,./assets/img/ocean/memory/26.jpg,ocean,30.0,False,True,Control,2.0,"{""ArrowUp,ArrowLeft"":23,""ArrowUp,ArrowRight"":10,""ArrowDown,ArrowLeft"":8,""ArrowDown,ArrowRight"":30}",12,,20.35,8,rest,ArrowDown,ArrowRight,True,True,Adults,10
95,315,7787,value training,"[568.4000000953674,301.3000000715256]",False,./assets/img/ocean/memory/22.jpg,ocean,30.0,False,True,Control,2.0,"{""ArrowUp,ArrowLeft"":23,""ArrowUp,ArrowRight"":10,""ArrowDown,ArrowLeft"":8,""ArrowDown,ArrowRight"":30}",13,,20.35,8,rest,ArrowDown,ArrowRight,True,True,Adults,10
96,317,7787,value training,"[516,346.10000002384186]",False,./assets/img/ocean/memory/41.jpg,ocean,30.0,False,True,Control,2.0,"{""ArrowUp,ArrowLeft"":23,""ArrowUp,ArrowRight"":10,""ArrowDown,ArrowLeft"":8,""ArrowDown,ArrowRight"":30}",14,,20.35,8,rest,ArrowDown,ArrowRight,True,True,Adults,10
97,319,7787,value training,"[493.1999999284744,409.10000002384186]",False,./assets/img/ocean/memory/41.jpg,ocean,30.0,False,True,Control,2.0,"{""ArrowUp,ArrowLeft"":23,""ArrowUp,ArrowRight"":10,""ArrowDown,ArrowLeft"":8,""ArrowDown,ArrowRight"":30}",15,,20.35,8,rest,ArrowDown,ArrowRight,True,True,Adults,10
98,321,7787,value training,"[568.5999999046326,383.40000009536743]",False,./assets/img/ocean/memory/38.jpg,ocean,30.0,False,True,Control,2.0,"{""ArrowUp,ArrowLeft"":23,""ArrowUp,ArrowRight"":10,""ArrowDown,ArrowLeft"":8,""ArrowDown,ArrowRight"":30}",16,,20.35,8,rest,ArrowDown,ArrowRight,True,True,Adults,15
101,327,7787,value training,"[607.3999999761581,397.39999997615814]",False,./assets/img/ocean/memory/1.jpg,ocean,30.0,False,True,Control,2.0,"{""ArrowUp,ArrowLeft"":23,""ArrowUp,ArrowRight"":10,""ArrowDown,ArrowLeft"":8,""ArrowDown,ArrowRight"":30}",17,,20.35,8,rest,ArrowDown,ArrowRight,True,True,Adults,15
102,329,7787,value training,"[516.6999999284744,384.1999999284744]",False,./assets/img/ocean/memory/17.jpg,ocean,30.0,False,True,Control,2.0,"{""ArrowUp,ArrowLeft"":23,""ArrowUp,ArrowRight"":10,""ArrowDown,ArrowLeft"":8,""ArrowDown,ArrowRight"":30}",18,,20.35,8,rest,ArrowDown,ArrowRight,True,True,Adults,15
103,331,7787,value training,"[441.89999997615814,364.5]",False,./assets/img/ocean/memory/34.jpg,ocean,30.0,False,True,Control,2.0,"{""ArrowUp,ArrowLeft"":23,""ArrowUp,ArrowRight"":10,""ArrowDown,ArrowLeft"":8,""ArrowDown,ArrowRight"":30}",19,,20.35,8,rest,ArrowDown,ArrowRight,True,True,Adults,15
104,333,7787,value training,"[465.6999999284744,309]",False,./assets/img/ocean/memory/12.jpg,ocean,30.0,False,True,Control,2.0,"{""ArrowUp,ArrowLeft"":23,""ArrowUp,ArrowRight"":10,""ArrowDown,ArrowLeft"":8,""ArrowDown,ArrowRight"":30}",20,,20.35,8,rest,ArrowDown,ArrowRight,True,True,Adults,15
105,335,7787,value training,"[393.09999990463257,296.40000009536743]",False,./assets/img/ocean/memory/12.jpg,ocean,30.0,False,True,Control,2.0,"{""ArrowUp,ArrowLeft"":23,""ArrowUp,ArrowRight"":10,""ArrowDown,ArrowLeft"":8,""ArrowDown,ArrowRight"":30}",21,,20.35,8,rest,ArrowDown,ArrowRight,True,True,Adults,20
106,337,7787,value training,"[576.3000000715256,285.39999997615814]",False,./assets/img/ocean/memory/9.jpg,ocean,30.0,False,True,Control,2.0,"{""ArrowUp,ArrowLeft"":23,""ArrowUp,ArrowRight"":10,""ArrowDown,ArrowLeft"":8,""ArrowDown,ArrowRight"":30}",22,,20.35,8,rest,ArrowDown,ArrowRight,True,True,Adults,20
107,339,7787,value training,"[450.10000002384186,311]",False,./assets/img/ocean/memory/5.jpg,ocean,30.0,False,True,Control,2.0,"{""ArrowUp,ArrowLeft"":23,""ArrowUp,ArrowRight"":10,""ArrowDown,ArrowLeft"":8,""ArrowDown,ArrowRight"":30}",23,,20.35,8,rest,ArrowDown,ArrowRight,True,True,Adults,20
108,341,7787,value training,"[395.7999999523163,445.10000002384186]",False,./assets/img/ocean/memory/16.jpg,ocean,30.0,False,True,Control,2.0,"{""ArrowUp,ArrowLeft"":23,""ArrowUp,ArrowRight"":10,""ArrowDown,ArrowLeft"":8,""ArrowDown,ArrowRight"":30}",24,,20.35,8,rest,ArrowDown,ArrowRight,True,True,Adults,20
109,343,7787,value training,"[429.6999999284744,348.5]",False,./assets/img/ocean/memory/6.jpg,ocean,30.0,False,True,Control,2.0,"{""ArrowUp,ArrowLeft"":23,""ArrowUp,ArrowRight"":10,""ArrowDown,ArrowLeft"":8,""ArrowDown,ArrowRight"":30}",25,,20.35,8,rest,ArrowDown,ArrowRight,True,True,Adults,20
110,345,7787,value training,"[427.7999999523163,315.10000002384186]",False,./assets/img/ocean/memory/18.jpg,ocean,30.0,False,True,Control,2.0,"{""ArrowUp,ArrowLeft"":23,""ArrowUp,ArrowRight"":10,""ArrowDown,ArrowLeft"":8,""ArrowDown,ArrowRight"":30}",26,,20.35,8,rest,ArrowDown,ArrowRight,True,True,Adults,25
111,347,7787,value training,"[470,313.5]",False,./assets/img/ocean/memory/26.jpg,ocean,30.0,False,True,Control,2.0,"{""ArrowUp,ArrowLeft"":23,""ArrowUp,ArrowRight"":10,""ArrowDown,ArrowLeft"":8,""ArrowDown,ArrowRight"":30}",27,,20.35,8,rest,ArrowDown,ArrowRight,True,True,Adults,25
112,349,7787,value training,"[432.5,387.7999999523163]",False,./assets/img/ocean/memory/18.jpg,ocean,30.0,False,True,Control,2.0,"{""ArrowUp,ArrowLeft"":23,""ArrowUp,ArrowRight"":10,""ArrowDown,ArrowLeft"":8,""ArrowDown,ArrowRight"":30}",28,,20.35,8,rest,ArrowDown,ArrowRight,True,True,Adults,25
113,351,7787,value training,"[469.5,296.90000009536743]",False,./assets/img/ocean/memory/36.jpg,ocean,30.0,False,True,Control,2.0,"{""ArrowUp,ArrowLeft"":23,""ArrowUp,ArrowRight"":10,""ArrowDown,ArrowLeft"":8,""ArrowDown,ArrowRight"":30}",29,,20.35,8,rest,ArrowDown,ArrowRight,True,True,Adults,25
114,353,7787,value training,"[542.6000000238419,359.39999997615814]",False,./assets/img/ocean/memory/21.jpg,ocean,30.0,False,True,Control,2.0,"{""ArrowUp,ArrowLeft"":23,""ArrowUp,ArrowRight"":10,""ArrowDown,ArrowLeft"":8,""ArrowDown,ArrowRight"":30}",30,,20.35,8,rest,ArrowDown,ArrowRight,True,True,Adults,25
115,355,7787,value training,"[688.4000000953674,323.6999999284744]",False,./assets/img/ocean/memory/14.jpg,ocean,30.0,False,True,Control,2.0,"{""ArrowUp,ArrowLeft"":23,""ArrowUp,ArrowRight"":10,""ArrowDown,ArrowLeft"":8,""ArrowDown,ArrowRight"":30}",31,,20.35,8,rest,ArrowDown,ArrowRight,True,True,Adults,30
116,357,7787,value training,"[472.5,324.3000000715256]",False,./assets/img/ocean/memory/4.jpg,ocean,30.0,False,True,Control,2.0,"{""ArrowUp,ArrowLeft"":23,""ArrowUp,ArrowRight"":10,""ArrowDown,ArrowLeft"":8,""ArrowDown,ArrowRight"":30}",32,,20.35,8,rest,ArrowDown,ArrowRight,True,True,Adults,30
117,359,7787,value training,"[478.10000002384186,368.8000000715256]",False,./assets/img/ocean/memory/1.jpg,ocean,30.0,False,True,Control,2.0,"{""ArrowUp,ArrowLeft"":23,""ArrowUp,ArrowRight"":10,""ArrowDown,ArrowLeft"":8,""ArrowDown,ArrowRight"":30}",33,,20.35,8,rest,ArrowDown,ArrowRight,True,True,Adults,30
118,361,7787,value training,"[468.40000009536743,361.3000000715256]",False,./assets/img/ocean/memory/16.jpg,ocean,30.0,False,True,Control,2.0,"{""ArrowUp,ArrowLeft"":23,""ArrowUp,ArrowRight"":10,""ArrowDown,ArrowLeft"":8,""ArrowDown,ArrowRight"":30}",34,,20.35,8,rest,ArrowDown,ArrowRight,True,True,Adults,30
119,363,7787,value training,"[423.5,538.7000000476837]",False,./assets/img/ocean/memory/34.jpg,ocean,30.0,False,True,Control,2.0,"{""ArrowUp,ArrowLeft"":23,""ArrowUp,ArrowRight"":10,""ArrowDown,ArrowLeft"":8,""ArrowDown,ArrowRight"":30}",35,,20.35,8,rest,ArrowDown,ArrowRight,True,True,Adults,30
120,365,7787,value training,"[477.10000002384186,305.60000002384186]",False,./assets/img/ocean/memory/22.jpg,ocean,30.0,False,True,Control,2.0,"{""ArrowUp,ArrowLeft"":23,""ArrowUp,ArrowRight"":10,""ArrowDown,ArrowLeft"":8,""ArrowDown,ArrowRight"":30}",36,,20.35,8,rest,ArrowDown,ArrowRight,True,True,Adults,35
121,367,7787,value training,"[588.2000000476837,375]",False,./assets/img/ocean/memory/30.jpg,ocean,30.0,False,True,Control,2.0,"{""ArrowUp,ArrowLeft"":23,""ArrowUp,ArrowRight"":10,""ArrowDown,ArrowLeft"":8,""ArrowDown,ArrowRight"":30}",37,,20.35,8,rest,ArrowDown,ArrowRight,True,True,Adults,35
125,375,7787,value training,"[565.8999999761581,339]",False,./assets/img/ocean/memory/4.jpg,ocean,30.0,False,True,Control,2.0,"{""ArrowUp,ArrowLeft"":23,""ArrowUp,ArrowRight"":10,""ArrowDown,ArrowLeft"":8,""ArrowDown,ArrowRight"":30}",38,,20.35,8,rest,ArrowDown,ArrowRight,True,True,Adults,35
126,377,7787,value training,"[448.7999999523163,433]",False,./assets/img/ocean/memory/28.jpg,ocean,30.0,False,True,Control,2.0,"{""ArrowUp,ArrowLeft"":23,""ArrowUp,ArrowRight"":10,""ArrowDown,ArrowLeft"":8,""ArrowDown,ArrowRight"":30}",39,,20.35,8,rest,ArrowDown,ArrowRight,True,True,Adults,35
127,379,7787,value training,"[433.2000000476837,317.90000009536743]",False,./assets/img/ocean/memory/30.jpg,ocean,30.0,False,True,Control,2.0,"{""ArrowUp,ArrowLeft"":23,""ArrowUp,ArrowRight"":10,""ArrowDown,ArrowLeft"":8,""ArrowDown,ArrowRight"":30}",40,,20.35,8,rest,ArrowDown,ArrowRight,True,True,Adults,35
128,381,7787,value training,"[441.1999999284744,273.10000002384186]",False,./assets/img/ocean/memory/8.jpg,ocean,30.0,False,True,Control,2.0,"{""ArrowUp,ArrowLeft"":23,""ArrowUp,ArrowRight"":10,""ArrowDown,ArrowLeft"":8,""ArrowDown,ArrowRight"":30}",41,,20.35,8,rest,ArrowDown,ArrowRight,True,True,Adults,40
129,383,7787,value training,"[472.3000000715256,289.60000002384186]",False,./assets/img/ocean/memory/8.jpg,ocean,30.0,False,True,Control,2.0,"{""ArrowUp,ArrowLeft"":23,""ArrowUp,ArrowRight"":10,""ArrowDown,ArrowLeft"":8,""ArrowDown,ArrowRight"":30}",42,,20.35,8,rest,ArrowDown,ArrowRight,True,True,Adults,40
248,116,7480,value training,"[971.5,658.1000000238419]",False,./assets/img/ocean/memory/5.jpg,ocean,26.0,False,True,Revaluation,1.0,"{""ArrowUp,ArrowLeft"":26,""ArrowUp,ArrowRight"":10,""ArrowDown,ArrowLeft"":5,""ArrowDown,ArrowRight"":17}",1,,21.43,4,rest,ArrowUp,ArrowLeft,True,True,Adults,0
249,118,7480,value training,"[895.8000000119209,631.1000000238419]",False,./assets/img/ocean/memory/17.jpg,ocean,10.0,False,False,Revaluation,1.0,"{""ArrowUp,ArrowLeft"":26,""ArrowUp,ArrowRight"":10,""ArrowDown,ArrowLeft"":5,""ArrowDown,ArrowRight"":17}",2,,21.43,4,rest,ArrowUp,ArrowRight,True,True,Adults,0
250,120,7480,value training,"[762.1999999880791,763.6000000238419]",False,./assets/img/ocean/memory/36.jpg,ocean,5.0,False,False,Revaluation,1.0,"{""ArrowUp,ArrowLeft"":26,""ArrowUp,ArrowRight"":10,""ArrowDown,ArrowLeft"":5,""ArrowDown,ArrowRight"":17}",3,,21.43,4,rest,ArrowDown,ArrowLeft,False,False,Adults,0
251,122,7480,value training,"[872.0999999642372,472.39999997615814]",False,./assets/img/ocean/memory/27.jpg,ocean,17.0,False,False,Revaluation,1.0,"{""ArrowUp,ArrowLeft"":26,""ArrowUp,ArrowRight"":10,""ArrowDown,ArrowLeft"":5,""ArrowDown,ArrowRight"":17}",4,,21.43,4,rest,ArrowDown,ArrowRight,False,False,Adults,0
252,124,7480,value training,"[1421.6000000238419,589.8999999761581]",False,./assets/img/ocean/memory/36.jpg,ocean,26.0,False,True,Revaluation,1.0,"{""ArrowUp,ArrowLeft"":26,""ArrowUp,ArrowRight"":10,""ArrowDown,ArrowLeft"":5,""ArrowDown,ArrowRight"":17}",5,,21.43,4,rest,ArrowUp,ArrowLeft,True,True,Adults,0
253,126,7480,value training,"[816.8000000119209,451.5]",False,./assets/img/ocean/memory/34.jpg,ocean,26.0,False,True,Revaluation,1.0,"{""ArrowUp,ArrowLeft"":26,""ArrowUp,ArrowRight"":10,""ArrowDown,ArrowLeft"":5,""ArrowDown,ArrowRight"":17}",6,,21.43,4,rest,ArrowUp,ArrowLeft,True,True,Adults,5
255,130,7480,value training,"[1136,630.6999999880791]",False,./assets/img/ocean/memory/21.jpg,ocean,26.0,False,True,Revaluation,1.0,"{""ArrowUp,ArrowLeft"":26,""ArrowUp,ArrowRight"":10,""ArrowDown,ArrowLeft"":5,""ArrowDown,ArrowRight"":17}",7,,21.43,4,rest,ArrowUp,ArrowLeft,True,True,Adults,5
256,132,7480,value training,"[823.1999999880791,597.1999999880791]",False,./assets/img/ocean/memory/7.jpg,ocean,26.0,False,True,Revaluation,1.0,"{""ArrowUp,ArrowLeft"":26,""ArrowUp,ArrowRight"":10,""ArrowDown,ArrowLeft"":5,""ArrowDown,ArrowRight"":17}",8,,21.43,4,rest,ArrowUp,ArrowLeft,True,True,Adults,5
257,134,7480,value training,"[1100.5,423.60000002384186]",False,./assets/img/ocean/memory/29.jpg,ocean,26.0,False,True,Revaluation,1.0,"{""ArrowUp,ArrowLeft"":26,""ArrowUp,ArrowRight"":10,""ArrowDown,ArrowLeft"":5,""ArrowDown,ArrowRight"":17}",9,,21.43,4,rest,ArrowUp,ArrowLeft,True,True,Adults,5
258,136,7480,value training,"[1215,423.5]",False,./assets/img/ocean/memory/10.jpg,ocean,26.0,False,True,Revaluation,1.0,"{""ArrowUp,ArrowLeft"":26,""ArrowUp,ArrowRight"":10,""ArrowDown,ArrowLeft"":5,""ArrowDown,ArrowRight"":17}",10,,21.43,4,rest,ArrowUp,ArrowLeft,True,True,Adults,5
259,138,7480,value training,"[902.6999999880791,501.0999999642372]",False,./assets/img/ocean/memory/38.jpg,ocean,26.0,False,True,Revaluation,1.0,"{""ArrowUp,ArrowLeft"":26,""ArrowUp,ArrowRight"":10,""ArrowDown,ArrowLeft"":5,""ArrowDown,ArrowRight"":17}",11,,21.43,4,rest,ArrowUp,ArrowLeft,True,True,Adults,10
260,140,7480,value training,"[1123.800000011921,507.39999997615814]",False,./assets/img/ocean/memory/16.jpg,ocean,26.0,False,True,Revaluation,1.0,"{""ArrowUp,ArrowLeft"":26,""ArrowUp,ArrowRight"":10,""ArrowDown,ArrowLeft"":5,""ArrowDown,ArrowRight"":17}",12,,21.43,4,rest,ArrowUp,ArrowLeft,True,True,Adults,10
261,142,7480,value training,"[1168.3999999761581,455.5]",False,./assets/img/ocean/memory/34.jpg,ocean,26.0,False,True,Revaluation,1.0,"{""ArrowUp,ArrowLeft"":26,""ArrowUp,ArrowRight"":10,""ArrowDown,ArrowLeft"":5,""ArrowDown,ArrowRight"":17}",13,,21.43,4,rest,ArrowUp,ArrowLeft,True,True,Adults,10
262,144,7480,value training,"[1082.3999999761581,435.10000002384186]",False,./assets/img/ocean/memory/17.jpg,ocean,26.0,False,True,Revaluation,1.0,"{""ArrowUp,ArrowLeft"":26,""ArrowUp,ArrowRight"":10,""ArrowDown,ArrowLeft"":5,""ArrowDown,ArrowRight"":17}",14,,21.43,4,rest,ArrowUp,ArrowLeft,True,True,Adults,10
264,148,7480,value training,"[1256.199999988079,587.5]",False,./assets/img/ocean/memory/10.jpg,ocean,26.0,False,True,Revaluation,1.0,"{""ArrowUp,ArrowLeft"":26,""ArrowUp,ArrowRight"":10,""ArrowDown,ArrowLeft"":5,""ArrowDown,ArrowRight"":17}",15,,21.43,4,rest,ArrowUp,ArrowLeft,True,True,Adults,10
266,152,7480,value training,"[1152.7999999523163,482.80000001192093]",False,./assets/img/ocean/memory/11.jpg,ocean,26.0,False,True,Revaluation,1.0,"{""ArrowUp,ArrowLeft"":26,""ArrowUp,ArrowRight"":10,""ArrowDown,ArrowLeft"":5,""ArrowDown,ArrowRight"":17}",16,,21.43,4,rest,ArrowUp,ArrowLeft,True,True,Adults,15
267,154,7480,value training,"[866,511.60000002384186]",False,./assets/img/ocean/memory/5.jpg,ocean,26.0,False,True,Revaluation,1.0,"{""ArrowUp,ArrowLeft"":26,""ArrowUp,ArrowRight"":10,""ArrowDown,ArrowLeft"":5,""ArrowDown,ArrowRight"":17}",17,,21.43,4,rest,ArrowUp,ArrowLeft,True,True,Adults,15
269,158,7480,value training,"[1129.1000000238419,878.5]",False,./assets/img/ocean/memory/38.jpg,ocean,26.0,False,True,Revaluation,1.0,"{""ArrowUp,ArrowLeft"":26,""ArrowUp,ArrowRight"":10,""ArrowDown,ArrowLeft"":5,""ArrowDown,ArrowRight"":17}",18,,21.43,4,rest,ArrowUp,ArrowLeft,True,True,Adults,15
270,160,7480,value training,"[1227.9000000357628,588.3000000119209]",False,./assets/img/ocean/memory/35.jpg,ocean,26.0,False,True,Revaluation,1.0,"{""ArrowUp,ArrowLeft"":26,""ArrowUp,ArrowRight"":10,""ArrowDown,ArrowLeft"":5,""ArrowDown,ArrowRight"":17}",19,,21.43,4,rest,ArrowUp,ArrowLeft,True,True,Adults,15
271,162,7480,value training,"[1459.5,621]",False,./assets/img/ocean/memory/20.jpg,ocean,26.0,False,True,Revaluation,1.0,"{""ArrowUp,ArrowLeft"":26,""ArrowUp,ArrowRight"":10,""ArrowDown,ArrowLeft"":5,""ArrowDown,ArrowRight"":17}",20,,21.43,4,rest,ArrowUp,ArrowLeft,True,True,Adults,15
272,164,7480,value training,"[1398.800000011921,693.5]",False,./assets/img/ocean/memory/37.jpg,ocean,26.0,False,True,Revaluation,1.0,"{""ArrowUp,ArrowLeft"":26,""ArrowUp,ArrowRight"":10,""ArrowDown,ArrowLeft"":5,""ArrowDown,ArrowRight"":17}",21,,21.43,4,rest,ArrowUp,ArrowLeft,True,True,Adults,20
274,168,7480,value training,"[1446.3999999761581,665.3999999761581]",False,./assets/img/ocean/memory/26.jpg,ocean,26.0,False,True,Revaluation,1.0,"{""ArrowUp,ArrowLeft"":26,""ArrowUp,ArrowRight"":10,""ArrowDown,ArrowLeft"":5,""ArrowDown,ArrowRight"":17}",22,,21.43,4,rest,ArrowUp,ArrowLeft,True,True,Adults,20
275,170,7480,value training,"[1323.5,524.8000000119209]",False,./assets/img/ocean/memory/0.jpg,ocean,26.0,False,True,Revaluation,1.0,"{""ArrowUp,ArrowLeft"":26,""ArrowUp,ArrowRight"":10,""ArrowDown,ArrowLeft"":5,""ArrowDown,ArrowRight"":17}",23,,21.43,4,rest,ArrowUp,ArrowLeft,True,True,Adults,20
277,174,7480,value training,"[1394,541.8000000119209]",False,./assets/img/ocean/memory/20.jpg,ocean,26.0,False,True,Revaluation,1.0,"{""ArrowUp,ArrowLeft"":26,""ArrowUp,ArrowRight"":10,""ArrowDown,ArrowLeft"":5,""ArrowDown,ArrowRight"":17}",24,,21.43,4,rest,ArrowUp,ArrowLeft,True,True,Adults,20
278,176,7480,value training,"[1175.0999999642372,459]",False,./assets/img/ocean/memory/16.jpg,ocean,26.0,False,True,Revaluation,1.0,"{""ArrowUp,ArrowLeft"":26,""ArrowUp,ArrowRight"":10,""ArrowDown,ArrowLeft"":5,""ArrowDown,ArrowRight"":17}",25,,21.43,4,rest,ArrowUp,ArrowLeft,True,True,Adults,20
280,180,7480,value training,"[1044.1000000238419,621]",False,./assets/img/ocean/memory/19.jpg,ocean,26.0,False,True,Revaluation,1.0,"{""ArrowUp,ArrowLeft"":26,""ArrowUp,ArrowRight"":10,""ArrowDown,ArrowLeft"":5,""ArrowDown,ArrowRight"":17}",26,,21.43,4,rest,ArrowUp,ArrowLeft,True,True,Adults,25
281,182,7480,value training,"[1142.6000000238419,560.8999999761581]",False,./assets/img/ocean/memory/37.jpg,ocean,26.0,False,True,Revaluation,1.0,"{""ArrowUp,ArrowLeft"":26,""ArrowUp,ArrowRight"":10,""ArrowDown,ArrowLeft"":5,""ArrowDown,ArrowRight"":17}",27,,21.43,4,rest,ArrowUp,ArrowLeft,True,True,Adults,25
282,184,7480,value training,"[734,542.3999999761581]",False,./assets/img/ocean/memory/6.jpg,ocean,26.0,False,True,Revaluation,1.0,"{""ArrowUp,ArrowLeft"":26,""ArrowUp,ArrowRight"":10,""ArrowDown,ArrowLeft"":5,""ArrowDown,ArrowRight"":17}",28,,21.43,4,rest,ArrowUp,ArrowLeft,True,True,Adults,25
283,186,7480,value training,"[1088.6000000238419,1056.1000000238419]",False,./assets/img/ocean/memory/27.jpg,ocean,26.0,False,True,Revaluation,1.0,"{""ArrowUp,ArrowLeft"":26,""ArrowUp,ArrowRight"":10,""ArrowDown,ArrowLeft"":5,""ArrowDown,ArrowRight"":17}",29,,21.43,4,rest,ArrowUp,ArrowLeft,True,True,Adults,25
285,190,7480,value training,"[1145.3999999761581,661.8000000119209]",False,./assets/img/ocean/memory/6.jpg,ocean,26.0,False,True,Revaluation,1.0,"{""ArrowUp,ArrowLeft"":26,""ArrowUp,ArrowRight"":10,""ArrowDown,ArrowLeft"":5,""ArrowDown,ArrowRight"":17}",30,,21.43,4,rest,ArrowUp,ArrowLeft,True,True,Adults,25
286,192,7480,value training,"[1076,384.89999997615814]",False,./assets/img/ocean/memory/39.jpg,ocean,26.0,False,True,Revaluation,1.0,"{""ArrowUp,ArrowLeft"":26,""ArrowUp,ArrowRight"":10,""ArrowDown,ArrowLeft"":5,""ArrowDown,ArrowRight"":17}",31,,21.43,4,rest,ArrowUp,ArrowLeft,True,True,Adults,30
287,194,7480,value training,"[939.3000000119209,379.39999997615814]",False,./assets/img/ocean/memory/35.jpg,ocean,26.0,False,True,Revaluation,1.0,"{""ArrowUp,ArrowLeft"":26,""ArrowUp,ArrowRight"":10,""ArrowDown,ArrowLeft"":5,""ArrowDown,ArrowRight"":17}",32,,21.43,4,rest,ArrowUp,ArrowLeft,True,True,Adults,30
288,196,7480,value training,"[930.9000000357628,373.5]",False,./assets/img/ocean/memory/1.jpg,ocean,26.0,False,True,Revaluation,1.0,"{""ArrowUp,ArrowLeft"":26,""ArrowUp,ArrowRight"":10,""ArrowDown,ArrowLeft"":5,""ArrowDown,ArrowRight"":17}",33,,21.43,4,rest,ArrowUp,ArrowLeft,True,True,Adults,30
289,198,7480,value training,"[1192.6000000238419,460.5]",False,./assets/img/ocean/memory/39.jpg,ocean,26.0,False,True,Revaluation,1.0,"{""ArrowUp,ArrowLeft"":26,""ArrowUp,ArrowRight"":10,""ArrowDown,ArrowLeft"":5,""ArrowDown,ArrowRight"":17}",34,,21.43,4,rest,ArrowUp,ArrowLeft,True,True,Adults,30
290,200,7480,value training,"[1291.6000000238419,362]",False,./assets/img/ocean/memory/26.jpg,ocean,26.0,False,True,Revaluation,1.0,"{""ArrowUp,ArrowLeft"":26,""ArrowUp,ArrowRight"":10,""ArrowDown,ArrowLeft"":5,""ArrowDown,ArrowRight"":17}",35,,21.43,4,rest,ArrowUp,ArrowLeft,True,True,Adults,30
291,202,7480,value training,"[1051.1000000238419,437.69999998807907]",False,./assets/img/ocean/memory/29.jpg,ocean,26.0,False,True,Revaluation,1.0,"{""ArrowUp,ArrowLeft"":26,""ArrowUp,ArrowRight"":10,""ArrowDown,ArrowLeft"":5,""ArrowDown,ArrowRight"":17}",36,,21.43,4,rest,ArrowUp,ArrowLeft,True,True,Adults,35
292,204,7480,value training,"[993.8000000119209,349.5]",False,./assets/img/ocean/memory/0.jpg,ocean,26.0,False,True,Revaluation,1.0,"{""ArrowUp,ArrowLeft"":26,""ArrowUp,ArrowRight"":10,""ArrowDown,ArrowLeft"":5,""ArrowDown,ArrowRight"":17}",37,,21.43,4,rest,ArrowUp,ArrowLeft,True,True,Adults,35
293,206,7480,value training,"[1062.800000011921,371]",False,./assets/img/ocean/memory/21.jpg,ocean,26.0,False,True,Revaluation,1.0,"{""ArrowUp,ArrowLeft"":26,""ArrowUp,ArrowRight"":10,""ArrowDown,ArrowLeft"":5,""ArrowDown,ArrowRight"":17}",38,,21.43,4,rest,ArrowUp,ArrowLeft,True,True,Adults,35
294,208,7480,value training,"[792.2000000476837,407.9000000357628]",False,./assets/img/ocean/memory/19.jpg,ocean,26.0,False,True,Revaluation,1.0,"{""ArrowUp,ArrowLeft"":26,""ArrowUp,ArrowRight"":10,""ArrowDown,ArrowLeft"":5,""ArrowDown,ArrowRight"":17}",39,,21.43,4,rest,ArrowUp,ArrowLeft,True,True,Adults,35
295,210,7480,value training,"[683.6999999880791,422.30000001192093]",False,./assets/img/ocean/memory/1.jpg,ocean,26.0,False,True,Revaluation,1.0,"{""ArrowUp,ArrowLeft"":26,""ArrowUp,ArrowRight"":10,""ArrowDown,ArrowLeft"":5,""ArrowDown,ArrowRight"":17}",40,,21.43,4,rest,ArrowUp,ArrowLeft,True,True,Adults,35
296,212,7480,value training,"[772,514.8999999761581]",False,./assets/img/ocean/memory/11.jpg,ocean,26.0,False,True,Revaluation,1.0,"{""ArrowUp,ArrowLeft"":26,""ArrowUp,ArrowRight"":10,""ArrowDown,ArrowLeft"":5,""ArrowDown,ArrowRight"":17}",41,,21.43,4,rest,ArrowUp,ArrowLeft,True,True,Adults,40
297,214,7480,value training,"[1218.1000000238419,448.10000002384186]",False,./assets/img/ocean/memory/7.jpg,ocean,26.0,False,True,Revaluation,1.0,"{""ArrowUp,ArrowLeft"":26,""ArrowUp,ArrowRight"":10,""ArrowDown,ArrowLeft"":5,""ArrowDown,ArrowRight"":17}",42,,21.43,4,rest,ArrowUp,ArrowLeft,True,True,Adults,40
328,285,7480,value training,"[1859.800000011921,752.3000000119209]",False,./assets/img/canyon/memory/29.jpg,canyon,23.0,False,False,Control,2.0,"{""ArrowUp,ArrowLeft"":23,""ArrowUp,ArrowRight"":10,""ArrowDown,ArrowLeft"":8,""ArrowDown,ArrowRight"":30}",1,,21.43,4,rest,ArrowUp,ArrowLeft,False,False,Adults,0
329,287,7480,value training,"[508.39999997615814,381.9000000357628]",False,./assets/img/canyon/memory/11.jpg,canyon,10.0,False,False,Control,2.0,"{""ArrowUp,ArrowLeft"":23,""ArrowUp,ArrowRight"":10,""ArrowDown,ArrowLeft"":8,""ArrowDown,ArrowRight"":30}",2,,21.43,4,rest,ArrowUp,ArrowRight,False,False,Adults,0
330,289,7480,value training,"[487.5,559.2000000476837]",False,./assets/img/canyon/memory/20.jpg,canyon,8.0,False,False,Control,2.0,"{""ArrowUp,ArrowLeft"":23,""ArrowUp,ArrowRight"":10,""ArrowDown,ArrowLeft"":8,""ArrowDown,ArrowRight"":30}",3,,21.43,4,rest,ArrowDown,ArrowLeft,True,True,Adults,0
331,291,7480,value training,"[751.3999999761581,530.1000000238419]",False,./assets/img/canyon/memory/21.jpg,canyon,30.0,False,True,Control,2.0,"{""ArrowUp,ArrowLeft"":23,""ArrowUp,ArrowRight"":10,""ArrowDown,ArrowLeft"":8,""ArrowDown,ArrowRight"":30}",4,,21.43,4,rest,ArrowDown,ArrowRight,True,True,Adults,0
332,293,7480,value training,"[1052.4000000357628,415]",False,./assets/img/canyon/memory/36.jpg,canyon,30.0,False,True,Control,2.0,"{""ArrowUp,ArrowLeft"":23,""ArrowUp,ArrowRight"":10,""ArrowDown,ArrowLeft"":8,""ArrowDown,ArrowRight"":30}",5,,21.43,4,rest,ArrowDown,ArrowRight,True,True,Adults,0
333,295,7480,value training,"[1000.1999999880791,434.0999999642372]",False,./assets/img/canyon/memory/26.jpg,canyon,30.0,False,True,Control,2.0,"{""ArrowUp,ArrowLeft"":23,""ArrowUp,ArrowRight"":10,""ArrowDown,ArrowLeft"":8,""ArrowDown,ArrowRight"":30}",6,,21.43,4,rest,ArrowDown,ArrowRight,True,True,Adults,5
334,297,7480,value training,"[636.5,417.19999998807907]",False,./assets/img/canyon/memory/35.jpg,canyon,30.0,False,True,Control,2.0,"{""ArrowUp,ArrowLeft"":23,""ArrowUp,ArrowRight"":10,""ArrowDown,ArrowLeft"":8,""ArrowDown,ArrowRight"":30}",7,,21.43,4,rest,ArrowDown,ArrowRight,True,True,Adults,5
336,301,7480,value training,"[777.4000000357628,326.5999999642372]",False,./assets/img/canyon/memory/11.jpg,canyon,30.0,False,True,Control,2.0,"{""ArrowUp,ArrowLeft"":23,""ArrowUp,ArrowRight"":10,""ArrowDown,ArrowLeft"":8,""ArrowDown,ArrowRight"":30}",8,,21.43,4,rest,ArrowDown,ArrowRight,True,True,Adults,5
337,303,7480,value training,"[764.1000000238419,342.2999999523163]",False,./assets/img/canyon/memory/39.jpg,canyon,30.0,False,True,Control,2.0,"{""ArrowUp,ArrowLeft"":23,""ArrowUp,ArrowRight"":10,""ArrowDown,ArrowLeft"":8,""ArrowDown,ArrowRight"":30}",9,,21.43,4,rest,ArrowDown,ArrowRight,True,True,Adults,5
338,305,7480,value training,"[827.5,341.39999997615814]",False,./assets/img/canyon/memory/19.jpg,canyon,30.0,False,True,Control,2.0,"{""ArrowUp,ArrowLeft"":23,""ArrowUp,ArrowRight"":10,""ArrowDown,ArrowLeft"":8,""ArrowDown,ArrowRight"":30}",10,,21.43,4,rest,ArrowDown,ArrowRight,True,True,Adults,5
339,307,7480,value training,"[838,266]",False,./assets/img/canyon/memory/27.jpg,canyon,30.0,False,True,Control,2.0,"{""ArrowUp,ArrowLeft"":23,""ArrowUp,ArrowRight"":10,""ArrowDown,ArrowLeft"":8,""ArrowDown,ArrowRight"":30}",11,,21.43,4,rest,ArrowDown,ArrowRight,True,True,Adults,10
340,309,7480,value training,"[911.5,283]",False,./assets/img/canyon/memory/1.jpg,canyon,30.0,False,True,Control,2.0,"{""ArrowUp,ArrowLeft"":23,""ArrowUp,ArrowRight"":10,""ArrowDown,ArrowLeft"":8,""ArrowDown,ArrowRight"":30}",12,,21.43,4,rest,ArrowDown,ArrowRight,True,True,Adults,10
341,311,7480,value training,"[968.9000000357628,384.60000002384186]",False,./assets/img/canyon/memory/19.jpg,canyon,30.0,False,True,Control,2.0,"{""ArrowUp,ArrowLeft"":23,""ArrowUp,ArrowRight"":10,""ArrowDown,ArrowLeft"":8,""ArrowDown,ArrowRight"":30}",13,,21.43,4,rest,ArrowDown,ArrowRight,True,True,Adults,10
342,313,7480,value training,"[872.1000000238419,334.60000002384186]",False,./assets/img/canyon/memory/34.jpg,canyon,30.0,False,True,Control,2.0,"{""ArrowUp,ArrowLeft"":23,""ArrowUp,ArrowRight"":10,""ArrowDown,ArrowLeft"":8,""ArrowDown,ArrowRight"":30}",14,,21.43,4,rest,ArrowDown,ArrowRight,True,True,Adults,10
343,315,7480,value training,"[731.6999999880791,366.30000001192093]",False,./assets/img/canyon/memory/38.jpg,canyon,30.0,False,True,Control,2.0,"{""ArrowUp,ArrowLeft"":23,""ArrowUp,ArrowRight"":10,""ArrowDown,ArrowLeft"":8,""ArrowDown,ArrowRight"":30}",15,,21.43,4,rest,ArrowDown,ArrowRight,True,True,Adults,10
344,317,7480,value training,"[994.8999999761581,484]",False,./assets/img/canyon/memory/35.jpg,canyon,30.0,False,True,Control,2.0,"{""ArrowUp,ArrowLeft"":23,""ArrowUp,ArrowRight"":10,""ArrowDown,ArrowLeft"":8,""ArrowDown,ArrowRight"":30}",16,,21.43,4,rest,ArrowDown,ArrowRight,True,True,Adults,15
346,321,7480,value training,"[798.4000000357628,416]",False,./assets/img/canyon/memory/6.jpg,canyon,30.0,False,True,Control,2.0,"{""ArrowUp,ArrowLeft"":23,""ArrowUp,ArrowRight"":10,""ArrowDown,ArrowLeft"":8,""ArrowDown,ArrowRight"":30}",17,,21.43,4,rest,ArrowDown,ArrowRight,True,True,Adults,15
347,323,7480,value training,"[744.6999999880791,416]",False,./assets/img/canyon/memory/38.jpg,canyon,30.0,False,True,Control,2.0,"{""ArrowUp,ArrowLeft"":23,""ArrowUp,ArrowRight"":10,""ArrowDown,ArrowLeft"":8,""ArrowDown,ArrowRight"":30}",18,,21.43,4,rest,ArrowDown,ArrowRight,True,True,Adults,15
348,325,7480,value training,"[1019.8000000119209,569.6999999880791]",False,./assets/img/canyon/memory/37.jpg,canyon,30.0,False,True,Control,2.0,"{""ArrowUp,ArrowLeft"":23,""ArrowUp,ArrowRight"":10,""ArrowDown,ArrowLeft"":8,""ArrowDown,ArrowRight"":30}",19,,21.43,4,rest,ArrowDown,ArrowRight,True,True,Adults,15
349,327,7480,value training,"[1027.5,423.4000000357628]",False,./assets/img/canyon/memory/0.jpg,canyon,30.0,False,True,Control,2.0,"{""ArrowUp,ArrowLeft"":23,""ArrowUp,ArrowRight"":10,""ArrowDown,ArrowLeft"":8,""ArrowDown,ArrowRight"":30}",20,,21.43,4,rest,ArrowDown,ArrowRight,True,True,Adults,15
351,331,7480,value training,"[766.7000000476837,475.5]",False,./assets/img/canyon/memory/16.jpg,canyon,30.0,False,True,Control,2.0,"{""ArrowUp,ArrowLeft"":23,""ArrowUp,ArrowRight"":10,""ArrowDown,ArrowLeft"":8,""ArrowDown,ArrowRight"":30}",21,,21.43,4,rest,ArrowDown,ArrowRight,True,True,Adults,20
353,335,7480,value training,"[1635.8999999761581,430.60000002384186]",False,./assets/img/canyon/memory/39.jpg,canyon,30.0,False,True,Control,2.0,"{""ArrowUp,ArrowLeft"":23,""ArrowUp,ArrowRight"":10,""ArrowDown,ArrowLeft"":8,""ArrowDown,ArrowRight"":30}",22,,21.43,4,rest,ArrowDown,ArrowRight,True,True,Adults,20
354,337,7480,value training,"[948.5,1132.300000011921]",False,./assets/img/canyon/memory/17.jpg,canyon,10.0,False,False,Control,2.0,"{""ArrowUp,ArrowLeft"":23,""ArrowUp,ArrowRight"":10,""ArrowDown,ArrowLeft"":8,""ArrowDown,ArrowRight"":30}",23,,21.43,4,rest,ArrowUp,ArrowRight,False,False,Adults,20
356,341,7480,value training,"[1154.4000000357628,421.5]",False,./assets/img/canyon/memory/37.jpg,canyon,30.0,False,True,Control,2.0,"{""ArrowUp,ArrowLeft"":23,""ArrowUp,ArrowRight"":10,""ArrowDown,ArrowLeft"":8,""ArrowDown,ArrowRight"":30}",24,,21.43,4,rest,ArrowDown,ArrowRight,True,True,Adults,20
357,343,7480,value training,"[842.3000000119209,336.19999998807907]",False,./assets/img/canyon/memory/10.jpg,canyon,30.0,False,True,Control,2.0,"{""ArrowUp,ArrowLeft"":23,""ArrowUp,ArrowRight"":10,""ArrowDown,ArrowLeft"":8,""ArrowDown,ArrowRight"":30}",25,,21.43,4,rest,ArrowDown,ArrowRight,True,True,Adults,20
358,345,7480,value training,"[1358.6000000238419,386.89999997615814]",False,./assets/img/canyon/memory/5.jpg,canyon,30.0,False,True,Control,2.0,"{""ArrowUp,ArrowLeft"":23,""ArrowUp,ArrowRight"":10,""ArrowDown,ArrowLeft"":8,""ArrowDown,ArrowRight"":30}",26,,21.43,4,rest,ArrowDown,ArrowRight,True,True,Adults,25
361,351,7480,value training,"[1104.5,441.5]",False,./assets/img/canyon/memory/5.jpg,canyon,30.0,False,True,Control,2.0,"{""ArrowUp,ArrowLeft"":23,""ArrowUp,ArrowRight"":10,""ArrowDown,ArrowLeft"":8,""ArrowDown,ArrowRight"":30}",27,,21.43,4,rest,ArrowDown,ArrowRight,True,True,Adults,25
362,353,7480,value training,"[810.6999999880791,531.7000000476837]",False,./assets/img/canyon/memory/17.jpg,canyon,30.0,False,True,Control,2.0,"{""ArrowUp,ArrowLeft"":23,""ArrowUp,ArrowRight"":10,""ArrowDown,ArrowLeft"":8,""ArrowDown,ArrowRight"":30}",28,,21.43,4,rest,ArrowDown,ArrowRight,True,True,Adults,25
363,355,7480,value training,"[966.3999999761581,1206.800000011921]",False,./assets/img/canyon/memory/1.jpg,canyon,30.0,False,True,Control,2.0,"{""ArrowUp,ArrowLeft"":23,""ArrowUp,ArrowRight"":10,""ArrowDown,ArrowLeft"":8,""ArrowDown,ArrowRight"":30}",29,,21.43,4,rest,ArrowDown,ArrowRight,True,True,Adults,25
364,357,7480,value training,"[930.0999999642372,600.8999999761581]",False,./assets/img/canyon/memory/10.jpg,canyon,30.0,False,True,Control,2.0,"{""ArrowUp,ArrowLeft"":23,""ArrowUp,ArrowRight"":10,""ArrowDown,ArrowLeft"":8,""ArrowDown,ArrowRight"":30}",30,,21.43,4,rest,ArrowDown,ArrowRight,True,True,Adults,25
365,359,7480,value training,"[895.8999999761581,386.19999998807907]",False,./assets/img/canyon/memory/34.jpg,canyon,30.0,False,True,Control,2.0,"{""ArrowUp,ArrowLeft"":23,""ArrowUp,ArrowRight"":10,""ArrowDown,ArrowLeft"":8,""ArrowDown,ArrowRight"":30}",31,,21.43,4,rest,ArrowDown,ArrowRight,True,True,Adults,30
366,361,7480,value training,"[689.3000000119209,393.7000000476837]",False,./assets/img/canyon/memory/16.jpg,canyon,30.0,False,True,Control,2.0,"{""ArrowUp,ArrowLeft"":23,""ArrowUp,ArrowRight"":10,""ArrowDown,ArrowLeft"":8,""ArrowDown,ArrowRight"":30}",32,,21.43,4,rest,ArrowDown,ArrowRight,True,True,Adults,30
368,365,7480,value training,"[1016.5,410.60000002384186]",False,./assets/img/canyon/memory/0.jpg,canyon,30.0,False,True,Control,2.0,"{""ArrowUp,ArrowLeft"":23,""ArrowUp,ArrowRight"":10,""ArrowDown,ArrowLeft"":8,""ArrowDown,ArrowRight"":30}",33,,21.43,4,rest,ArrowDown,ArrowRight,True,True,Adults,30
369,367,7480,value training,"[637.3000000119209,348.60000002384186]",False,./assets/img/canyon/memory/7.jpg,canyon,30.0,False,True,Control,2.0,"{""ArrowUp,ArrowLeft"":23,""ArrowUp,ArrowRight"":10,""ArrowDown,ArrowLeft"":8,""ArrowDown,ArrowRight"":30}",34,,21.43,4,rest,ArrowDown,ArrowRight,True,True,Adults,30
370,369,7480,value training,"[778.8000000119209,484.4000000357628]",False,./assets/img/canyon/memory/6.jpg,canyon,30.0,False,True,Control,2.0,"{""ArrowUp,ArrowLeft"":23,""ArrowUp,ArrowRight"":10,""ArrowDown,ArrowLeft"":8,""ArrowDown,ArrowRight"":30}",35,,21.43,4,rest,ArrowDown,ArrowRight,True,True,Adults,30
371,371,7480,value training,"[677.5,430.9000000357628]",False,./assets/img/canyon/memory/27.jpg,canyon,30.0,False,True,Control,2.0,"{""ArrowUp,ArrowLeft"":23,""ArrowUp,ArrowRight"":10,""ArrowDown,ArrowLeft"":8,""ArrowDown,ArrowRight"":30}",36,,21.43,4,rest,ArrowDown,ArrowRight,True,True,Adults,35
372,373,7480,value training,"[814.3999999761581,428.10000002384186]",False,./assets/img/canyon/memory/36.jpg,canyon,30.0,False,True,Control,2.0,"{""ArrowUp,ArrowLeft"":23,""ArrowUp,ArrowRight"":10,""ArrowDown,ArrowLeft"":8,""ArrowDown,ArrowRight"":30}",37,,21.43,4,rest,ArrowDown,ArrowRight,True,True,Adults,35
373,375,7480,value training,"[742.6000000238419,354.0999999642372]",False,./assets/img/canyon/memory/26.jpg,canyon,30.0,False,True,Control,2.0,"{""ArrowUp,ArrowLeft"":23,""ArrowUp,ArrowRight"":10,""ArrowDown,ArrowLeft"":8,""ArrowDown,ArrowRight"":30}",38,,21.43,4,rest,ArrowDown,ArrowRight,True,True,Adults,35
374,377,7480,value training,"[1074.5,426.5]",False,./assets/img/canyon/memory/20.jpg,canyon,30.0,False,True,Control,2.0,"{""ArrowUp,ArrowLeft"":23,""ArrowUp,ArrowRight"":10,""ArrowDown,ArrowLeft"":8,""ArrowDown,ArrowRight"":30}",39,,21.43,4,rest,ArrowDown,ArrowRight,True,True,Adults,35
375,379,7480,value training,"[671.8000000119209,428.39999997615814]",False,./assets/img/canyon/memory/21.jpg,canyon,30.0,False,True,Control,2.0,"{""ArrowUp,ArrowLeft"":23,""ArrowUp,ArrowRight"":10,""ArrowDown,ArrowLeft"":8,""ArrowDown,ArrowRight"":30}",40,,21.43,4,rest,ArrowDown,ArrowRight,True,True,Adults,35
376,381,7480,value training,"[1153.5,503.19999998807907]",False,./assets/img/canyon/memory/29.jpg,canyon,30.0,False,True,Control,2.0,"{""ArrowUp,ArrowLeft"":23,""ArrowUp,ArrowRight"":10,""ArrowDown,ArrowLeft"":8,""ArrowDown,ArrowRight"":30}",41,,21.43,4,rest,ArrowDown,ArrowRight,True,True,Adults,40
377,383,7480,value training,"[940.5999999642372,427.60000002384186]",False,./assets/img/canyon/memory/7.jpg,canyon,30.0,False,True,Control,2.0,"{""ArrowUp,ArrowLeft"":23,""ArrowUp,ArrowRight"":10,""ArrowDown,ArrowLeft"":8,""ArrowDown,ArrowRight"":30}",42,,21.43,4,rest,ArrowDown,ArrowRight,True,True,Adults,40
496,116,7982,value training,"[1260.9000000059605,1020.5]",False,./assets/img/ocean/memory/26.jpg,ocean,30.0,False,True,Revaluation,1.0,"{""ArrowUp,ArrowLeft"":23,""ArrowUp,ArrowRight"":10,""ArrowDown,ArrowLeft"":8,""ArrowDown,ArrowRight"":30}",1,,17.66,2,rest,ArrowDown,ArrowRight,True,True,Adolescents,0
497,118,7982,value training,"[1077.7999999821186,1115.0999999940395]",False,./assets/img/ocean/memory/41.jpg,ocean,10.0,False,False,Revaluation,1.0,"{""ArrowUp,ArrowLeft"":23,""ArrowUp,ArrowRight"":10,""ArrowDown,ArrowLeft"":8,""ArrowDown,ArrowRight"":30}",2,,17.66,2,rest,ArrowUp,ArrowRight,False,False,Adolescents,0
499,122,7982,value training,"[1089.2000000178814,382.09999999403954]",False,./assets/img/ocean/memory/32.jpg,ocean,23.0,False,False,Revaluation,1.0,"{""ArrowUp,ArrowLeft"":23,""ArrowUp,ArrowRight"":10,""ArrowDown,ArrowLeft"":8,""ArrowDown,ArrowRight"":30}",3,,17.66,2,rest,ArrowUp,ArrowLeft,False,False,Adolescents,0
500,124,7982,value training,"[957.1000000238419,499.5]",False,./assets/img/ocean/memory/2.jpg,ocean,30.0,False,True,Revaluation,1.0,"{""ArrowUp,ArrowLeft"":23,""ArrowUp,ArrowRight"":10,""ArrowDown,ArrowLeft"":8,""ArrowDown,ArrowRight"":30}",4,,17.66,2,rest,ArrowDown,ArrowRight,True,True,Adolescents,0
501,126,7982,value training,"[752.5999999940395,394.2000000178814]",False,./assets/img/ocean/memory/36.jpg,ocean,23.0,False,False,Revaluation,1.0,"{""ArrowUp,ArrowLeft"":23,""ArrowUp,ArrowRight"":10,""ArrowDown,ArrowLeft"":8,""ArrowDown,ArrowRight"":30}",5,,17.66,2,rest,ArrowUp,ArrowLeft,False,False,Adolescents,0
502,128,7982,value training,"[839.9000000059605,499.59999999403954]",False,./assets/img/ocean/memory/12.jpg,ocean,30.0,False,True,Revaluation,1.0,"{""ArrowUp,ArrowLeft"":23,""ArrowUp,ArrowRight"":10,""ArrowDown,ArrowLeft"":8,""ArrowDown,ArrowRight"":30}",6,,17.66,2,rest,ArrowDown,ArrowRight,True,True,Adolescents,5
503,130,7982,value training,"[623.1000000238419,483.5]",False,./assets/img/ocean/memory/1.jpg,ocean,30.0,False,True,Revaluation,1.0,"{""ArrowUp,ArrowLeft"":23,""ArrowUp,ArrowRight"":10,""ArrowDown,ArrowLeft"":8,""ArrowDown,ArrowRight"":30}",7,,17.66,2,rest,ArrowDown,ArrowRight,True,True,Adolescents,5
504,132,7982,value training,"[973.5,407.59999999403954]",False,./assets/img/ocean/memory/6.jpg,ocean,30.0,False,True,Revaluation,1.0,"{""ArrowUp,ArrowLeft"":23,""ArrowUp,ArrowRight"":10,""ArrowDown,ArrowLeft"":8,""ArrowDown,ArrowRight"":30}",8,,17.66,2,rest,ArrowDown,ArrowRight,True,True,Adolescents,5
505,134,7982,value training,"[759.8999999761581,525.5]",False,./assets/img/ocean/memory/19.jpg,ocean,30.0,False,True,Revaluation,1.0,"{""ArrowUp,ArrowLeft"":23,""ArrowUp,ArrowRight"":10,""ArrowDown,ArrowLeft"":8,""ArrowDown,ArrowRight"":30}",9,,17.66,2,rest,ArrowDown,ArrowRight,True,True,Adolescents,5
508,140,7982,value training,"[899.9000000059605,1228.3999999761581]",False,./assets/img/ocean/memory/3.jpg,ocean,23.0,False,False,Revaluation,1.0,"{""ArrowUp,ArrowLeft"":23,""ArrowUp,ArrowRight"":10,""ArrowDown,ArrowLeft"":8,""ArrowDown,ArrowRight"":30}",11,,17.66,2,rest,ArrowUp,ArrowLeft,False,False,Adolescents,10
511,146,7982,value training,"[955.2999999821186,574.2999999821186]",False,./assets/img/ocean/memory/23.jpg,ocean,30.0,False,True,Revaluation,1.0,"{""ArrowUp,ArrowLeft"":23,""ArrowUp,ArrowRight"":10,""ArrowDown,ArrowLeft"":8,""ArrowDown,ArrowRight"":30}",12,,17.66,2,rest,ArrowDown,ArrowRight,True,True,Adolescents,10
512,148,7982,value training,"[1034.5999999940395,1111.2999999821186]",False,./assets/img/ocean/memory/5.jpg,ocean,30.0,False,True,Revaluation,1.0,"{""ArrowUp,ArrowLeft"":23,""ArrowUp,ArrowRight"":10,""ArrowDown,ArrowLeft"":8,""ArrowDown,ArrowRight"":30}",13,,17.66,2,rest,ArrowDown,ArrowRight,True,True,Adolescents,10
513,150,7982,value training,"[1079.4000000059605,442.5]",False,./assets/img/ocean/memory/5.jpg,ocean,30.0,False,True,Revaluation,1.0,"{""ArrowUp,ArrowLeft"":23,""ArrowUp,ArrowRight"":10,""ArrowDown,ArrowLeft"":8,""ArrowDown,ArrowRight"":30}",14,,17.66,2,rest,ArrowDown,ArrowRight,True,True,Adolescents,10
514,152,7982,value training,"[829.8000000119209,610.0999999940395]",False,./assets/img/ocean/memory/32.jpg,ocean,30.0,False,True,Revaluation,1.0,"{""ArrowUp,ArrowLeft"":23,""ArrowUp,ArrowRight"":10,""ArrowDown,ArrowLeft"":8,""ArrowDown,ArrowRight"":30}",15,,17.66,2,rest,ArrowDown,ArrowRight,True,True,Adolescents,10
515,154,7982,value training,"[1206.4000000059605,638.8000000119209]",False,./assets/img/ocean/memory/20.jpg,ocean,30.0,False,True,Revaluation,1.0,"{""ArrowUp,ArrowLeft"":23,""ArrowUp,ArrowRight"":10,""ArrowDown,ArrowLeft"":8,""ArrowDown,ArrowRight"":30}",16,,17.66,2,rest,ArrowDown,ArrowRight,True,True,Adolescents,15
516,156,7982,value training,"[544,363.59999999403954]",False,./assets/img/ocean/memory/9.jpg,ocean,30.0,False,True,Revaluation,1.0,"{""ArrowUp,ArrowLeft"":23,""ArrowUp,ArrowRight"":10,""ArrowDown,ArrowLeft"":8,""ArrowDown,ArrowRight"":30}",17,,17.66,2,rest,ArrowDown,ArrowRight,True,True,Adolescents,15
517,158,7982,value training,"[718.7999999821186,512.8999999761581]",False,./assets/img/ocean/memory/29.jpg,ocean,30.0,False,True,Revaluation,1.0,"{""ArrowUp,ArrowLeft"":23,""ArrowUp,ArrowRight"":10,""ArrowDown,ArrowLeft"":8,""ArrowDown,ArrowRight"":30}",18,,17.66,2,rest,ArrowDown,ArrowRight,True,True,Adolescents,15
518,160,7982,value training,"[511.80000001192093,163.30000001192093]",False,./assets/img/ocean/memory/2.jpg,ocean,30.0,False,True,Revaluation,1.0,"{""ArrowUp,ArrowLeft"":23,""ArrowUp,ArrowRight"":10,""ArrowDown,ArrowLeft"":8,""ArrowDown,ArrowRight"":30}",19,,17.66,2,rest,ArrowDown,ArrowRight,True,True,Adolescents,15
519,162,7982,value training,"[757.7000000178814,613]",False,./assets/img/ocean/memory/0.jpg,ocean,30.0,False,True,Revaluation,1.0,"{""ArrowUp,ArrowLeft"":23,""ArrowUp,ArrowRight"":10,""ArrowDown,ArrowLeft"":8,""ArrowDown,ArrowRight"":30}",20,,17.66,2,rest,ArrowDown,ArrowRight,True,True,Adolescents,15
520,164,7982,value training,"[1226.7000000178814,647.5]",False,./assets/img/ocean/memory/12.jpg,ocean,10.0,False,False,Revaluation,1.0,"{""ArrowUp,ArrowLeft"":23,""ArrowUp,ArrowRight"":10,""ArrowDown,ArrowLeft"":8,""ArrowDown,ArrowRight"":30}",21,,17.66,2,rest,ArrowUp,ArrowRight,False,False,Adolescents,20
521,166,7982,value training,"[1418,513.0999999940395]",False,./assets/img/ocean/memory/9.jpg,ocean,30.0,False,True,Revaluation,1.0,"{""ArrowUp,ArrowLeft"":23,""ArrowUp,ArrowRight"":10,""ArrowDown,ArrowLeft"":8,""ArrowDown,ArrowRight"":30}",22,,17.66,2,rest,ArrowDown,ArrowRight,True,True,Adolescents,20
522,168,7982,value training,"[968.8999999761581,368.80000001192093]",False,./assets/img/ocean/memory/20.jpg,ocean,8.0,False,False,Revaluation,1.0,"{""ArrowUp,ArrowLeft"":23,""ArrowUp,ArrowRight"":10,""ArrowDown,ArrowLeft"":8,""ArrowDown,ArrowRight"":30}",23,,17.66,2,rest,ArrowDown,ArrowLeft,True,True,Adolescents,20
523,170,7982,value training,"[815.8000000119209,495.7999999821186]",False,./assets/img/ocean/memory/23.jpg,ocean,30.0,False,True,Revaluation,1.0,"{""ArrowUp,ArrowLeft"":23,""ArrowUp,ArrowRight"":10,""ArrowDown,ArrowLeft"":8,""ArrowDown,ArrowRight"":30}",24,,17.66,2,rest,ArrowDown,ArrowRight,True,True,Adolescents,20
524,172,7982,value training,"[772.3000000119209,566]",False,./assets/img/ocean/memory/26.jpg,ocean,30.0,False,True,Revaluation,1.0,"{""ArrowUp,ArrowLeft"":23,""ArrowUp,ArrowRight"":10,""ArrowDown,ArrowLeft"":8,""ArrowDown,ArrowRight"":30}",25,,17.66,2,rest,ArrowDown,ArrowRight,True,True,Adolescents,20
525,174,7982,value training,"[907.3000000119209,407.30000001192093]",False,./assets/img/ocean/memory/21.jpg,ocean,30.0,False,True,Revaluation,1.0,"{""ArrowUp,ArrowLeft"":23,""ArrowUp,ArrowRight"":10,""ArrowDown,ArrowLeft"":8,""ArrowDown,ArrowRight"":30}",26,,17.66,2,rest,ArrowDown,ArrowRight,True,True,Adolescents,25
526,176,7982,value training,"[752.3000000119209,678.0999999940395]",False,./assets/img/ocean/memory/39.jpg,ocean,30.0,False,True,Revaluation,1.0,"{""ArrowUp,ArrowLeft"":23,""ArrowUp,ArrowRight"":10,""ArrowDown,ArrowLeft"":8,""ArrowDown,ArrowRight"":30}",27,,17.66,2,rest,ArrowDown,ArrowRight,True,True,Adolescents,25
527,178,7982,value training,"[703.4000000059605,509.90000000596046]",False,./assets/img/ocean/memory/27.jpg,ocean,30.0,False,True,Revaluation,1.0,"{""ArrowUp,ArrowLeft"":23,""ArrowUp,ArrowRight"":10,""ArrowDown,ArrowLeft"":8,""ArrowDown,ArrowRight"":30}",28,,17.66,2,rest,ArrowDown,ArrowRight,True,True,Adolescents,25
528,180,7982,value training,"[690.7000000178814,701.7000000178814]",False,./assets/img/ocean/memory/39.jpg,ocean,30.0,False,True,Revaluation,1.0,"{""ArrowUp,ArrowLeft"":23,""ArrowUp,ArrowRight"":10,""ArrowDown,ArrowLeft"":8,""ArrowDown,ArrowRight"":30}",29,,17.66,2,rest,ArrowDown,ArrowRight,True,True,Adolescents,25
529,182,7982,value training,"[739.6999999880791,855.6999999880791]",False,./assets/img/ocean/memory/30.jpg,ocean,30.0,False,True,Revaluation,1.0,"{""ArrowUp,ArrowLeft"":23,""ArrowUp,ArrowRight"":10,""ArrowDown,ArrowLeft"":8,""ArrowDown,ArrowRight"":30}",30,,17.66,2,rest,ArrowDown,ArrowRight,True,True,Adolescents,25
530,184,7982,value training,"[658.5999999940395,668.0999999940395]",False,./assets/img/ocean/memory/30.jpg,ocean,30.0,False,True,Revaluation,1.0,"{""ArrowUp,ArrowLeft"":23,""ArrowUp,ArrowRight"":10,""ArrowDown,ArrowLeft"":8,""ArrowDown,ArrowRight"":30}",31,,17.66,2,rest,ArrowDown,ArrowRight,True,True,Adolescents,30
531,186,7982,value training,"[1263.7999999821186,1381.7999999821186]",False,./assets/img/ocean/memory/27.jpg,ocean,30.0,False,True,Revaluation,1.0,"{""ArrowUp,ArrowLeft"":23,""ArrowUp,ArrowRight"":10,""ArrowDown,ArrowLeft"":8,""ArrowDown,ArrowRight"":30}",32,,17.66,2,rest,ArrowDown,ArrowRight,True,True,Adolescents,30
532,188,7982,value training,"[1858.5,1169.2000000178814]",False,./assets/img/ocean/memory/11.jpg,ocean,30.0,False,True,Revaluation,1.0,"{""ArrowUp,ArrowLeft"":23,""ArrowUp,ArrowRight"":10,""ArrowDown,ArrowLeft"":8,""ArrowDown,ArrowRight"":30}",33,,17.66,2,rest,ArrowDown,ArrowRight,True,True,Adolescents,30
537,198,7982,value training,"[953.5,661.6999999880791]",False,./assets/img/ocean/memory/19.jpg,ocean,30.0,False,True,Revaluation,1.0,"{""ArrowUp,ArrowLeft"":23,""ArrowUp,ArrowRight"":10,""ArrowDown,ArrowLeft"":8,""ArrowDown,ArrowRight"":30}",36,,17.66,2,rest,ArrowDown,ArrowRight,True,True,Adolescents,35
538,200,7982,value training,"[629.0999999940395,522.3000000119209]",False,./assets/img/ocean/memory/3.jpg,ocean,30.0,False,True,Revaluation,1.0,"{""ArrowUp,ArrowLeft"":23,""ArrowUp,ArrowRight"":10,""ArrowDown,ArrowLeft"":8,""ArrowDown,ArrowRight"":30}",37,,17.66,2,rest,ArrowDown,ArrowRight,True,True,Adolescents,35
539,202,7982,value training,"[705.1999999880791,581.5]",False,./assets/img/ocean/memory/11.jpg,ocean,30.0,False,True,Revaluation,1.0,"{""ArrowUp,ArrowLeft"":23,""ArrowUp,ArrowRight"":10,""ArrowDown,ArrowLeft"":8,""ArrowDown,ArrowRight"":30}",38,,17.66,2,rest,ArrowDown,ArrowRight,True,True,Adolescents,35
540,204,7982,value training,"[574.7999999821186,543.5]",False,./assets/img/ocean/memory/6.jpg,ocean,30.0,False,True,Revaluation,1.0,"{""ArrowUp,ArrowLeft"":23,""ArrowUp,ArrowRight"":10,""ArrowDown,ArrowLeft"":8,""ArrowDown,ArrowRight"":30}",39,,17.66,2,rest,ArrowDown,ArrowRight,True,True,Adolescents,35
542,208,7982,value training,"[692,441.19999998807907]",False,./assets/img/ocean/memory/41.jpg,ocean,30.0,False,True,Revaluation,1.0,"{""ArrowUp,ArrowLeft"":23,""ArrowUp,ArrowRight"":10,""ArrowDown,ArrowLeft"":8,""ArrowDown,ArrowRight"":30}",40,,17.66,2,rest,ArrowDown,ArrowRight,True,True,Adolescents,35
543,210,7982,value training,"[491,633.1999999880791]",False,./assets/img/ocean/memory/0.jpg,ocean,30.0,False,True,Revaluation,1.0,"{""ArrowUp,ArrowLeft"":23,""ArrowUp,ArrowRight"":10,""ArrowDown,ArrowLeft"":8,""ArrowDown,ArrowRight"":30}",41,,17.66,2,rest,ArrowDown,ArrowRight,True,True,Adolescents,40
545,214,7982,value training,"[1031.5999999940395,669.0999999940395]",False,./assets/img/ocean/memory/21.jpg,ocean,30.0,False,True,Revaluation,1.0,"{""ArrowUp,ArrowLeft"":23,""ArrowUp,ArrowRight"":10,""ArrowDown,ArrowLeft"":8,""ArrowDown,ArrowRight"":30}",42,,17.66,2,rest,ArrowDown,ArrowRight,True,True,Adolescents,40
579,291,7982,value training,"[1411.0999999940395,959]",False,./assets/img/canyon/memory/30.jpg,canyon,10.0,False,False,Control,2.0,"{""ArrowUp,ArrowLeft"":26,""ArrowUp,ArrowRight"":10,""ArrowDown,ArrowLeft"":5,""ArrowDown,ArrowRight"":17}",3,,17.66,2,rest,ArrowUp,ArrowRight,True,True,Adolescents,0
580,293,7982,value training,"[481.90000000596046,420.30000001192093]",False,./assets/img/canyon/memory/3.jpg,canyon,26.0,False,True,Control,2.0,"{""ArrowUp,ArrowLeft"":26,""ArrowUp,ArrowRight"":10,""ArrowDown,ArrowLeft"":5,""ArrowDown,ArrowRight"":17}",4,,17.66,2,rest,ArrowUp,ArrowLeft,True,True,Adolescents,0
581,295,7982,value training,"[445.09999999403954,910.7999999821186]",False,./assets/img/canyon/memory/23.jpg,canyon,17.0,False,False,Control,2.0,"{""ArrowUp,ArrowLeft"":26,""ArrowUp,ArrowRight"":10,""ArrowDown,ArrowLeft"":5,""ArrowDown,ArrowRight"":17}",5,,17.66,2,rest,ArrowDown,ArrowRight,False,False,Adolescents,0
582,297,7982,value training,"[775.0999999940395,402.09999999403954]",False,./assets/img/canyon/memory/1.jpg,canyon,5.0,False,False,Control,2.0,"{""ArrowUp,ArrowLeft"":26,""ArrowUp,ArrowRight"":10,""ArrowDown,ArrowLeft"":5,""ArrowDown,ArrowRight"":17}",6,,17.66,2,rest,ArrowDown,ArrowLeft,False,False,Adolescents,5
583,299,7982,value training,"[483.89999997615814,461.2999999821186]",False,./assets/img/canyon/memory/20.jpg,canyon,10.0,False,False,Control,2.0,"{""ArrowUp,ArrowLeft"":26,""ArrowUp,ArrowRight"":10,""ArrowDown,ArrowLeft"":5,""ArrowDown,ArrowRight"":17}",7,,17.66,2,rest,ArrowUp,ArrowRight,True,True,Adolescents,5
584,301,7982,value training,"[425.19999998807907,367.7999999821186]",False,./assets/img/canyon/memory/9.jpg,canyon,26.0,False,True,Control,2.0,"{""ArrowUp,ArrowLeft"":26,""ArrowUp,ArrowRight"":10,""ArrowDown,ArrowLeft"":5,""ArrowDown,ArrowRight"":17}",8,,17.66,2,rest,ArrowUp,ArrowLeft,True,True,Adolescents,5
585,303,7982,value training,"[648.5999999940395,664]",False,./assets/img/canyon/memory/21.jpg,canyon,5.0,False,False,Control,2.0,"{""ArrowUp,ArrowLeft"":26,""ArrowUp,ArrowRight"":10,""ArrowDown,ArrowLeft"":5,""ArrowDown,ArrowRight"":17}",9,,17.66,2,rest,ArrowDown,ArrowLeft,False,False,Adolescents,5
586,305,7982,value training,"[860.7999999821186,492.19999998807907]",False,./assets/img/canyon/memory/2.jpg,canyon,17.0,False,False,Control,2.0,"{""ArrowUp,ArrowLeft"":26,""ArrowUp,ArrowRight"":10,""ArrowDown,ArrowLeft"":5,""ArrowDown,ArrowRight"":17}",10,,17.66,2,rest,ArrowDown,ArrowRight,False,False,Adolescents,5
587,307,7982,value training,"[1141.199999988079,810.5]",False,./assets/img/canyon/memory/29.jpg,canyon,26.0,False,True,Control,2.0,"{""ArrowUp,ArrowLeft"":26,""ArrowUp,ArrowRight"":10,""ArrowDown,ArrowLeft"":5,""ArrowDown,ArrowRight"":17}",11,,17.66,2,rest,ArrowUp,ArrowLeft,True,True,Adolescents,10
588,309,7982,value training,"[931,539.1000000238419]",False,./assets/img/canyon/memory/11.jpg,canyon,26.0,False,True,Control,2.0,"{""ArrowUp,ArrowLeft"":26,""ArrowUp,ArrowRight"":10,""ArrowDown,ArrowLeft"":5,""ArrowDown,ArrowRight"":17}",12,,17.66,2,rest,ArrowUp,ArrowLeft,True,True,Adolescents,10
589,311,7982,value training,"[1254.2999999821186,695]",False,./assets/img/canyon/memory/11.jpg,canyon,26.0,False,True,Control,2.0,"{""ArrowUp,ArrowLeft"":26,""ArrowUp,ArrowRight"":10,""ArrowDown,ArrowLeft"":5,""ArrowDown,ArrowRight"":17}",13,,17.66,2,rest,ArrowUp,ArrowLeft,True,True,Adolescents,10
590,313,7982,value training,"[457.90000000596046,619.5]",False,./assets/img/canyon/memory/12.jpg,canyon,26.0,False,True,Control,2.0,"{""ArrowUp,ArrowLeft"":26,""ArrowUp,ArrowRight"":10,""ArrowDown,ArrowLeft"":5,""ArrowDown,ArrowRight"":17}",14,,17.66,2,rest,ArrowUp,ArrowLeft,True,True,Adolescents,10
592,317,7982,value training,"[666.8000000119209,376.5]",False,./assets/img/canyon/memory/6.jpg,canyon,26.0,False,True,Control,2.0,"{""ArrowUp,ArrowLeft"":26,""ArrowUp,ArrowRight"":10,""ArrowDown,ArrowLeft"":5,""ArrowDown,ArrowRight"":17}",15,,17.66,2,rest,ArrowUp,ArrowLeft,True,True,Adolescents,10
593,319,7982,value training,"[615.8999999761581,546.8000000119209]",False,./assets/img/canyon/memory/27.jpg,canyon,26.0,False,True,Control,2.0,"{""ArrowUp,ArrowLeft"":26,""ArrowUp,ArrowRight"":10,""ArrowDown,ArrowLeft"":5,""ArrowDown,ArrowRight"":17}",16,,17.66,2,rest,ArrowUp,ArrowLeft,True,True,Adolescents,15
594,321,7982,value training,"[910.5,1651.5999999940395]",False,./assets/img/canyon/memory/1.jpg,canyon,26.0,False,True,Control,2.0,"{""ArrowUp,ArrowLeft"":26,""ArrowUp,ArrowRight"":10,""ArrowDown,ArrowLeft"":5,""ArrowDown,ArrowRight"":17}",17,,17.66,2,rest,ArrowUp,ArrowLeft,True,True,Adolescents,15
596,325,7982,value training,"[568.0999999940395,1313.800000011921]",False,./assets/img/canyon/memory/36.jpg,canyon,26.0,False,True,Control,2.0,"{""ArrowUp,ArrowLeft"":26,""ArrowUp,ArrowRight"":10,""ArrowDown,ArrowLeft"":5,""ArrowDown,ArrowRight"":17}",19,,17.66,2,rest,ArrowUp,ArrowLeft,True,True,Adolescents,15
597,327,7982,value training,"[673.4000000059605,620.8999999761581]",False,./assets/img/canyon/memory/26.jpg,canyon,26.0,False,True,Control,2.0,"{""ArrowUp,ArrowLeft"":26,""ArrowUp,ArrowRight"":10,""ArrowDown,ArrowLeft"":5,""ArrowDown,ArrowRight"":17}",20,,17.66,2,rest,ArrowUp,ArrowLeft,True,True,Adolescents,15
598,329,7982,value training,"[595.7000000178814,541.1999999880791]",False,./assets/img/canyon/memory/5.jpg,canyon,26.0,False,True,Control,2.0,"{""ArrowUp,ArrowLeft"":26,""ArrowUp,ArrowRight"":10,""ArrowDown,ArrowLeft"":5,""ArrowDown,ArrowRight"":17}",21,,17.66,2,rest,ArrowUp,ArrowLeft,True,True,Adolescents,20
599,331,7982,value training,"[589.0999999940395,1666.6000000238419]",False,./assets/img/canyon/memory/20.jpg,canyon,26.0,False,True,Control,2.0,"{""ArrowUp,ArrowLeft"":26,""ArrowUp,ArrowRight"":10,""ArrowDown,ArrowLeft"":5,""ArrowDown,ArrowRight"":17}",22,,17.66,2,rest,ArrowUp,ArrowLeft,True,True,Adolescents,20
600,333,7982,value training,"[641.9000000059605,480.19999998807907]",False,./assets/img/canyon/memory/29.jpg,canyon,26.0,False,True,Control,2.0,"{""ArrowUp,ArrowLeft"":26,""ArrowUp,ArrowRight"":10,""ArrowDown,ArrowLeft"":5,""ArrowDown,ArrowRight"":17}",23,,17.66,2,rest,ArrowUp,ArrowLeft,True,True,Adolescents,20
601,335,7982,value training,"[655.4000000059605,436.5]",False,./assets/img/canyon/memory/2.jpg,canyon,26.0,False,True,Control,2.0,"{""ArrowUp,ArrowLeft"":26,""ArrowUp,ArrowRight"":10,""ArrowDown,ArrowLeft"":5,""ArrowDown,ArrowRight"":17}",24,,17.66,2,rest,ArrowUp,ArrowLeft,True,True,Adolescents,20
603,339,7982,value training,"[890,1370.699999988079]",False,./assets/img/canyon/memory/12.jpg,canyon,26.0,False,True,Control,2.0,"{""ArrowUp,ArrowLeft"":26,""ArrowUp,ArrowRight"":10,""ArrowDown,ArrowLeft"":5,""ArrowDown,ArrowRight"":17}",25,,17.66,2,rest,ArrowUp,ArrowLeft,True,True,Adolescents,20
605,343,7982,value training,"[620.0999999940395,531.2999999821186]",False,./assets/img/canyon/memory/26.jpg,canyon,26.0,False,True,Control,2.0,"{""ArrowUp,ArrowLeft"":26,""ArrowUp,ArrowRight"":10,""ArrowDown,ArrowLeft"":5,""ArrowDown,ArrowRight"":17}",26,,17.66,2,rest,ArrowUp,ArrowLeft,True,True,Adolescents,25
606,345,7982,value training,"[578.7000000178814,1217.5999999940395]",False,./assets/img/canyon/memory/32.jpg,canyon,26.0,False,True,Control,2.0,"{""ArrowUp,ArrowLeft"":26,""ArrowUp,ArrowRight"":10,""ArrowDown,ArrowLeft"":5,""ArrowDown,ArrowRight"":17}",27,,17.66,2,rest,ArrowUp,ArrowLeft,True,True,Adolescents,25
607,347,7982,value training,"[585.5,373.90000000596046]",False,./assets/img/canyon/memory/19.jpg,canyon,26.0,False,True,Control,2.0,"{""ArrowUp,ArrowLeft"":26,""ArrowUp,ArrowRight"":10,""ArrowDown,ArrowLeft"":5,""ArrowDown,ArrowRight"":17}",28,,17.66,2,rest,ArrowUp,ArrowLeft,True,True,Adolescents,25
608,349,7982,value training,"[729.2000000178814,627.9000000059605]",False,./assets/img/canyon/memory/32.jpg,canyon,26.0,False,True,Control,2.0,"{""ArrowUp,ArrowLeft"":26,""ArrowUp,ArrowRight"":10,""ArrowDown,ArrowLeft"":5,""ArrowDown,ArrowRight"":17}",29,,17.66,2,rest,ArrowUp,ArrowLeft,True,True,Adolescents,25
610,353,7982,value training,"[925.8000000119209,1016.8000000119209]",False,./assets/img/canyon/memory/27.jpg,canyon,26.0,False,True,Control,2.0,"{""ArrowUp,ArrowLeft"":26,""ArrowUp,ArrowRight"":10,""ArrowDown,ArrowLeft"":5,""ArrowDown,ArrowRight"":17}",30,,17.66,2,rest,ArrowUp,ArrowLeft,True,True,Adolescents,25
612,357,7982,value training,"[1133.199999988079,930.4000000059605]",False,./assets/img/canyon/memory/39.jpg,canyon,26.0,False,True,Control,2.0,"{""ArrowUp,ArrowLeft"":26,""ArrowUp,ArrowRight"":10,""ArrowDown,ArrowLeft"":5,""ArrowDown,ArrowRight"":17}",32,,17.66,2,rest,ArrowUp,ArrowLeft,True,True,Adolescents,30
613,359,7982,value training,"[672.5,702.1999999880791]",False,./assets/img/canyon/memory/23.jpg,canyon,26.0,False,True,Control,2.0,"{""ArrowUp,ArrowLeft"":26,""ArrowUp,ArrowRight"":10,""ArrowDown,ArrowLeft"":5,""ArrowDown,ArrowRight"":17}",33,,17.66,2,rest,ArrowUp,ArrowLeft,True,True,Adolescents,30
614,361,7982,value training,"[972.5,835.2000000178814]",False,./assets/img/canyon/memory/0.jpg,canyon,26.0,False,True,Control,2.0,"{""ArrowUp,ArrowLeft"":26,""ArrowUp,ArrowRight"":10,""ArrowDown,ArrowLeft"":5,""ArrowDown,ArrowRight"":17}",34,,17.66,2,rest,ArrowUp,ArrowLeft,True,True,Adolescents,30
615,363,7982,value training,"[758.8000000119209,1402.5]",False,./assets/img/canyon/memory/6.jpg,canyon,26.0,False,True,Control,2.0,"{""ArrowUp,ArrowLeft"":26,""ArrowUp,ArrowRight"":10,""ArrowDown,ArrowLeft"":5,""ArrowDown,ArrowRight"":17}",35,,17.66,2,rest,ArrowUp,ArrowLeft,True,True,Adolescents,30
616,365,7982,value training,"[477.40000000596046,560.1999999880791]",False,./assets/img/canyon/memory/41.jpg,canyon,26.0,False,True,Control,2.0,"{""ArrowUp,ArrowLeft"":26,""ArrowUp,ArrowRight"":10,""ArrowDown,ArrowLeft"":5,""ArrowDown,ArrowRight"":17}",36,,17.66,2,rest,ArrowUp,ArrowLeft,True,True,Adolescents,35
618,369,7982,value training,"[1747.199999988079,1125.9000000059605]",False,./assets/img/canyon/memory/9.jpg,canyon,26.0,False,True,Control,2.0,"{""ArrowUp,ArrowLeft"":26,""ArrowUp,ArrowRight"":10,""ArrowDown,ArrowLeft"":5,""ArrowDown,ArrowRight"":17}",37,,17.66,2,rest,ArrowUp,ArrowLeft,True,True,Adolescents,35
620,373,7982,value training,"[674,469.10000002384186]",False,./assets/img/canyon/memory/36.jpg,canyon,26.0,False,True,Control,2.0,"{""ArrowUp,ArrowLeft"":26,""ArrowUp,ArrowRight"":10,""ArrowDown,ArrowLeft"":5,""ArrowDown,ArrowRight"":17}",38,,17.66,2,rest,ArrowUp,ArrowLeft,True,True,Adolescents,35
621,375,7982,value training,"[664.1999999880791,598.5999999940395]",False,./assets/img/canyon/memory/3.jpg,canyon,26.0,False,True,Control,2.0,"{""ArrowUp,ArrowLeft"":26,""ArrowUp,ArrowRight"":10,""ArrowDown,ArrowLeft"":5,""ArrowDown,ArrowRight"":17}",39,,17.66,2,rest,ArrowUp,ArrowLeft,True,True,Adolescents,35
624,381,7982,value training,"[697.7999999821186,503.10000002384186]",False,./assets/img/canyon/memory/21.jpg,canyon,26.0,False,True,Control,2.0,"{""ArrowUp,ArrowLeft"":26,""ArrowUp,ArrowRight"":10,""ArrowDown,ArrowLeft"":5,""ArrowDown,ArrowRight"":17}",41,,17.66,2,rest,ArrowUp,ArrowLeft,True,True,Adolescents,40
625,383,7982,value training,"[1311.699999988079,753.6999999880791]",False,./assets/img/canyon/memory/41.jpg,canyon,26.0,False,True,Control,2.0,"{""ArrowUp,ArrowLeft"":26,""ArrowUp,ArrowRight"":10,""ArrowDown,ArrowLeft"":5,""ArrowDown,ArrowRight"":17}",42,,17.66,2,rest,ArrowUp,ArrowLeft,True,True,Adolescents,40
745,116,7969,value training,"[1443.5,871]",False,./assets/img/canyon/memory/23.jpg,canyon,10.0,False,False,Revaluation,1.0,"{""ArrowUp,ArrowLeft"":23,""ArrowUp,ArrowRight"":10,""ArrowDown,ArrowLeft"":8,""ArrowDown,ArrowRight"":30}",1,,14.2,6,rest,ArrowUp,ArrowRight,False,False,Adolescents,0
746,118,7969,value training,"[1000.3000000007451,999.5999999996275]",False,./assets/img/canyon/memory/27.jpg,canyon,8.0,False,False,Revaluation,1.0,"{""ArrowUp,ArrowLeft"":23,""ArrowUp,ArrowRight"":10,""ArrowDown,ArrowLeft"":8,""ArrowDown,ArrowRight"":30}",2,,14.2,6,rest,ArrowDown,ArrowLeft,True,True,Adolescents,0
747,120,7969,value training,"[873.1999999992549,1406.800000000745]",False,./assets/img/canyon/memory/32.jpg,canyon,10.0,False,False,Revaluation,1.0,"{""ArrowUp,ArrowLeft"":23,""ArrowUp,ArrowRight"":10,""ArrowDown,ArrowLeft"":8,""ArrowDown,ArrowRight"":30}",3,,14.2,6,rest,ArrowUp,ArrowRight,False,False,Adolescents,0
748,122,7969,value training,"[1119.4000000003725,1118.9000000003725]",False,./assets/img/canyon/memory/18.jpg,canyon,30.0,False,True,Revaluation,1.0,"{""ArrowUp,ArrowLeft"":23,""ArrowUp,ArrowRight"":10,""ArrowDown,ArrowLeft"":8,""ArrowDown,ArrowRight"":30}",4,,14.2,6,rest,ArrowDown,ArrowRight,True,True,Adolescents,0
749,124,7969,value training,"[771.0999999996275,850.1999999992549]",False,./assets/img/canyon/memory/1.jpg,canyon,23.0,False,False,Revaluation,1.0,"{""ArrowUp,ArrowLeft"":23,""ArrowUp,ArrowRight"":10,""ArrowDown,ArrowLeft"":8,""ArrowDown,ArrowRight"":30}",5,,14.2,6,rest,ArrowUp,ArrowLeft,False,False,Adolescents,0
750,126,7969,value training,"[858.4000000003725,661.9000000003725]",False,./assets/img/canyon/memory/23.jpg,canyon,30.0,False,True,Revaluation,1.0,"{""ArrowUp,ArrowLeft"":23,""ArrowUp,ArrowRight"":10,""ArrowDown,ArrowLeft"":8,""ArrowDown,ArrowRight"":30}",6,,14.2,6,rest,ArrowDown,ArrowRight,True,True,Adolescents,5
751,128,7969,value training,"[1002.4000000003725,932.1000000014901]",False,./assets/img/canyon/memory/12.jpg,canyon,30.0,False,True,Revaluation,1.0,"{""ArrowUp,ArrowLeft"":23,""ArrowUp,ArrowRight"":10,""ArrowDown,ArrowLeft"":8,""ArrowDown,ArrowRight"":30}",7,,14.2,6,rest,ArrowDown,ArrowRight,True,True,Adolescents,5
754,134,7969,value training,"[911.4000000003725,743.9000000003725]",False,./assets/img/canyon/memory/40.jpg,canyon,30.0,False,True,Revaluation,1.0,"{""ArrowUp,ArrowLeft"":23,""ArrowUp,ArrowRight"":10,""ArrowDown,ArrowLeft"":8,""ArrowDown,ArrowRight"":30}",8,,14.2,6,rest,ArrowDown,ArrowRight,True,True,Adolescents,5
755,136,7969,value training,"[1113.699999999255,652.1000000014901]",False,./assets/img/canyon/memory/2.jpg,canyon,30.0,False,True,Revaluation,1.0,"{""ArrowUp,ArrowLeft"":23,""ArrowUp,ArrowRight"":10,""ArrowDown,ArrowLeft"":8,""ArrowDown,ArrowRight"":30}",9,,14.2,6,rest,ArrowDown,ArrowRight,True,True,Adolescents,5
756,138,7969,value training,"[865.2000000011176,642.4000000003725]",False,./assets/img/canyon/memory/2.jpg,canyon,30.0,False,True,Revaluation,1.0,"{""ArrowUp,ArrowLeft"":23,""ArrowUp,ArrowRight"":10,""ArrowDown,ArrowLeft"":8,""ArrowDown,ArrowRight"":30}",10,,14.2,6,rest,ArrowDown,ArrowRight,True,True,Adolescents,5
757,140,7969,value training,"[726.4000000003725,1031.1000000014901]",False,./assets/img/canyon/memory/40.jpg,canyon,30.0,False,True,Revaluation,1.0,"{""ArrowUp,ArrowLeft"":23,""ArrowUp,ArrowRight"":10,""ArrowDown,ArrowLeft"":8,""ArrowDown,ArrowRight"":30}",11,,14.2,6,rest,ArrowDown,ArrowRight,True,True,Adolescents,10
759,144,7969,value training,"[908.3000000007451,494.7000000011176]",False,./assets/img/canyon/memory/19.jpg,canyon,30.0,False,True,Revaluation,1.0,"{""ArrowUp,ArrowLeft"":23,""ArrowUp,ArrowRight"":10,""ArrowDown,ArrowLeft"":8,""ArrowDown,ArrowRight"":30}",12,,14.2,6,rest,ArrowDown,ArrowRight,True,True,Adolescents,10
760,146,7969,value training,"[1152.2000000011176,793.3999999985099]",False,./assets/img/canyon/memory/27.jpg,canyon,30.0,False,True,Revaluation,1.0,"{""ArrowUp,ArrowLeft"":23,""ArrowUp,ArrowRight"":10,""ArrowDown,ArrowLeft"":8,""ArrowDown,ArrowRight"":30}",13,,14.2,6,rest,ArrowDown,ArrowRight,True,True,Adolescents,10
761,148,7969,value training,"[1009.5,559.8999999985099]",False,./assets/img/canyon/memory/8.jpg,canyon,30.0,False,True,Revaluation,1.0,"{""ArrowUp,ArrowLeft"":23,""ArrowUp,ArrowRight"":10,""ArrowDown,ArrowLeft"":8,""ArrowDown,ArrowRight"":30}",14,,14.2,6,rest,ArrowDown,ArrowRight,True,True,Adolescents,10
762,150,7969,value training,"[982.1999999992549,639.6999999992549]",False,./assets/img/canyon/memory/19.jpg,canyon,30.0,False,True,Revaluation,1.0,"{""ArrowUp,ArrowLeft"":23,""ArrowUp,ArrowRight"":10,""ArrowDown,ArrowLeft"":8,""ArrowDown,ArrowRight"":30}",15,,14.2,6,rest,ArrowDown,ArrowRight,True,True,Adolescents,10
763,152,7969,value training,"[1125.5999999996275,656.5]",False,./assets/img/canyon/memory/15.jpg,canyon,30.0,False,True,Revaluation,1.0,"{""ArrowUp,ArrowLeft"":23,""ArrowUp,ArrowRight"":10,""ArrowDown,ArrowLeft"":8,""ArrowDown,ArrowRight"":30}",16,,14.2,6,rest,ArrowDown,ArrowRight,True,True,Adolescents,15
764,154,7969,value training,"[1330.4000000003725,1059.2999999988824]",False,./assets/img/canyon/memory/6.jpg,canyon,30.0,False,True,Revaluation,1.0,"{""ArrowUp,ArrowLeft"":23,""ArrowUp,ArrowRight"":10,""ArrowDown,ArrowLeft"":8,""ArrowDown,ArrowRight"":30}",17,,14.2,6,rest,ArrowDown,ArrowRight,True,True,Adolescents,15
767,160,7969,value training,"[1342.8999999985099,1039.7999999988824]",False,./assets/img/canyon/memory/16.jpg,canyon,30.0,False,True,Revaluation,1.0,"{""ArrowUp,ArrowLeft"":23,""ArrowUp,ArrowRight"":10,""ArrowDown,ArrowLeft"":8,""ArrowDown,ArrowRight"":30}",18,,14.2,6,rest,ArrowDown,ArrowRight,True,True,Adolescents,15
768,162,7969,value training,"[1313.5,618.1000000014901]",False,./assets/img/canyon/memory/39.jpg,canyon,30.0,False,True,Revaluation,1.0,"{""ArrowUp,ArrowLeft"":23,""ArrowUp,ArrowRight"":10,""ArrowDown,ArrowLeft"":8,""ArrowDown,ArrowRight"":30}",19,,14.2,6,rest,ArrowDown,ArrowRight,True,True,Adolescents,15
769,164,7969,value training,"[966.3000000007451,570.9000000003725]",False,./assets/img/canyon/memory/39.jpg,canyon,30.0,False,True,Revaluation,1.0,"{""ArrowUp,ArrowLeft"":23,""ArrowUp,ArrowRight"":10,""ArrowDown,ArrowLeft"":8,""ArrowDown,ArrowRight"":30}",20,,14.2,6,rest,ArrowDown,ArrowRight,True,True,Adolescents,15
770,166,7969,value training,"[1354.5,838.3999999985099]",False,./assets/img/canyon/memory/11.jpg,canyon,30.0,False,True,Revaluation,1.0,"{""ArrowUp,ArrowLeft"":23,""ArrowUp,ArrowRight"":10,""ArrowDown,ArrowLeft"":8,""ArrowDown,ArrowRight"":30}",21,,14.2,6,rest,ArrowDown,ArrowRight,True,True,Adolescents,20
771,168,7969,value training,"[1224.7999999988824,736.5999999996275]",False,./assets/img/canyon/memory/17.jpg,canyon,30.0,False,True,Revaluation,1.0,"{""ArrowUp,ArrowLeft"":23,""ArrowUp,ArrowRight"":10,""ArrowDown,ArrowLeft"":8,""ArrowDown,ArrowRight"":30}",22,,14.2,6,rest,ArrowDown,ArrowRight,True,True,Adolescents,20
772,170,7969,value training,"[881.7999999988824,638.6999999992549]",False,./assets/img/canyon/memory/31.jpg,canyon,30.0,False,True,Revaluation,1.0,"{""ArrowUp,ArrowLeft"":23,""ArrowUp,ArrowRight"":10,""ArrowDown,ArrowLeft"":8,""ArrowDown,ArrowRight"":30}",23,,14.2,6,rest,ArrowDown,ArrowRight,True,True,Adolescents,20
773,172,7969,value training,"[1796.7000000011176,604.2999999988824]",False,./assets/img/canyon/memory/32.jpg,canyon,30.0,False,True,Revaluation,1.0,"{""ArrowUp,ArrowLeft"":23,""ArrowUp,ArrowRight"":10,""ArrowDown,ArrowLeft"":8,""ArrowDown,ArrowRight"":30}",24,,14.2,6,rest,ArrowDown,ArrowRight,True,True,Adolescents,20
774,174,7969,value training,"[1176.2000000011176,584.7999999988824]",False,./assets/img/canyon/memory/29.jpg,canyon,30.0,False,True,Revaluation,1.0,"{""ArrowUp,ArrowLeft"":23,""ArrowUp,ArrowRight"":10,""ArrowDown,ArrowLeft"":8,""ArrowDown,ArrowRight"":30}",25,,14.2,6,rest,ArrowDown,ArrowRight,True,True,Adolescents,20
775,176,7969,value training,"[974.6999999992549,371.69999999925494]",False,./assets/img/canyon/memory/15.jpg,canyon,30.0,False,True,Revaluation,1.0,"{""ArrowUp,ArrowLeft"":23,""ArrowUp,ArrowRight"":10,""ArrowDown,ArrowLeft"":8,""ArrowDown,ArrowRight"":30}",26,,14.2,6,rest,ArrowDown,ArrowRight,True,True,Adolescents,25
776,178,7969,value training,"[865.5999999996275,378.7999999988824]",False,./assets/img/canyon/memory/37.jpg,canyon,30.0,False,True,Revaluation,1.0,"{""ArrowUp,ArrowLeft"":23,""ArrowUp,ArrowRight"":10,""ArrowDown,ArrowLeft"":8,""ArrowDown,ArrowRight"":30}",27,,14.2,6,rest,ArrowDown,ArrowRight,True,True,Adolescents,25
777,180,7969,value training,"[878.2999999988824,379.2999999988824]",False,./assets/img/canyon/memory/37.jpg,canyon,30.0,False,True,Revaluation,1.0,"{""ArrowUp,ArrowLeft"":23,""ArrowUp,ArrowRight"":10,""ArrowDown,ArrowLeft"":8,""ArrowDown,ArrowRight"":30}",28,,14.2,6,rest,ArrowDown,ArrowRight,True,True,Adolescents,25
778,182,7969,value training,"[789.5,822]",False,./assets/img/canyon/memory/6.jpg,canyon,30.0,False,True,Revaluation,1.0,"{""ArrowUp,ArrowLeft"":23,""ArrowUp,ArrowRight"":10,""ArrowDown,ArrowLeft"":8,""ArrowDown,ArrowRight"":30}",29,,14.2,6,rest,ArrowDown,ArrowRight,True,True,Adolescents,25
780,186,7969,value training,"[1273,768.5]",False,./assets/img/canyon/memory/11.jpg,canyon,30.0,False,True,Revaluation,1.0,"{""ArrowUp,ArrowLeft"":23,""ArrowUp,ArrowRight"":10,""ArrowDown,ArrowLeft"":8,""ArrowDown,ArrowRight"":30}",30,,14.2,6,rest,ArrowDown,ArrowRight,True,True,Adolescents,25
782,190,7969,value training,"[883,623]",False,./assets/img/canyon/memory/16.jpg,canyon,30.0,False,True,Revaluation,1.0,"{""ArrowUp,ArrowLeft"":23,""ArrowUp,ArrowRight"":10,""ArrowDown,ArrowLeft"":8,""ArrowDown,ArrowRight"":30}",31,,14.2,6,rest,ArrowDown,ArrowRight,True,True,Adolescents,30
783,192,7969,value training,"[1094.0999999996275,491.2999999988824]",False,./assets/img/canyon/memory/33.jpg,canyon,30.0,False,True,Revaluation,1.0,"{""ArrowUp,ArrowLeft"":23,""ArrowUp,ArrowRight"":10,""ArrowDown,ArrowLeft"":8,""ArrowDown,ArrowRight"":30}",32,,14.2,6,rest,ArrowDown,ArrowRight,True,True,Adolescents,30
784,194,7969,value training,"[1366.2999999988824,451.59999999962747]",False,./assets/img/canyon/memory/12.jpg,canyon,30.0,False,True,Revaluation,1.0,"{""ArrowUp,ArrowLeft"":23,""ArrowUp,ArrowRight"":10,""ArrowDown,ArrowLeft"":8,""ArrowDown,ArrowRight"":30}",33,,14.2,6,rest,ArrowDown,ArrowRight,True,True,Adolescents,30
785,196,7969,value training,"[816.4000000003725,435.59999999962747]",False,./assets/img/canyon/memory/31.jpg,canyon,30.0,False,True,Revaluation,1.0,"{""ArrowUp,ArrowLeft"":23,""ArrowUp,ArrowRight"":10,""ArrowDown,ArrowLeft"":8,""ArrowDown,ArrowRight"":30}",34,,14.2,6,rest,ArrowDown,ArrowRight,True,True,Adolescents,30
786,198,7969,value training,"[859.2000000011176,368.7999999988824]",False,./assets/img/canyon/memory/33.jpg,canyon,30.0,False,True,Revaluation,1.0,"{""ArrowUp,ArrowLeft"":23,""ArrowUp,ArrowRight"":10,""ArrowDown,ArrowLeft"":8,""ArrowDown,ArrowRight"":30}",35,,14.2,6,rest,ArrowDown,ArrowRight,True,True,Adolescents,30
787,200,7969,value training,"[809.8000000007451,345.7999999988824]",False,./assets/img/canyon/memory/17.jpg,canyon,30.0,False,True,Revaluation,1.0,"{""ArrowUp,ArrowLeft"":23,""ArrowUp,ArrowRight"":10,""ArrowDown,ArrowLeft"":8,""ArrowDown,ArrowRight"":30}",36,,14.2,6,rest,ArrowDown,ArrowRight,True,True,Adolescents,35
788,202,7969,value training,"[729.7999999988824,498]",False,./assets/img/canyon/memory/34.jpg,canyon,30.0,False,True,Revaluation,1.0,"{""ArrowUp,ArrowLeft"":23,""ArrowUp,ArrowRight"":10,""ArrowDown,ArrowLeft"":8,""ArrowDown,ArrowRight"":30}",37,,14.2,6,rest,ArrowDown,ArrowRight,True,True,Adolescents,35
789,204,7969,value training,"[1023.1000000014901,427.69999999925494]",False,./assets/img/canyon/memory/18.jpg,canyon,30.0,False,True,Revaluation,1.0,"{""ArrowUp,ArrowLeft"":23,""ArrowUp,ArrowRight"":10,""ArrowDown,ArrowLeft"":8,""ArrowDown,ArrowRight"":30}",38,,14.2,6,rest,ArrowDown,ArrowRight,True,True,Adolescents,35
790,206,7969,value training,"[1049.0999999996275,523.0999999996275]",False,./assets/img/canyon/memory/29.jpg,canyon,30.0,False,True,Revaluation,1.0,"{""ArrowUp,ArrowLeft"":23,""ArrowUp,ArrowRight"":10,""ArrowDown,ArrowLeft"":8,""ArrowDown,ArrowRight"":30}",39,,14.2,6,rest,ArrowDown,ArrowRight,True,True,Adolescents,35
791,208,7969,value training,"[1239.7999999988824,561.5999999996275]",False,./assets/img/canyon/memory/8.jpg,canyon,30.0,False,True,Revaluation,1.0,"{""ArrowUp,ArrowLeft"":23,""ArrowUp,ArrowRight"":10,""ArrowDown,ArrowLeft"":8,""ArrowDown,ArrowRight"":30}",40,,14.2,6,rest,ArrowDown,ArrowRight,True,True,Adolescents,35
792,210,7969,value training,"[703.9000000003725,345]",False,./assets/img/canyon/memory/1.jpg,canyon,30.0,False,True,Revaluation,1.0,"{""ArrowUp,ArrowLeft"":23,""ArrowUp,ArrowRight"":10,""ArrowDown,ArrowLeft"":8,""ArrowDown,ArrowRight"":30}",41,,14.2,6,rest,ArrowDown,ArrowRight,True,True,Adolescents,40
793,212,7969,value training,"[868.8000000007451,474.7999999988824]",False,./assets/img/canyon/memory/34.jpg,canyon,30.0,False,True,Revaluation,1.0,"{""ArrowUp,ArrowLeft"":23,""ArrowUp,ArrowRight"":10,""ArrowDown,ArrowLeft"":8,""ArrowDown,ArrowRight"":30}",42,,14.2,6,rest,ArrowDown,ArrowRight,True,True,Adolescents,40
824,283,7969,value training,"[861.5999999996275,581.5999999996275]",False,./assets/img/ocean/memory/12.jpg,ocean,10.0,False,False,Control,2.0,"{""ArrowUp,ArrowLeft"":26,""ArrowUp,ArrowRight"":10,""ArrowDown,ArrowLeft"":5,""ArrowDown,ArrowRight"":17}",1,,14.2,6,rest,ArrowUp,ArrowRight,True,True,Adolescents,0
825,285,7969,value training,"[1136.800000000745,436.3999999985099]",False,./assets/img/ocean/memory/15.jpg,ocean,26.0,False,True,Control,2.0,"{""ArrowUp,ArrowLeft"":26,""ArrowUp,ArrowRight"":10,""ArrowDown,ArrowLeft"":5,""ArrowDown,ArrowRight"":17}",2,,14.2,6,rest,ArrowUp,ArrowLeft,True,True,Adolescents,0
826,287,7969,value training,"[774,855.0999999996275]",False,./assets/img/ocean/memory/1.jpg,ocean,5.0,False,False,Control,2.0,"{""ArrowUp,ArrowLeft"":26,""ArrowUp,ArrowRight"":10,""ArrowDown,ArrowLeft"":5,""ArrowDown,ArrowRight"":17}",3,,14.2,6,rest,ArrowDown,ArrowLeft,False,False,Adolescents,0
827,289,7969,value training,"[327,489]",False,./assets/img/ocean/memory/11.jpg,ocean,17.0,False,False,Control,2.0,"{""ArrowUp,ArrowLeft"":26,""ArrowUp,ArrowRight"":10,""ArrowDown,ArrowLeft"":5,""ArrowDown,ArrowRight"":17}",4,,14.2,6,rest,ArrowDown,ArrowRight,False,False,Adolescents,0
828,291,7969,value training,"[434.90000000037253,517.3000000007451]",False,./assets/img/ocean/memory/18.jpg,ocean,26.0,False,True,Control,2.0,"{""ArrowUp,ArrowLeft"":26,""ArrowUp,ArrowRight"":10,""ArrowDown,ArrowLeft"":5,""ArrowDown,ArrowRight"":17}",5,,14.2,6,rest,ArrowUp,ArrowLeft,True,True,Adolescents,0
829,293,7969,value training,"[873.8999999985099,871.1999999992549]",False,./assets/img/ocean/memory/11.jpg,ocean,26.0,False,True,Control,2.0,"{""ArrowUp,ArrowLeft"":26,""ArrowUp,ArrowRight"":10,""ArrowDown,ArrowLeft"":5,""ArrowDown,ArrowRight"":17}",6,,14.2,6,rest,ArrowUp,ArrowLeft,True,True,Adolescents,5
830,295,7969,value training,"[1080.9000000003725,576.8999999985099]",False,./assets/img/ocean/memory/15.jpg,ocean,26.0,False,True,Control,2.0,"{""ArrowUp,ArrowLeft"":26,""ArrowUp,ArrowRight"":10,""ArrowDown,ArrowLeft"":5,""ArrowDown,ArrowRight"":17}",7,,14.2,6,rest,ArrowUp,ArrowLeft,True,True,Adolescents,5
831,297,7969,value training,"[654,527.1999999992549]",False,./assets/img/ocean/memory/8.jpg,ocean,26.0,False,True,Control,2.0,"{""ArrowUp,ArrowLeft"":26,""ArrowUp,ArrowRight"":10,""ArrowDown,ArrowLeft"":5,""ArrowDown,ArrowRight"":17}",8,,14.2,6,rest,ArrowUp,ArrowLeft,True,True,Adolescents,5
832,299,7969,value training,"[724.1999999992549,440.19999999925494]",False,./assets/img/ocean/memory/6.jpg,ocean,26.0,False,True,Control,2.0,"{""ArrowUp,ArrowLeft"":26,""ArrowUp,ArrowRight"":10,""ArrowDown,ArrowLeft"":5,""ArrowDown,ArrowRight"":17}",9,,14.2,6,rest,ArrowUp,ArrowLeft,True,True,Adolescents,5
833,301,7969,value training,"[698.4000000003725,343.40000000037253]",False,./assets/img/ocean/memory/39.jpg,ocean,26.0,False,True,Control,2.0,"{""ArrowUp,ArrowLeft"":26,""ArrowUp,ArrowRight"":10,""ArrowDown,ArrowLeft"":5,""ArrowDown,ArrowRight"":17}",10,,14.2,6,rest,ArrowUp,ArrowLeft,True,True,Adolescents,5
834,303,7969,value training,"[725.5999999996275,334.19999999925494]",False,./assets/img/ocean/memory/34.jpg,ocean,26.0,False,True,Control,2.0,"{""ArrowUp,ArrowLeft"":26,""ArrowUp,ArrowRight"":10,""ArrowDown,ArrowLeft"":5,""ArrowDown,ArrowRight"":17}",11,,14.2,6,rest,ArrowUp,ArrowLeft,True,True,Adolescents,10
835,305,7969,value training,"[911,452.19999999925494]",False,./assets/img/ocean/memory/19.jpg,ocean,26.0,False,True,Control,2.0,"{""ArrowUp,ArrowLeft"":26,""ArrowUp,ArrowRight"":10,""ArrowDown,ArrowLeft"":5,""ArrowDown,ArrowRight"":17}",12,,14.2,6,rest,ArrowUp,ArrowLeft,True,True,Adolescents,10
836,307,7969,value training,"[990.6999999992549,481]",False,./assets/img/ocean/memory/19.jpg,ocean,26.0,False,True,Control,2.0,"{""ArrowUp,ArrowLeft"":26,""ArrowUp,ArrowRight"":10,""ArrowDown,ArrowLeft"":5,""ArrowDown,ArrowRight"":17}",13,,14.2,6,rest,ArrowUp,ArrowLeft,True,True,Adolescents,10
840,315,7969,value training,"[715.9000000003725,616]",False,./assets/img/ocean/memory/31.jpg,ocean,26.0,False,True,Control,2.0,"{""ArrowUp,ArrowLeft"":26,""ArrowUp,ArrowRight"":10,""ArrowDown,ArrowLeft"":5,""ArrowDown,ArrowRight"":17}",14,,14.2,6,rest,ArrowUp,ArrowLeft,True,True,Adolescents,10
841,317,7969,value training,"[1462.2000000011176,521.3000000007451]",False,./assets/img/ocean/memory/27.jpg,ocean,26.0,False,True,Control,2.0,"{""ArrowUp,ArrowLeft"":26,""ArrowUp,ArrowRight"":10,""ArrowDown,ArrowLeft"":5,""ArrowDown,ArrowRight"":17}",15,,14.2,6,rest,ArrowUp,ArrowLeft,True,True,Adolescents,10
842,319,7969,value training,"[622.1000000014901,350.09999999962747]",False,./assets/img/ocean/memory/33.jpg,ocean,26.0,False,True,Control,2.0,"{""ArrowUp,ArrowLeft"":26,""ArrowUp,ArrowRight"":10,""ArrowDown,ArrowLeft"":5,""ArrowDown,ArrowRight"":17}",16,,14.2,6,rest,ArrowUp,ArrowLeft,True,True,Adolescents,15
843,321,7969,value training,"[1000.5,1017.4000000003725]",False,./assets/img/ocean/memory/16.jpg,ocean,5.0,False,False,Control,2.0,"{""ArrowUp,ArrowLeft"":26,""ArrowUp,ArrowRight"":10,""ArrowDown,ArrowLeft"":5,""ArrowDown,ArrowRight"":17}",17,,14.2,6,rest,ArrowDown,ArrowLeft,False,False,Adolescents,15
844,323,7969,value training,"[645.2000000011176,609.3000000007451]",False,./assets/img/ocean/memory/37.jpg,ocean,26.0,False,True,Control,2.0,"{""ArrowUp,ArrowLeft"":26,""ArrowUp,ArrowRight"":10,""ArrowDown,ArrowLeft"":5,""ArrowDown,ArrowRight"":17}",18,,14.2,6,rest,ArrowUp,ArrowLeft,True,True,Adolescents,15
845,325,7969,value training,"[652.1999999992549,485.59999999962747]",False,./assets/img/ocean/memory/17.jpg,ocean,26.0,False,True,Control,2.0,"{""ArrowUp,ArrowLeft"":26,""ArrowUp,ArrowRight"":10,""ArrowDown,ArrowLeft"":5,""ArrowDown,ArrowRight"":17}",19,,14.2,6,rest,ArrowUp,ArrowLeft,True,True,Adolescents,15
846,327,7969,value training,"[694.1000000014901,486.19999999925494]",False,./assets/img/ocean/memory/40.jpg,ocean,26.0,False,True,Control,2.0,"{""ArrowUp,ArrowLeft"":26,""ArrowUp,ArrowRight"":10,""ArrowDown,ArrowLeft"":5,""ArrowDown,ArrowRight"":17}",20,,14.2,6,rest,ArrowUp,ArrowLeft,True,True,Adolescents,15
848,331,7969,value training,"[719.8000000007451,555.0999999996275]",False,./assets/img/ocean/memory/17.jpg,ocean,26.0,False,True,Control,2.0,"{""ArrowUp,ArrowLeft"":26,""ArrowUp,ArrowRight"":10,""ArrowDown,ArrowLeft"":5,""ArrowDown,ArrowRight"":17}",21,,14.2,6,rest,ArrowUp,ArrowLeft,True,True,Adolescents,20
849,333,7969,value training,"[856.1000000014901,414.30000000074506]",False,./assets/img/ocean/memory/29.jpg,ocean,26.0,False,True,Control,2.0,"{""ArrowUp,ArrowLeft"":26,""ArrowUp,ArrowRight"":10,""ArrowDown,ArrowLeft"":5,""ArrowDown,ArrowRight"":17}",22,,14.2,6,rest,ArrowUp,ArrowLeft,True,True,Adolescents,20
850,335,7969,value training,"[783.1999999992549,648.5]",False,./assets/img/ocean/memory/6.jpg,ocean,26.0,False,True,Control,2.0,"{""ArrowUp,ArrowLeft"":26,""ArrowUp,ArrowRight"":10,""ArrowDown,ArrowLeft"":5,""ArrowDown,ArrowRight"":17}",23,,14.2,6,rest,ArrowUp,ArrowLeft,True,True,Adolescents,20
851,337,7969,value training,"[725.9000000003725,426.7999999988824]",False,./assets/img/ocean/memory/33.jpg,ocean,26.0,False,True,Control,2.0,"{""ArrowUp,ArrowLeft"":26,""ArrowUp,ArrowRight"":10,""ArrowDown,ArrowLeft"":5,""ArrowDown,ArrowRight"":17}",24,,14.2,6,rest,ArrowUp,ArrowLeft,True,True,Adolescents,20
852,339,7969,value training,"[682.0999999996275,1208.9000000003725]",False,./assets/img/ocean/memory/34.jpg,ocean,26.0,False,True,Control,2.0,"{""ArrowUp,ArrowLeft"":26,""ArrowUp,ArrowRight"":10,""ArrowDown,ArrowLeft"":5,""ArrowDown,ArrowRight"":17}",25,,14.2,6,rest,ArrowUp,ArrowLeft,True,True,Adolescents,20
853,341,7969,value training,"[732,516.5999999996275]",False,./assets/img/ocean/memory/27.jpg,ocean,26.0,False,True,Control,2.0,"{""ArrowUp,ArrowLeft"":26,""ArrowUp,ArrowRight"":10,""ArrowDown,ArrowLeft"":5,""ArrowDown,ArrowRight"":17}",26,,14.2,6,rest,ArrowUp,ArrowLeft,True,True,Adolescents,25
854,343,7969,value training,"[828.7000000011176,500.40000000037253]",False,./assets/img/ocean/memory/32.jpg,ocean,26.0,False,True,Control,2.0,"{""ArrowUp,ArrowLeft"":26,""ArrowUp,ArrowRight"":10,""ArrowDown,ArrowLeft"":5,""ArrowDown,ArrowRight"":17}",27,,14.2,6,rest,ArrowUp,ArrowLeft,True,True,Adolescents,25
855,345,7969,value training,"[955.3000000007451,448.90000000037253]",False,./assets/img/ocean/memory/1.jpg,ocean,26.0,False,True,Control,2.0,"{""ArrowUp,ArrowLeft"":26,""ArrowUp,ArrowRight"":10,""ArrowDown,ArrowLeft"":5,""ArrowDown,ArrowRight"":17}",28,,14.2,6,rest,ArrowUp,ArrowLeft,True,True,Adolescents,25
858,351,7969,value training,"[876.5,671.6999999992549]",False,./assets/img/ocean/memory/8.jpg,ocean,26.0,False,True,Control,2.0,"{""ArrowUp,ArrowLeft"":26,""ArrowUp,ArrowRight"":10,""ArrowDown,ArrowLeft"":5,""ArrowDown,ArrowRight"":17}",29,,14.2,6,rest,ArrowUp,ArrowLeft,True,True,Adolescents,25
859,353,7969,value training,"[826.8000000007451,399.09999999962747]",False,./assets/img/ocean/memory/37.jpg,ocean,26.0,False,True,Control,2.0,"{""ArrowUp,ArrowLeft"":26,""ArrowUp,ArrowRight"":10,""ArrowDown,ArrowLeft"":5,""ArrowDown,ArrowRight"":17}",30,,14.2,6,rest,ArrowUp,ArrowLeft,True,True,Adolescents,25
860,355,7969,value training,"[951.8000000007451,385.69999999925494]",False,./assets/img/ocean/memory/12.jpg,ocean,26.0,False,True,Control,2.0,"{""ArrowUp,ArrowLeft"":26,""ArrowUp,ArrowRight"":10,""ArrowDown,ArrowLeft"":5,""ArrowDown,ArrowRight"":17}",31,,14.2,6,rest,ArrowUp,ArrowLeft,True,True,Adolescents,30
861,357,7969,value training,"[785.7999999988824,325.19999999925494]",False,./assets/img/ocean/memory/2.jpg,ocean,26.0,False,True,Control,2.0,"{""ArrowUp,ArrowLeft"":26,""ArrowUp,ArrowRight"":10,""ArrowDown,ArrowLeft"":5,""ArrowDown,ArrowRight"":17}",32,,14.2,6,rest,ArrowUp,ArrowLeft,True,True,Adolescents,30
862,359,7969,value training,"[528.9000000003725,300.09999999962747]",False,./assets/img/ocean/memory/29.jpg,ocean,26.0,False,True,Control,2.0,"{""ArrowUp,ArrowLeft"":26,""ArrowUp,ArrowRight"":10,""ArrowDown,ArrowLeft"":5,""ArrowDown,ArrowRight"":17}",33,,14.2,6,rest,ArrowUp,ArrowLeft,True,True,Adolescents,30
864,363,7969,value training,"[829.5,367.19999999925494]",False,./assets/img/ocean/memory/18.jpg,ocean,26.0,False,True,Control,2.0,"{""ArrowUp,ArrowLeft"":26,""ArrowUp,ArrowRight"":10,""ArrowDown,ArrowLeft"":5,""ArrowDown,ArrowRight"":17}",34,,14.2,6,rest,ArrowUp,ArrowLeft,True,True,Adolescents,30
866,367,7969,value training,"[1073.300000000745,411.59999999962747]",False,./assets/img/ocean/memory/16.jpg,ocean,26.0,False,True,Control,2.0,"{""ArrowUp,ArrowLeft"":26,""ArrowUp,ArrowRight"":10,""ArrowDown,ArrowLeft"":5,""ArrowDown,ArrowRight"":17}",35,,14.2,6,rest,ArrowUp,ArrowLeft,True,True,Adolescents,30
867,369,7969,value training,"[1210.5999999996275,334.19999999925494]",False,./assets/img/ocean/memory/39.jpg,ocean,26.0,False,True,Control,2.0,"{""ArrowUp,ArrowLeft"":26,""ArrowUp,ArrowRight"":10,""ArrowDown,ArrowLeft"":5,""ArrowDown,ArrowRight"":17}",36,,14.2,6,rest,ArrowUp,ArrowLeft,True,True,Adolescents,35
868,371,7969,value training,"[660.1999999992549,302.59999999962747]",False,./assets/img/ocean/memory/40.jpg,ocean,26.0,False,True,Control,2.0,"{""ArrowUp,ArrowLeft"":26,""ArrowUp,ArrowRight"":10,""ArrowDown,ArrowLeft"":5,""ArrowDown,ArrowRight"":17}",37,,14.2,6,rest,ArrowUp,ArrowLeft,True,True,Adolescents,35
869,373,7969,value training,"[654.2000000011176,534.0999999996275]",False,./assets/img/ocean/memory/2.jpg,ocean,26.0,False,True,Control,2.0,"{""ArrowUp,ArrowLeft"":26,""ArrowUp,ArrowRight"":10,""ArrowDown,ArrowLeft"":5,""ArrowDown,ArrowRight"":17}",38,,14.2,6,rest,ArrowUp,ArrowLeft,True,True,Adolescents,35
870,375,7969,value training,"[1155.6000000014901,301.69999999925494]",False,./assets/img/ocean/memory/31.jpg,ocean,26.0,False,True,Control,2.0,"{""ArrowUp,ArrowLeft"":26,""ArrowUp,ArrowRight"":10,""ArrowDown,ArrowLeft"":5,""ArrowDown,ArrowRight"":17}",39,,14.2,6,rest,ArrowUp,ArrowLeft,True,True,Adolescents,35
