,level_0,index,subject_id,task_part,timeout,stimulus,environment,score,isCatch,correct,rewardMap,trial_num,ground_truth,age,gender,subject_condition,rest,rt0,rt1,response0,response1,is_optimal_first,is_optimal_second,optimal_score,categorical_age,block_condition,block_order
0,164,469,7472,memory,False,./assets/img/ocean/memory/27.jpg,ocean,10.0,,True,,4,old,20.16,Female,2,rest,2748.0,,maybe_old,,,,,Adults,Revaluation,1.0
1,167,475,7472,memory,False,./assets/img/ocean/memory/17.jpg,ocean,10.0,,True,,7,new,20.16,Female,2,rest,2045.0,,maybe_new,,,,,Adults,Revaluation,1.0
2,168,477,7472,memory,False,./assets/img/ocean/memory/18.jpg,ocean,0.0,,False,,8,new,20.16,Female,2,rest,1868.0,,maybe_old,,,,,Adults,Revaluation,1.0
3,172,485,7472,memory,False,./assets/img/ocean/memory/40.jpg,ocean,10.0,,True,,12,new,20.16,Female,2,rest,1445.0,,maybe_new,,,,,Adults,Revaluation,1.0
4,174,489,7472,memory,False,./assets/img/ocean/memory/33.jpg,ocean,10.0,,True,,14,old,20.16,Female,2,rest,1025.0,,definitely_old,,,,,Adults,Revaluation,1.0
5,179,499,7472,memory,False,./assets/img/ocean/memory/13.jpg,ocean,10.0,,True,,19,old,20.16,Female,2,rest,1237.0,,definitely_old,,,,,Adults,Revaluation,1.0
6,181,503,7472,memory,False,./assets/img/ocean/memory/41.jpg,ocean,10.0,,True,,21,new,20.16,Female,2,rest,1445.0,,definitely_new,,,,,Adults,Revaluation,1.0
7,182,505,7472,memory,False,./assets/img/ocean/memory/20.jpg,ocean,10.0,,True,,22,new,20.16,Female,2,rest,1857.0,,definitely_new,,,,,Adults,Revaluation,1.0
8,185,511,7472,memory,False,./assets/img/ocean/memory/9.jpg,ocean,0.0,,False,,25,new,20.16,Female,2,rest,1005.0,,definitely_old,,,,,Adults,Revaluation,1.0
9,187,515,7472,memory,False,./assets/img/ocean/memory/3.jpg,ocean,10.0,,True,,27,old,20.16,Female,2,rest,1427.0,,definitely_old,,,,,Adults,Revaluation,1.0
10,189,519,7472,memory,False,./assets/img/ocean/memory/29.jpg,ocean,0.0,,False,,29,new,20.16,Female,2,rest,1576.0,,maybe_old,,,,,Adults,Revaluation,1.0
11,190,521,7472,memory,False,./assets/img/ocean/memory/4.jpg,ocean,10.0,,True,,30,old,20.16,Female,2,rest,1525.0,,maybe_old,,,,,Adults,Revaluation,1.0
12,194,529,7472,memory,False,./assets/img/ocean/memory/6.jpg,ocean,10.0,,True,,34,old,20.16,Female,2,rest,926.0,,definitely_old,,,,,Adults,Revaluation,1.0
13,196,533,7472,memory,False,./assets/img/ocean/memory/26.jpg,ocean,0.0,,False,,36,new,20.16,Female,2,rest,1127.0,,definitely_old,,,,,Adults,Revaluation,1.0
14,197,535,7472,memory,False,./assets/img/ocean/memory/14.jpg,ocean,0.0,,False,,37,old,20.16,Female,2,rest,1915.0,,definitely_new,,,,,Adults,Revaluation,1.0
15,198,537,7472,memory,False,./assets/img/ocean/memory/38.jpg,ocean,10.0,,True,,38,new,20.16,Female,2,rest,1503.0,,maybe_new,,,,,Adults,Revaluation,1.0
16,199,539,7472,memory,False,./assets/img/ocean/memory/8.jpg,ocean,0.0,,False,,39,new,20.16,Female,2,rest,816.0,,definitely_old,,,,,Adults,Revaluation,1.0
17,201,543,7472,memory,False,./assets/img/ocean/memory/7.jpg,ocean,0.0,,False,,41,old,20.16,Female,2,rest,1597.0,,definitely_new,,,,,Adults,Revaluation,1.0
18,203,547,7472,memory,False,./assets/img/ocean/memory/2.jpg,ocean,10.0,,True,,43,old,20.16,Female,2,rest,1570.0,,maybe_old,,,,,Adults,Revaluation,1.0
19,204,549,7472,memory,False,./assets/img/ocean/memory/0.jpg,ocean,10.0,,True,,44,new,20.16,Female,2,rest,1515.0,,maybe_new,,,,,Adults,Revaluation,1.0
20,205,551,7472,memory,False,./assets/img/ocean/memory/36.jpg,ocean,10.0,,True,,45,old,20.16,Female,2,rest,897.0,,definitely_old,,,,,Adults,Revaluation,1.0
21,206,553,7472,memory,False,./assets/img/ocean/memory/39.jpg,ocean,10.0,,True,,46,old,20.16,Female,2,rest,946.0,,definitely_old,,,,,Adults,Revaluation,1.0
22,208,557,7472,memory,False,./assets/img/ocean/memory/35.jpg,ocean,10.0,,True,,48,new,20.16,Female,2,rest,1367.0,,definitely_new,,,,,Adults,Revaluation,1.0
23,212,565,7472,memory,False,./assets/img/ocean/memory/34.jpg,ocean,0.0,,False,,52,old,20.16,Female,2,rest,975.0,,definitely_new,,,,,Adults,Revaluation,1.0
24,213,567,7472,memory,False,./assets/img/ocean/memory/10.jpg,ocean,0.0,,False,,53,new,20.16,Female,2,rest,696.0,,definitely_old,,,,,Adults,Revaluation,1.0
25,214,569,7472,memory,False,./assets/img/ocean/memory/22.jpg,ocean,10.0,,True,,54,old,20.16,Female,2,rest,637.0,,definitely_old,,,,,Adults,Revaluation,1.0
26,215,571,7472,memory,False,./assets/img/ocean/memory/23.jpg,ocean,10.0,,True,,55,new,20.16,Female,2,rest,1607.0,,maybe_new,,,,,Adults,Revaluation,1.0
27,218,577,7472,memory,False,./assets/img/ocean/memory/28.jpg,ocean,0.0,,False,,58,old,20.16,Female,2,rest,967.0,,definitely_new,,,,,Adults,Revaluation,1.0
28,219,579,7472,memory,False,./assets/img/ocean/memory/24.jpg,ocean,0.0,,False,,59,new,20.16,Female,2,rest,1927.0,,maybe_old,,,,,Adults,Revaluation,1.0
29,221,583,7472,memory,False,./assets/img/ocean/memory/31.jpg,ocean,10.0,,True,,61,new,20.16,Female,2,rest,1316.0,,maybe_new,,,,,Adults,Revaluation,1.0
30,226,593,7472,memory,False,./assets/img/ocean/memory/16.jpg,ocean,0.0,,False,,66,old,20.16,Female,2,rest,1105.0,,definitely_new,,,,,Adults,Revaluation,1.0
31,227,595,7472,memory,False,./assets/img/ocean/memory/1.jpg,ocean,0.0,,False,,67,old,20.16,Female,2,rest,1586.0,,maybe_new,,,,,Adults,Revaluation,1.0
32,229,599,7472,memory,False,./assets/img/ocean/memory/30.jpg,ocean,10.0,,True,,69,new,20.16,Female,2,rest,1355.0,,definitely_new,,,,,Adults,Revaluation,1.0
33,231,603,7472,memory,False,./assets/img/ocean/memory/15.jpg,ocean,10.0,,True,,71,new,20.16,Female,2,rest,875.0,,definitely_new,,,,,Adults,Revaluation,1.0
34,233,607,7472,memory,False,./assets/img/ocean/memory/32.jpg,ocean,10.0,,True,,73,old,20.16,Female,2,rest,1765.0,,maybe_old,,,,,Adults,Revaluation,1.0
35,234,609,7472,memory,False,./assets/img/ocean/memory/21.jpg,ocean,10.0,,True,,74,new,20.16,Female,2,rest,1074.0,,definitely_new,,,,,Adults,Revaluation,1.0
36,237,615,7472,memory,False,./assets/img/ocean/memory/19.jpg,ocean,10.0,,True,,77,new,20.16,Female,2,rest,787.0,,definitely_new,,,,,Adults,Revaluation,1.0
37,239,619,7472,memory,False,./assets/img/ocean/memory/12.jpg,ocean,0.0,,False,,79,new,20.16,Female,2,rest,813.0,,definitely_old,,,,,Adults,Revaluation,1.0
38,241,623,7472,memory,False,./assets/img/ocean/memory/37.jpg,ocean,10.0,,True,,81,old,20.16,Female,2,rest,807.0,,maybe_old,,,,,Adults,Revaluation,1.0
39,242,625,7472,memory,False,./assets/img/ocean/memory/25.jpg,ocean,10.0,,True,,82,old,20.16,Female,2,rest,1426.0,,definitely_old,,,,,Adults,Revaluation,1.0
40,243,627,7472,memory,False,./assets/img/ocean/memory/5.jpg,ocean,10.0,,True,,83,old,20.16,Female,2,rest,844.0,,definitely_old,,,,,Adults,Revaluation,1.0
41,244,629,7472,memory,False,./assets/img/ocean/memory/11.jpg,ocean,10.0,,True,,84,old,20.16,Female,2,rest,912.0,,definitely_old,,,,,Adults,Revaluation,1.0
42,165,471,7472,memory,False,./assets/img/canyon/memory/9.jpg,canyon,10.0,,True,,5,new,20.16,Female,2,rest,1897.0,,definitely_new,,,,,Adults,Control,2.0
43,166,473,7472,memory,False,./assets/img/canyon/memory/15.jpg,canyon,10.0,,True,,6,old,20.16,Female,2,rest,1987.0,,definitely_old,,,,,Adults,Control,2.0
44,169,479,7472,memory,False,./assets/img/canyon/memory/23.jpg,canyon,0.0,,False,,9,old,20.16,Female,2,rest,1611.0,,definitely_new,,,,,Adults,Control,2.0
45,170,481,7472,memory,False,./assets/img/canyon/memory/4.jpg,canyon,0.0,,False,,10,new,20.16,Female,2,rest,1637.0,,maybe_old,,,,,Adults,Control,2.0
46,171,483,7472,memory,False,./assets/img/canyon/memory/0.jpg,canyon,10.0,,True,,11,old,20.16,Female,2,rest,2187.0,,definitely_old,,,,,Adults,Control,2.0
47,173,487,7472,memory,False,./assets/img/canyon/memory/32.jpg,canyon,10.0,,True,,13,new,20.16,Female,2,rest,1927.0,,definitely_new,,,,,Adults,Control,2.0
48,175,491,7472,memory,False,./assets/img/canyon/memory/33.jpg,canyon,0.0,,False,,15,old,20.16,Female,2,rest,2527.0,,definitely_new,,,,,Adults,Control,2.0
49,176,493,7472,memory,False,./assets/img/canyon/memory/12.jpg,canyon,0.0,,False,,16,old,20.16,Female,2,rest,2547.0,,maybe_new,,,,,Adults,Control,2.0
50,177,495,7472,memory,False,./assets/img/canyon/memory/17.jpg,canyon,10.0,,True,,17,new,20.16,Female,2,rest,1195.0,,definitely_new,,,,,Adults,Control,2.0
51,178,497,7472,memory,False,./assets/img/canyon/memory/20.jpg,canyon,0.0,,False,,18,new,20.16,Female,2,rest,1746.0,,maybe_old,,,,,Adults,Control,2.0
52,180,501,7472,memory,False,./assets/img/canyon/memory/19.jpg,canyon,10.0,,True,,20,new,20.16,Female,2,rest,1235.0,,maybe_new,,,,,Adults,Control,2.0
53,183,507,7472,memory,False,./assets/img/canyon/memory/18.jpg,canyon,10.0,,True,,23,new,20.16,Female,2,rest,2326.0,,definitely_new,,,,,Adults,Control,2.0
54,184,509,7472,memory,False,./assets/img/canyon/memory/16.jpg,canyon,0.0,,False,,24,new,20.16,Female,2,rest,1146.0,,definitely_old,,,,,Adults,Control,2.0
55,186,513,7472,memory,False,./assets/img/canyon/memory/27.jpg,canyon,10.0,,True,,26,new,20.16,Female,2,rest,1387.0,,definitely_new,,,,,Adults,Control,2.0
56,188,517,7472,memory,False,./assets/img/canyon/memory/37.jpg,canyon,0.0,,False,,28,new,20.16,Female,2,rest,1574.0,,definitely_old,,,,,Adults,Control,2.0
57,191,523,7472,memory,False,./assets/img/canyon/memory/2.jpg,canyon,10.0,,True,,31,old,20.16,Female,2,rest,1016.0,,definitely_old,,,,,Adults,Control,2.0
58,192,525,7472,memory,False,./assets/img/canyon/memory/14.jpg,canyon,10.0,,True,,32,new,20.16,Female,2,rest,1437.0,,maybe_new,,,,,Adults,Control,2.0
59,193,527,7472,memory,False,./assets/img/canyon/memory/31.jpg,canyon,10.0,,True,,33,old,20.16,Female,2,rest,983.0,,definitely_old,,,,,Adults,Control,2.0
60,195,531,7472,memory,False,./assets/img/canyon/memory/3.jpg,canyon,10.0,,True,,35,old,20.16,Female,2,rest,1736.0,,maybe_old,,,,,Adults,Control,2.0
61,200,541,7472,memory,False,./assets/img/canyon/memory/35.jpg,canyon,10.0,,True,,40,old,20.16,Female,2,rest,996.0,,definitely_old,,,,,Adults,Control,2.0
62,202,545,7472,memory,False,./assets/img/canyon/memory/7.jpg,canyon,0.0,,False,,42,new,20.16,Female,2,rest,946.0,,definitely_old,,,,,Adults,Control,2.0
63,207,555,7472,memory,False,./assets/img/canyon/memory/39.jpg,canyon,0.0,,False,,47,new,20.16,Female,2,rest,716.0,,definitely_old,,,,,Adults,Control,2.0
64,209,559,7472,memory,False,./assets/img/canyon/memory/40.jpg,canyon,0.0,,False,,49,old,20.16,Female,2,rest,1455.0,,definitely_new,,,,,Adults,Control,2.0
65,210,561,7472,memory,False,./assets/img/canyon/memory/30.jpg,canyon,0.0,,False,,50,old,20.16,Female,2,rest,765.0,,definitely_new,,,,,Adults,Control,2.0
66,211,563,7472,memory,False,./assets/img/canyon/memory/34.jpg,canyon,0.0,,False,,51,new,20.16,Female,2,rest,976.0,,definitely_old,,,,,Adults,Control,2.0
67,216,573,7472,memory,False,./assets/img/canyon/memory/41.jpg,canyon,10.0,,True,,56,new,20.16,Female,2,rest,1134.0,,definitely_new,,,,,Adults,Control,2.0
68,217,575,7472,memory,False,./assets/img/canyon/memory/8.jpg,canyon,0.0,,False,,57,old,20.16,Female,2,rest,935.0,,definitely_new,,,,,Adults,Control,2.0
69,220,581,7472,memory,False,./assets/img/canyon/memory/26.jpg,canyon,10.0,,True,,60,new,20.16,Female,2,rest,1316.0,,maybe_new,,,,,Adults,Control,2.0
70,222,585,7472,memory,False,./assets/img/canyon/memory/36.jpg,canyon,0.0,,False,,62,old,20.16,Female,2,rest,1297.0,,definitely_new,,,,,Adults,Control,2.0
71,223,587,7472,memory,False,./assets/img/canyon/memory/28.jpg,canyon,10.0,,True,,63,old,20.16,Female,2,rest,696.0,,definitely_old,,,,,Adults,Control,2.0
72,224,589,7472,memory,False,./assets/img/canyon/memory/29.jpg,canyon,0.0,,False,,64,old,20.16,Female,2,rest,1417.0,,maybe_new,,,,,Adults,Control,2.0
73,225,591,7472,memory,False,./assets/img/canyon/memory/11.jpg,canyon,0.0,,False,,65,old,20.16,Female,2,rest,996.0,,definitely_new,,,,,Adults,Control,2.0
74,228,597,7472,memory,False,./assets/img/canyon/memory/38.jpg,canyon,0.0,,False,,68,new,20.16,Female,2,rest,1855.0,,maybe_old,,,,,Adults,Control,2.0
75,230,601,7472,memory,False,./assets/img/canyon/memory/21.jpg,canyon,10.0,,True,,70,new,20.16,Female,2,rest,846.0,,definitely_new,,,,,Adults,Control,2.0
76,232,605,7472,memory,False,./assets/img/canyon/memory/22.jpg,canyon,10.0,,True,,72,old,20.16,Female,2,rest,996.0,,definitely_old,,,,,Adults,Control,2.0
77,235,611,7472,memory,False,./assets/img/canyon/memory/1.jpg,canyon,10.0,,True,,75,old,20.16,Female,2,rest,1535.0,,maybe_old,,,,,Adults,Control,2.0
78,236,613,7472,memory,False,./assets/img/canyon/memory/13.jpg,canyon,0.0,,False,,76,new,20.16,Female,2,rest,616.0,,definitely_old,,,,,Adults,Control,2.0
79,238,617,7472,memory,False,./assets/img/canyon/memory/6.jpg,canyon,10.0,,True,,78,old,20.16,Female,2,rest,824.0,,definitely_old,,,,,Adults,Control,2.0
80,240,621,7472,memory,False,./assets/img/canyon/memory/10.jpg,canyon,0.0,,False,,80,old,20.16,Female,2,rest,816.0,,definitely_new,,,,,Adults,Control,2.0
81,245,631,7472,memory,False,./assets/img/canyon/memory/24.jpg,canyon,0.0,,False,,85,new,20.16,Female,2,rest,934.0,,definitely_old,,,,,Adults,Control,2.0
82,246,633,7472,memory,False,./assets/img/canyon/memory/25.jpg,canyon,10.0,,True,,86,old,20.16,Female,2,rest,1366.0,,definitely_old,,,,,Adults,Control,2.0
83,247,635,7472,memory,False,./assets/img/canyon/memory/5.jpg,canyon,10.0,,True,,87,new,20.16,Female,2,rest,1276.0,,definitely_new,,,,,Adults,Control,2.0
84,164,473,8153,memory,False,./assets/img/ocean/memory/33.jpg,ocean,10.0,,True,,4,old,9.8,Male,8,rest,5535.0,,definitely_old,,,,,Children,Control,2.0
85,167,479,8153,memory,False,./assets/img/ocean/memory/34.jpg,ocean,10.0,,True,,7,new,9.8,Male,8,rest,2717.0,,definitely_new,,,,,Children,Control,2.0
86,168,481,8153,memory,False,./assets/img/ocean/memory/37.jpg,ocean,0.0,,False,,8,new,9.8,Male,8,rest,2946.0,,definitely_old,,,,,Children,Control,2.0
87,169,483,8153,memory,False,./assets/img/ocean/memory/13.jpg,ocean,10.0,,True,,9,old,9.8,Male,8,rest,1589.0,,definitely_old,,,,,Children,Control,2.0
88,170,485,8153,memory,False,./assets/img/ocean/memory/16.jpg,ocean,10.0,,True,,10,new,9.8,Male,8,rest,1332.0,,definitely_new,,,,,Children,Control,2.0
89,173,491,8153,memory,False,./assets/img/ocean/memory/15.jpg,ocean,10.0,,True,,13,old,9.8,Male,8,rest,1203.0,,definitely_old,,,,,Children,Control,2.0
90,175,495,8153,memory,False,./assets/img/ocean/memory/41.jpg,ocean,10.0,,True,,15,old,9.8,Male,8,rest,1075.0,,definitely_old,,,,,Children,Control,2.0
91,176,497,8153,memory,False,./assets/img/ocean/memory/1.jpg,ocean,10.0,,True,,16,old,9.8,Male,8,rest,950.0,,definitely_old,,,,,Children,Control,2.0
92,180,505,8153,memory,False,./assets/img/ocean/memory/8.jpg,ocean,0.0,,False,,20,new,9.8,Male,8,rest,2015.0,,definitely_old,,,,,Children,Control,2.0
93,185,515,8153,memory,False,./assets/img/ocean/memory/19.jpg,ocean,0.0,,False,,25,old,9.8,Male,8,rest,1410.0,,definitely_new,,,,,Children,Control,2.0
94,186,517,8153,memory,False,./assets/img/ocean/memory/28.jpg,ocean,10.0,,True,,26,new,9.8,Male,8,rest,1507.0,,definitely_new,,,,,Children,Control,2.0
95,188,521,8153,memory,False,./assets/img/ocean/memory/9.jpg,ocean,10.0,,True,,28,new,9.8,Male,8,rest,1103.0,,definitely_new,,,,,Children,Control,2.0
96,189,523,8153,memory,False,./assets/img/ocean/memory/36.jpg,ocean,10.0,,True,,29,new,9.8,Male,8,rest,1214.0,,definitely_new,,,,,Children,Control,2.0
97,190,525,8153,memory,False,./assets/img/ocean/memory/0.jpg,ocean,0.0,,False,,30,old,9.8,Male,8,rest,960.0,,definitely_new,,,,,Children,Control,2.0
98,191,527,8153,memory,False,./assets/img/ocean/memory/6.jpg,ocean,10.0,,True,,31,new,9.8,Male,8,rest,1992.0,,definitely_new,,,,,Children,Control,2.0
99,192,529,8153,memory,False,./assets/img/ocean/memory/25.jpg,ocean,0.0,,False,,32,old,9.8,Male,8,rest,1226.0,,definitely_new,,,,,Children,Control,2.0
100,194,533,8153,memory,False,./assets/img/ocean/memory/12.jpg,ocean,10.0,,True,,34,new,9.8,Male,8,rest,1052.0,,definitely_new,,,,,Children,Control,2.0
101,195,535,8153,memory,False,./assets/img/ocean/memory/10.jpg,ocean,0.0,,False,,35,old,9.8,Male,8,rest,861.0,,definitely_new,,,,,Children,Control,2.0
102,196,537,8153,memory,False,./assets/img/ocean/memory/27.jpg,ocean,0.0,,False,,36,old,9.8,Male,8,rest,647.0,,definitely_new,,,,,Children,Control,2.0
103,197,539,8153,memory,False,./assets/img/ocean/memory/20.jpg,ocean,10.0,,True,,37,new,9.8,Male,8,rest,713.0,,definitely_new,,,,,Children,Control,2.0
104,199,543,8153,memory,False,./assets/img/ocean/memory/5.jpg,ocean,0.0,,False,,39,old,9.8,Male,8,rest,980.0,,definitely_new,,,,,Children,Control,2.0
105,200,545,8153,memory,False,./assets/img/ocean/memory/17.jpg,ocean,0.0,,False,,40,old,9.8,Male,8,rest,700.0,,definitely_new,,,,,Children,Control,2.0
106,202,549,8153,memory,False,./assets/img/ocean/memory/29.jpg,ocean,0.0,,False,,42,new,9.8,Male,8,rest,1178.0,,definitely_old,,,,,Children,Control,2.0
107,203,551,8153,memory,False,./assets/img/ocean/memory/38.jpg,ocean,10.0,,True,,43,old,9.8,Male,8,rest,908.0,,definitely_old,,,,,Children,Control,2.0
108,204,553,8153,memory,False,./assets/img/ocean/memory/32.jpg,ocean,0.0,,False,,44,old,9.8,Male,8,rest,1616.0,,definitely_new,,,,,Children,Control,2.0
109,206,557,8153,memory,False,./assets/img/ocean/memory/22.jpg,ocean,10.0,,True,,46,new,9.8,Male,8,rest,1288.0,,definitely_new,,,,,Children,Control,2.0
110,208,561,8153,memory,False,./assets/img/ocean/memory/2.jpg,ocean,0.0,,False,,48,new,9.8,Male,8,rest,1186.0,,definitely_old,,,,,Children,Control,2.0
111,211,567,8153,memory,False,./assets/img/ocean/memory/14.jpg,ocean,10.0,,True,,51,new,9.8,Male,8,rest,666.0,,definitely_new,,,,,Children,Control,2.0
112,212,569,8153,memory,False,./assets/img/ocean/memory/3.jpg,ocean,10.0,,True,,52,new,9.8,Male,8,rest,1153.0,,definitely_new,,,,,Children,Control,2.0
113,213,571,8153,memory,False,./assets/img/ocean/memory/21.jpg,ocean,0.0,,False,,53,old,9.8,Male,8,rest,1143.0,,definitely_new,,,,,Children,Control,2.0
114,214,573,8153,memory,False,./assets/img/ocean/memory/30.jpg,ocean,0.0,,False,,54,old,9.8,Male,8,rest,991.0,,definitely_new,,,,,Children,Control,2.0
115,221,587,8153,memory,False,./assets/img/ocean/memory/26.jpg,ocean,10.0,,True,,61,old,9.8,Male,8,rest,922.0,,definitely_old,,,,,Children,Control,2.0
116,223,591,8153,memory,False,./assets/img/ocean/memory/31.jpg,ocean,0.0,,False,,63,old,9.8,Male,8,rest,1682.0,,definitely_new,,,,,Children,Control,2.0
117,224,593,8153,memory,False,./assets/img/ocean/memory/40.jpg,ocean,10.0,,True,,64,new,9.8,Male,8,rest,909.0,,definitely_new,,,,,Children,Control,2.0
118,225,595,8153,memory,False,./assets/img/ocean/memory/18.jpg,ocean,0.0,,False,,65,new,9.8,Male,8,rest,1082.0,,definitely_old,,,,,Children,Control,2.0
119,226,597,8153,memory,False,./assets/img/ocean/memory/23.jpg,ocean,10.0,,True,,66,old,9.8,Male,8,rest,1023.0,,definitely_old,,,,,Children,Control,2.0
120,230,605,8153,memory,False,./assets/img/ocean/memory/35.jpg,ocean,10.0,,True,,70,new,9.8,Male,8,rest,1225.0,,definitely_new,,,,,Children,Control,2.0
121,232,609,8153,memory,False,./assets/img/ocean/memory/11.jpg,ocean,0.0,,False,,72,new,9.8,Male,8,rest,1383.0,,definitely_old,,,,,Children,Control,2.0
122,234,613,8153,memory,False,./assets/img/ocean/memory/39.jpg,ocean,10.0,,True,,74,old,9.8,Male,8,rest,1083.0,,maybe_old,,,,,Children,Control,2.0
123,236,617,8153,memory,False,./assets/img/ocean/memory/4.jpg,ocean,10.0,,True,,76,new,9.8,Male,8,rest,2245.0,,definitely_new,,,,,Children,Control,2.0
124,239,623,8153,memory,False,./assets/img/ocean/memory/7.jpg,ocean,0.0,,False,,79,old,9.8,Male,8,rest,1077.0,,definitely_new,,,,,Children,Control,2.0
125,247,639,8153,memory,False,./assets/img/ocean/memory/24.jpg,ocean,0.0,,False,,87,new,9.8,Male,8,rest,1205.0,,definitely_old,,,,,Children,Control,2.0
126,165,475,8153,memory,False,./assets/img/canyon/memory/18.jpg,canyon,0.0,,False,,5,old,9.8,Male,8,rest,4734.0,,definitely_new,,,,,Children,Revaluation,1.0
127,166,477,8153,memory,False,./assets/img/canyon/memory/33.jpg,canyon,0.0,,False,,6,new,9.8,Male,8,rest,1533.0,,definitely_old,,,,,Children,Revaluation,1.0
128,171,487,8153,memory,False,./assets/img/canyon/memory/17.jpg,canyon,0.0,,False,,11,old,9.8,Male,8,rest,1740.0,,definitely_new,,,,,Children,Revaluation,1.0
129,172,489,8153,memory,False,./assets/img/canyon/memory/35.jpg,canyon,10.0,,True,,12,old,9.8,Male,8,rest,1615.0,,definitely_old,,,,,Children,Revaluation,1.0
130,174,493,8153,memory,False,./assets/img/canyon/memory/37.jpg,canyon,10.0,,True,,14,new,9.8,Male,8,rest,1340.0,,definitely_new,,,,,Children,Revaluation,1.0
131,177,499,8153,memory,False,./assets/img/canyon/memory/12.jpg,canyon,10.0,,True,,17,new,9.8,Male,8,rest,1339.0,,definitely_new,,,,,Children,Revaluation,1.0
132,178,501,8153,memory,False,./assets/img/canyon/memory/2.jpg,canyon,10.0,,True,,18,old,9.8,Male,8,rest,3622.0,,definitely_old,,,,,Children,Revaluation,1.0
133,179,503,8153,memory,False,./assets/img/canyon/memory/14.jpg,canyon,0.0,,False,,19,old,9.8,Male,8,rest,4956.0,,definitely_new,,,,,Children,Revaluation,1.0
134,181,507,8153,memory,False,./assets/img/canyon/memory/7.jpg,canyon,10.0,,True,,21,new,9.8,Male,8,rest,3482.0,,definitely_new,,,,,Children,Revaluation,1.0
135,182,509,8153,memory,False,./assets/img/canyon/memory/19.jpg,canyon,10.0,,True,,22,new,9.8,Male,8,rest,916.0,,definitely_new,,,,,Children,Revaluation,1.0
136,183,511,8153,memory,False,./assets/img/canyon/memory/34.jpg,canyon,10.0,,True,,23,old,9.8,Male,8,rest,1082.0,,definitely_old,,,,,Children,Revaluation,1.0
137,184,513,8153,memory,False,./assets/img/canyon/memory/22.jpg,canyon,10.0,,True,,24,new,9.8,Male,8,rest,1161.0,,definitely_new,,,,,Children,Revaluation,1.0
138,187,519,8153,memory,False,./assets/img/canyon/memory/13.jpg,canyon,0.0,,False,,27,old,9.8,Male,8,rest,1732.0,,definitely_new,,,,,Children,Revaluation,1.0
139,193,531,8153,memory,False,./assets/img/canyon/memory/20.jpg,canyon,0.0,,False,,33,old,9.8,Male,8,rest,1022.0,,definitely_new,,,,,Children,Revaluation,1.0
140,198,541,8153,memory,False,./assets/img/canyon/memory/36.jpg,canyon,10.0,,True,,38,new,9.8,Male,8,rest,2061.0,,definitely_new,,,,,Children,Revaluation,1.0
141,201,547,8153,memory,False,./assets/img/canyon/memory/4.jpg,canyon,0.0,,False,,41,new,9.8,Male,8,rest,62.0,,definitely_old,,,,,Children,Revaluation,1.0
142,205,555,8153,memory,False,./assets/img/canyon/memory/31.jpg,canyon,0.0,,False,,45,new,9.8,Male,8,rest,1577.0,,definitely_old,,,,,Children,Revaluation,1.0
143,207,559,8153,memory,False,./assets/img/canyon/memory/32.jpg,canyon,0.0,,False,,47,old,9.8,Male,8,rest,709.0,,definitely_new,,,,,Children,Revaluation,1.0
144,209,563,8153,memory,False,./assets/img/canyon/memory/40.jpg,canyon,10.0,,True,,49,new,9.8,Male,8,rest,966.0,,definitely_new,,,,,Children,Revaluation,1.0
145,210,565,8153,memory,False,./assets/img/canyon/memory/5.jpg,canyon,10.0,,True,,50,new,9.8,Male,8,rest,728.0,,definitely_new,,,,,Children,Revaluation,1.0
146,215,575,8153,memory,False,./assets/img/canyon/memory/6.jpg,canyon,10.0,,True,,55,new,9.8,Male,8,rest,1165.0,,definitely_new,,,,,Children,Revaluation,1.0
147,216,577,8153,memory,False,./assets/img/canyon/memory/29.jpg,canyon,10.0,,True,,56,new,9.8,Male,8,rest,804.0,,definitely_new,,,,,Children,Revaluation,1.0
148,217,579,8153,memory,False,./assets/img/canyon/memory/10.jpg,canyon,10.0,,True,,57,new,9.8,Male,8,rest,666.0,,definitely_new,,,,,Children,Revaluation,1.0
149,218,581,8153,memory,False,./assets/img/canyon/memory/26.jpg,canyon,0.0,,False,,58,old,9.8,Male,8,rest,776.0,,definitely_new,,,,,Children,Revaluation,1.0
150,219,583,8153,memory,False,./assets/img/canyon/memory/41.jpg,canyon,10.0,,True,,59,new,9.8,Male,8,rest,892.0,,definitely_new,,,,,Children,Revaluation,1.0
151,220,585,8153,memory,False,./assets/img/canyon/memory/0.jpg,canyon,0.0,,False,,60,old,9.8,Male,8,rest,1573.0,,definitely_new,,,,,Children,Revaluation,1.0
152,222,589,8153,memory,False,./assets/img/canyon/memory/9.jpg,canyon,0.0,,False,,62,new,9.8,Male,8,rest,1335.0,,definitely_old,,,,,Children,Revaluation,1.0
153,227,599,8153,memory,False,./assets/img/canyon/memory/23.jpg,canyon,0.0,,False,,67,old,9.8,Male,8,rest,855.0,,definitely_new,,,,,Children,Revaluation,1.0
154,228,601,8153,memory,False,./assets/img/canyon/memory/25.jpg,canyon,0.0,,False,,68,new,9.8,Male,8,rest,891.0,,definitely_old,,,,,Children,Revaluation,1.0
155,229,603,8153,memory,False,./assets/img/canyon/memory/30.jpg,canyon,0.0,,False,,69,old,9.8,Male,8,rest,1053.0,,definitely_new,,,,,Children,Revaluation,1.0
156,231,607,8153,memory,False,./assets/img/canyon/memory/11.jpg,canyon,10.0,,True,,71,old,9.8,Male,8,rest,1115.0,,definitely_old,,,,,Children,Revaluation,1.0
157,233,611,8153,memory,False,./assets/img/canyon/memory/39.jpg,canyon,0.0,,False,,73,old,9.8,Male,8,rest,1054.0,,definitely_new,,,,,Children,Revaluation,1.0
158,235,615,8153,memory,False,./assets/img/canyon/memory/21.jpg,canyon,10.0,,True,,75,new,9.8,Male,8,rest,1245.0,,definitely_new,,,,,Children,Revaluation,1.0
159,237,619,8153,memory,False,./assets/img/canyon/memory/27.jpg,canyon,10.0,,True,,77,old,9.8,Male,8,rest,947.0,,definitely_old,,,,,Children,Revaluation,1.0
160,238,621,8153,memory,False,./assets/img/canyon/memory/15.jpg,canyon,0.0,,False,,78,old,9.8,Male,8,rest,1192.0,,definitely_new,,,,,Children,Revaluation,1.0
161,240,625,8153,memory,False,./assets/img/canyon/memory/38.jpg,canyon,0.0,,False,,80,old,9.8,Male,8,rest,1310.0,,definitely_new,,,,,Children,Revaluation,1.0
162,241,627,8153,memory,False,./assets/img/canyon/memory/3.jpg,canyon,0.0,,False,,81,old,9.8,Male,8,rest,1071.0,,definitely_new,,,,,Children,Revaluation,1.0
163,242,629,8153,memory,False,./assets/img/canyon/memory/8.jpg,canyon,0.0,,False,,82,new,9.8,Male,8,rest,897.0,,definitely_old,,,,,Children,Revaluation,1.0
164,243,631,8153,memory,False,./assets/img/canyon/memory/16.jpg,canyon,10.0,,True,,83,new,9.8,Male,8,rest,1058.0,,definitely_new,,,,,Children,Revaluation,1.0
165,244,633,8153,memory,False,./assets/img/canyon/memory/24.jpg,canyon,0.0,,False,,84,old,9.8,Male,8,rest,1032.0,,definitely_new,,,,,Children,Revaluation,1.0
166,245,635,8153,memory,False,./assets/img/canyon/memory/1.jpg,canyon,0.0,,False,,85,old,9.8,Male,8,rest,734.0,,definitely_new,,,,,Children,Revaluation,1.0
167,246,637,8153,memory,False,./assets/img/canyon/memory/28.jpg,canyon,10.0,,True,,86,new,9.8,Male,8,rest,883.0,,definitely_new,,,,,Children,Revaluation,1.0
168,164,471,8152,memory,False,./assets/img/canyon/memory/17.jpg,canyon,0.0,,False,,4,new,7.69,Male,3,rest,1582.0,,definitely_old,,,,,Children,Revaluation,2.0
169,169,481,8152,memory,False,./assets/img/canyon/memory/8.jpg,canyon,0.0,,False,,9,new,7.69,Male,3,rest,1955.0,,definitely_old,,,,,Children,Revaluation,2.0
170,171,485,8152,memory,False,./assets/img/canyon/memory/10.jpg,canyon,10.0,,True,,11,new,7.69,Male,3,rest,1383.0,,definitely_new,,,,,Children,Revaluation,2.0
171,173,489,8152,memory,False,./assets/img/canyon/memory/39.jpg,canyon,0.0,,False,,13,new,7.69,Male,3,rest,1788.0,,definitely_old,,,,,Children,Revaluation,2.0
172,178,499,8152,memory,False,./assets/img/canyon/memory/9.jpg,canyon,10.0,,True,,18,new,7.69,Male,3,rest,1760.0,,definitely_new,,,,,Children,Revaluation,2.0
173,179,501,8152,memory,False,./assets/img/canyon/memory/11.jpg,canyon,10.0,,True,,19,old,7.69,Male,3,rest,1767.0,,definitely_old,,,,,Children,Revaluation,2.0
174,181,505,8152,memory,False,./assets/img/canyon/memory/12.jpg,canyon,0.0,,False,,21,old,7.69,Male,3,rest,1960.0,,definitely_new,,,,,Children,Revaluation,2.0
175,183,509,8152,memory,False,./assets/img/canyon/memory/18.jpg,canyon,0.0,,False,,23,old,7.69,Male,3,rest,1860.0,,definitely_new,,,,,Children,Revaluation,2.0
176,185,513,8152,memory,False,./assets/img/canyon/memory/0.jpg,canyon,0.0,,False,,25,new,7.69,Male,3,rest,1692.0,,definitely_old,,,,,Children,Revaluation,2.0
177,187,517,8152,memory,False,./assets/img/canyon/memory/35.jpg,canyon,10.0,,True,,27,new,7.69,Male,3,rest,1800.0,,definitely_new,,,,,Children,Revaluation,2.0
178,188,519,8152,memory,False,./assets/img/canyon/memory/16.jpg,canyon,10.0,,True,,28,new,7.69,Male,3,rest,3707.0,,maybe_new,,,,,Children,Revaluation,2.0
179,189,521,8152,memory,False,./assets/img/canyon/memory/37.jpg,canyon,0.0,,False,,29,new,7.69,Male,3,rest,2350.0,,maybe_old,,,,,Children,Revaluation,2.0
180,192,527,8152,memory,False,./assets/img/canyon/memory/5.jpg,canyon,0.0,,False,,32,old,7.69,Male,3,rest,1983.0,,maybe_new,,,,,Children,Revaluation,2.0
181,194,531,8152,memory,False,./assets/img/canyon/memory/1.jpg,canyon,0.0,,False,,34,old,7.69,Male,3,rest,2265.0,,definitely_new,,,,,Children,Revaluation,2.0
182,195,533,8152,memory,False,./assets/img/canyon/memory/13.jpg,canyon,10.0,,True,,35,old,7.69,Male,3,rest,1703.0,,definitely_old,,,,,Children,Revaluation,2.0
183,196,535,8152,memory,False,./assets/img/canyon/memory/20.jpg,canyon,10.0,,True,,36,new,7.69,Male,3,rest,1862.0,,definitely_new,,,,,Children,Revaluation,2.0
184,197,537,8152,memory,False,./assets/img/canyon/memory/2.jpg,canyon,10.0,,True,,37,old,7.69,Male,3,rest,2432.0,,definitely_old,,,,,Children,Revaluation,2.0
185,199,541,8152,memory,False,./assets/img/canyon/memory/6.jpg,canyon,10.0,,True,,39,old,7.69,Male,3,rest,1573.0,,definitely_old,,,,,Children,Revaluation,2.0
186,201,545,8152,memory,False,./assets/img/canyon/memory/29.jpg,canyon,10.0,,True,,41,old,7.69,Male,3,rest,1616.0,,definitely_old,,,,,Children,Revaluation,2.0
187,202,547,8152,memory,False,./assets/img/canyon/memory/27.jpg,canyon,10.0,,True,,42,new,7.69,Male,3,rest,1897.0,,maybe_new,,,,,Children,Revaluation,2.0
188,206,555,8152,memory,False,./assets/img/canyon/memory/40.jpg,canyon,10.0,,True,,46,new,7.69,Male,3,rest,1272.0,,definitely_new,,,,,Children,Revaluation,2.0
189,208,559,8152,memory,False,./assets/img/canyon/memory/26.jpg,canyon,10.0,,True,,48,old,7.69,Male,3,rest,1716.0,,definitely_old,,,,,Children,Revaluation,2.0
190,209,561,8152,memory,False,./assets/img/canyon/memory/24.jpg,canyon,0.0,,False,,49,new,7.69,Male,3,rest,1776.0,,definitely_old,,,,,Children,Revaluation,2.0
191,210,563,8152,memory,False,./assets/img/canyon/memory/14.jpg,canyon,10.0,,True,,50,old,7.69,Male,3,rest,680.0,,definitely_old,,,,,Children,Revaluation,2.0
192,213,569,8152,memory,False,./assets/img/canyon/memory/41.jpg,canyon,10.0,,True,,53,new,7.69,Male,3,rest,2360.0,,definitely_new,,,,,Children,Revaluation,2.0
193,215,573,8152,memory,False,./assets/img/canyon/memory/4.jpg,canyon,0.0,,False,,55,old,7.69,Male,3,rest,1313.0,,maybe_new,,,,,Children,Revaluation,2.0
194,217,577,8152,memory,False,./assets/img/canyon/memory/23.jpg,canyon,10.0,,True,,57,new,7.69,Male,3,rest,1696.0,,definitely_new,,,,,Children,Revaluation,2.0
195,219,581,8152,memory,False,./assets/img/canyon/memory/7.jpg,canyon,0.0,,False,,59,new,7.69,Male,3,rest,9481.0,,definitely_old,,,,,Children,Revaluation,2.0
196,226,595,8152,memory,False,./assets/img/canyon/memory/25.jpg,canyon,10.0,,True,,66,old,7.69,Male,3,rest,1570.0,,maybe_old,,,,,Children,Revaluation,2.0
197,228,599,8152,memory,False,./assets/img/canyon/memory/21.jpg,canyon,10.0,,True,,68,old,7.69,Male,3,rest,1733.0,,definitely_old,,,,,Children,Revaluation,2.0
198,229,601,8152,memory,False,./assets/img/canyon/memory/32.jpg,canyon,10.0,,True,,69,old,7.69,Male,3,rest,1438.0,,definitely_old,,,,,Children,Revaluation,2.0
199,230,603,8152,memory,False,./assets/img/canyon/memory/30.jpg,canyon,10.0,,True,,70,new,7.69,Male,3,rest,2214.0,,definitely_new,,,,,Children,Revaluation,2.0
200,231,605,8152,memory,False,./assets/img/canyon/memory/36.jpg,canyon,10.0,,True,,71,old,7.69,Male,3,rest,2050.0,,definitely_old,,,,,Children,Revaluation,2.0
201,232,607,8152,memory,False,./assets/img/canyon/memory/28.jpg,canyon,10.0,,True,,72,new,7.69,Male,3,rest,2189.0,,definitely_new,,,,,Children,Revaluation,2.0
202,233,609,8152,memory,False,./assets/img/canyon/memory/33.jpg,canyon,10.0,,True,,73,new,7.69,Male,3,rest,2418.0,,maybe_new,,,,,Children,Revaluation,2.0
203,234,611,8152,memory,False,./assets/img/canyon/memory/19.jpg,canyon,0.0,,False,,74,new,7.69,Male,3,rest,2279.0,,maybe_old,,,,,Children,Revaluation,2.0
204,237,617,8152,memory,False,./assets/img/canyon/memory/31.jpg,canyon,0.0,,False,,77,old,7.69,Male,3,rest,3074.0,,definitely_new,,,,,Children,Revaluation,2.0
205,239,621,8152,memory,False,./assets/img/canyon/memory/38.jpg,canyon,10.0,,True,,79,old,7.69,Male,3,rest,5074.0,,definitely_old,,,,,Children,Revaluation,2.0
206,241,625,8152,memory,False,./assets/img/canyon/memory/34.jpg,canyon,0.0,,False,,81,new,7.69,Male,3,rest,1808.0,,definitely_old,,,,,Children,Revaluation,2.0
207,244,631,8152,memory,False,./assets/img/canyon/memory/15.jpg,canyon,10.0,,True,,84,old,7.69,Male,3,rest,1803.0,,definitely_old,,,,,Children,Revaluation,2.0
208,245,633,8152,memory,False,./assets/img/canyon/memory/22.jpg,canyon,0.0,,False,,85,old,7.69,Male,3,rest,2880.0,,definitely_new,,,,,Children,Revaluation,2.0
209,246,635,8152,memory,False,./assets/img/canyon/memory/3.jpg,canyon,10.0,,True,,86,old,7.69,Male,3,rest,2563.0,,definitely_old,,,,,Children,Revaluation,2.0
210,165,473,8152,memory,False,./assets/img/ocean/memory/4.jpg,ocean,10.0,,True,,5,old,7.69,Male,3,rest,1675.0,,definitely_old,,,,,Children,Control,1.0
211,166,475,8152,memory,False,./assets/img/ocean/memory/27.jpg,ocean,0.0,,False,,6,old,7.69,Male,3,rest,2881.0,,definitely_new,,,,,Children,Control,1.0
212,167,477,8152,memory,False,./assets/img/ocean/memory/33.jpg,ocean,10.0,,True,,7,new,7.69,Male,3,rest,1864.0,,definitely_new,,,,,Children,Control,1.0
213,168,479,8152,memory,False,./assets/img/ocean/memory/36.jpg,ocean,10.0,,True,,8,new,7.69,Male,3,rest,2519.0,,definitely_new,,,,,Children,Control,1.0
214,170,483,8152,memory,False,./assets/img/ocean/memory/2.jpg,ocean,10.0,,True,,10,new,7.69,Male,3,rest,2344.0,,definitely_new,,,,,Children,Control,1.0
215,172,487,8152,memory,False,./assets/img/ocean/memory/38.jpg,ocean,10.0,,True,,12,old,7.69,Male,3,rest,1158.0,,definitely_old,,,,,Children,Control,1.0
216,174,491,8152,memory,False,./assets/img/ocean/memory/1.jpg,ocean,10.0,,True,,14,old,7.69,Male,3,rest,3417.0,,definitely_old,,,,,Children,Control,1.0
217,175,493,8152,memory,False,./assets/img/ocean/memory/31.jpg,ocean,10.0,,True,,15,old,7.69,Male,3,rest,1939.0,,definitely_old,,,,,Children,Control,1.0
218,176,495,8152,memory,False,./assets/img/ocean/memory/25.jpg,ocean,0.0,,False,,16,new,7.69,Male,3,rest,1623.0,,maybe_old,,,,,Children,Control,1.0
219,177,497,8152,memory,False,./assets/img/ocean/memory/21.jpg,ocean,10.0,,True,,17,old,7.69,Male,3,rest,1494.0,,maybe_old,,,,,Children,Control,1.0
220,180,503,8152,memory,False,./assets/img/ocean/memory/23.jpg,ocean,10.0,,True,,20,old,7.69,Male,3,rest,1748.0,,definitely_old,,,,,Children,Control,1.0
221,182,507,8152,memory,False,./assets/img/ocean/memory/17.jpg,ocean,10.0,,True,,22,new,7.69,Male,3,rest,3150.0,,definitely_new,,,,,Children,Control,1.0
222,184,511,8152,memory,False,./assets/img/ocean/memory/22.jpg,ocean,10.0,,True,,24,old,7.69,Male,3,rest,1259.0,,definitely_old,,,,,Children,Control,1.0
223,186,515,8152,memory,False,./assets/img/ocean/memory/6.jpg,ocean,10.0,,True,,26,old,7.69,Male,3,rest,1386.0,,definitely_old,,,,,Children,Control,1.0
224,190,523,8152,memory,False,./assets/img/ocean/memory/9.jpg,ocean,10.0,,True,,30,old,7.69,Male,3,rest,1405.0,,definitely_old,,,,,Children,Control,1.0
225,191,525,8152,memory,False,./assets/img/ocean/memory/18.jpg,ocean,10.0,,True,,31,new,7.69,Male,3,rest,1655.0,,maybe_new,,,,,Children,Control,1.0
226,193,529,8152,memory,False,./assets/img/ocean/memory/10.jpg,ocean,0.0,,False,,33,new,7.69,Male,3,rest,1519.0,,definitely_old,,,,,Children,Control,1.0
227,198,539,8152,memory,False,./assets/img/ocean/memory/0.jpg,ocean,10.0,,True,,38,new,7.69,Male,3,rest,2354.0,,definitely_new,,,,,Children,Control,1.0
228,200,543,8152,memory,False,./assets/img/ocean/memory/26.jpg,ocean,10.0,,True,,40,old,7.69,Male,3,rest,1330.0,,definitely_old,,,,,Children,Control,1.0
229,203,549,8152,memory,False,./assets/img/ocean/memory/41.jpg,ocean,10.0,,True,,43,new,7.69,Male,3,rest,1528.0,,definitely_new,,,,,Children,Control,1.0
230,204,551,8152,memory,False,./assets/img/ocean/memory/20.jpg,ocean,10.0,,True,,44,new,7.69,Male,3,rest,3840.0,,definitely_new,,,,,Children,Control,1.0
231,205,553,8152,memory,False,./assets/img/ocean/memory/3.jpg,ocean,10.0,,True,,45,old,7.69,Male,3,rest,1306.0,,definitely_old,,,,,Children,Control,1.0
232,207,557,8152,memory,False,./assets/img/ocean/memory/28.jpg,ocean,0.0,,False,,47,new,7.69,Male,3,rest,1270.0,,definitely_old,,,,,Children,Control,1.0
233,211,565,8152,memory,False,./assets/img/ocean/memory/24.jpg,ocean,10.0,,True,,51,old,7.69,Male,3,rest,1538.0,,definitely_old,,,,,Children,Control,1.0
234,212,567,8152,memory,False,./assets/img/ocean/memory/39.jpg,ocean,10.0,,True,,52,new,7.69,Male,3,rest,1894.0,,definitely_new,,,,,Children,Control,1.0
235,214,571,8152,memory,False,./assets/img/ocean/memory/37.jpg,ocean,10.0,,True,,54,new,7.69,Male,3,rest,1553.0,,definitely_new,,,,,Children,Control,1.0
236,216,575,8152,memory,False,./assets/img/ocean/memory/7.jpg,ocean,10.0,,True,,56,old,7.69,Male,3,rest,1563.0,,maybe_old,,,,,Children,Control,1.0
237,218,579,8152,memory,False,./assets/img/ocean/memory/5.jpg,ocean,10.0,,True,,58,old,7.69,Male,3,rest,1528.0,,definitely_old,,,,,Children,Control,1.0
238,220,583,8152,memory,False,./assets/img/ocean/memory/14.jpg,ocean,10.0,,True,,60,new,7.69,Male,3,rest,2034.0,,definitely_new,,,,,Children,Control,1.0
239,221,585,8152,memory,False,./assets/img/ocean/memory/13.jpg,ocean,10.0,,True,,61,old,7.69,Male,3,rest,1476.0,,definitely_old,,,,,Children,Control,1.0
240,222,587,8152,memory,False,./assets/img/ocean/memory/15.jpg,ocean,10.0,,True,,62,old,7.69,Male,3,rest,1291.0,,definitely_old,,,,,Children,Control,1.0
241,223,589,8152,memory,False,./assets/img/ocean/memory/29.jpg,ocean,10.0,,True,,63,old,7.69,Male,3,rest,2111.0,,definitely_old,,,,,Children,Control,1.0
242,224,591,8152,memory,False,./assets/img/ocean/memory/16.jpg,ocean,10.0,,True,,64,new,7.69,Male,3,rest,1715.0,,definitely_new,,,,,Children,Control,1.0
243,225,593,8152,memory,False,./assets/img/ocean/memory/11.jpg,ocean,0.0,,False,,65,new,7.69,Male,3,rest,2247.0,,definitely_old,,,,,Children,Control,1.0
244,227,597,8152,memory,False,./assets/img/ocean/memory/32.jpg,ocean,10.0,,True,,67,new,7.69,Male,3,rest,2514.0,,maybe_new,,,,,Children,Control,1.0
245,235,613,8152,memory,False,./assets/img/ocean/memory/12.jpg,ocean,0.0,,False,,75,new,7.69,Male,3,rest,1427.0,,definitely_old,,,,,Children,Control,1.0
246,236,615,8152,memory,False,./assets/img/ocean/memory/34.jpg,ocean,10.0,,True,,76,old,7.69,Male,3,rest,1818.0,,definitely_old,,,,,Children,Control,1.0
247,238,619,8152,memory,False,./assets/img/ocean/memory/8.jpg,ocean,0.0,,False,,78,new,7.69,Male,3,rest,1716.0,,definitely_old,,,,,Children,Control,1.0
248,240,623,8152,memory,False,./assets/img/ocean/memory/35.jpg,ocean,10.0,,True,,80,new,7.69,Male,3,rest,2354.0,,definitely_new,,,,,Children,Control,1.0
249,242,627,8152,memory,False,./assets/img/ocean/memory/19.jpg,ocean,10.0,,True,,82,old,7.69,Male,3,rest,1131.0,,definitely_old,,,,,Children,Control,1.0
250,243,629,8152,memory,False,./assets/img/ocean/memory/30.jpg,ocean,10.0,,True,,83,new,7.69,Male,3,rest,1635.0,,definitely_new,,,,,Children,Control,1.0
251,247,637,8152,memory,False,./assets/img/ocean/memory/40.jpg,ocean,10.0,,True,,87,old,7.69,Male,3,rest,2742.0,,definitely_old,,,,,Children,Control,1.0
252,164,469,7513,memory,False,./assets/img/ocean/memory/1.jpg,ocean,10.0,,True,,4,old,23.74,Male,3,rest,3177.0,,definitely_old,,,,,Adults,Control,1.0
253,166,473,7513,memory,False,./assets/img/ocean/memory/37.jpg,ocean,10.0,,True,,6,old,23.74,Male,3,rest,1540.0,,maybe_old,,,,,Adults,Control,1.0
254,167,475,7513,memory,False,./assets/img/ocean/memory/2.jpg,ocean,10.0,,True,,7,new,23.74,Male,3,rest,1999.0,,maybe_new,,,,,Adults,Control,1.0
255,169,479,7513,memory,False,./assets/img/ocean/memory/15.jpg,ocean,0.0,,False,,9,new,23.74,Male,3,rest,1228.0,,maybe_old,,,,,Adults,Control,1.0
256,172,485,7513,memory,False,./assets/img/ocean/memory/12.jpg,ocean,10.0,,True,,12,new,23.74,Male,3,rest,1642.0,,definitely_new,,,,,Adults,Control,1.0
257,174,489,7513,memory,False,./assets/img/ocean/memory/39.jpg,ocean,0.0,,False,,14,new,23.74,Male,3,rest,1947.0,,definitely_old,,,,,Adults,Control,1.0
258,175,491,7513,memory,False,./assets/img/ocean/memory/28.jpg,ocean,10.0,,True,,15,old,23.74,Male,3,rest,1021.0,,definitely_old,,,,,Adults,Control,1.0
259,182,505,7513,memory,False,./assets/img/ocean/memory/40.jpg,ocean,0.0,,False,,22,new,23.74,Male,3,rest,1855.0,,maybe_old,,,,,Adults,Control,1.0
260,183,507,7513,memory,False,./assets/img/ocean/memory/21.jpg,ocean,10.0,,True,,23,new,23.74,Male,3,rest,1813.0,,definitely_new,,,,,Adults,Control,1.0
261,184,509,7513,memory,False,./assets/img/ocean/memory/30.jpg,ocean,0.0,,False,,24,old,23.74,Male,3,rest,1276.0,,maybe_new,,,,,Adults,Control,1.0
262,185,511,7513,memory,False,./assets/img/ocean/memory/31.jpg,ocean,10.0,,True,,25,new,23.74,Male,3,rest,1604.0,,maybe_new,,,,,Adults,Control,1.0
263,186,513,7513,memory,False,./assets/img/ocean/memory/5.jpg,ocean,10.0,,True,,26,old,23.74,Male,3,rest,1285.0,,maybe_old,,,,,Adults,Control,1.0
264,187,515,7513,memory,False,./assets/img/ocean/memory/9.jpg,ocean,0.0,,False,,27,old,23.74,Male,3,rest,2131.0,,maybe_new,,,,,Adults,Control,1.0
265,188,517,7513,memory,False,./assets/img/ocean/memory/26.jpg,ocean,0.0,,False,,28,new,23.74,Male,3,rest,1040.0,,maybe_old,,,,,Adults,Control,1.0
266,189,519,7513,memory,False,./assets/img/ocean/memory/4.jpg,ocean,0.0,,False,,29,old,23.74,Male,3,rest,1321.0,,maybe_new,,,,,Adults,Control,1.0
267,190,521,7513,memory,False,./assets/img/ocean/memory/20.jpg,ocean,10.0,,True,,30,old,23.74,Male,3,rest,1161.0,,definitely_old,,,,,Adults,Control,1.0
268,191,523,7513,memory,False,./assets/img/ocean/memory/41.jpg,ocean,10.0,,True,,31,old,23.74,Male,3,rest,1435.0,,maybe_old,,,,,Adults,Control,1.0
269,192,525,7513,memory,False,./assets/img/ocean/memory/32.jpg,ocean,10.0,,True,,32,old,23.74,Male,3,rest,1377.0,,maybe_old,,,,,Adults,Control,1.0
270,196,533,7513,memory,False,./assets/img/ocean/memory/33.jpg,ocean,10.0,,True,,36,old,23.74,Male,3,rest,1305.0,,maybe_old,,,,,Adults,Control,1.0
271,197,535,7513,memory,False,./assets/img/ocean/memory/7.jpg,ocean,10.0,,True,,37,new,23.74,Male,3,rest,1283.0,,maybe_new,,,,,Adults,Control,1.0
272,199,539,7513,memory,False,./assets/img/ocean/memory/13.jpg,ocean,10.0,,True,,39,new,23.74,Male,3,rest,927.0,,definitely_new,,,,,Adults,Control,1.0
273,200,541,7513,memory,False,./assets/img/ocean/memory/27.jpg,ocean,10.0,,True,,40,old,23.74,Male,3,rest,1487.0,,maybe_old,,,,,Adults,Control,1.0
274,202,545,7513,memory,False,./assets/img/ocean/memory/19.jpg,ocean,10.0,,True,,42,old,23.74,Male,3,rest,1323.0,,maybe_old,,,,,Adults,Control,1.0
275,203,547,7513,memory,False,./assets/img/ocean/memory/23.jpg,ocean,10.0,,True,,43,old,23.74,Male,3,rest,1300.0,,maybe_old,,,,,Adults,Control,1.0
276,204,549,7513,memory,False,./assets/img/ocean/memory/6.jpg,ocean,0.0,,False,,44,old,23.74,Male,3,rest,892.0,,maybe_new,,,,,Adults,Control,1.0
277,205,551,7513,memory,False,./assets/img/ocean/memory/17.jpg,ocean,10.0,,True,,45,new,23.74,Male,3,rest,1562.0,,definitely_new,,,,,Adults,Control,1.0
278,207,555,7513,memory,False,./assets/img/ocean/memory/10.jpg,ocean,10.0,,True,,47,old,23.74,Male,3,rest,1067.0,,maybe_old,,,,,Adults,Control,1.0
279,210,561,7513,memory,False,./assets/img/ocean/memory/11.jpg,ocean,10.0,,True,,50,old,23.74,Male,3,rest,1593.0,,maybe_old,,,,,Adults,Control,1.0
280,213,567,7513,memory,False,./assets/img/ocean/memory/34.jpg,ocean,10.0,,True,,53,new,23.74,Male,3,rest,1648.0,,maybe_new,,,,,Adults,Control,1.0
281,215,571,7513,memory,False,./assets/img/ocean/memory/36.jpg,ocean,10.0,,True,,55,new,23.74,Male,3,rest,2037.0,,maybe_new,,,,,Adults,Control,1.0
282,216,573,7513,memory,False,./assets/img/ocean/memory/18.jpg,ocean,0.0,,False,,56,old,23.74,Male,3,rest,1465.0,,maybe_new,,,,,Adults,Control,1.0
283,217,575,7513,memory,False,./assets/img/ocean/memory/22.jpg,ocean,10.0,,True,,57,new,23.74,Male,3,rest,1091.0,,maybe_new,,,,,Adults,Control,1.0
284,223,587,7513,memory,False,./assets/img/ocean/memory/0.jpg,ocean,10.0,,True,,63,old,23.74,Male,3,rest,1088.0,,maybe_old,,,,,Adults,Control,1.0
285,229,599,7513,memory,False,./assets/img/ocean/memory/24.jpg,ocean,10.0,,True,,69,new,23.74,Male,3,rest,1648.0,,definitely_new,,,,,Adults,Control,1.0
286,231,603,7513,memory,False,./assets/img/ocean/memory/16.jpg,ocean,10.0,,True,,71,new,23.74,Male,3,rest,1487.0,,maybe_new,,,,,Adults,Control,1.0
287,236,613,7513,memory,False,./assets/img/ocean/memory/29.jpg,ocean,10.0,,True,,76,new,23.74,Male,3,rest,1498.0,,maybe_new,,,,,Adults,Control,1.0
288,237,615,7513,memory,False,./assets/img/ocean/memory/38.jpg,ocean,10.0,,True,,77,new,23.74,Male,3,rest,1161.0,,maybe_new,,,,,Adults,Control,1.0
289,240,621,7513,memory,False,./assets/img/ocean/memory/14.jpg,ocean,0.0,,False,,80,new,23.74,Male,3,rest,1146.0,,maybe_old,,,,,Adults,Control,1.0
290,241,623,7513,memory,False,./assets/img/ocean/memory/25.jpg,ocean,0.0,,False,,81,old,23.74,Male,3,rest,824.0,,maybe_new,,,,,Adults,Control,1.0
291,242,625,7513,memory,False,./assets/img/ocean/memory/3.jpg,ocean,10.0,,True,,82,new,23.74,Male,3,rest,1154.0,,maybe_new,,,,,Adults,Control,1.0
292,245,631,7513,memory,False,./assets/img/ocean/memory/8.jpg,ocean,10.0,,True,,85,new,23.74,Male,3,rest,1675.0,,maybe_new,,,,,Adults,Control,1.0
293,247,635,7513,memory,False,./assets/img/ocean/memory/35.jpg,ocean,0.0,,False,,87,old,23.74,Male,3,rest,2047.0,,maybe_new,,,,,Adults,Control,1.0
294,165,471,7513,memory,False,./assets/img/canyon/memory/33.jpg,canyon,10.0,,True,,5,old,23.74,Male,3,rest,1201.0,,definitely_old,,,,,Adults,Revaluation,2.0
295,168,477,7513,memory,False,./assets/img/canyon/memory/15.jpg,canyon,10.0,,True,,8,old,23.74,Male,3,rest,1753.0,,maybe_old,,,,,Adults,Revaluation,2.0
296,170,481,7513,memory,False,./assets/img/canyon/memory/12.jpg,canyon,10.0,,True,,10,new,23.74,Male,3,rest,1485.0,,maybe_new,,,,,Adults,Revaluation,2.0
297,171,483,7513,memory,False,./assets/img/canyon/memory/5.jpg,canyon,0.0,,False,,11,new,23.74,Male,3,rest,1935.0,,maybe_old,,,,,Adults,Revaluation,2.0
298,173,487,7513,memory,False,./assets/img/canyon/memory/32.jpg,canyon,0.0,,False,,13,new,23.74,Male,3,rest,3110.0,,maybe_old,,,,,Adults,Revaluation,2.0
299,176,493,7513,memory,False,./assets/img/canyon/memory/7.jpg,canyon,0.0,,False,,16,new,23.74,Male,3,rest,1597.0,,definitely_old,,,,,Adults,Revaluation,2.0
300,177,495,7513,memory,False,./assets/img/canyon/memory/27.jpg,canyon,10.0,,True,,17,old,23.74,Male,3,rest,1524.0,,maybe_old,,,,,Adults,Revaluation,2.0
301,178,497,7513,memory,False,./assets/img/canyon/memory/1.jpg,canyon,10.0,,True,,18,old,23.74,Male,3,rest,1137.0,,definitely_old,,,,,Adults,Revaluation,2.0
302,179,499,7513,memory,False,./assets/img/canyon/memory/13.jpg,canyon,0.0,,False,,19,new,23.74,Male,3,rest,1942.0,,maybe_old,,,,,Adults,Revaluation,2.0
303,180,501,7513,memory,False,./assets/img/canyon/memory/31.jpg,canyon,0.0,,False,,20,old,23.74,Male,3,rest,1262.0,,maybe_new,,,,,Adults,Revaluation,2.0
304,181,503,7513,memory,False,./assets/img/canyon/memory/18.jpg,canyon,0.0,,False,,21,new,23.74,Male,3,rest,1362.0,,definitely_old,,,,,Adults,Revaluation,2.0
305,193,527,7513,memory,False,./assets/img/canyon/memory/11.jpg,canyon,10.0,,True,,33,new,23.74,Male,3,rest,1428.0,,maybe_new,,,,,Adults,Revaluation,2.0
306,194,529,7513,memory,False,./assets/img/canyon/memory/37.jpg,canyon,0.0,,False,,34,new,23.74,Male,3,rest,1849.0,,maybe_old,,,,,Adults,Revaluation,2.0
307,195,531,7513,memory,False,./assets/img/canyon/memory/10.jpg,canyon,0.0,,False,,35,new,23.74,Male,3,rest,1602.0,,maybe_old,,,,,Adults,Revaluation,2.0
308,198,537,7513,memory,False,./assets/img/canyon/memory/16.jpg,canyon,10.0,,True,,38,new,23.74,Male,3,rest,948.0,,maybe_new,,,,,Adults,Revaluation,2.0
309,201,543,7513,memory,False,./assets/img/canyon/memory/35.jpg,canyon,0.0,,False,,41,new,23.74,Male,3,rest,1033.0,,maybe_old,,,,,Adults,Revaluation,2.0
310,206,553,7513,memory,False,./assets/img/canyon/memory/36.jpg,canyon,0.0,,False,,46,new,23.74,Male,3,rest,1695.0,,maybe_old,,,,,Adults,Revaluation,2.0
311,208,557,7513,memory,False,./assets/img/canyon/memory/24.jpg,canyon,10.0,,True,,48,old,23.74,Male,3,rest,1187.0,,maybe_old,,,,,Adults,Revaluation,2.0
312,209,559,7513,memory,False,./assets/img/canyon/memory/40.jpg,canyon,0.0,,False,,49,old,23.74,Male,3,rest,1137.0,,maybe_new,,,,,Adults,Revaluation,2.0
313,211,563,7513,memory,False,./assets/img/canyon/memory/23.jpg,canyon,10.0,,True,,51,old,23.74,Male,3,rest,1749.0,,definitely_old,,,,,Adults,Revaluation,2.0
314,212,565,7513,memory,False,./assets/img/canyon/memory/0.jpg,canyon,0.0,,False,,52,old,23.74,Male,3,rest,1338.0,,maybe_new,,,,,Adults,Revaluation,2.0
315,214,569,7513,memory,False,./assets/img/canyon/memory/22.jpg,canyon,10.0,,True,,54,old,23.74,Male,3,rest,1095.0,,maybe_old,,,,,Adults,Revaluation,2.0
316,218,577,7513,memory,False,./assets/img/canyon/memory/8.jpg,canyon,0.0,,False,,58,old,23.74,Male,3,rest,1222.0,,maybe_new,,,,,Adults,Revaluation,2.0
317,219,579,7513,memory,False,./assets/img/canyon/memory/6.jpg,canyon,0.0,,False,,59,old,23.74,Male,3,rest,1740.0,,maybe_new,,,,,Adults,Revaluation,2.0
318,220,581,7513,memory,False,./assets/img/canyon/memory/9.jpg,canyon,0.0,,False,,60,old,23.74,Male,3,rest,1226.0,,definitely_new,,,,,Adults,Revaluation,2.0
319,221,583,7513,memory,False,./assets/img/canyon/memory/17.jpg,canyon,0.0,,False,,61,new,23.74,Male,3,rest,1430.0,,maybe_old,,,,,Adults,Revaluation,2.0
320,222,585,7513,memory,False,./assets/img/canyon/memory/38.jpg,canyon,10.0,,True,,62,old,23.74,Male,3,rest,1546.0,,definitely_old,,,,,Adults,Revaluation,2.0
321,224,589,7513,memory,False,./assets/img/canyon/memory/4.jpg,canyon,0.0,,False,,64,new,23.74,Male,3,rest,1229.0,,maybe_old,,,,,Adults,Revaluation,2.0
322,225,591,7513,memory,False,./assets/img/canyon/memory/34.jpg,canyon,10.0,,True,,65,old,23.74,Male,3,rest,1295.0,,maybe_old,,,,,Adults,Revaluation,2.0
323,226,593,7513,memory,False,./assets/img/canyon/memory/30.jpg,canyon,0.0,,False,,66,new,23.74,Male,3,rest,1143.0,,definitely_old,,,,,Adults,Revaluation,2.0
324,227,595,7513,memory,False,./assets/img/canyon/memory/2.jpg,canyon,10.0,,True,,67,old,23.74,Male,3,rest,1123.0,,maybe_old,,,,,Adults,Revaluation,2.0
325,228,597,7513,memory,False,./assets/img/canyon/memory/19.jpg,canyon,10.0,,True,,68,new,23.74,Male,3,rest,994.0,,maybe_new,,,,,Adults,Revaluation,2.0
326,230,601,7513,memory,False,./assets/img/canyon/memory/14.jpg,canyon,10.0,,True,,70,new,23.74,Male,3,rest,1382.0,,definitely_new,,,,,Adults,Revaluation,2.0
327,232,605,7513,memory,False,./assets/img/canyon/memory/28.jpg,canyon,10.0,,True,,72,new,23.74,Male,3,rest,2327.0,,maybe_new,,,,,Adults,Revaluation,2.0
328,233,607,7513,memory,False,./assets/img/canyon/memory/41.jpg,canyon,0.0,,False,,73,old,23.74,Male,3,rest,1571.0,,maybe_new,,,,,Adults,Revaluation,2.0
329,234,609,7513,memory,False,./assets/img/canyon/memory/26.jpg,canyon,10.0,,True,,74,new,23.74,Male,3,rest,1750.0,,definitely_new,,,,,Adults,Revaluation,2.0
330,235,611,7513,memory,False,./assets/img/canyon/memory/39.jpg,canyon,10.0,,True,,75,old,23.74,Male,3,rest,1248.0,,maybe_old,,,,,Adults,Revaluation,2.0
331,238,617,7513,memory,False,./assets/img/canyon/memory/3.jpg,canyon,0.0,,False,,78,old,23.74,Male,3,rest,1900.0,,maybe_new,,,,,Adults,Revaluation,2.0
332,239,619,7513,memory,False,./assets/img/canyon/memory/25.jpg,canyon,10.0,,True,,79,old,23.74,Male,3,rest,1182.0,,maybe_old,,,,,Adults,Revaluation,2.0
333,243,627,7513,memory,False,./assets/img/canyon/memory/29.jpg,canyon,10.0,,True,,83,new,23.74,Male,3,rest,1093.0,,maybe_new,,,,,Adults,Revaluation,2.0
334,244,629,7513,memory,False,./assets/img/canyon/memory/20.jpg,canyon,0.0,,False,,84,old,23.74,Male,3,rest,1065.0,,definitely_new,,,,,Adults,Revaluation,2.0
335,246,633,7513,memory,False,./assets/img/canyon/memory/21.jpg,canyon,10.0,,True,,86,new,23.74,Male,3,rest,1154.0,,definitely_new,,,,,Adults,Revaluation,2.0
336,164,471,7315,memory,False,./assets/img/canyon/memory/23.jpg,canyon,10.0,,True,,4,old,12.99,Male,2,rest,1293.0,,definitely_old,,,,,Children,Control,2.0
337,165,473,7315,memory,False,./assets/img/canyon/memory/16.jpg,canyon,10.0,,True,,5,old,12.99,Male,2,rest,1140.0,,definitely_old,,,,,Children,Control,2.0
338,166,475,7315,memory,False,./assets/img/canyon/memory/34.jpg,canyon,0.0,,False,,6,new,12.99,Male,2,rest,1182.0,,definitely_old,,,,,Children,Control,2.0
339,175,493,7315,memory,False,./assets/img/canyon/memory/12.jpg,canyon,0.0,,False,,15,old,12.99,Male,2,rest,1367.0,,definitely_new,,,,,Children,Control,2.0
340,176,495,7315,memory,False,./assets/img/canyon/memory/41.jpg,canyon,10.0,,True,,16,old,12.99,Male,2,rest,1161.0,,definitely_old,,,,,Children,Control,2.0
341,177,497,7315,memory,False,./assets/img/canyon/memory/22.jpg,canyon,0.0,,False,,17,new,12.99,Male,2,rest,737.0,,definitely_old,,,,,Children,Control,2.0
342,178,499,7315,memory,False,./assets/img/canyon/memory/37.jpg,canyon,0.0,,False,,18,new,12.99,Male,2,rest,808.0,,definitely_old,,,,,Children,Control,2.0
343,181,505,7315,memory,False,./assets/img/canyon/memory/9.jpg,canyon,10.0,,True,,21,old,12.99,Male,2,rest,911.0,,definitely_old,,,,,Children,Control,2.0
344,182,507,7315,memory,False,./assets/img/canyon/memory/4.jpg,canyon,10.0,,True,,22,old,12.99,Male,2,rest,613.0,,definitely_old,,,,,Children,Control,2.0
345,183,509,7315,memory,False,./assets/img/canyon/memory/25.jpg,canyon,0.0,,False,,23,new,12.99,Male,2,rest,553.0,,definitely_old,,,,,Children,Control,2.0
346,184,511,7315,memory,False,./assets/img/canyon/memory/15.jpg,canyon,10.0,,True,,24,new,12.99,Male,2,rest,1286.0,,definitely_new,,,,,Children,Control,2.0
347,185,513,7315,memory,False,./assets/img/canyon/memory/32.jpg,canyon,10.0,,True,,25,new,12.99,Male,2,rest,1617.0,,maybe_new,,,,,Children,Control,2.0
348,186,515,7315,memory,False,./assets/img/canyon/memory/11.jpg,canyon,0.0,,False,,26,old,12.99,Male,2,rest,1597.0,,maybe_new,,,,,Children,Control,2.0
349,190,523,7315,memory,False,./assets/img/canyon/memory/17.jpg,canyon,10.0,,True,,30,new,12.99,Male,2,rest,1433.0,,maybe_new,,,,,Children,Control,2.0
350,194,531,7315,memory,False,./assets/img/canyon/memory/8.jpg,canyon,0.0,,False,,34,new,12.99,Male,2,rest,844.0,,definitely_old,,,,,Children,Control,2.0
351,195,533,7315,memory,False,./assets/img/canyon/memory/13.jpg,canyon,0.0,,False,,35,new,12.99,Male,2,rest,734.0,,definitely_old,,,,,Children,Control,2.0
352,196,535,7315,memory,False,./assets/img/canyon/memory/33.jpg,canyon,10.0,,True,,36,old,12.99,Male,2,rest,978.0,,definitely_old,,,,,Children,Control,2.0
353,198,539,7315,memory,False,./assets/img/canyon/memory/36.jpg,canyon,10.0,,True,,38,old,12.99,Male,2,rest,1003.0,,definitely_old,,,,,Children,Control,2.0
354,199,541,7315,memory,False,./assets/img/canyon/memory/18.jpg,canyon,10.0,,True,,39,new,12.99,Male,2,rest,2353.0,,maybe_new,,,,,Children,Control,2.0
355,201,545,7315,memory,False,./assets/img/canyon/memory/6.jpg,canyon,0.0,,False,,41,old,12.99,Male,2,rest,1004.0,,maybe_new,,,,,Children,Control,2.0
356,203,549,7315,memory,False,./assets/img/canyon/memory/24.jpg,canyon,10.0,,True,,43,old,12.99,Male,2,rest,1694.0,,definitely_old,,,,,Children,Control,2.0
357,205,553,7315,memory,False,./assets/img/canyon/memory/7.jpg,canyon,0.0,,False,,45,new,12.99,Male,2,rest,1204.0,,maybe_old,,,,,Children,Control,2.0
358,208,559,7315,memory,False,./assets/img/canyon/memory/38.jpg,canyon,10.0,,True,,48,old,12.99,Male,2,rest,1284.0,,definitely_old,,,,,Children,Control,2.0
359,209,561,7315,memory,False,./assets/img/canyon/memory/31.jpg,canyon,0.0,,False,,49,new,12.99,Male,2,rest,884.0,,definitely_old,,,,,Children,Control,2.0
360,211,565,7315,memory,False,./assets/img/canyon/memory/29.jpg,canyon,0.0,,False,,51,old,12.99,Male,2,rest,1050.0,,maybe_new,,,,,Children,Control,2.0
361,215,573,7315,memory,False,./assets/img/canyon/memory/1.jpg,canyon,0.0,,False,,55,new,12.99,Male,2,rest,1463.0,,definitely_old,,,,,Children,Control,2.0
362,217,577,7315,memory,False,./assets/img/canyon/memory/21.jpg,canyon,10.0,,True,,57,old,12.99,Male,2,rest,1574.0,,definitely_old,,,,,Children,Control,2.0
363,218,579,7315,memory,False,./assets/img/canyon/memory/27.jpg,canyon,10.0,,True,,58,new,12.99,Male,2,rest,1459.0,,maybe_new,,,,,Children,Control,2.0
364,220,583,7315,memory,False,./assets/img/canyon/memory/30.jpg,canyon,0.0,,False,,60,old,12.99,Male,2,rest,1528.0,,maybe_new,,,,,Children,Control,2.0
365,221,585,7315,memory,False,./assets/img/canyon/memory/3.jpg,canyon,10.0,,True,,61,old,12.99,Male,2,rest,999.0,,definitely_old,,,,,Children,Control,2.0
366,222,587,7315,memory,False,./assets/img/canyon/memory/5.jpg,canyon,10.0,,True,,62,old,12.99,Male,2,rest,1198.0,,definitely_old,,,,,Children,Control,2.0
367,223,589,7315,memory,False,./assets/img/canyon/memory/0.jpg,canyon,10.0,,True,,63,new,12.99,Male,2,rest,2051.0,,maybe_new,,,,,Children,Control,2.0
368,226,595,7315,memory,False,./assets/img/canyon/memory/10.jpg,canyon,0.0,,False,,66,old,12.99,Male,2,rest,1711.0,,definitely_new,,,,,Children,Control,2.0
369,227,597,7315,memory,False,./assets/img/canyon/memory/35.jpg,canyon,10.0,,True,,67,old,12.99,Male,2,rest,1036.0,,definitely_old,,,,,Children,Control,2.0
370,228,599,7315,memory,False,./assets/img/canyon/memory/19.jpg,canyon,0.0,,False,,68,new,12.99,Male,2,rest,887.0,,definitely_old,,,,,Children,Control,2.0
371,230,603,7315,memory,False,./assets/img/canyon/memory/40.jpg,canyon,0.0,,False,,70,new,12.99,Male,2,rest,2168.0,,maybe_old,,,,,Children,Control,2.0
372,232,607,7315,memory,False,./assets/img/canyon/memory/14.jpg,canyon,10.0,,True,,72,old,12.99,Male,2,rest,1300.0,,maybe_old,,,,,Children,Control,2.0
373,236,615,7315,memory,False,./assets/img/canyon/memory/39.jpg,canyon,10.0,,True,,76,new,12.99,Male,2,rest,1782.0,,maybe_new,,,,,Children,Control,2.0
374,237,617,7315,memory,False,./assets/img/canyon/memory/28.jpg,canyon,10.0,,True,,77,new,12.99,Male,2,rest,882.0,,definitely_new,,,,,Children,Control,2.0
375,241,625,7315,memory,False,./assets/img/canyon/memory/2.jpg,canyon,10.0,,True,,81,new,12.99,Male,2,rest,1060.0,,definitely_new,,,,,Children,Control,2.0
376,244,631,7315,memory,False,./assets/img/canyon/memory/20.jpg,canyon,10.0,,True,,84,new,12.99,Male,2,rest,1800.0,,maybe_new,,,,,Children,Control,2.0
377,245,633,7315,memory,False,./assets/img/canyon/memory/26.jpg,canyon,10.0,,True,,85,old,12.99,Male,2,rest,1226.0,,definitely_old,,,,,Children,Control,2.0
378,167,477,7315,memory,False,./assets/img/ocean/memory/26.jpg,ocean,10.0,,True,,7,new,12.99,Male,2,rest,1535.0,,maybe_new,,,,,Children,Revaluation,1.0
379,168,479,7315,memory,False,./assets/img/ocean/memory/4.jpg,ocean,10.0,,True,,8,old,12.99,Male,2,rest,1010.0,,definitely_old,,,,,Children,Revaluation,1.0
380,169,481,7315,memory,False,./assets/img/ocean/memory/18.jpg,ocean,10.0,,True,,9,old,12.99,Male,2,rest,1249.0,,definitely_old,,,,,Children,Revaluation,1.0
381,170,483,7315,memory,False,./assets/img/ocean/memory/24.jpg,ocean,10.0,,True,,10,new,12.99,Male,2,rest,1447.0,,definitely_new,,,,,Children,Revaluation,1.0
382,171,485,7315,memory,False,./assets/img/ocean/memory/30.jpg,ocean,10.0,,True,,11,new,12.99,Male,2,rest,873.0,,definitely_new,,,,,Children,Revaluation,1.0
383,172,487,7315,memory,False,./assets/img/ocean/memory/22.jpg,ocean,10.0,,True,,12,old,12.99,Male,2,rest,1419.0,,definitely_old,,,,,Children,Revaluation,1.0
384,173,489,7315,memory,False,./assets/img/ocean/memory/21.jpg,ocean,10.0,,True,,13,old,12.99,Male,2,rest,976.0,,definitely_old,,,,,Children,Revaluation,1.0
385,174,491,7315,memory,False,./assets/img/ocean/memory/6.jpg,ocean,10.0,,True,,14,new,12.99,Male,2,rest,1201.0,,definitely_new,,,,,Children,Revaluation,1.0
386,179,501,7315,memory,False,./assets/img/ocean/memory/1.jpg,ocean,10.0,,True,,19,old,12.99,Male,2,rest,822.0,,definitely_old,,,,,Children,Revaluation,1.0
387,180,503,7315,memory,False,./assets/img/ocean/memory/3.jpg,ocean,10.0,,True,,20,old,12.99,Male,2,rest,1441.0,,definitely_old,,,,,Children,Revaluation,1.0
388,187,517,7315,memory,False,./assets/img/ocean/memory/31.jpg,ocean,10.0,,True,,27,old,12.99,Male,2,rest,1069.0,,definitely_old,,,,,Children,Revaluation,1.0
389,188,519,7315,memory,False,./assets/img/ocean/memory/27.jpg,ocean,10.0,,True,,28,new,12.99,Male,2,rest,1794.0,,maybe_new,,,,,Children,Revaluation,1.0
390,189,521,7315,memory,False,./assets/img/ocean/memory/20.jpg,ocean,10.0,,True,,29,new,12.99,Male,2,rest,1505.0,,maybe_new,,,,,Children,Revaluation,1.0
391,191,525,7315,memory,False,./assets/img/ocean/memory/29.jpg,ocean,10.0,,True,,31,old,12.99,Male,2,rest,947.0,,definitely_old,,,,,Children,Revaluation,1.0
392,192,527,7315,memory,False,./assets/img/ocean/memory/33.jpg,ocean,10.0,,True,,32,old,12.99,Male,2,rest,1053.0,,definitely_old,,,,,Children,Revaluation,1.0
393,193,529,7315,memory,False,./assets/img/ocean/memory/38.jpg,ocean,10.0,,True,,33,old,12.99,Male,2,rest,1031.0,,definitely_old,,,,,Children,Revaluation,1.0
394,197,537,7315,memory,False,./assets/img/ocean/memory/36.jpg,ocean,10.0,,True,,37,old,12.99,Male,2,rest,1029.0,,definitely_old,,,,,Children,Revaluation,1.0
395,200,543,7315,memory,False,./assets/img/ocean/memory/39.jpg,ocean,10.0,,True,,40,new,12.99,Male,2,rest,1319.0,,maybe_new,,,,,Children,Revaluation,1.0
396,202,547,7315,memory,False,./assets/img/ocean/memory/32.jpg,ocean,10.0,,True,,42,new,12.99,Male,2,rest,1652.0,,definitely_new,,,,,Children,Revaluation,1.0
397,204,551,7315,memory,False,./assets/img/ocean/memory/11.jpg,ocean,10.0,,True,,44,old,12.99,Male,2,rest,1630.0,,maybe_old,,,,,Children,Revaluation,1.0
398,206,555,7315,memory,False,./assets/img/ocean/memory/0.jpg,ocean,0.0,,False,,46,new,12.99,Male,2,rest,1030.0,,maybe_old,,,,,Children,Revaluation,1.0
399,207,557,7315,memory,False,./assets/img/ocean/memory/8.jpg,ocean,10.0,,True,,47,old,12.99,Male,2,rest,1943.0,,definitely_old,,,,,Children,Revaluation,1.0
400,210,563,7315,memory,False,./assets/img/ocean/memory/40.jpg,ocean,10.0,,True,,50,new,12.99,Male,2,rest,1467.0,,maybe_new,,,,,Children,Revaluation,1.0
401,212,567,7315,memory,False,./assets/img/ocean/memory/34.jpg,ocean,10.0,,True,,52,new,12.99,Male,2,rest,823.0,,definitely_new,,,,,Children,Revaluation,1.0
402,213,569,7315,memory,False,./assets/img/ocean/memory/25.jpg,ocean,10.0,,True,,53,old,12.99,Male,2,rest,1004.0,,definitely_old,,,,,Children,Revaluation,1.0
403,214,571,7315,memory,False,./assets/img/ocean/memory/28.jpg,ocean,10.0,,True,,54,new,12.99,Male,2,rest,1752.0,,maybe_new,,,,,Children,Revaluation,1.0
404,216,575,7315,memory,False,./assets/img/ocean/memory/9.jpg,ocean,0.0,,False,,56,old,12.99,Male,2,rest,1530.0,,maybe_new,,,,,Children,Revaluation,1.0
405,219,581,7315,memory,False,./assets/img/ocean/memory/14.jpg,ocean,10.0,,True,,59,new,12.99,Male,2,rest,1415.0,,maybe_new,,,,,Children,Revaluation,1.0
406,224,591,7315,memory,False,./assets/img/ocean/memory/7.jpg,ocean,10.0,,True,,64,new,12.99,Male,2,rest,1160.0,,maybe_new,,,,,Children,Revaluation,1.0
407,225,593,7315,memory,False,./assets/img/ocean/memory/23.jpg,ocean,10.0,,True,,65,new,12.99,Male,2,rest,1231.0,,definitely_new,,,,,Children,Revaluation,1.0
408,229,601,7315,memory,False,./assets/img/ocean/memory/17.jpg,ocean,10.0,,True,,69,new,12.99,Male,2,rest,1456.0,,maybe_new,,,,,Children,Revaluation,1.0
409,231,605,7315,memory,False,./assets/img/ocean/memory/2.jpg,ocean,0.0,,False,,71,new,12.99,Male,2,rest,1124.0,,maybe_old,,,,,Children,Revaluation,1.0
410,233,609,7315,memory,False,./assets/img/ocean/memory/5.jpg,ocean,0.0,,False,,73,new,12.99,Male,2,rest,1652.0,,maybe_old,,,,,Children,Revaluation,1.0
411,234,611,7315,memory,False,./assets/img/ocean/memory/37.jpg,ocean,10.0,,True,,74,old,12.99,Male,2,rest,1562.0,,definitely_old,,,,,Children,Revaluation,1.0
412,235,613,7315,memory,False,./assets/img/ocean/memory/15.jpg,ocean,10.0,,True,,75,new,12.99,Male,2,rest,1831.0,,maybe_new,,,,,Children,Revaluation,1.0
413,238,619,7315,memory,False,./assets/img/ocean/memory/12.jpg,ocean,10.0,,True,,78,new,12.99,Male,2,rest,1086.0,,definitely_new,,,,,Children,Revaluation,1.0
414,239,621,7315,memory,False,./assets/img/ocean/memory/35.jpg,ocean,10.0,,True,,79,old,12.99,Male,2,rest,1254.0,,definitely_old,,,,,Children,Revaluation,1.0
415,240,623,7315,memory,False,./assets/img/ocean/memory/10.jpg,ocean,10.0,,True,,80,new,12.99,Male,2,rest,1677.0,,maybe_new,,,,,Children,Revaluation,1.0
416,242,627,7315,memory,False,./assets/img/ocean/memory/16.jpg,ocean,10.0,,True,,82,old,12.99,Male,2,rest,940.0,,definitely_old,,,,,Children,Revaluation,1.0
417,243,629,7315,memory,False,./assets/img/ocean/memory/13.jpg,ocean,10.0,,True,,83,old,12.99,Male,2,rest,815.0,,definitely_old,,,,,Children,Revaluation,1.0
418,246,635,7315,memory,False,./assets/img/ocean/memory/19.jpg,ocean,10.0,,True,,86,old,12.99,Male,2,rest,1372.0,,definitely_old,,,,,Children,Revaluation,1.0
419,247,637,7315,memory,False,./assets/img/ocean/memory/41.jpg,ocean,10.0,,True,,87,old,12.99,Male,2,rest,1690.0,,definitely_old,,,,,Children,Revaluation,1.0
420,164,469,7301,memory,False,./assets/img/canyon/memory/13.jpg,canyon,0.0,,False,,4,old,11.83,Male,1,rest,3253.0,,definitely_new,,,,,Children,Revaluation,2.0
421,167,475,7301,memory,False,./assets/img/canyon/memory/16.jpg,canyon,10.0,,True,,7,new,11.83,Male,1,rest,1561.0,,definitely_new,,,,,Children,Revaluation,2.0
422,171,483,7301,memory,False,./assets/img/canyon/memory/40.jpg,canyon,0.0,,False,,11,old,11.83,Male,1,rest,965.0,,definitely_new,,,,,Children,Revaluation,2.0
423,172,485,7301,memory,False,./assets/img/canyon/memory/33.jpg,canyon,0.0,,False,,12,old,11.83,Male,1,rest,1231.0,,definitely_new,,,,,Children,Revaluation,2.0
424,174,489,7301,memory,False,./assets/img/canyon/memory/24.jpg,canyon,10.0,,True,,14,new,11.83,Male,1,rest,1211.0,,definitely_new,,,,,Children,Revaluation,2.0
425,176,493,7301,memory,False,./assets/img/canyon/memory/29.jpg,canyon,0.0,,False,,16,old,11.83,Male,1,rest,978.0,,definitely_new,,,,,Children,Revaluation,2.0
426,178,497,7301,memory,False,./assets/img/canyon/memory/3.jpg,canyon,10.0,,True,,18,new,11.83,Male,1,rest,928.0,,definitely_new,,,,,Children,Revaluation,2.0
427,180,501,7301,memory,False,./assets/img/canyon/memory/7.jpg,canyon,0.0,,False,,20,new,11.83,Male,1,rest,1429.0,,definitely_old,,,,,Children,Revaluation,2.0
428,181,503,7301,memory,False,./assets/img/canyon/memory/14.jpg,canyon,10.0,,True,,21,old,11.83,Male,1,rest,1097.0,,definitely_old,,,,,Children,Revaluation,2.0
429,186,513,7301,memory,False,./assets/img/canyon/memory/15.jpg,canyon,0.0,,False,,26,old,11.83,Male,1,rest,2305.0,,definitely_new,,,,,Children,Revaluation,2.0
430,188,517,7301,memory,False,./assets/img/canyon/memory/11.jpg,canyon,10.0,,True,,28,new,11.83,Male,1,rest,1120.0,,definitely_new,,,,,Children,Revaluation,2.0
431,189,519,7301,memory,False,./assets/img/canyon/memory/30.jpg,canyon,10.0,,True,,29,old,11.83,Male,1,rest,1992.0,,definitely_old,,,,,Children,Revaluation,2.0
432,193,527,7301,memory,False,./assets/img/canyon/memory/34.jpg,canyon,0.0,,False,,33,new,11.83,Male,1,rest,1420.0,,definitely_old,,,,,Children,Revaluation,2.0
433,194,529,7301,memory,False,./assets/img/canyon/memory/10.jpg,canyon,10.0,,True,,34,new,11.83,Male,1,rest,1205.0,,definitely_new,,,,,Children,Revaluation,2.0
434,195,531,7301,memory,False,./assets/img/canyon/memory/32.jpg,canyon,10.0,,True,,35,new,11.83,Male,1,rest,1658.0,,definitely_new,,,,,Children,Revaluation,2.0
435,196,533,7301,memory,False,./assets/img/canyon/memory/0.jpg,canyon,10.0,,True,,36,new,11.83,Male,1,rest,1851.0,,definitely_new,,,,,Children,Revaluation,2.0
436,199,539,7301,memory,False,./assets/img/canyon/memory/4.jpg,canyon,10.0,,True,,39,new,11.83,Male,1,rest,2416.0,,definitely_new,,,,,Children,Revaluation,2.0
437,202,545,7301,memory,False,./assets/img/canyon/memory/9.jpg,canyon,0.0,,False,,42,old,11.83,Male,1,rest,1742.0,,definitely_new,,,,,Children,Revaluation,2.0
438,205,551,7301,memory,False,./assets/img/canyon/memory/41.jpg,canyon,0.0,,False,,45,old,11.83,Male,1,rest,1044.0,,definitely_new,,,,,Children,Revaluation,2.0
439,206,553,7301,memory,False,./assets/img/canyon/memory/22.jpg,canyon,0.0,,False,,46,old,11.83,Male,1,rest,988.0,,definitely_new,,,,,Children,Revaluation,2.0
440,207,555,7301,memory,False,./assets/img/canyon/memory/18.jpg,canyon,10.0,,True,,47,new,11.83,Male,1,rest,1410.0,,definitely_new,,,,,Children,Revaluation,2.0
441,209,559,7301,memory,False,./assets/img/canyon/memory/27.jpg,canyon,0.0,,False,,49,old,11.83,Male,1,rest,2371.0,,definitely_new,,,,,Children,Revaluation,2.0
442,214,569,7301,memory,False,./assets/img/canyon/memory/39.jpg,canyon,10.0,,True,,54,new,11.83,Male,1,rest,1086.0,,definitely_new,,,,,Children,Revaluation,2.0
443,215,571,7301,memory,False,./assets/img/canyon/memory/38.jpg,canyon,0.0,,False,,55,old,11.83,Male,1,rest,1364.0,,definitely_new,,,,,Children,Revaluation,2.0
444,217,575,7301,memory,False,./assets/img/canyon/memory/26.jpg,canyon,10.0,,True,,57,old,11.83,Male,1,rest,1055.0,,definitely_old,,,,,Children,Revaluation,2.0
445,219,579,7301,memory,False,./assets/img/canyon/memory/19.jpg,canyon,10.0,,True,,59,new,11.83,Male,1,rest,1326.0,,definitely_new,,,,,Children,Revaluation,2.0
446,221,583,7301,memory,False,./assets/img/canyon/memory/1.jpg,canyon,10.0,,True,,61,old,11.83,Male,1,rest,1962.0,,maybe_old,,,,,Children,Revaluation,2.0
447,222,585,7301,memory,False,./assets/img/canyon/memory/28.jpg,canyon,10.0,,True,,62,old,11.83,Male,1,rest,1251.0,,definitely_old,,,,,Children,Revaluation,2.0
448,223,587,7301,memory,False,./assets/img/canyon/memory/6.jpg,canyon,0.0,,False,,63,new,11.83,Male,1,rest,1658.0,,definitely_old,,,,,Children,Revaluation,2.0
449,225,591,7301,memory,False,./assets/img/canyon/memory/23.jpg,canyon,10.0,,True,,65,new,11.83,Male,1,rest,1472.0,,definitely_new,,,,,Children,Revaluation,2.0
450,229,599,7301,memory,False,./assets/img/canyon/memory/5.jpg,canyon,10.0,,True,,69,new,11.83,Male,1,rest,834.0,,definitely_new,,,,,Children,Revaluation,2.0
451,230,601,7301,memory,False,./assets/img/canyon/memory/31.jpg,canyon,0.0,,False,,70,old,11.83,Male,1,rest,2081.0,,definitely_new,,,,,Children,Revaluation,2.0
452,232,605,7301,memory,False,./assets/img/canyon/memory/25.jpg,canyon,0.0,,False,,72,new,11.83,Male,1,rest,2058.0,,maybe_old,,,,,Children,Revaluation,2.0
453,233,607,7301,memory,False,./assets/img/canyon/memory/35.jpg,canyon,10.0,,True,,73,new,11.83,Male,1,rest,1163.0,,definitely_new,,,,,Children,Revaluation,2.0
454,234,609,7301,memory,False,./assets/img/canyon/memory/20.jpg,canyon,0.0,,False,,74,old,11.83,Male,1,rest,894.0,,definitely_new,,,,,Children,Revaluation,2.0
455,235,611,7301,memory,False,./assets/img/canyon/memory/21.jpg,canyon,0.0,,False,,75,old,11.83,Male,1,rest,1053.0,,definitely_new,,,,,Children,Revaluation,2.0
456,236,613,7301,memory,False,./assets/img/canyon/memory/36.jpg,canyon,10.0,,True,,76,old,11.83,Male,1,rest,3217.0,,maybe_old,,,,,Children,Revaluation,2.0
457,237,615,7301,memory,False,./assets/img/canyon/memory/2.jpg,canyon,0.0,,False,,77,old,11.83,Male,1,rest,1074.0,,definitely_new,,,,,Children,Revaluation,2.0
458,240,621,7301,memory,False,./assets/img/canyon/memory/37.jpg,canyon,10.0,,True,,80,new,11.83,Male,1,rest,980.0,,definitely_new,,,,,Children,Revaluation,2.0
459,243,627,7301,memory,False,./assets/img/canyon/memory/8.jpg,canyon,0.0,,False,,83,new,11.83,Male,1,rest,1222.0,,definitely_old,,,,,Children,Revaluation,2.0
460,245,631,7301,memory,False,./assets/img/canyon/memory/17.jpg,canyon,0.0,,False,,85,old,11.83,Male,1,rest,1041.0,,definitely_new,,,,,Children,Revaluation,2.0
461,246,633,7301,memory,False,./assets/img/canyon/memory/12.jpg,canyon,10.0,,True,,86,new,11.83,Male,1,rest,1187.0,,definitely_new,,,,,Children,Revaluation,2.0
462,165,471,7301,memory,False,./assets/img/ocean/memory/39.jpg,ocean,10.0,,True,,5,new,11.83,Male,1,rest,1687.0,,definitely_new,,,,,Children,Control,1.0
463,166,473,7301,memory,False,./assets/img/ocean/memory/21.jpg,ocean,10.0,,True,,6,new,11.83,Male,1,rest,1454.0,,definitely_new,,,,,Children,Control,1.0
464,168,477,7301,memory,False,./assets/img/ocean/memory/13.jpg,ocean,0.0,,False,,8,old,11.83,Male,1,rest,964.0,,definitely_new,,,,,Children,Control,1.0
465,169,479,7301,memory,False,./assets/img/ocean/memory/8.jpg,ocean,10.0,,True,,9,old,11.83,Male,1,rest,862.0,,definitely_old,,,,,Children,Control,1.0
466,170,481,7301,memory,False,./assets/img/ocean/memory/24.jpg,ocean,10.0,,True,,10,new,11.83,Male,1,rest,1012.0,,definitely_new,,,,,Children,Control,1.0
467,173,487,7301,memory,False,./assets/img/ocean/memory/19.jpg,ocean,10.0,,True,,13,new,11.83,Male,1,rest,1217.0,,definitely_new,,,,,Children,Control,1.0
468,175,491,7301,memory,False,./assets/img/ocean/memory/10.jpg,ocean,10.0,,True,,15,new,11.83,Male,1,rest,1186.0,,definitely_new,,,,,Children,Control,1.0
469,177,495,7301,memory,False,./assets/img/ocean/memory/35.jpg,ocean,10.0,,True,,17,old,11.83,Male,1,rest,1095.0,,definitely_old,,,,,Children,Control,1.0
470,179,499,7301,memory,False,./assets/img/ocean/memory/11.jpg,ocean,10.0,,True,,19,new,11.83,Male,1,rest,1080.0,,definitely_new,,,,,Children,Control,1.0
471,182,505,7301,memory,False,./assets/img/ocean/memory/38.jpg,ocean,10.0,,True,,22,new,11.83,Male,1,rest,1228.0,,definitely_new,,,,,Children,Control,1.0
472,183,507,7301,memory,False,./assets/img/ocean/memory/41.jpg,ocean,10.0,,True,,23,old,11.83,Male,1,rest,1551.0,,definitely_old,,,,,Children,Control,1.0
473,184,509,7301,memory,False,./assets/img/ocean/memory/1.jpg,ocean,10.0,,True,,24,new,11.83,Male,1,rest,1436.0,,definitely_new,,,,,Children,Control,1.0
474,185,511,7301,memory,False,./assets/img/ocean/memory/3.jpg,ocean,0.0,,False,,25,new,11.83,Male,1,rest,2535.0,,definitely_old,,,,,Children,Control,1.0
475,187,515,7301,memory,False,./assets/img/ocean/memory/26.jpg,ocean,10.0,,True,,27,old,11.83,Male,1,rest,1730.0,,definitely_old,,,,,Children,Control,1.0
476,190,521,7301,memory,False,./assets/img/ocean/memory/36.jpg,ocean,0.0,,False,,30,old,11.83,Male,1,rest,1344.0,,definitely_new,,,,,Children,Control,1.0
477,191,523,7301,memory,False,./assets/img/ocean/memory/4.jpg,ocean,10.0,,True,,31,new,11.83,Male,1,rest,1221.0,,definitely_new,,,,,Children,Control,1.0
478,192,525,7301,memory,False,./assets/img/ocean/memory/5.jpg,ocean,0.0,,False,,32,new,11.83,Male,1,rest,2723.0,,maybe_old,,,,,Children,Control,1.0
479,197,535,7301,memory,False,./assets/img/ocean/memory/23.jpg,ocean,10.0,,True,,37,new,11.83,Male,1,rest,2351.0,,maybe_new,,,,,Children,Control,1.0
480,198,537,7301,memory,False,./assets/img/ocean/memory/20.jpg,ocean,10.0,,True,,38,old,11.83,Male,1,rest,1317.0,,definitely_old,,,,,Children,Control,1.0
481,200,541,7301,memory,False,./assets/img/ocean/memory/34.jpg,ocean,0.0,,False,,40,old,11.83,Male,1,rest,1594.0,,definitely_new,,,,,Children,Control,1.0
482,201,543,7301,memory,False,./assets/img/ocean/memory/29.jpg,ocean,10.0,,True,,41,new,11.83,Male,1,rest,1661.0,,definitely_new,,,,,Children,Control,1.0
483,203,547,7301,memory,False,./assets/img/ocean/memory/15.jpg,ocean,0.0,,False,,43,old,11.83,Male,1,rest,1265.0,,definitely_new,,,,,Children,Control,1.0
484,204,549,7301,memory,False,./assets/img/ocean/memory/14.jpg,ocean,10.0,,True,,44,old,11.83,Male,1,rest,1571.0,,definitely_old,,,,,Children,Control,1.0
485,208,557,7301,memory,False,./assets/img/ocean/memory/6.jpg,ocean,10.0,,True,,48,old,11.83,Male,1,rest,2213.0,,definitely_old,,,,,Children,Control,1.0
486,210,561,7301,memory,False,./assets/img/ocean/memory/40.jpg,ocean,10.0,,True,,50,new,11.83,Male,1,rest,1231.0,,definitely_new,,,,,Children,Control,1.0
487,211,563,7301,memory,False,./assets/img/ocean/memory/25.jpg,ocean,0.0,,False,,51,old,11.83,Male,1,rest,1208.0,,definitely_new,,,,,Children,Control,1.0
488,212,565,7301,memory,False,./assets/img/ocean/memory/2.jpg,ocean,0.0,,False,,52,old,11.83,Male,1,rest,1970.0,,definitely_new,,,,,Children,Control,1.0
489,213,567,7301,memory,False,./assets/img/ocean/memory/9.jpg,ocean,10.0,,True,,53,new,11.83,Male,1,rest,3857.0,,definitely_new,,,,,Children,Control,1.0
490,216,573,7301,memory,False,./assets/img/ocean/memory/28.jpg,ocean,10.0,,True,,56,old,11.83,Male,1,rest,1222.0,,definitely_old,,,,,Children,Control,1.0
491,218,577,7301,memory,False,./assets/img/ocean/memory/17.jpg,ocean,10.0,,True,,58,new,11.83,Male,1,rest,1242.0,,definitely_new,,,,,Children,Control,1.0
492,220,581,7301,memory,False,./assets/img/ocean/memory/33.jpg,ocean,10.0,,True,,60,old,11.83,Male,1,rest,1456.0,,definitely_old,,,,,Children,Control,1.0
493,224,589,7301,memory,False,./assets/img/ocean/memory/18.jpg,ocean,10.0,,True,,64,new,11.83,Male,1,rest,1104.0,,definitely_new,,,,,Children,Control,1.0
494,226,593,7301,memory,False,./assets/img/ocean/memory/12.jpg,ocean,10.0,,True,,66,new,11.83,Male,1,rest,904.0,,definitely_new,,,,,Children,Control,1.0
495,227,595,7301,memory,False,./assets/img/ocean/memory/31.jpg,ocean,0.0,,False,,67,old,11.83,Male,1,rest,1331.0,,definitely_new,,,,,Children,Control,1.0
496,228,597,7301,memory,False,./assets/img/ocean/memory/27.jpg,ocean,10.0,,True,,68,new,11.83,Male,1,rest,1664.0,,definitely_new,,,,,Children,Control,1.0
497,231,603,7301,memory,False,./assets/img/ocean/memory/37.jpg,ocean,10.0,,True,,71,new,11.83,Male,1,rest,1018.0,,definitely_new,,,,,Children,Control,1.0
498,238,617,7301,memory,False,./assets/img/ocean/memory/16.jpg,ocean,10.0,,True,,78,old,11.83,Male,1,rest,2998.0,,maybe_old,,,,,Children,Control,1.0
499,239,619,7301,memory,False,./assets/img/ocean/memory/32.jpg,ocean,10.0,,True,,79,old,11.83,Male,1,rest,2080.0,,definitely_old,,,,,Children,Control,1.0
500,241,623,7301,memory,False,./assets/img/ocean/memory/22.jpg,ocean,10.0,,True,,81,old,11.83,Male,1,rest,2203.0,,maybe_old,,,,,Children,Control,1.0
501,242,625,7301,memory,False,./assets/img/ocean/memory/30.jpg,ocean,0.0,,False,,82,old,11.83,Male,1,rest,1776.0,,definitely_new,,,,,Children,Control,1.0
502,244,629,7301,memory,False,./assets/img/ocean/memory/7.jpg,ocean,0.0,,False,,84,old,11.83,Male,1,rest,1212.0,,definitely_new,,,,,Children,Control,1.0
503,247,635,7301,memory,False,./assets/img/ocean/memory/0.jpg,ocean,10.0,,True,,87,new,11.83,Male,1,rest,1675.0,,definitely_new,,,,,Children,Control,1.0
504,164,469,7317,memory,False,./assets/img/canyon/memory/20.jpg,canyon,10.0,,True,,4,old,12.25,Male,1,rest,1789.0,,definitely_old,,,,,Children,Revaluation,2.0
505,166,473,7317,memory,False,./assets/img/canyon/memory/11.jpg,canyon,0.0,,False,,6,new,12.25,Male,1,rest,2052.0,,definitely_old,,,,,Children,Revaluation,2.0
506,168,477,7317,memory,False,./assets/img/canyon/memory/12.jpg,canyon,10.0,,True,,8,old,12.25,Male,1,rest,2098.0,,maybe_old,,,,,Children,Revaluation,2.0
507,169,479,7317,memory,False,./assets/img/canyon/memory/13.jpg,canyon,10.0,,True,,9,new,12.25,Male,1,rest,1521.0,,definitely_new,,,,,Children,Revaluation,2.0
508,172,485,7317,memory,False,./assets/img/canyon/memory/28.jpg,canyon,10.0,,True,,12,new,12.25,Male,1,rest,914.0,,definitely_new,,,,,Children,Revaluation,2.0
509,173,487,7317,memory,False,./assets/img/canyon/memory/30.jpg,canyon,0.0,,False,,13,new,12.25,Male,1,rest,1785.0,,maybe_old,,,,,Children,Revaluation,2.0
510,175,491,7317,memory,False,./assets/img/canyon/memory/15.jpg,canyon,0.0,,False,,15,new,12.25,Male,1,rest,1649.0,,maybe_old,,,,,Children,Revaluation,2.0
511,176,493,7317,memory,False,./assets/img/canyon/memory/5.jpg,canyon,0.0,,False,,16,old,12.25,Male,1,rest,1744.0,,definitely_new,,,,,Children,Revaluation,2.0
512,177,495,7317,memory,False,./assets/img/canyon/memory/39.jpg,canyon,10.0,,True,,17,new,12.25,Male,1,rest,1970.0,,definitely_new,,,,,Children,Revaluation,2.0
513,180,501,7317,memory,False,./assets/img/canyon/memory/26.jpg,canyon,0.0,,False,,20,new,12.25,Male,1,rest,1064.0,,definitely_old,,,,,Children,Revaluation,2.0
514,182,505,7317,memory,False,./assets/img/canyon/memory/25.jpg,canyon,0.0,,False,,22,new,12.25,Male,1,rest,793.0,,definitely_old,,,,,Children,Revaluation,2.0
515,183,507,7317,memory,False,./assets/img/canyon/memory/21.jpg,canyon,0.0,,False,,23,old,12.25,Male,1,rest,1862.0,,maybe_new,,,,,Children,Revaluation,2.0
516,184,509,7317,memory,False,./assets/img/canyon/memory/4.jpg,canyon,10.0,,True,,24,old,12.25,Male,1,rest,1514.0,,maybe_old,,,,,Children,Revaluation,2.0
517,188,517,7317,memory,False,./assets/img/canyon/memory/24.jpg,canyon,0.0,,False,,28,old,12.25,Male,1,rest,1393.0,,definitely_new,,,,,Children,Revaluation,2.0
518,189,519,7317,memory,False,./assets/img/canyon/memory/41.jpg,canyon,10.0,,True,,29,new,12.25,Male,1,rest,825.0,,definitely_new,,,,,Children,Revaluation,2.0
519,190,521,7317,memory,False,./assets/img/canyon/memory/19.jpg,canyon,0.0,,False,,30,old,12.25,Male,1,rest,1346.0,,definitely_new,,,,,Children,Revaluation,2.0
520,191,523,7317,memory,False,./assets/img/canyon/memory/32.jpg,canyon,10.0,,True,,31,new,12.25,Male,1,rest,1795.0,,definitely_new,,,,,Children,Revaluation,2.0
521,194,529,7317,memory,False,./assets/img/canyon/memory/31.jpg,canyon,0.0,,False,,34,old,12.25,Male,1,rest,1666.0,,definitely_new,,,,,Children,Revaluation,2.0
522,196,533,7317,memory,False,./assets/img/canyon/memory/36.jpg,canyon,10.0,,True,,36,old,12.25,Male,1,rest,1538.0,,definitely_old,,,,,Children,Revaluation,2.0
523,197,535,7317,memory,False,./assets/img/canyon/memory/7.jpg,canyon,10.0,,True,,37,old,12.25,Male,1,rest,1800.0,,maybe_old,,,,,Children,Revaluation,2.0
524,205,551,7317,memory,False,./assets/img/canyon/memory/9.jpg,canyon,0.0,,False,,45,new,12.25,Male,1,rest,961.0,,definitely_old,,,,,Children,Revaluation,2.0
525,206,553,7317,memory,False,./assets/img/canyon/memory/33.jpg,canyon,0.0,,False,,46,old,12.25,Male,1,rest,993.0,,definitely_new,,,,,Children,Revaluation,2.0
526,212,565,7317,memory,False,./assets/img/canyon/memory/40.jpg,canyon,10.0,,True,,52,old,12.25,Male,1,rest,1722.0,,maybe_old,,,,,Children,Revaluation,2.0
527,216,573,7317,memory,False,./assets/img/canyon/memory/35.jpg,canyon,10.0,,True,,56,new,12.25,Male,1,rest,1368.0,,definitely_new,,,,,Children,Revaluation,2.0
528,217,575,7317,memory,False,./assets/img/canyon/memory/14.jpg,canyon,10.0,,True,,57,new,12.25,Male,1,rest,1249.0,,definitely_new,,,,,Children,Revaluation,2.0
529,220,581,7317,memory,False,./assets/img/canyon/memory/18.jpg,canyon,10.0,,True,,60,new,12.25,Male,1,rest,1050.0,,definitely_new,,,,,Children,Revaluation,2.0
530,221,583,7317,memory,False,./assets/img/canyon/memory/2.jpg,canyon,0.0,,False,,61,old,12.25,Male,1,rest,1842.0,,definitely_new,,,,,Children,Revaluation,2.0
531,222,585,7317,memory,False,./assets/img/canyon/memory/27.jpg,canyon,10.0,,True,,62,new,12.25,Male,1,rest,1057.0,,definitely_new,,,,,Children,Revaluation,2.0
532,226,593,7317,memory,False,./assets/img/canyon/memory/1.jpg,canyon,10.0,,True,,66,old,12.25,Male,1,rest,1481.0,,definitely_old,,,,,Children,Revaluation,2.0
533,227,595,7317,memory,False,./assets/img/canyon/memory/10.jpg,canyon,0.0,,False,,67,old,12.25,Male,1,rest,730.0,,definitely_new,,,,,Children,Revaluation,2.0
534,228,597,7317,memory,False,./assets/img/canyon/memory/23.jpg,canyon,10.0,,True,,68,new,12.25,Male,1,rest,961.0,,definitely_new,,,,,Children,Revaluation,2.0
535,229,599,7317,memory,False,./assets/img/canyon/memory/17.jpg,canyon,0.0,,False,,69,old,12.25,Male,1,rest,961.0,,definitely_new,,,,,Children,Revaluation,2.0
536,230,601,7317,memory,False,./assets/img/canyon/memory/37.jpg,canyon,10.0,,True,,70,new,12.25,Male,1,rest,753.0,,definitely_new,,,,,Children,Revaluation,2.0
537,232,605,7317,memory,False,./assets/img/canyon/memory/38.jpg,canyon,10.0,,True,,72,new,12.25,Male,1,rest,931.0,,definitely_new,,,,,Children,Revaluation,2.0
538,234,609,7317,memory,False,./assets/img/canyon/memory/34.jpg,canyon,10.0,,True,,74,old,12.25,Male,1,rest,1172.0,,definitely_old,,,,,Children,Revaluation,2.0
539,240,621,7317,memory,False,./assets/img/canyon/memory/16.jpg,canyon,10.0,,True,,80,new,12.25,Male,1,rest,832.0,,definitely_new,,,,,Children,Revaluation,2.0
540,242,625,7317,memory,False,./assets/img/canyon/memory/6.jpg,canyon,10.0,,True,,82,new,12.25,Male,1,rest,1169.0,,definitely_new,,,,,Children,Revaluation,2.0
541,243,627,7317,memory,False,./assets/img/canyon/memory/0.jpg,canyon,0.0,,False,,83,new,12.25,Male,1,rest,1609.0,,maybe_old,,,,,Children,Revaluation,2.0
542,244,629,7317,memory,False,./assets/img/canyon/memory/22.jpg,canyon,0.0,,False,,84,old,12.25,Male,1,rest,881.0,,definitely_new,,,,,Children,Revaluation,2.0
543,245,631,7317,memory,False,./assets/img/canyon/memory/8.jpg,canyon,0.0,,False,,85,old,12.25,Male,1,rest,898.0,,definitely_new,,,,,Children,Revaluation,2.0
544,246,633,7317,memory,False,./assets/img/canyon/memory/29.jpg,canyon,0.0,,False,,86,old,12.25,Male,1,rest,1329.0,,definitely_new,,,,,Children,Revaluation,2.0
545,247,635,7317,memory,False,./assets/img/canyon/memory/3.jpg,canyon,0.0,,False,,87,old,12.25,Male,1,rest,1896.0,,definitely_new,,,,,Children,Revaluation,2.0
546,165,471,7317,memory,False,./assets/img/ocean/memory/11.jpg,ocean,10.0,,True,,5,new,12.25,Male,1,rest,1811.0,,definitely_new,,,,,Children,Control,1.0
547,167,475,7317,memory,False,./assets/img/ocean/memory/37.jpg,ocean,0.0,,False,,7,new,12.25,Male,1,rest,2002.0,,maybe_old,,,,,Children,Control,1.0
548,170,481,7317,memory,False,./assets/img/ocean/memory/9.jpg,ocean,10.0,,True,,10,old,12.25,Male,1,rest,2570.0,,maybe_old,,,,,Children,Control,1.0
549,171,483,7317,memory,False,./assets/img/ocean/memory/34.jpg,ocean,0.0,,False,,11,old,12.25,Male,1,rest,1586.0,,definitely_new,,,,,Children,Control,1.0
550,174,489,7317,memory,False,./assets/img/ocean/memory/31.jpg,ocean,0.0,,False,,14,old,12.25,Male,1,rest,1072.0,,definitely_new,,,,,Children,Control,1.0
551,178,497,7317,memory,False,./assets/img/ocean/memory/26.jpg,ocean,10.0,,True,,18,old,12.25,Male,1,rest,1104.0,,definitely_old,,,,,Children,Control,1.0
552,179,499,7317,memory,False,./assets/img/ocean/memory/17.jpg,ocean,10.0,,True,,19,old,12.25,Male,1,rest,841.0,,definitely_old,,,,,Children,Control,1.0
553,181,503,7317,memory,False,./assets/img/ocean/memory/7.jpg,ocean,10.0,,True,,21,old,12.25,Male,1,rest,1480.0,,definitely_old,,,,,Children,Control,1.0
554,185,511,7317,memory,False,./assets/img/ocean/memory/32.jpg,ocean,0.0,,False,,25,old,12.25,Male,1,rest,1857.0,,maybe_new,,,,,Children,Control,1.0
555,186,513,7317,memory,False,./assets/img/ocean/memory/25.jpg,ocean,0.0,,False,,26,old,12.25,Male,1,rest,1121.0,,definitely_new,,,,,Children,Control,1.0
556,187,515,7317,memory,False,./assets/img/ocean/memory/38.jpg,ocean,10.0,,True,,27,new,12.25,Male,1,rest,1049.0,,definitely_new,,,,,Children,Control,1.0
557,192,525,7317,memory,False,./assets/img/ocean/memory/14.jpg,ocean,10.0,,True,,32,old,12.25,Male,1,rest,1265.0,,definitely_old,,,,,Children,Control,1.0
558,193,527,7317,memory,False,./assets/img/ocean/memory/19.jpg,ocean,0.0,,False,,33,new,12.25,Male,1,rest,1889.0,,maybe_old,,,,,Children,Control,1.0
559,195,531,7317,memory,False,./assets/img/ocean/memory/33.jpg,ocean,10.0,,True,,35,new,12.25,Male,1,rest,1777.0,,definitely_new,,,,,Children,Control,1.0
560,198,537,7317,memory,False,./assets/img/ocean/memory/10.jpg,ocean,10.0,,True,,38,new,12.25,Male,1,rest,2161.0,,maybe_new,,,,,Children,Control,1.0
561,199,539,7317,memory,False,./assets/img/ocean/memory/4.jpg,ocean,10.0,,True,,39,new,12.25,Male,1,rest,1522.0,,definitely_new,,,,,Children,Control,1.0
562,200,541,7317,memory,False,./assets/img/ocean/memory/18.jpg,ocean,0.0,,False,,40,new,12.25,Male,1,rest,1889.0,,maybe_old,,,,,Children,Control,1.0
563,201,543,7317,memory,False,./assets/img/ocean/memory/15.jpg,ocean,10.0,,True,,41,new,12.25,Male,1,rest,1033.0,,definitely_new,,,,,Children,Control,1.0
564,202,545,7317,memory,False,./assets/img/ocean/memory/20.jpg,ocean,10.0,,True,,42,old,12.25,Male,1,rest,1482.0,,definitely_old,,,,,Children,Control,1.0
565,203,547,7317,memory,False,./assets/img/ocean/memory/21.jpg,ocean,10.0,,True,,43,new,12.25,Male,1,rest,2609.0,,definitely_new,,,,,Children,Control,1.0
566,204,549,7317,memory,False,./assets/img/ocean/memory/3.jpg,ocean,10.0,,True,,44,old,12.25,Male,1,rest,2233.0,,definitely_old,,,,,Children,Control,1.0
567,207,555,7317,memory,False,./assets/img/ocean/memory/40.jpg,ocean,0.0,,False,,47,new,12.25,Male,1,rest,1672.0,,maybe_old,,,,,Children,Control,1.0
568,208,557,7317,memory,False,./assets/img/ocean/memory/36.jpg,ocean,10.0,,True,,48,old,12.25,Male,1,rest,1552.0,,definitely_old,,,,,Children,Control,1.0
569,209,559,7317,memory,False,./assets/img/ocean/memory/27.jpg,ocean,10.0,,True,,49,new,12.25,Male,1,rest,2217.0,,definitely_new,,,,,Children,Control,1.0
570,210,561,7317,memory,False,./assets/img/ocean/memory/41.jpg,ocean,10.0,,True,,50,new,12.25,Male,1,rest,1042.0,,definitely_new,,,,,Children,Control,1.0
571,211,563,7317,memory,False,./assets/img/ocean/memory/23.jpg,ocean,10.0,,True,,51,new,12.25,Male,1,rest,978.0,,definitely_new,,,,,Children,Control,1.0
572,213,567,7317,memory,False,./assets/img/ocean/memory/13.jpg,ocean,10.0,,True,,53,new,12.25,Male,1,rest,978.0,,definitely_new,,,,,Children,Control,1.0
573,214,569,7317,memory,False,./assets/img/ocean/memory/6.jpg,ocean,10.0,,True,,54,old,12.25,Male,1,rest,1377.0,,definitely_old,,,,,Children,Control,1.0
574,215,571,7317,memory,False,./assets/img/ocean/memory/16.jpg,ocean,10.0,,True,,55,old,12.25,Male,1,rest,1434.0,,definitely_old,,,,,Children,Control,1.0
575,218,577,7317,memory,False,./assets/img/ocean/memory/29.jpg,ocean,10.0,,True,,58,old,12.25,Male,1,rest,1537.0,,definitely_old,,,,,Children,Control,1.0
576,219,579,7317,memory,False,./assets/img/ocean/memory/1.jpg,ocean,10.0,,True,,59,old,12.25,Male,1,rest,1914.0,,maybe_old,,,,,Children,Control,1.0
577,223,587,7317,memory,False,./assets/img/ocean/memory/30.jpg,ocean,10.0,,True,,63,new,12.25,Male,1,rest,906.0,,definitely_new,,,,,Children,Control,1.0
578,224,589,7317,memory,False,./assets/img/ocean/memory/2.jpg,ocean,10.0,,True,,64,old,12.25,Male,1,rest,1114.0,,definitely_old,,,,,Children,Control,1.0
579,225,591,7317,memory,False,./assets/img/ocean/memory/0.jpg,ocean,10.0,,True,,65,old,12.25,Male,1,rest,1505.0,,definitely_old,,,,,Children,Control,1.0
580,231,603,7317,memory,False,./assets/img/ocean/memory/22.jpg,ocean,0.0,,False,,71,new,12.25,Male,1,rest,1570.0,,definitely_old,,,,,Children,Control,1.0
581,233,607,7317,memory,False,./assets/img/ocean/memory/28.jpg,ocean,10.0,,True,,73,new,12.25,Male,1,rest,825.0,,definitely_new,,,,,Children,Control,1.0
582,235,611,7317,memory,False,./assets/img/ocean/memory/39.jpg,ocean,0.0,,False,,75,old,12.25,Male,1,rest,1258.0,,definitely_new,,,,,Children,Control,1.0
583,236,613,7317,memory,False,./assets/img/ocean/memory/8.jpg,ocean,0.0,,False,,76,new,12.25,Male,1,rest,1353.0,,maybe_old,,,,,Children,Control,1.0
584,237,615,7317,memory,False,./assets/img/ocean/memory/35.jpg,ocean,0.0,,False,,77,new,12.25,Male,1,rest,1625.0,,definitely_old,,,,,Children,Control,1.0
585,238,617,7317,memory,False,./assets/img/ocean/memory/5.jpg,ocean,0.0,,False,,78,new,12.25,Male,1,rest,1905.0,,definitely_old,,,,,Children,Control,1.0
586,239,619,7317,memory,False,./assets/img/ocean/memory/24.jpg,ocean,10.0,,True,,79,old,12.25,Male,1,rest,1654.0,,maybe_old,,,,,Children,Control,1.0
587,241,623,7317,memory,False,./assets/img/ocean/memory/12.jpg,ocean,10.0,,True,,81,old,12.25,Male,1,rest,1716.0,,maybe_old,,,,,Children,Control,1.0
588,164,471,7505,memory,False,./assets/img/canyon/memory/31.jpg,canyon,10.0,,True,,4,new,22.4,Female,3,rest,2750.0,,maybe_new,,,,,Adults,Revaluation,2.0
589,166,475,7505,memory,False,./assets/img/canyon/memory/24.jpg,canyon,0.0,,False,,6,new,22.4,Female,3,rest,1182.0,,maybe_old,,,,,Adults,Revaluation,2.0
590,167,477,7505,memory,False,./assets/img/canyon/memory/8.jpg,canyon,0.0,,False,,7,new,22.4,Female,3,rest,1622.0,,maybe_old,,,,,Adults,Revaluation,2.0
591,168,479,7505,memory,False,./assets/img/canyon/memory/19.jpg,canyon,0.0,,False,,8,new,22.4,Female,3,rest,1004.0,,maybe_old,,,,,Adults,Revaluation,2.0
592,171,485,7505,memory,False,./assets/img/canyon/memory/26.jpg,canyon,0.0,,False,,11,new,22.4,Female,3,rest,1077.0,,maybe_old,,,,,Adults,Revaluation,2.0
593,175,493,7505,memory,False,./assets/img/canyon/memory/20.jpg,canyon,0.0,,False,,15,new,22.4,Female,3,rest,958.0,,maybe_old,,,,,Adults,Revaluation,2.0
594,177,497,7505,memory,False,./assets/img/canyon/memory/36.jpg,canyon,10.0,,True,,17,old,22.4,Female,3,rest,1045.0,,maybe_old,,,,,Adults,Revaluation,2.0
595,181,505,7505,memory,False,./assets/img/canyon/memory/27.jpg,canyon,10.0,,True,,21,new,22.4,Female,3,rest,1593.0,,maybe_new,,,,,Adults,Revaluation,2.0
596,187,517,7505,memory,False,./assets/img/canyon/memory/6.jpg,canyon,10.0,,True,,27,old,22.4,Female,3,rest,965.0,,maybe_old,,,,,Adults,Revaluation,2.0
597,189,521,7505,memory,False,./assets/img/canyon/memory/17.jpg,canyon,0.0,,False,,29,new,22.4,Female,3,rest,1041.0,,maybe_old,,,,,Adults,Revaluation,2.0
598,190,523,7505,memory,False,./assets/img/canyon/memory/2.jpg,canyon,10.0,,True,,30,old,22.4,Female,3,rest,699.0,,maybe_old,,,,,Adults,Revaluation,2.0
599,192,527,7505,memory,False,./assets/img/canyon/memory/10.jpg,canyon,10.0,,True,,32,new,22.4,Female,3,rest,1111.0,,maybe_new,,,,,Adults,Revaluation,2.0
600,193,529,7505,memory,False,./assets/img/canyon/memory/30.jpg,canyon,0.0,,False,,33,new,22.4,Female,3,rest,862.0,,maybe_old,,,,,Adults,Revaluation,2.0
601,194,531,7505,memory,False,./assets/img/canyon/memory/15.jpg,canyon,10.0,,True,,34,old,22.4,Female,3,rest,835.0,,maybe_old,,,,,Adults,Revaluation,2.0
602,195,533,7505,memory,False,./assets/img/canyon/memory/23.jpg,canyon,10.0,,True,,35,new,22.4,Female,3,rest,865.0,,maybe_new,,,,,Adults,Revaluation,2.0
603,198,539,7505,memory,False,./assets/img/canyon/memory/21.jpg,canyon,10.0,,True,,38,new,22.4,Female,3,rest,852.0,,maybe_new,,,,,Adults,Revaluation,2.0
604,202,547,7505,memory,False,./assets/img/canyon/memory/9.jpg,canyon,10.0,,True,,42,old,22.4,Female,3,rest,1301.0,,definitely_old,,,,,Adults,Revaluation,2.0
605,203,549,7505,memory,False,./assets/img/canyon/memory/40.jpg,canyon,10.0,,True,,43,old,22.4,Female,3,rest,828.0,,maybe_old,,,,,Adults,Revaluation,2.0
606,205,553,7505,memory,False,./assets/img/canyon/memory/18.jpg,canyon,10.0,,True,,45,new,22.4,Female,3,rest,1365.0,,definitely_new,,,,,Adults,Revaluation,2.0
607,206,555,7505,memory,False,./assets/img/canyon/memory/14.jpg,canyon,0.0,,False,,46,old,22.4,Female,3,rest,1030.0,,maybe_new,,,,,Adults,Revaluation,2.0
608,207,557,7505,memory,False,./assets/img/canyon/memory/37.jpg,canyon,10.0,,True,,47,old,22.4,Female,3,rest,836.0,,maybe_old,,,,,Adults,Revaluation,2.0
609,208,559,7505,memory,False,./assets/img/canyon/memory/0.jpg,canyon,10.0,,True,,48,old,22.4,Female,3,rest,1058.0,,maybe_old,,,,,Adults,Revaluation,2.0
610,211,565,7505,memory,False,./assets/img/canyon/memory/34.jpg,canyon,0.0,,False,,51,old,22.4,Female,3,rest,1038.0,,maybe_new,,,,,Adults,Revaluation,2.0
611,212,567,7505,memory,False,./assets/img/canyon/memory/3.jpg,canyon,10.0,,True,,52,old,22.4,Female,3,rest,790.0,,maybe_old,,,,,Adults,Revaluation,2.0
612,213,569,7505,memory,False,./assets/img/canyon/memory/29.jpg,canyon,0.0,,False,,53,new,22.4,Female,3,rest,813.0,,maybe_old,,,,,Adults,Revaluation,2.0
613,215,573,7505,memory,False,./assets/img/canyon/memory/39.jpg,canyon,10.0,,True,,55,old,22.4,Female,3,rest,758.0,,maybe_old,,,,,Adults,Revaluation,2.0
614,216,575,7505,memory,False,./assets/img/canyon/memory/7.jpg,canyon,0.0,,False,,56,new,22.4,Female,3,rest,756.0,,maybe_old,,,,,Adults,Revaluation,2.0
615,219,581,7505,memory,False,./assets/img/canyon/memory/12.jpg,canyon,10.0,,True,,59,old,22.4,Female,3,rest,972.0,,maybe_old,,,,,Adults,Revaluation,2.0
616,227,597,7505,memory,False,./assets/img/canyon/memory/38.jpg,canyon,0.0,,False,,67,old,22.4,Female,3,rest,861.0,,maybe_new,,,,,Adults,Revaluation,2.0
617,229,601,7505,memory,False,./assets/img/canyon/memory/35.jpg,canyon,10.0,,True,,69,new,22.4,Female,3,rest,981.0,,maybe_new,,,,,Adults,Revaluation,2.0
618,230,603,7505,memory,False,./assets/img/canyon/memory/11.jpg,canyon,10.0,,True,,70,new,22.4,Female,3,rest,694.0,,maybe_new,,,,,Adults,Revaluation,2.0
619,232,607,7505,memory,False,./assets/img/canyon/memory/5.jpg,canyon,0.0,,False,,72,old,22.4,Female,3,rest,1143.0,,maybe_new,,,,,Adults,Revaluation,2.0
620,234,611,7505,memory,False,./assets/img/canyon/memory/13.jpg,canyon,10.0,,True,,74,old,22.4,Female,3,rest,1317.0,,maybe_old,,,,,Adults,Revaluation,2.0
621,235,613,7505,memory,False,./assets/img/canyon/memory/22.jpg,canyon,0.0,,False,,75,new,22.4,Female,3,rest,611.0,,maybe_old,,,,,Adults,Revaluation,2.0
622,236,615,7505,memory,False,./assets/img/canyon/memory/32.jpg,canyon,0.0,,False,,76,old,22.4,Female,3,rest,1024.0,,maybe_new,,,,,Adults,Revaluation,2.0
623,237,617,7505,memory,False,./assets/img/canyon/memory/41.jpg,canyon,0.0,,False,,77,old,22.4,Female,3,rest,815.0,,maybe_new,,,,,Adults,Revaluation,2.0
624,239,621,7505,memory,False,./assets/img/canyon/memory/4.jpg,canyon,10.0,,True,,79,old,22.4,Female,3,rest,896.0,,maybe_old,,,,,Adults,Revaluation,2.0
625,242,627,7505,memory,False,./assets/img/canyon/memory/16.jpg,canyon,10.0,,True,,82,new,22.4,Female,3,rest,997.0,,maybe_new,,,,,Adults,Revaluation,2.0
626,244,631,7505,memory,False,./assets/img/canyon/memory/1.jpg,canyon,10.0,,True,,84,old,22.4,Female,3,rest,1333.0,,maybe_old,,,,,Adults,Revaluation,2.0
627,245,633,7505,memory,False,./assets/img/canyon/memory/25.jpg,canyon,0.0,,False,,85,new,22.4,Female,3,rest,1001.0,,maybe_old,,,,,Adults,Revaluation,2.0
628,246,635,7505,memory,False,./assets/img/canyon/memory/33.jpg,canyon,0.0,,False,,86,old,22.4,Female,3,rest,1140.0,,maybe_new,,,,,Adults,Revaluation,2.0
629,247,637,7505,memory,False,./assets/img/canyon/memory/28.jpg,canyon,0.0,,False,,87,new,22.4,Female,3,rest,1178.0,,definitely_old,,,,,Adults,Revaluation,2.0
630,165,473,7505,memory,False,./assets/img/ocean/memory/37.jpg,ocean,10.0,,True,,5,new,22.4,Female,3,rest,1247.0,,maybe_new,,,,,Adults,Control,1.0
631,169,481,7505,memory,False,./assets/img/ocean/memory/14.jpg,ocean,10.0,,True,,9,new,22.4,Female,3,rest,1670.0,,maybe_new,,,,,Adults,Control,1.0
632,170,483,7505,memory,False,./assets/img/ocean/memory/16.jpg,ocean,10.0,,True,,10,old,22.4,Female,3,rest,951.0,,definitely_old,,,,,Adults,Control,1.0
633,172,487,7505,memory,False,./assets/img/ocean/memory/22.jpg,ocean,10.0,,True,,12,new,22.4,Female,3,rest,1427.0,,maybe_new,,,,,Adults,Control,1.0
634,173,489,7505,memory,False,./assets/img/ocean/memory/35.jpg,ocean,0.0,,False,,13,new,22.4,Female,3,rest,1367.0,,maybe_old,,,,,Adults,Control,1.0
635,174,491,7505,memory,False,./assets/img/ocean/memory/25.jpg,ocean,10.0,,True,,14,new,22.4,Female,3,rest,997.0,,maybe_new,,,,,Adults,Control,1.0
636,176,495,7505,memory,False,./assets/img/ocean/memory/36.jpg,ocean,10.0,,True,,16,new,22.4,Female,3,rest,1326.0,,definitely_new,,,,,Adults,Control,1.0
637,178,499,7505,memory,False,./assets/img/ocean/memory/3.jpg,ocean,10.0,,True,,18,old,22.4,Female,3,rest,1154.0,,maybe_old,,,,,Adults,Control,1.0
638,179,501,7505,memory,False,./assets/img/ocean/memory/12.jpg,ocean,0.0,,False,,19,new,22.4,Female,3,rest,1012.0,,maybe_old,,,,,Adults,Control,1.0
639,180,503,7505,memory,False,./assets/img/ocean/memory/0.jpg,ocean,10.0,,True,,20,old,22.4,Female,3,rest,881.0,,definitely_old,,,,,Adults,Control,1.0
640,182,507,7505,memory,False,./assets/img/ocean/memory/40.jpg,ocean,10.0,,True,,22,new,22.4,Female,3,rest,1016.0,,maybe_new,,,,,Adults,Control,1.0
641,183,509,7505,memory,False,./assets/img/ocean/memory/15.jpg,ocean,10.0,,True,,23,new,22.4,Female,3,rest,810.0,,maybe_new,,,,,Adults,Control,1.0
642,184,511,7505,memory,False,./assets/img/ocean/memory/10.jpg,ocean,10.0,,True,,24,old,22.4,Female,3,rest,864.0,,maybe_old,,,,,Adults,Control,1.0
643,185,513,7505,memory,False,./assets/img/ocean/memory/11.jpg,ocean,0.0,,False,,25,new,22.4,Female,3,rest,1274.0,,maybe_old,,,,,Adults,Control,1.0
644,186,515,7505,memory,False,./assets/img/ocean/memory/1.jpg,ocean,10.0,,True,,26,old,22.4,Female,3,rest,900.0,,definitely_old,,,,,Adults,Control,1.0
645,188,519,7505,memory,False,./assets/img/ocean/memory/34.jpg,ocean,10.0,,True,,28,new,22.4,Female,3,rest,1210.0,,maybe_new,,,,,Adults,Control,1.0
646,191,525,7505,memory,False,./assets/img/ocean/memory/21.jpg,ocean,10.0,,True,,31,old,22.4,Female,3,rest,918.0,,definitely_old,,,,,Adults,Control,1.0
