,index,subject_id,task_part,rt,timeout,stimulus,environment,score,isCatch,correct,rewardMap,trial_num,ground_truth,age,subject_condition,rest,response0,response1,is_optimal_first,is_optimal_second,categorical_age,block_order,block_condition
0,471,7787,memory,1891,False,./assets/img/ocean/memory/3.jpg,ocean,10.0,,True,,4,old,20.35,8,rest,definitely_old,,,,Adults,2.0,Control
1,473,7787,memory,1935,False,./assets/img/canyon/memory/3.jpg,canyon,10.0,,True,,5,new,20.35,8,rest,definitely_new,,,,Adults,1.0,Revaluation
2,475,7787,memory,1502,False,./assets/img/ocean/memory/4.jpg,ocean,10.0,,True,,6,old,20.35,8,rest,definitely_old,,,,Adults,2.0,Control
3,477,7787,memory,2086,False,./assets/img/canyon/memory/7.jpg,canyon,10.0,,True,,7,new,20.35,8,rest,maybe_new,,,,Adults,1.0,Revaluation
4,479,7787,memory,1563,False,./assets/img/canyon/memory/11.jpg,canyon,10.0,,True,,8,new,20.35,8,rest,maybe_new,,,,Adults,1.0,Revaluation
5,481,7787,memory,915,False,./assets/img/canyon/memory/29.jpg,canyon,10.0,,True,,9,new,20.35,8,rest,definitely_new,,,,Adults,1.0,Revaluation
6,483,7787,memory,870,False,./assets/img/ocean/memory/32.jpg,ocean,10.0,,True,,10,new,20.35,8,rest,definitely_new,,,,Adults,2.0,Control
7,485,7787,memory,1230,False,./assets/img/ocean/memory/29.jpg,ocean,0.0,,False,,11,old,20.35,8,rest,definitely_new,,,,Adults,2.0,Control
8,487,7787,memory,1138,False,./assets/img/ocean/memory/17.jpg,ocean,10.0,,True,,12,old,20.35,8,rest,definitely_old,,,,Adults,2.0,Control
9,489,7787,memory,1500,False,./assets/img/ocean/memory/33.jpg,ocean,0.0,,False,,13,old,20.35,8,rest,definitely_new,,,,Adults,2.0,Control
10,491,7787,memory,2078,False,./assets/img/ocean/memory/14.jpg,ocean,0.0,,False,,14,new,20.35,8,rest,definitely_old,,,,Adults,2.0,Control
11,493,7787,memory,2265,False,./assets/img/ocean/memory/24.jpg,ocean,10.0,,True,,15,new,20.35,8,rest,maybe_new,,,,Adults,2.0,Control
12,495,7787,memory,1937,False,./assets/img/ocean/memory/37.jpg,ocean,0.0,,False,,16,new,20.35,8,rest,definitely_old,,,,Adults,2.0,Control
13,497,7787,memory,1406,False,./assets/img/canyon/memory/15.jpg,canyon,0.0,,False,,17,new,20.35,8,rest,definitely_old,,,,Adults,1.0,Revaluation
14,499,7787,memory,1114,False,./assets/img/ocean/memory/38.jpg,ocean,0.0,,False,,18,new,20.35,8,rest,definitely_old,,,,Adults,2.0,Control
15,501,7787,memory,1063,False,./assets/img/ocean/memory/23.jpg,ocean,10.0,,True,,19,old,20.35,8,rest,maybe_old,,,,Adults,2.0,Control
16,503,7787,memory,1155,False,./assets/img/canyon/memory/5.jpg,canyon,10.0,,True,,20,old,20.35,8,rest,maybe_old,,,,Adults,1.0,Revaluation
17,505,7787,memory,1182,False,./assets/img/canyon/memory/26.jpg,canyon,10.0,,True,,21,old,20.35,8,rest,maybe_old,,,,Adults,1.0,Revaluation
18,507,7787,memory,925,False,./assets/img/canyon/memory/17.jpg,canyon,10.0,,True,,22,old,20.35,8,rest,maybe_old,,,,Adults,1.0,Revaluation
19,509,7787,memory,1066,False,./assets/img/ocean/memory/2.jpg,ocean,0.0,,False,,23,new,20.35,8,rest,definitely_old,,,,Adults,2.0,Control
20,511,7787,memory,838,False,./assets/img/ocean/memory/8.jpg,ocean,0.0,,False,,24,new,20.35,8,rest,definitely_old,,,,Adults,2.0,Control
21,513,7787,memory,1374,False,./assets/img/canyon/memory/39.jpg,canyon,0.0,,False,,25,new,20.35,8,rest,maybe_old,,,,Adults,1.0,Revaluation
22,515,7787,memory,790,False,./assets/img/canyon/memory/20.jpg,canyon,10.0,,True,,26,old,20.35,8,rest,maybe_old,,,,Adults,1.0,Revaluation
23,517,7787,memory,1063,False,./assets/img/ocean/memory/26.jpg,ocean,10.0,,True,,27,old,20.35,8,rest,definitely_old,,,,Adults,2.0,Control
24,519,7787,memory,1061,False,./assets/img/canyon/memory/8.jpg,canyon,0.0,,False,,28,old,20.35,8,rest,maybe_new,,,,Adults,1.0,Revaluation
25,521,7787,memory,1119,False,./assets/img/ocean/memory/30.jpg,ocean,10.0,,True,,29,old,20.35,8,rest,definitely_old,,,,Adults,2.0,Control
26,523,7787,memory,1322,False,./assets/img/canyon/memory/19.jpg,canyon,10.0,,True,,30,new,20.35,8,rest,maybe_new,,,,Adults,1.0,Revaluation
27,525,7787,memory,1410,False,./assets/img/canyon/memory/18.jpg,canyon,10.0,,True,,31,old,20.35,8,rest,maybe_old,,,,Adults,1.0,Revaluation
28,527,7787,memory,1154,False,./assets/img/ocean/memory/11.jpg,ocean,10.0,,True,,32,old,20.35,8,rest,definitely_old,,,,Adults,2.0,Control
29,529,7787,memory,925,False,./assets/img/canyon/memory/28.jpg,canyon,10.0,,True,,33,old,20.35,8,rest,definitely_old,,,,Adults,1.0,Revaluation
30,531,7787,memory,1087,False,./assets/img/canyon/memory/6.jpg,canyon,0.0,,False,,34,old,20.35,8,rest,maybe_new,,,,Adults,1.0,Revaluation
31,533,7787,memory,1143,False,./assets/img/canyon/memory/37.jpg,canyon,0.0,,False,,35,new,20.35,8,rest,definitely_old,,,,Adults,1.0,Revaluation
32,535,7787,memory,1355,False,./assets/img/ocean/memory/6.jpg,ocean,10.0,,True,,36,new,20.35,8,rest,maybe_new,,,,Adults,2.0,Control
33,537,7787,memory,1145,False,./assets/img/canyon/memory/31.jpg,canyon,0.0,,False,,37,new,20.35,8,rest,maybe_old,,,,Adults,1.0,Revaluation
34,539,7787,memory,844,False,./assets/img/ocean/memory/22.jpg,ocean,0.0,,False,,38,new,20.35,8,rest,maybe_old,,,,Adults,2.0,Control
35,541,7787,memory,748,False,./assets/img/canyon/memory/13.jpg,canyon,0.0,,False,,39,new,20.35,8,rest,maybe_old,,,,Adults,1.0,Revaluation
36,543,7787,memory,1072,False,./assets/img/canyon/memory/35.jpg,canyon,10.0,,True,,40,new,20.35,8,rest,maybe_new,,,,Adults,1.0,Revaluation
37,545,7787,memory,1208,False,./assets/img/ocean/memory/16.jpg,ocean,0.0,,False,,41,new,20.35,8,rest,definitely_old,,,,Adults,2.0,Control
38,547,7787,memory,1456,False,./assets/img/canyon/memory/1.jpg,canyon,10.0,,True,,42,old,20.35,8,rest,definitely_old,,,,Adults,1.0,Revaluation
39,549,7787,memory,1479,False,./assets/img/canyon/memory/27.jpg,canyon,10.0,,True,,43,new,20.35,8,rest,maybe_new,,,,Adults,1.0,Revaluation
40,551,7787,memory,1420,False,./assets/img/canyon/memory/10.jpg,canyon,10.0,,True,,44,new,20.35,8,rest,maybe_new,,,,Adults,1.0,Revaluation
41,553,7787,memory,1193,False,./assets/img/canyon/memory/4.jpg,canyon,10.0,,True,,45,old,20.35,8,rest,definitely_old,,,,Adults,1.0,Revaluation
42,555,7787,memory,726,False,./assets/img/canyon/memory/12.jpg,canyon,10.0,,True,,46,old,20.35,8,rest,maybe_old,,,,Adults,1.0,Revaluation
43,557,7787,memory,1049,False,./assets/img/canyon/memory/0.jpg,canyon,0.0,,False,,47,new,20.35,8,rest,definitely_old,,,,Adults,1.0,Revaluation
44,559,7787,memory,1059,False,./assets/img/ocean/memory/35.jpg,ocean,10.0,,True,,48,old,20.35,8,rest,definitely_old,,,,Adults,2.0,Control
45,561,7787,memory,1518,False,./assets/img/ocean/memory/40.jpg,ocean,10.0,,True,,49,old,20.35,8,rest,maybe_old,,,,Adults,2.0,Control
46,563,7787,memory,940,False,./assets/img/canyon/memory/40.jpg,canyon,10.0,,True,,50,new,20.35,8,rest,maybe_new,,,,Adults,1.0,Revaluation
47,565,7787,memory,1124,False,./assets/img/canyon/memory/16.jpg,canyon,10.0,,True,,51,old,20.35,8,rest,definitely_old,,,,Adults,1.0,Revaluation
48,567,7787,memory,990,False,./assets/img/canyon/memory/34.jpg,canyon,10.0,,True,,52,old,20.35,8,rest,definitely_old,,,,Adults,1.0,Revaluation
49,569,7787,memory,1485,False,./assets/img/ocean/memory/12.jpg,ocean,0.0,,False,,53,old,20.35,8,rest,maybe_new,,,,Adults,2.0,Control
50,571,7787,memory,1018,False,./assets/img/canyon/memory/25.jpg,canyon,10.0,,True,,54,new,20.35,8,rest,maybe_new,,,,Adults,1.0,Revaluation
51,573,7787,memory,1037,False,./assets/img/canyon/memory/36.jpg,canyon,10.0,,True,,55,old,20.35,8,rest,maybe_old,,,,Adults,1.0,Revaluation
52,575,7787,memory,804,False,./assets/img/ocean/memory/36.jpg,ocean,10.0,,True,,56,old,20.35,8,rest,maybe_old,,,,Adults,2.0,Control
53,577,7787,memory,1028,False,./assets/img/canyon/memory/2.jpg,canyon,0.0,,False,,57,new,20.35,8,rest,maybe_old,,,,Adults,1.0,Revaluation
54,579,7787,memory,1040,False,./assets/img/ocean/memory/20.jpg,ocean,10.0,,True,,58,old,20.35,8,rest,definitely_old,,,,Adults,2.0,Control
55,581,7787,memory,1100,False,./assets/img/canyon/memory/32.jpg,canyon,10.0,,True,,59,new,20.35,8,rest,maybe_new,,,,Adults,1.0,Revaluation
56,583,7787,memory,925,False,./assets/img/ocean/memory/19.jpg,ocean,10.0,,True,,60,new,20.35,8,rest,maybe_new,,,,Adults,2.0,Control
57,585,7787,memory,1090,False,./assets/img/canyon/memory/38.jpg,canyon,10.0,,True,,61,old,20.35,8,rest,definitely_old,,,,Adults,1.0,Revaluation
58,587,7787,memory,1368,False,./assets/img/canyon/memory/41.jpg,canyon,10.0,,True,,62,old,20.35,8,rest,definitely_old,,,,Adults,1.0,Revaluation
59,589,7787,memory,914,False,./assets/img/ocean/memory/9.jpg,ocean,10.0,,True,,63,old,20.35,8,rest,definitely_old,,,,Adults,2.0,Control
60,591,7787,memory,914,False,./assets/img/ocean/memory/10.jpg,ocean,10.0,,True,,64,old,20.35,8,rest,definitely_old,,,,Adults,2.0,Control
61,593,7787,memory,1224,False,./assets/img/ocean/memory/1.jpg,ocean,0.0,,False,,65,new,20.35,8,rest,definitely_old,,,,Adults,2.0,Control
62,595,7787,memory,998,False,./assets/img/ocean/memory/0.jpg,ocean,0.0,,False,,66,new,20.35,8,rest,definitely_old,,,,Adults,2.0,Control
63,597,7787,memory,2025,False,./assets/img/ocean/memory/25.jpg,ocean,10.0,,True,,67,new,20.35,8,rest,definitely_new,,,,Adults,2.0,Control
64,599,7787,memory,980,False,./assets/img/canyon/memory/21.jpg,canyon,0.0,,False,,68,old,20.35,8,rest,definitely_new,,,,Adults,1.0,Revaluation
65,601,7787,memory,1129,False,./assets/img/ocean/memory/28.jpg,ocean,0.0,,False,,69,new,20.35,8,rest,definitely_old,,,,Adults,2.0,Control
66,603,7787,memory,931,False,./assets/img/ocean/memory/41.jpg,ocean,0.0,,False,,70,new,20.35,8,rest,definitely_old,,,,Adults,2.0,Control
67,605,7787,memory,1493,False,./assets/img/ocean/memory/27.jpg,ocean,10.0,,True,,71,old,20.35,8,rest,maybe_old,,,,Adults,2.0,Control
68,607,7787,memory,1592,False,./assets/img/canyon/memory/9.jpg,canyon,10.0,,True,,72,old,20.35,8,rest,maybe_old,,,,Adults,1.0,Revaluation
69,609,7787,memory,1055,False,./assets/img/canyon/memory/33.jpg,canyon,0.0,,False,,73,new,20.35,8,rest,maybe_old,,,,Adults,1.0,Revaluation
70,611,7787,memory,963,False,./assets/img/canyon/memory/14.jpg,canyon,10.0,,True,,74,old,20.35,8,rest,maybe_old,,,,Adults,1.0,Revaluation
71,613,7787,memory,678,False,./assets/img/ocean/memory/7.jpg,ocean,10.0,,True,,75,old,20.35,8,rest,maybe_old,,,,Adults,2.0,Control
72,615,7787,memory,921,False,./assets/img/ocean/memory/18.jpg,ocean,10.0,,True,,76,old,20.35,8,rest,maybe_old,,,,Adults,2.0,Control
73,617,7787,memory,806,False,./assets/img/ocean/memory/31.jpg,ocean,0.0,,False,,77,new,20.35,8,rest,maybe_old,,,,Adults,2.0,Control
74,619,7787,memory,1148,False,./assets/img/ocean/memory/21.jpg,ocean,0.0,,False,,78,new,20.35,8,rest,definitely_old,,,,Adults,2.0,Control
75,621,7787,memory,1018,False,./assets/img/ocean/memory/34.jpg,ocean,0.0,,False,,79,old,20.35,8,rest,maybe_new,,,,Adults,2.0,Control
76,623,7787,memory,665,False,./assets/img/ocean/memory/5.jpg,ocean,10.0,,True,,80,new,20.35,8,rest,maybe_new,,,,Adults,2.0,Control
77,625,7787,memory,1153,False,./assets/img/ocean/memory/39.jpg,ocean,0.0,,False,,81,old,20.35,8,rest,maybe_new,,,,Adults,2.0,Control
78,627,7787,memory,890,False,./assets/img/canyon/memory/22.jpg,canyon,10.0,,True,,82,old,20.35,8,rest,maybe_old,,,,Adults,1.0,Revaluation
79,629,7787,memory,574,False,./assets/img/canyon/memory/23.jpg,canyon,0.0,,False,,83,new,20.35,8,rest,maybe_old,,,,Adults,1.0,Revaluation
80,631,7787,memory,777,False,./assets/img/ocean/memory/13.jpg,ocean,0.0,,False,,84,new,20.35,8,rest,maybe_old,,,,Adults,2.0,Control
81,633,7787,memory,562,False,./assets/img/canyon/memory/24.jpg,canyon,0.0,,False,,85,new,20.35,8,rest,maybe_old,,,,Adults,1.0,Revaluation
82,635,7787,memory,740,False,./assets/img/ocean/memory/15.jpg,ocean,0.0,,False,,86,new,20.35,8,rest,maybe_old,,,,Adults,2.0,Control
83,637,7787,memory,717,False,./assets/img/canyon/memory/30.jpg,canyon,10.0,,True,,87,old,20.35,8,rest,maybe_old,,,,Adults,1.0,Revaluation
84,471,7480,memory,2485,False,./assets/img/canyon/memory/9.jpg,canyon,10.0,,True,,4,new,21.43,4,rest,definitely_new,,,,Adults,2.0,Control
85,473,7480,memory,1512,False,./assets/img/canyon/memory/24.jpg,canyon,10.0,,True,,5,old,21.43,4,rest,definitely_old,,,,Adults,2.0,Control
86,475,7480,memory,2269,False,./assets/img/ocean/memory/3.jpg,ocean,10.0,,True,,6,new,21.43,4,rest,maybe_new,,,,Adults,1.0,Revaluation
87,477,7480,memory,1259,False,./assets/img/canyon/memory/28.jpg,canyon,0.0,,False,,7,old,21.43,4,rest,definitely_new,,,,Adults,2.0,Control
88,479,7480,memory,1482,False,./assets/img/canyon/memory/16.jpg,canyon,10.0,,True,,8,new,21.43,4,rest,definitely_new,,,,Adults,2.0,Control
89,481,7480,memory,1484,False,./assets/img/canyon/memory/3.jpg,canyon,10.0,,True,,9,old,21.43,4,rest,definitely_old,,,,Adults,2.0,Control
90,483,7480,memory,1567,False,./assets/img/ocean/memory/34.jpg,ocean,10.0,,True,,10,old,21.43,4,rest,definitely_old,,,,Adults,1.0,Revaluation
91,485,7480,memory,1999,False,./assets/img/canyon/memory/2.jpg,canyon,10.0,,True,,11,old,21.43,4,rest,definitely_old,,,,Adults,2.0,Control
92,487,7480,memory,1263,False,./assets/img/ocean/memory/40.jpg,ocean,10.0,,True,,12,new,21.43,4,rest,definitely_new,,,,Adults,1.0,Revaluation
93,489,7480,memory,1005,False,./assets/img/ocean/memory/16.jpg,ocean,10.0,,True,,13,old,21.43,4,rest,definitely_old,,,,Adults,1.0,Revaluation
94,491,7480,memory,1725,False,./assets/img/canyon/memory/15.jpg,canyon,0.0,,False,,14,new,21.43,4,rest,maybe_old,,,,Adults,2.0,Control
95,493,7480,memory,1984,False,./assets/img/ocean/memory/15.jpg,ocean,10.0,,True,,15,new,21.43,4,rest,maybe_new,,,,Adults,1.0,Revaluation
96,495,7480,memory,1308,False,./assets/img/ocean/memory/38.jpg,ocean,10.0,,True,,16,old,21.43,4,rest,definitely_old,,,,Adults,1.0,Revaluation
97,497,7480,memory,2087,False,./assets/img/ocean/memory/5.jpg,ocean,0.0,,False,,17,old,21.43,4,rest,maybe_new,,,,Adults,1.0,Revaluation
98,499,7480,memory,1275,False,./assets/img/canyon/memory/10.jpg,canyon,10.0,,True,,18,old,21.43,4,rest,definitely_old,,,,Adults,2.0,Control
99,501,7480,memory,1621,False,./assets/img/ocean/memory/32.jpg,ocean,0.0,,False,,19,new,21.43,4,rest,maybe_old,,,,Adults,1.0,Revaluation
100,503,7480,memory,1594,False,./assets/img/ocean/memory/30.jpg,ocean,0.0,,False,,20,new,21.43,4,rest,maybe_old,,,,Adults,1.0,Revaluation
101,505,7480,memory,2474,False,./assets/img/canyon/memory/12.jpg,canyon,0.0,,False,,21,old,21.43,4,rest,maybe_new,,,,Adults,2.0,Control
102,507,7480,memory,1111,False,./assets/img/canyon/memory/38.jpg,canyon,0.0,,False,,22,old,21.43,4,rest,maybe_new,,,,Adults,2.0,Control
103,509,7480,memory,2991,False,./assets/img/canyon/memory/29.jpg,canyon,10.0,,True,,23,new,21.43,4,rest,maybe_new,,,,Adults,2.0,Control
104,511,7480,memory,1683,False,./assets/img/ocean/memory/22.jpg,ocean,0.0,,False,,24,new,21.43,4,rest,definitely_old,,,,Adults,1.0,Revaluation
105,513,7480,memory,2841,False,./assets/img/canyon/memory/35.jpg,canyon,10.0,,True,,25,new,21.43,4,rest,maybe_new,,,,Adults,2.0,Control
106,515,7480,memory,2440,False,./assets/img/ocean/memory/33.jpg,ocean,10.0,,True,,26,new,21.43,4,rest,maybe_new,,,,Adults,1.0,Revaluation
107,517,7480,memory,1552,False,./assets/img/ocean/memory/35.jpg,ocean,10.0,,True,,27,old,21.43,4,rest,definitely_old,,,,Adults,1.0,Revaluation
108,519,7480,memory,2696,False,./assets/img/ocean/memory/18.jpg,ocean,10.0,,True,,28,new,21.43,4,rest,definitely_new,,,,Adults,1.0,Revaluation
109,521,7480,memory,1731,False,./assets/img/ocean/memory/17.jpg,ocean,0.0,,False,,29,old,21.43,4,rest,definitely_new,,,,Adults,1.0,Revaluation
110,523,7480,memory,1150,False,./assets/img/canyon/memory/22.jpg,canyon,10.0,,True,,30,new,21.43,4,rest,definitely_new,,,,Adults,2.0,Control
111,525,7480,memory,2238,False,./assets/img/ocean/memory/36.jpg,ocean,0.0,,False,,31,old,21.43,4,rest,definitely_new,,,,Adults,1.0,Revaluation
112,527,7480,memory,1421,False,./assets/img/canyon/memory/41.jpg,canyon,0.0,,False,,32,old,21.43,4,rest,definitely_new,,,,Adults,2.0,Control
113,529,7480,memory,3775,False,./assets/img/canyon/memory/32.jpg,canyon,0.0,,False,,33,old,21.43,4,rest,definitely_new,,,,Adults,2.0,Control
114,531,7480,memory,954,False,./assets/img/canyon/memory/1.jpg,canyon,10.0,,True,,34,old,21.43,4,rest,definitely_old,,,,Adults,2.0,Control
115,533,7480,memory,2165,False,./assets/img/ocean/memory/28.jpg,ocean,10.0,,True,,35,new,21.43,4,rest,definitely_new,,,,Adults,1.0,Revaluation
116,535,7480,memory,1534,False,./assets/img/ocean/memory/23.jpg,ocean,10.0,,True,,36,new,21.43,4,rest,definitely_new,,,,Adults,1.0,Revaluation
117,537,7480,memory,1125,False,./assets/img/ocean/memory/0.jpg,ocean,10.0,,True,,37,old,21.43,4,rest,definitely_old,,,,Adults,1.0,Revaluation
118,539,7480,memory,1363,False,./assets/img/ocean/memory/31.jpg,ocean,10.0,,True,,38,new,21.43,4,rest,definitely_new,,,,Adults,1.0,Revaluation
119,541,7480,memory,1664,False,./assets/img/canyon/memory/17.jpg,canyon,10.0,,True,,39,new,21.43,4,rest,definitely_new,,,,Adults,2.0,Control
120,543,7480,memory,1139,False,./assets/img/canyon/memory/4.jpg,canyon,10.0,,True,,40,new,21.43,4,rest,definitely_new,,,,Adults,2.0,Control
121,545,7480,memory,1066,False,./assets/img/ocean/memory/9.jpg,ocean,10.0,,True,,41,new,21.43,4,rest,definitely_new,,,,Adults,1.0,Revaluation
122,547,7480,memory,918,False,./assets/img/ocean/memory/41.jpg,ocean,10.0,,True,,42,new,21.43,4,rest,definitely_new,,,,Adults,1.0,Revaluation
123,549,7480,memory,982,False,./assets/img/ocean/memory/26.jpg,ocean,10.0,,True,,43,old,21.43,4,rest,definitely_old,,,,Adults,1.0,Revaluation
124,551,7480,memory,1120,False,./assets/img/canyon/memory/30.jpg,canyon,0.0,,False,,44,new,21.43,4,rest,definitely_old,,,,Adults,2.0,Control
125,553,7480,memory,1744,False,./assets/img/canyon/memory/39.jpg,canyon,10.0,,True,,45,new,21.43,4,rest,definitely_new,,,,Adults,2.0,Control
126,555,7480,memory,1857,False,./assets/img/canyon/memory/20.jpg,canyon,10.0,,True,,46,new,21.43,4,rest,definitely_new,,,,Adults,2.0,Control
127,557,7480,memory,1178,False,./assets/img/ocean/memory/10.jpg,ocean,10.0,,True,,47,old,21.43,4,rest,definitely_old,,,,Adults,1.0,Revaluation
128,559,7480,memory,988,False,./assets/img/canyon/memory/14.jpg,canyon,10.0,,True,,48,new,21.43,4,rest,definitely_new,,,,Adults,2.0,Control
129,561,7480,memory,2429,False,./assets/img/canyon/memory/13.jpg,canyon,0.0,,False,,49,new,21.43,4,rest,definitely_old,,,,Adults,2.0,Control
130,563,7480,memory,1007,False,./assets/img/ocean/memory/13.jpg,ocean,10.0,,True,,50,new,21.43,4,rest,definitely_new,,,,Adults,1.0,Revaluation
131,565,7480,memory,978,False,./assets/img/ocean/memory/20.jpg,ocean,10.0,,True,,51,old,21.43,4,rest,definitely_old,,,,Adults,1.0,Revaluation
132,567,7480,memory,2494,False,./assets/img/ocean/memory/24.jpg,ocean,10.0,,True,,52,new,21.43,4,rest,maybe_new,,,,Adults,1.0,Revaluation
133,569,7480,memory,989,False,./assets/img/ocean/memory/29.jpg,ocean,10.0,,True,,53,old,21.43,4,rest,definitely_old,,,,Adults,1.0,Revaluation
134,571,7480,memory,2091,False,./assets/img/canyon/memory/6.jpg,canyon,10.0,,True,,54,old,21.43,4,rest,maybe_old,,,,Adults,2.0,Control
135,573,7480,memory,2573,False,./assets/img/ocean/memory/25.jpg,ocean,10.0,,True,,55,new,21.43,4,rest,maybe_new,,,,Adults,1.0,Revaluation
136,575,7480,memory,1132,False,./assets/img/canyon/memory/19.jpg,canyon,0.0,,False,,56,new,21.43,4,rest,definitely_old,,,,Adults,2.0,Control
137,577,7480,memory,2095,False,./assets/img/canyon/memory/25.jpg,canyon,0.0,,False,,57,old,21.43,4,rest,maybe_new,,,,Adults,2.0,Control
138,579,7480,memory,913,False,./assets/img/ocean/memory/2.jpg,ocean,0.0,,False,,58,new,21.43,4,rest,definitely_old,,,,Adults,1.0,Revaluation
139,581,7480,memory,992,False,./assets/img/ocean/memory/21.jpg,ocean,10.0,,True,,59,old,21.43,4,rest,definitely_old,,,,Adults,1.0,Revaluation
140,583,7480,memory,1124,False,./assets/img/ocean/memory/8.jpg,ocean,0.0,,False,,60,new,21.43,4,rest,definitely_old,,,,Adults,1.0,Revaluation
141,585,7480,memory,1334,False,./assets/img/ocean/memory/4.jpg,ocean,10.0,,True,,61,new,21.43,4,rest,maybe_new,,,,Adults,1.0,Revaluation
142,587,7480,memory,1550,False,./assets/img/ocean/memory/11.jpg,ocean,10.0,,True,,62,old,21.43,4,rest,definitely_old,,,,Adults,1.0,Revaluation
143,589,7480,memory,3034,False,./assets/img/canyon/memory/27.jpg,canyon,10.0,,True,,63,new,21.43,4,rest,maybe_new,,,,Adults,2.0,Control
144,591,7480,memory,2857,False,./assets/img/canyon/memory/31.jpg,canyon,10.0,,True,,64,new,21.43,4,rest,maybe_new,,,,Adults,2.0,Control
145,593,7480,memory,4685,False,./assets/img/canyon/memory/26.jpg,canyon,0.0,,False,,65,old,21.43,4,rest,maybe_new,,,,Adults,2.0,Control
146,595,7480,memory,2614,False,./assets/img/canyon/memory/34.jpg,canyon,10.0,,True,,66,old,21.43,4,rest,definitely_old,,,,Adults,2.0,Control
147,597,7480,memory,2351,False,./assets/img/ocean/memory/39.jpg,ocean,0.0,,False,,67,old,21.43,4,rest,maybe_new,,,,Adults,1.0,Revaluation
148,599,7480,memory,1108,False,./assets/img/ocean/memory/19.jpg,ocean,10.0,,True,,68,old,21.43,4,rest,definitely_old,,,,Adults,1.0,Revaluation
149,601,7480,memory,1417,False,./assets/img/ocean/memory/14.jpg,ocean,10.0,,True,,69,new,21.43,4,rest,maybe_new,,,,Adults,1.0,Revaluation
150,603,7480,memory,1508,False,./assets/img/canyon/memory/40.jpg,canyon,0.0,,False,,70,old,21.43,4,rest,maybe_new,,,,Adults,2.0,Control
151,605,7480,memory,1636,False,./assets/img/ocean/memory/1.jpg,ocean,10.0,,True,,71,old,21.43,4,rest,definitely_old,,,,Adults,1.0,Revaluation
152,607,7480,memory,908,False,./assets/img/canyon/memory/0.jpg,canyon,10.0,,True,,72,old,21.43,4,rest,definitely_old,,,,Adults,2.0,Control
153,609,7480,memory,2175,False,./assets/img/ocean/memory/37.jpg,ocean,0.0,,False,,73,old,21.43,4,rest,maybe_new,,,,Adults,1.0,Revaluation
154,611,7480,memory,1129,False,./assets/img/ocean/memory/27.jpg,ocean,10.0,,True,,74,old,21.43,4,rest,definitely_old,,,,Adults,1.0,Revaluation
155,613,7480,memory,1837,False,./assets/img/ocean/memory/7.jpg,ocean,10.0,,True,,75,old,21.43,4,rest,maybe_old,,,,Adults,1.0,Revaluation
156,615,7480,memory,1652,False,./assets/img/canyon/memory/5.jpg,canyon,10.0,,True,,76,new,21.43,4,rest,maybe_new,,,,Adults,2.0,Control
157,617,7480,memory,1238,False,./assets/img/canyon/memory/36.jpg,canyon,0.0,,False,,77,new,21.43,4,rest,definitely_old,,,,Adults,2.0,Control
158,619,7480,memory,1887,False,./assets/img/canyon/memory/33.jpg,canyon,0.0,,False,,78,old,21.43,4,rest,maybe_new,,,,Adults,2.0,Control
159,621,7480,memory,1310,False,./assets/img/canyon/memory/11.jpg,canyon,10.0,,True,,79,new,21.43,4,rest,definitely_new,,,,Adults,2.0,Control
160,623,7480,memory,2144,False,./assets/img/ocean/memory/6.jpg,ocean,10.0,,True,,80,old,21.43,4,rest,maybe_old,,,,Adults,1.0,Revaluation
161,625,7480,memory,3163,False,./assets/img/ocean/memory/12.jpg,ocean,10.0,,True,,81,new,21.43,4,rest,definitely_new,,,,Adults,1.0,Revaluation
162,627,7480,memory,1976,False,./assets/img/canyon/memory/23.jpg,canyon,0.0,,False,,82,old,21.43,4,rest,definitely_new,,,,Adults,2.0,Control
163,629,7480,memory,2048,False,./assets/img/canyon/memory/18.jpg,canyon,0.0,,False,,83,old,21.43,4,rest,definitely_new,,,,Adults,2.0,Control
164,631,7480,memory,1340,False,./assets/img/canyon/memory/21.jpg,canyon,0.0,,False,,84,new,21.43,4,rest,definitely_old,,,,Adults,2.0,Control
165,633,7480,memory,2182,False,./assets/img/canyon/memory/7.jpg,canyon,10.0,,True,,85,old,21.43,4,rest,maybe_old,,,,Adults,2.0,Control
166,635,7480,memory,1515,False,./assets/img/canyon/memory/37.jpg,canyon,10.0,,True,,86,old,21.43,4,rest,definitely_old,,,,Adults,2.0,Control
167,637,7480,memory,1259,False,./assets/img/canyon/memory/8.jpg,canyon,10.0,,True,,87,new,21.43,4,rest,definitely_new,,,,Adults,2.0,Control
168,471,7982,memory,2698,False,./assets/img/canyon/memory/14.jpg,canyon,10.0,,True,,4,new,17.66,2,rest,maybe_new,,,,Adolescents,2.0,Control
169,473,7982,memory,1346,False,./assets/img/ocean/memory/21.jpg,ocean,0.0,,False,,5,old,17.66,2,rest,maybe_new,,,,Adolescents,1.0,Revaluation
170,475,7982,memory,2311,False,./assets/img/canyon/memory/39.jpg,canyon,10.0,,True,,6,new,17.66,2,rest,maybe_new,,,,Adolescents,2.0,Control
171,477,7982,memory,2076,False,./assets/img/ocean/memory/35.jpg,ocean,10.0,,True,,7,new,17.66,2,rest,maybe_new,,,,Adolescents,1.0,Revaluation
172,479,7982,memory,1357,False,./assets/img/canyon/memory/19.jpg,canyon,10.0,,True,,8,old,17.66,2,rest,definitely_old,,,,Adolescents,2.0,Control
173,481,7982,memory,1507,False,./assets/img/canyon/memory/40.jpg,canyon,10.0,,True,,9,old,17.66,2,rest,maybe_old,,,,Adolescents,2.0,Control
174,483,7982,memory,1652,False,./assets/img/ocean/memory/3.jpg,ocean,10.0,,True,,10,old,17.66,2,rest,maybe_old,,,,Adolescents,1.0,Revaluation
175,485,7982,memory,866,False,./assets/img/canyon/memory/41.jpg,canyon,10.0,,True,,11,old,17.66,2,rest,definitely_old,,,,Adolescents,2.0,Control
176,487,7982,memory,3444,False,./assets/img/canyon/memory/8.jpg,canyon,10.0,,True,,12,new,17.66,2,rest,definitely_new,,,,Adolescents,2.0,Control
177,489,7982,memory,1525,False,./assets/img/ocean/memory/20.jpg,ocean,10.0,,True,,13,old,17.66,2,rest,maybe_old,,,,Adolescents,1.0,Revaluation
178,491,7982,memory,1603,False,./assets/img/ocean/memory/15.jpg,ocean,10.0,,True,,14,new,17.66,2,rest,maybe_new,,,,Adolescents,1.0,Revaluation
179,493,7982,memory,1473,False,./assets/img/canyon/memory/32.jpg,canyon,0.0,,False,,15,old,17.66,2,rest,definitely_new,,,,Adolescents,2.0,Control
180,495,7982,memory,1205,False,./assets/img/canyon/memory/34.jpg,canyon,10.0,,True,,16,old,17.66,2,rest,definitely_old,,,,Adolescents,2.0,Control
181,497,7982,memory,1194,False,./assets/img/ocean/memory/16.jpg,ocean,0.0,,False,,17,new,17.66,2,rest,maybe_old,,,,Adolescents,1.0,Revaluation
182,499,7982,memory,569,False,./assets/img/canyon/memory/30.jpg,canyon,0.0,,False,,18,new,17.66,2,rest,definitely_old,,,,Adolescents,2.0,Control
183,501,7982,memory,645,False,./assets/img/canyon/memory/35.jpg,canyon,0.0,,False,,19,old,17.66,2,rest,maybe_new,,,,Adolescents,2.0,Control
184,503,7982,memory,1294,False,./assets/img/ocean/memory/36.jpg,ocean,10.0,,True,,20,old,17.66,2,rest,maybe_old,,,,Adolescents,1.0,Revaluation
185,505,7982,memory,1402,False,./assets/img/canyon/memory/21.jpg,canyon,0.0,,False,,21,new,17.66,2,rest,definitely_old,,,,Adolescents,2.0,Control
186,507,7982,memory,1356,False,./assets/img/canyon/memory/5.jpg,canyon,10.0,,True,,22,new,17.66,2,rest,maybe_new,,,,Adolescents,2.0,Control
187,509,7982,memory,701,False,./assets/img/ocean/memory/37.jpg,ocean,0.0,,False,,23,new,17.66,2,rest,definitely_old,,,,Adolescents,1.0,Revaluation
188,511,7982,memory,924,False,./assets/img/canyon/memory/1.jpg,canyon,10.0,,True,,24,old,17.66,2,rest,definitely_old,,,,Adolescents,2.0,Control
189,513,7982,memory,1212,False,./assets/img/canyon/memory/18.jpg,canyon,0.0,,False,,25,old,17.66,2,rest,definitely_new,,,,Adolescents,2.0,Control
190,515,7982,memory,2483,False,./assets/img/ocean/memory/10.jpg,ocean,0.0,,False,,26,new,17.66,2,rest,definitely_old,,,,Adolescents,1.0,Revaluation
191,517,7982,memory,1834,False,./assets/img/ocean/memory/41.jpg,ocean,0.0,,False,,27,old,17.66,2,rest,maybe_new,,,,Adolescents,1.0,Revaluation
192,519,7982,memory,1782,False,./assets/img/canyon/memory/4.jpg,canyon,10.0,,True,,28,old,17.66,2,rest,maybe_old,,,,Adolescents,2.0,Control
193,521,7982,memory,739,False,./assets/img/canyon/memory/11.jpg,canyon,0.0,,False,,29,new,17.66,2,rest,definitely_old,,,,Adolescents,2.0,Control
194,523,7982,memory,613,False,./assets/img/ocean/memory/18.jpg,ocean,0.0,,False,,30,new,17.66,2,rest,definitely_old,,,,Adolescents,1.0,Revaluation
195,525,7982,memory,931,False,./assets/img/canyon/memory/13.jpg,canyon,0.0,,False,,31,new,17.66,2,rest,maybe_old,,,,Adolescents,2.0,Control
196,527,7982,memory,1718,False,./assets/img/ocean/memory/31.jpg,ocean,10.0,,True,,32,new,17.66,2,rest,definitely_new,,,,Adolescents,1.0,Revaluation
197,529,7982,memory,1026,False,./assets/img/canyon/memory/37.jpg,canyon,0.0,,False,,33,old,17.66,2,rest,maybe_new,,,,Adolescents,2.0,Control
198,531,7982,memory,715,False,./assets/img/ocean/memory/9.jpg,ocean,0.0,,False,,34,old,17.66,2,rest,maybe_new,,,,Adolescents,1.0,Revaluation
199,533,7982,memory,876,False,./assets/img/canyon/memory/31.jpg,canyon,10.0,,True,,35,new,17.66,2,rest,maybe_new,,,,Adolescents,2.0,Control
200,535,7982,memory,1315,False,./assets/img/ocean/memory/13.jpg,ocean,10.0,,True,,36,new,17.66,2,rest,maybe_new,,,,Adolescents,1.0,Revaluation
201,537,7982,memory,1354,False,./assets/img/canyon/memory/28.jpg,canyon,10.0,,True,,37,new,17.66,2,rest,definitely_new,,,,Adolescents,2.0,Control
202,539,7982,memory,1114,False,./assets/img/canyon/memory/24.jpg,canyon,0.0,,False,,38,new,17.66,2,rest,definitely_old,,,,Adolescents,2.0,Control
203,541,7982,memory,1261,False,./assets/img/canyon/memory/0.jpg,canyon,0.0,,False,,39,old,17.66,2,rest,maybe_new,,,,Adolescents,2.0,Control
204,543,7982,memory,1538,False,./assets/img/ocean/memory/6.jpg,ocean,0.0,,False,,40,old,17.66,2,rest,definitely_new,,,,Adolescents,1.0,Revaluation
205,545,7982,memory,1036,False,./assets/img/ocean/memory/11.jpg,ocean,10.0,,True,,41,old,17.66,2,rest,maybe_old,,,,Adolescents,1.0,Revaluation
206,547,7982,memory,551,False,./assets/img/ocean/memory/8.jpg,ocean,0.0,,False,,42,new,17.66,2,rest,definitely_old,,,,Adolescents,1.0,Revaluation
207,549,7982,memory,428,False,./assets/img/ocean/memory/22.jpg,ocean,0.0,,False,,43,new,17.66,2,rest,definitely_old,,,,Adolescents,1.0,Revaluation
208,551,7982,memory,626,False,./assets/img/ocean/memory/7.jpg,ocean,0.0,,False,,44,new,17.66,2,rest,definitely_old,,,,Adolescents,1.0,Revaluation
209,553,7982,memory,4828,False,./assets/img/ocean/memory/14.jpg,ocean,10.0,,True,,45,new,17.66,2,rest,maybe_new,,,,Adolescents,1.0,Revaluation
210,555,7982,memory,771,False,./assets/img/ocean/memory/34.jpg,ocean,0.0,,False,,46,new,17.66,2,rest,maybe_old,,,,Adolescents,1.0,Revaluation
211,557,7982,memory,1266,False,./assets/img/canyon/memory/2.jpg,canyon,0.0,,False,,47,new,17.66,2,rest,definitely_old,,,,Adolescents,2.0,Control
212,559,7982,memory,920,False,./assets/img/ocean/memory/5.jpg,ocean,10.0,,True,,48,old,17.66,2,rest,maybe_old,,,,Adolescents,1.0,Revaluation
213,561,7982,memory,1543,False,./assets/img/canyon/memory/15.jpg,canyon,0.0,,False,,49,old,17.66,2,rest,definitely_new,,,,Adolescents,2.0,Control
214,563,7982,memory,1048,False,./assets/img/ocean/memory/29.jpg,ocean,0.0,,False,,50,old,17.66,2,rest,maybe_new,,,,Adolescents,1.0,Revaluation
215,565,7982,memory,771,False,./assets/img/ocean/memory/27.jpg,ocean,10.0,,True,,51,old,17.66,2,rest,definitely_old,,,,Adolescents,1.0,Revaluation
216,567,7982,memory,1423,False,./assets/img/ocean/memory/1.jpg,ocean,0.0,,False,,52,old,17.66,2,rest,maybe_new,,,,Adolescents,1.0,Revaluation
217,569,7982,memory,1016,False,./assets/img/ocean/memory/38.jpg,ocean,10.0,,True,,53,new,17.66,2,rest,maybe_new,,,,Adolescents,1.0,Revaluation
218,571,7982,memory,1316,False,./assets/img/canyon/memory/10.jpg,canyon,10.0,,True,,54,old,17.66,2,rest,maybe_old,,,,Adolescents,2.0,Control
219,573,7982,memory,645,False,./assets/img/canyon/memory/23.jpg,canyon,0.0,,False,,55,new,17.66,2,rest,maybe_old,,,,Adolescents,2.0,Control
220,575,7982,memory,1923,False,./assets/img/canyon/memory/29.jpg,canyon,10.0,,True,,56,old,17.66,2,rest,maybe_old,,,,Adolescents,2.0,Control
221,577,7982,memory,1502,False,./assets/img/ocean/memory/28.jpg,ocean,0.0,,False,,57,new,17.66,2,rest,maybe_old,,,,Adolescents,1.0,Revaluation
222,579,7982,memory,742,False,./assets/img/ocean/memory/19.jpg,ocean,10.0,,True,,58,old,17.66,2,rest,maybe_old,,,,Adolescents,1.0,Revaluation
223,581,7982,memory,1137,False,./assets/img/canyon/memory/27.jpg,canyon,0.0,,False,,59,old,17.66,2,rest,maybe_new,,,,Adolescents,2.0,Control
224,583,7982,memory,688,False,./assets/img/ocean/memory/40.jpg,ocean,0.0,,False,,60,new,17.66,2,rest,maybe_old,,,,Adolescents,1.0,Revaluation
225,585,7982,memory,822,False,./assets/img/canyon/memory/16.jpg,canyon,10.0,,True,,61,old,17.66,2,rest,maybe_old,,,,Adolescents,2.0,Control
226,587,7982,memory,448,False,./assets/img/canyon/memory/38.jpg,canyon,0.0,,False,,62,new,17.66,2,rest,maybe_old,,,,Adolescents,2.0,Control
227,589,7982,memory,922,False,./assets/img/canyon/memory/36.jpg,canyon,0.0,,False,,63,new,17.66,2,rest,definitely_old,,,,Adolescents,2.0,Control
228,591,7982,memory,440,False,./assets/img/ocean/memory/17.jpg,ocean,0.0,,False,,64,new,17.66,2,rest,maybe_old,,,,Adolescents,1.0,Revaluation
229,593,7982,memory,740,False,./assets/img/ocean/memory/30.jpg,ocean,0.0,,False,,65,old,17.66,2,rest,maybe_new,,,,Adolescents,1.0,Revaluation
230,595,7982,memory,467,False,./assets/img/canyon/memory/33.jpg,canyon,0.0,,False,,66,new,17.66,2,rest,definitely_old,,,,Adolescents,2.0,Control
231,597,7982,memory,612,False,./assets/img/ocean/memory/23.jpg,ocean,0.0,,False,,67,old,17.66,2,rest,maybe_new,,,,Adolescents,1.0,Revaluation
232,599,7982,memory,438,False,./assets/img/canyon/memory/17.jpg,canyon,0.0,,False,,68,new,17.66,2,rest,maybe_old,,,,Adolescents,2.0,Control
233,601,7982,memory,1299,False,./assets/img/ocean/memory/39.jpg,ocean,10.0,,True,,69,old,17.66,2,rest,maybe_old,,,,Adolescents,1.0,Revaluation
234,603,7982,memory,1523,False,./assets/img/canyon/memory/25.jpg,canyon,0.0,,False,,70,new,17.66,2,rest,definitely_old,,,,Adolescents,2.0,Control
235,605,7982,memory,791,False,./assets/img/ocean/memory/12.jpg,ocean,0.0,,False,,71,old,17.66,2,rest,maybe_new,,,,Adolescents,1.0,Revaluation
236,607,7982,memory,512,False,./assets/img/canyon/memory/22.jpg,canyon,0.0,,False,,72,new,17.66,2,rest,maybe_old,,,,Adolescents,2.0,Control
237,609,7982,memory,469,False,./assets/img/ocean/memory/25.jpg,ocean,0.0,,False,,73,new,17.66,2,rest,definitely_old,,,,Adolescents,1.0,Revaluation
238,611,7982,memory,363,False,./assets/img/canyon/memory/7.jpg,canyon,10.0,,True,,74,old,17.66,2,rest,maybe_old,,,,Adolescents,2.0,Control
239,613,7982,memory,832,False,./assets/img/canyon/memory/9.jpg,canyon,0.0,,False,,75,new,17.66,2,rest,maybe_old,,,,Adolescents,2.0,Control
240,615,7982,memory,989,False,./assets/img/ocean/memory/24.jpg,ocean,0.0,,False,,76,new,17.66,2,rest,definitely_old,,,,Adolescents,1.0,Revaluation
241,617,7982,memory,501,False,./assets/img/canyon/memory/6.jpg,canyon,0.0,,False,,77,old,17.66,2,rest,maybe_new,,,,Adolescents,2.0,Control
242,619,7982,memory,1188,False,./assets/img/ocean/memory/4.jpg,ocean,10.0,,True,,78,new,17.66,2,rest,maybe_new,,,,Adolescents,1.0,Revaluation
243,621,7982,memory,507,False,./assets/img/ocean/memory/2.jpg,ocean,10.0,,True,,79,old,17.66,2,rest,maybe_old,,,,Adolescents,1.0,Revaluation
244,623,7982,memory,709,False,./assets/img/ocean/memory/32.jpg,ocean,10.0,,True,,80,old,17.66,2,rest,definitely_old,,,,Adolescents,1.0,Revaluation
245,625,7982,memory,432,False,./assets/img/ocean/memory/0.jpg,ocean,10.0,,True,,81,old,17.66,2,rest,maybe_old,,,,Adolescents,1.0,Revaluation
246,627,7982,memory,424,False,./assets/img/canyon/memory/26.jpg,canyon,10.0,,True,,82,new,17.66,2,rest,maybe_new,,,,Adolescents,2.0,Control
247,629,7982,memory,23,False,./assets/img/canyon/memory/12.jpg,canyon,10.0,,True,,83,old,17.66,2,rest,maybe_old,,,,Adolescents,2.0,Control
248,631,7982,memory,590,False,./assets/img/canyon/memory/3.jpg,canyon,10.0,,True,,84,old,17.66,2,rest,maybe_old,,,,Adolescents,2.0,Control
249,633,7982,memory,5820,False,./assets/img/canyon/memory/20.jpg,canyon,0.0,,False,,85,old,17.66,2,rest,maybe_new,,,,Adolescents,2.0,Control
250,635,7982,memory,529,False,./assets/img/ocean/memory/33.jpg,ocean,10.0,,True,,86,new,17.66,2,rest,definitely_new,,,,Adolescents,1.0,Revaluation
251,637,7982,memory,995,False,./assets/img/ocean/memory/26.jpg,ocean,0.0,,False,,87,old,17.66,2,rest,maybe_new,,,,Adolescents,1.0,Revaluation
252,469,7969,memory,1953,False,./assets/img/canyon/memory/1.jpg,canyon,10.0,,True,,4,old,14.2,6,rest,maybe_old,,,,Adolescents,1.0,Revaluation
253,471,7969,memory,1580,False,./assets/img/ocean/memory/37.jpg,ocean,0.0,,False,,5,old,14.2,6,rest,maybe_new,,,,Adolescents,2.0,Control
254,473,7969,memory,2345,False,./assets/img/canyon/memory/22.jpg,canyon,10.0,,True,,6,new,14.2,6,rest,maybe_new,,,,Adolescents,1.0,Revaluation
255,475,7969,memory,2717,False,./assets/img/ocean/memory/7.jpg,ocean,0.0,,False,,7,old,14.2,6,rest,maybe_new,,,,Adolescents,2.0,Control
256,477,7969,memory,1515,False,./assets/img/canyon/memory/21.jpg,canyon,10.0,,True,,8,new,14.2,6,rest,definitely_new,,,,Adolescents,1.0,Revaluation
257,479,7969,memory,2428,False,./assets/img/canyon/memory/29.jpg,canyon,10.0,,True,,9,old,14.2,6,rest,maybe_old,,,,Adolescents,1.0,Revaluation
258,481,7969,memory,1617,False,./assets/img/ocean/memory/26.jpg,ocean,0.0,,False,,10,new,14.2,6,rest,maybe_old,,,,Adolescents,2.0,Control
259,483,7969,memory,2726,False,./assets/img/ocean/memory/9.jpg,ocean,0.0,,False,,11,old,14.2,6,rest,maybe_new,,,,Adolescents,2.0,Control
260,485,7969,memory,1573,False,./assets/img/ocean/memory/25.jpg,ocean,0.0,,False,,12,old,14.2,6,rest,maybe_new,,,,Adolescents,2.0,Control
261,487,7969,memory,2045,False,./assets/img/canyon/memory/4.jpg,canyon,0.0,,False,,13,new,14.2,6,rest,maybe_old,,,,Adolescents,1.0,Revaluation
262,489,7969,memory,2028,False,./assets/img/ocean/memory/29.jpg,ocean,10.0,,True,,14,old,14.2,6,rest,maybe_old,,,,Adolescents,2.0,Control
263,491,7969,memory,2007,False,./assets/img/ocean/memory/6.jpg,ocean,10.0,,True,,15,old,14.2,6,rest,maybe_old,,,,Adolescents,2.0,Control
264,493,7969,memory,1957,False,./assets/img/canyon/memory/11.jpg,canyon,0.0,,False,,16,old,14.2,6,rest,definitely_new,,,,Adolescents,1.0,Revaluation
265,495,7969,memory,1392,False,./assets/img/canyon/memory/7.jpg,canyon,0.0,,False,,17,new,14.2,6,rest,definitely_old,,,,Adolescents,1.0,Revaluation
266,497,7969,memory,1488,False,./assets/img/canyon/memory/35.jpg,canyon,0.0,,False,,18,new,14.2,6,rest,maybe_old,,,,Adolescents,1.0,Revaluation
267,499,7969,memory,1780,False,./assets/img/ocean/memory/27.jpg,ocean,10.0,,True,,19,new,14.2,6,rest,maybe_new,,,,Adolescents,2.0,Control
268,501,7969,memory,2616,False,./assets/img/canyon/memory/40.jpg,canyon,10.0,,True,,20,old,14.2,6,rest,maybe_old,,,,Adolescents,1.0,Revaluation
269,503,7969,memory,1549,False,./assets/img/canyon/memory/38.jpg,canyon,10.0,,True,,21,new,14.2,6,rest,maybe_new,,,,Adolescents,1.0,Revaluation
270,505,7969,memory,1735,False,./assets/img/canyon/memory/37.jpg,canyon,10.0,,True,,22,old,14.2,6,rest,definitely_old,,,,Adolescents,1.0,Revaluation
271,507,7969,memory,2029,False,./assets/img/canyon/memory/3.jpg,canyon,0.0,,False,,23,new,14.2,6,rest,maybe_old,,,,Adolescents,1.0,Revaluation
272,509,7969,memory,2191,False,./assets/img/canyon/memory/10.jpg,canyon,10.0,,True,,24,new,14.2,6,rest,definitely_new,,,,Adolescents,1.0,Revaluation
273,511,7969,memory,1741,False,./assets/img/ocean/memory/0.jpg,ocean,10.0,,True,,25,new,14.2,6,rest,maybe_new,,,,Adolescents,2.0,Control
274,513,7969,memory,1248,False,./assets/img/canyon/memory/12.jpg,canyon,0.0,,False,,26,old,14.2,6,rest,maybe_new,,,,Adolescents,1.0,Revaluation
275,515,7969,memory,1997,False,./assets/img/ocean/memory/17.jpg,ocean,10.0,,True,,27,old,14.2,6,rest,definitely_old,,,,Adolescents,2.0,Control
276,517,7969,memory,1788,False,./assets/img/ocean/memory/24.jpg,ocean,0.0,,False,,28,new,14.2,6,rest,maybe_old,,,,Adolescents,2.0,Control
277,519,7969,memory,1362,False,./assets/img/ocean/memory/22.jpg,ocean,10.0,,True,,29,new,14.2,6,rest,definitely_new,,,,Adolescents,2.0,Control
278,521,7969,memory,1403,False,./assets/img/canyon/memory/33.jpg,canyon,10.0,,True,,30,old,14.2,6,rest,maybe_old,,,,Adolescents,1.0,Revaluation
279,523,7969,memory,1339,False,./assets/img/canyon/memory/0.jpg,canyon,0.0,,False,,31,new,14.2,6,rest,maybe_old,,,,Adolescents,1.0,Revaluation
280,525,7969,memory,1264,False,./assets/img/canyon/memory/8.jpg,canyon,10.0,,True,,32,old,14.2,6,rest,definitely_old,,,,Adolescents,1.0,Revaluation
281,527,7969,memory,1865,False,./assets/img/ocean/memory/15.jpg,ocean,0.0,,False,,33,new,14.2,6,rest,definitely_old,,,,Adolescents,2.0,Control
282,529,7969,memory,2559,False,./assets/img/canyon/memory/27.jpg,canyon,0.0,,False,,34,old,14.2,6,rest,maybe_new,,,,Adolescents,1.0,Revaluation
283,531,7969,memory,1126,False,./assets/img/canyon/memory/6.jpg,canyon,10.0,,True,,35,old,14.2,6,rest,maybe_old,,,,Adolescents,1.0,Revaluation
284,533,7969,memory,1400,False,./assets/img/ocean/memory/12.jpg,ocean,0.0,,False,,36,new,14.2,6,rest,definitely_old,,,,Adolescents,2.0,Control
285,535,7969,memory,1989,False,./assets/img/canyon/memory/18.jpg,canyon,0.0,,False,,37,old,14.2,6,rest,definitely_new,,,,Adolescents,1.0,Revaluation
286,537,7969,memory,1589,False,./assets/img/ocean/memory/34.jpg,ocean,0.0,,False,,38,new,14.2,6,rest,maybe_old,,,,Adolescents,2.0,Control
287,539,7969,memory,1390,False,./assets/img/ocean/memory/19.jpg,ocean,10.0,,True,,39,old,14.2,6,rest,definitely_old,,,,Adolescents,2.0,Control
288,541,7969,memory,1500,False,./assets/img/canyon/memory/13.jpg,canyon,0.0,,False,,40,new,14.2,6,rest,maybe_old,,,,Adolescents,1.0,Revaluation
289,543,7969,memory,2698,False,./assets/img/canyon/memory/36.jpg,canyon,0.0,,False,,41,new,14.2,6,rest,maybe_old,,,,Adolescents,1.0,Revaluation
290,545,7969,memory,967,False,./assets/img/canyon/memory/5.jpg,canyon,10.0,,True,,42,new,14.2,6,rest,maybe_new,,,,Adolescents,1.0,Revaluation
291,547,7969,memory,2822,False,./assets/img/canyon/memory/28.jpg,canyon,10.0,,True,,43,new,14.2,6,rest,definitely_new,,,,Adolescents,1.0,Revaluation
292,549,7969,memory,1581,False,./assets/img/ocean/memory/10.jpg,ocean,10.0,,True,,44,new,14.2,6,rest,maybe_new,,,,Adolescents,2.0,Control
293,551,7969,memory,1190,False,./assets/img/canyon/memory/16.jpg,canyon,10.0,,True,,45,old,14.2,6,rest,maybe_old,,,,Adolescents,1.0,Revaluation
294,553,7969,memory,1781,False,./assets/img/ocean/memory/8.jpg,ocean,0.0,,False,,46,old,14.2,6,rest,maybe_new,,,,Adolescents,2.0,Control
295,555,7969,memory,1174,False,./assets/img/ocean/memory/40.jpg,ocean,10.0,,True,,47,old,14.2,6,rest,definitely_old,,,,Adolescents,2.0,Control
296,557,7969,memory,1899,False,./assets/img/ocean/memory/4.jpg,ocean,10.0,,True,,48,new,14.2,6,rest,maybe_new,,,,Adolescents,2.0,Control
297,559,7969,memory,1269,False,./assets/img/canyon/memory/19.jpg,canyon,0.0,,False,,49,old,14.2,6,rest,maybe_new,,,,Adolescents,1.0,Revaluation
298,561,7969,memory,1370,False,./assets/img/canyon/memory/31.jpg,canyon,10.0,,True,,50,old,14.2,6,rest,definitely_old,,,,Adolescents,1.0,Revaluation
299,563,7969,memory,1050,False,./assets/img/ocean/memory/23.jpg,ocean,0.0,,False,,51,new,14.2,6,rest,definitely_old,,,,Adolescents,2.0,Control
300,565,7969,memory,1413,False,./assets/img/ocean/memory/14.jpg,ocean,10.0,,True,,52,new,14.2,6,rest,maybe_new,,,,Adolescents,2.0,Control
301,567,7969,memory,1792,False,./assets/img/ocean/memory/39.jpg,ocean,10.0,,True,,53,old,14.2,6,rest,maybe_old,,,,Adolescents,2.0,Control
302,569,7969,memory,1836,False,./assets/img/ocean/memory/3.jpg,ocean,10.0,,True,,54,new,14.2,6,rest,maybe_new,,,,Adolescents,2.0,Control
303,571,7969,memory,1053,False,./assets/img/ocean/memory/13.jpg,ocean,0.0,,False,,55,new,14.2,6,rest,maybe_old,,,,Adolescents,2.0,Control
304,573,7969,memory,1576,False,./assets/img/ocean/memory/28.jpg,ocean,0.0,,False,,56,old,14.2,6,rest,definitely_new,,,,Adolescents,2.0,Control
305,575,7969,memory,1302,False,./assets/img/canyon/memory/9.jpg,canyon,10.0,,True,,57,new,14.2,6,rest,definitely_new,,,,Adolescents,1.0,Revaluation
306,577,7969,memory,1396,False,./assets/img/ocean/memory/38.jpg,ocean,0.0,,False,,58,old,14.2,6,rest,definitely_new,,,,Adolescents,2.0,Control
307,579,7969,memory,1267,False,./assets/img/ocean/memory/31.jpg,ocean,0.0,,False,,59,old,14.2,6,rest,maybe_new,,,,Adolescents,2.0,Control
308,581,7969,memory,2076,False,./assets/img/canyon/memory/26.jpg,canyon,0.0,,False,,60,new,14.2,6,rest,maybe_old,,,,Adolescents,1.0,Revaluation
309,583,7969,memory,2326,False,./assets/img/ocean/memory/41.jpg,ocean,0.0,,False,,61,new,14.2,6,rest,maybe_old,,,,Adolescents,2.0,Control
310,585,7969,memory,927,False,./assets/img/ocean/memory/5.jpg,ocean,0.0,,False,,62,new,14.2,6,rest,maybe_old,,,,Adolescents,2.0,Control
311,587,7969,memory,1234,False,./assets/img/ocean/memory/11.jpg,ocean,0.0,,False,,63,old,14.2,6,rest,maybe_new,,,,Adolescents,2.0,Control
312,589,7969,memory,1084,False,./assets/img/ocean/memory/32.jpg,ocean,10.0,,True,,64,new,14.2,6,rest,maybe_new,,,,Adolescents,2.0,Control
313,591,7969,memory,1209,False,./assets/img/canyon/memory/25.jpg,canyon,0.0,,False,,65,new,14.2,6,rest,definitely_old,,,,Adolescents,1.0,Revaluation
314,593,7969,memory,1561,False,./assets/img/canyon/memory/17.jpg,canyon,10.0,,True,,66,old,14.2,6,rest,definitely_old,,,,Adolescents,1.0,Revaluation
315,595,7969,memory,1431,False,./assets/img/canyon/memory/23.jpg,canyon,10.0,,True,,67,old,14.2,6,rest,maybe_old,,,,Adolescents,1.0,Revaluation
316,597,7969,memory,1071,False,./assets/img/ocean/memory/2.jpg,ocean,0.0,,False,,68,new,14.2,6,rest,maybe_old,,,,Adolescents,2.0,Control
317,599,7969,memory,1351,False,./assets/img/canyon/memory/41.jpg,canyon,10.0,,True,,69,new,14.2,6,rest,maybe_new,,,,Adolescents,1.0,Revaluation
318,601,7969,memory,2106,False,./assets/img/ocean/memory/21.jpg,ocean,0.0,,False,,70,old,14.2,6,rest,definitely_new,,,,Adolescents,2.0,Control
319,603,7969,memory,2334,False,./assets/img/ocean/memory/35.jpg,ocean,0.0,,False,,71,new,14.2,6,rest,maybe_old,,,,Adolescents,2.0,Control
320,605,7969,memory,1115,False,./assets/img/ocean/memory/33.jpg,ocean,0.0,,False,,72,new,14.2,6,rest,definitely_old,,,,Adolescents,2.0,Control
321,607,7969,memory,1054,False,./assets/img/canyon/memory/39.jpg,canyon,10.0,,True,,73,old,14.2,6,rest,maybe_old,,,,Adolescents,1.0,Revaluation
322,609,7969,memory,1599,False,./assets/img/canyon/memory/30.jpg,canyon,0.0,,False,,74,new,14.2,6,rest,maybe_old,,,,Adolescents,1.0,Revaluation
323,611,7969,memory,781,False,./assets/img/canyon/memory/34.jpg,canyon,10.0,,True,,75,old,14.2,6,rest,maybe_old,,,,Adolescents,1.0,Revaluation
324,613,7969,memory,2667,False,./assets/img/ocean/memory/20.jpg,ocean,10.0,,True,,76,old,14.2,6,rest,maybe_old,,,,Adolescents,2.0,Control
325,615,7969,memory,1321,False,./assets/img/canyon/memory/2.jpg,canyon,10.0,,True,,77,old,14.2,6,rest,definitely_old,,,,Adolescents,1.0,Revaluation
326,617,7969,memory,2342,False,./assets/img/ocean/memory/36.jpg,ocean,0.0,,False,,78,old,14.2,6,rest,maybe_new,,,,Adolescents,2.0,Control
327,619,7969,memory,1277,False,./assets/img/ocean/memory/16.jpg,ocean,10.0,,True,,79,old,14.2,6,rest,definitely_old,,,,Adolescents,2.0,Control
328,621,7969,memory,1226,False,./assets/img/ocean/memory/18.jpg,ocean,0.0,,False,,80,new,14.2,6,rest,maybe_old,,,,Adolescents,2.0,Control
329,623,7969,memory,1976,False,./assets/img/canyon/memory/32.jpg,canyon,0.0,,False,,81,old,14.2,6,rest,maybe_new,,,,Adolescents,1.0,Revaluation
330,625,7969,memory,2641,False,./assets/img/canyon/memory/24.jpg,canyon,10.0,,True,,82,new,14.2,6,rest,maybe_new,,,,Adolescents,1.0,Revaluation
331,627,7969,memory,2036,False,./assets/img/canyon/memory/20.jpg,canyon,10.0,,True,,83,new,14.2,6,rest,maybe_new,,,,Adolescents,1.0,Revaluation
332,629,7969,memory,1005,False,./assets/img/canyon/memory/14.jpg,canyon,0.0,,False,,84,new,14.2,6,rest,maybe_old,,,,Adolescents,1.0,Revaluation
333,631,7969,memory,1136,False,./assets/img/canyon/memory/15.jpg,canyon,10.0,,True,,85,old,14.2,6,rest,definitely_old,,,,Adolescents,1.0,Revaluation
334,633,7969,memory,1049,False,./assets/img/ocean/memory/1.jpg,ocean,10.0,,True,,86,old,14.2,6,rest,definitely_old,,,,Adolescents,2.0,Control
335,635,7969,memory,1336,False,./assets/img/ocean/memory/30.jpg,ocean,10.0,,True,,87,old,14.2,6,rest,maybe_old,,,,Adolescents,2.0,Control
336,471,7330,memory,2013,False,./assets/img/ocean/memory/6.jpg,ocean,10.0,,True,,4,new,12.33,3,rest,definitely_new,,,,Children,1.0,Control
337,473,7330,memory,3489,False,./assets/img/ocean/memory/9.jpg,ocean,10.0,,True,,5,old,12.33,3,rest,maybe_old,,,,Children,1.0,Control
338,475,7330,memory,1711,False,./assets/img/canyon/memory/24.jpg,canyon,0.0,,False,,6,old,12.33,3,rest,maybe_new,,,,Children,2.0,Revaluation
339,477,7330,memory,2041,False,./assets/img/ocean/memory/38.jpg,ocean,0.0,,False,,7,new,12.33,3,rest,definitely_old,,,,Children,1.0,Control
340,479,7330,memory,1413,False,./assets/img/canyon/memory/26.jpg,canyon,0.0,,False,,8,new,12.33,3,rest,definitely_old,,,,Children,2.0,Revaluation
341,481,7330,memory,1249,False,./assets/img/ocean/memory/17.jpg,ocean,0.0,,False,,9,new,12.33,3,rest,maybe_old,,,,Children,1.0,Control
342,483,7330,memory,1124,False,./assets/img/ocean/memory/21.jpg,ocean,10.0,,True,,10,old,12.33,3,rest,definitely_old,,,,Children,1.0,Control
343,485,7330,memory,2650,False,./assets/img/canyon/memory/2.jpg,canyon,10.0,,True,,11,old,12.33,3,rest,maybe_old,,,,Children,2.0,Revaluation
344,487,7330,memory,1501,False,./assets/img/canyon/memory/15.jpg,canyon,0.0,,False,,12,old,12.33,3,rest,maybe_new,,,,Children,2.0,Revaluation
345,489,7330,memory,1247,False,./assets/img/ocean/memory/18.jpg,ocean,0.0,,False,,13,new,12.33,3,rest,definitely_old,,,,Children,1.0,Control
346,491,7330,memory,1143,False,./assets/img/canyon/memory/1.jpg,canyon,10.0,,True,,14,old,12.33,3,rest,definitely_old,,,,Children,2.0,Revaluation
347,493,7330,memory,1184,False,./assets/img/ocean/memory/26.jpg,ocean,10.0,,True,,15,old,12.33,3,rest,definitely_old,,,,Children,1.0,Control
348,495,7330,memory,1047,False,./assets/img/canyon/memory/12.jpg,canyon,0.0,,False,,16,new,12.33,3,rest,maybe_old,,,,Children,2.0,Revaluation
349,497,7330,memory,1087,False,./assets/img/ocean/memory/8.jpg,ocean,10.0,,True,,17,old,12.33,3,rest,definitely_old,,,,Children,1.0,Control
350,499,7330,memory,1384,False,./assets/img/ocean/memory/30.jpg,ocean,10.0,,True,,18,new,12.33,3,rest,maybe_new,,,,Children,1.0,Control
351,501,7330,memory,911,False,./assets/img/canyon/memory/28.jpg,canyon,0.0,,False,,19,new,12.33,3,rest,definitely_old,,,,Children,2.0,Revaluation
352,503,7330,memory,1655,False,./assets/img/canyon/memory/16.jpg,canyon,10.0,,True,,20,new,12.33,3,rest,maybe_new,,,,Children,2.0,Revaluation
353,505,7330,memory,1311,False,./assets/img/ocean/memory/31.jpg,ocean,10.0,,True,,21,old,12.33,3,rest,maybe_old,,,,Children,1.0,Control
354,507,7330,memory,1224,False,./assets/img/ocean/memory/0.jpg,ocean,10.0,,True,,22,old,12.33,3,rest,definitely_old,,,,Children,1.0,Control
355,509,7330,memory,1622,False,./assets/img/canyon/memory/35.jpg,canyon,0.0,,False,,23,new,12.33,3,rest,definitely_old,,,,Children,2.0,Revaluation
356,511,7330,memory,1094,False,./assets/img/ocean/memory/16.jpg,ocean,10.0,,True,,24,old,12.33,3,rest,definitely_old,,,,Children,1.0,Control
357,513,7330,memory,2399,False,./assets/img/ocean/memory/24.jpg,ocean,0.0,,False,,25,new,12.33,3,rest,maybe_old,,,,Children,1.0,Control
358,515,7330,memory,1144,False,./assets/img/ocean/memory/2.jpg,ocean,10.0,,True,,26,old,12.33,3,rest,definitely_old,,,,Children,1.0,Control
359,517,7330,memory,1495,False,./assets/img/canyon/memory/19.jpg,canyon,10.0,,True,,27,new,12.33,3,rest,maybe_new,,,,Children,2.0,Revaluation
360,519,7330,memory,1311,False,./assets/img/canyon/memory/9.jpg,canyon,10.0,,True,,28,old,12.33,3,rest,definitely_old,,,,Children,2.0,Revaluation
361,521,7330,memory,1463,False,./assets/img/canyon/memory/10.jpg,canyon,10.0,,True,,29,new,12.33,3,rest,definitely_new,,,,Children,2.0,Revaluation
362,523,7330,memory,2104,False,./assets/img/canyon/memory/27.jpg,canyon,0.0,,False,,30,old,12.33,3,rest,maybe_new,,,,Children,2.0,Revaluation
363,525,7330,memory,1729,False,./assets/img/ocean/memory/3.jpg,ocean,10.0,,True,,31,new,12.33,3,rest,maybe_new,,,,Children,1.0,Control
364,527,7330,memory,2448,False,./assets/img/ocean/memory/32.jpg,ocean,10.0,,True,,32,old,12.33,3,rest,maybe_old,,,,Children,1.0,Control
365,529,7330,memory,2498,False,./assets/img/canyon/memory/7.jpg,canyon,0.0,,False,,33,new,12.33,3,rest,definitely_old,,,,Children,2.0,Revaluation
366,531,7330,memory,1271,False,./assets/img/canyon/memory/30.jpg,canyon,0.0,,False,,34,old,12.33,3,rest,maybe_new,,,,Children,2.0,Revaluation
367,533,7330,memory,2904,False,./assets/img/ocean/memory/23.jpg,ocean,0.0,,False,,35,new,12.33,3,rest,definitely_old,,,,Children,1.0,Control
368,535,7330,memory,2760,False,./assets/img/ocean/memory/39.jpg,ocean,0.0,,False,,36,new,12.33,3,rest,maybe_old,,,,Children,1.0,Control
369,537,7330,memory,1127,False,./assets/img/canyon/memory/37.jpg,canyon,10.0,,True,,37,new,12.33,3,rest,maybe_new,,,,Children,2.0,Revaluation
370,539,7330,memory,992,False,./assets/img/canyon/memory/40.jpg,canyon,10.0,,True,,38,new,12.33,3,rest,definitely_new,,,,Children,2.0,Revaluation
371,541,7330,memory,2016,False,./assets/img/ocean/memory/7.jpg,ocean,10.0,,True,,39,old,12.33,3,rest,maybe_old,,,,Children,1.0,Control
372,543,7330,memory,2008,False,./assets/img/canyon/memory/17.jpg,canyon,0.0,,False,,40,old,12.33,3,rest,maybe_new,,,,Children,2.0,Revaluation
373,545,7330,memory,2152,False,./assets/img/ocean/memory/11.jpg,ocean,0.0,,False,,41,old,12.33,3,rest,maybe_new,,,,Children,1.0,Control
374,547,7330,memory,1327,False,./assets/img/canyon/memory/14.jpg,canyon,0.0,,False,,42,old,12.33,3,rest,maybe_new,,,,Children,2.0,Revaluation
375,549,7330,memory,1295,False,./assets/img/canyon/memory/36.jpg,canyon,10.0,,True,,43,new,12.33,3,rest,maybe_new,,,,Children,2.0,Revaluation
376,551,7330,memory,1383,False,./assets/img/ocean/memory/5.jpg,ocean,0.0,,False,,44,new,12.33,3,rest,maybe_old,,,,Children,1.0,Control
377,553,7330,memory,1342,False,./assets/img/canyon/memory/22.jpg,canyon,0.0,,False,,45,new,12.33,3,rest,maybe_old,,,,Children,2.0,Revaluation
378,555,7330,memory,2552,False,./assets/img/canyon/memory/18.jpg,canyon,10.0,,True,,46,old,12.33,3,rest,definitely_old,,,,Children,2.0,Revaluation
379,557,7330,memory,2096,False,./assets/img/ocean/memory/15.jpg,ocean,0.0,,False,,47,new,12.33,3,rest,maybe_old,,,,Children,1.0,Control
380,559,7330,memory,1176,False,./assets/img/ocean/memory/35.jpg,ocean,10.0,,True,,48,old,12.33,3,rest,definitely_old,,,,Children,1.0,Control
381,561,7330,memory,1480,False,./assets/img/ocean/memory/25.jpg,ocean,10.0,,True,,49,new,12.33,3,rest,maybe_new,,,,Children,1.0,Control
382,563,7330,memory,1127,False,./assets/img/canyon/memory/3.jpg,canyon,0.0,,False,,50,old,12.33,3,rest,maybe_new,,,,Children,2.0,Revaluation
383,565,7330,memory,1799,False,./assets/img/canyon/memory/38.jpg,canyon,0.0,,False,,51,old,12.33,3,rest,maybe_new,,,,Children,2.0,Revaluation
384,567,7330,memory,1663,False,./assets/img/ocean/memory/37.jpg,ocean,0.0,,False,,52,new,12.33,3,rest,maybe_old,,,,Children,1.0,Control
385,569,7330,memory,3287,False,./assets/img/canyon/memory/29.jpg,canyon,10.0,,True,,53,old,12.33,3,rest,definitely_old,,,,Children,2.0,Revaluation
386,571,7330,memory,1424,False,./assets/img/ocean/memory/40.jpg,ocean,0.0,,False,,54,new,12.33,3,rest,maybe_old,,,,Children,1.0,Control
387,573,7330,memory,1839,False,./assets/img/canyon/memory/11.jpg,canyon,10.0,,True,,55,new,12.33,3,rest,maybe_new,,,,Children,2.0,Revaluation
388,575,7330,memory,1688,False,./assets/img/canyon/memory/32.jpg,canyon,10.0,,True,,56,old,12.33,3,rest,definitely_old,,,,Children,2.0,Revaluation
389,577,7330,memory,2160,False,./assets/img/ocean/memory/14.jpg,ocean,10.0,,True,,57,new,12.33,3,rest,maybe_new,,,,Children,1.0,Control
390,579,7330,memory,2503,False,./assets/img/canyon/memory/41.jpg,canyon,0.0,,False,,58,old,12.33,3,rest,maybe_new,,,,Children,2.0,Revaluation
391,581,7330,memory,1559,False,./assets/img/canyon/memory/5.jpg,canyon,0.0,,False,,59,new,12.33,3,rest,maybe_old,,,,Children,2.0,Revaluation
392,583,7330,memory,1063,False,./assets/img/canyon/memory/20.jpg,canyon,0.0,,False,,60,new,12.33,3,rest,maybe_old,,,,Children,2.0,Revaluation
393,585,7330,memory,1080,False,./assets/img/canyon/memory/4.jpg,canyon,0.0,,False,,61,new,12.33,3,rest,maybe_old,,,,Children,2.0,Revaluation
394,587,7330,memory,1248,False,./assets/img/ocean/memory/41.jpg,ocean,10.0,,True,,62,new,12.33,3,rest,maybe_new,,,,Children,1.0,Control
395,589,7330,memory,1063,False,./assets/img/ocean/memory/27.jpg,ocean,10.0,,True,,63,old,12.33,3,rest,maybe_old,,,,Children,1.0,Control
396,591,7330,memory,1678,False,./assets/img/ocean/memory/36.jpg,ocean,0.0,,False,,64,new,12.33,3,rest,maybe_old,,,,Children,1.0,Control
397,593,7330,memory,1895,False,./assets/img/canyon/memory/33.jpg,canyon,0.0,,False,,65,new,12.33,3,rest,maybe_old,,,,Children,2.0,Revaluation
398,595,7330,memory,1879,False,./assets/img/ocean/memory/29.jpg,ocean,0.0,,False,,66,new,12.33,3,rest,maybe_old,,,,Children,1.0,Control
399,597,7330,memory,959,False,./assets/img/ocean/memory/10.jpg,ocean,10.0,,True,,67,new,12.33,3,rest,maybe_new,,,,Children,1.0,Control
400,599,7330,memory,1254,False,./assets/img/canyon/memory/31.jpg,canyon,10.0,,True,,68,old,12.33,3,rest,maybe_old,,,,Children,2.0,Revaluation
401,601,7330,memory,1575,False,./assets/img/ocean/memory/20.jpg,ocean,10.0,,True,,69,old,12.33,3,rest,definitely_old,,,,Children,1.0,Control
402,603,7330,memory,887,False,./assets/img/ocean/memory/1.jpg,ocean,10.0,,True,,70,old,12.33,3,rest,definitely_old,,,,Children,1.0,Control
403,605,7330,memory,1647,False,./assets/img/ocean/memory/28.jpg,ocean,10.0,,True,,71,old,12.33,3,rest,definitely_old,,,,Children,1.0,Control
404,607,7330,memory,1126,False,./assets/img/canyon/memory/25.jpg,canyon,10.0,,True,,72,old,12.33,3,rest,maybe_old,,,,Children,2.0,Revaluation
405,609,7330,memory,1950,False,./assets/img/canyon/memory/8.jpg,canyon,0.0,,False,,73,old,12.33,3,rest,maybe_new,,,,Children,2.0,Revaluation
406,611,7330,memory,999,False,./assets/img/ocean/memory/22.jpg,ocean,10.0,,True,,74,old,12.33,3,rest,maybe_old,,,,Children,1.0,Control
407,613,7330,memory,1494,False,./assets/img/canyon/memory/23.jpg,canyon,10.0,,True,,75,old,12.33,3,rest,maybe_old,,,,Children,2.0,Revaluation
408,615,7330,memory,1943,False,./assets/img/canyon/memory/34.jpg,canyon,10.0,,True,,76,new,12.33,3,rest,maybe_new,,,,Children,2.0,Revaluation
409,617,7330,memory,1592,False,./assets/img/canyon/memory/0.jpg,canyon,0.0,,False,,77,new,12.33,3,rest,maybe_old,,,,Children,2.0,Revaluation
410,619,7330,memory,887,False,./assets/img/ocean/memory/34.jpg,ocean,0.0,,False,,78,new,12.33,3,rest,maybe_old,,,,Children,1.0,Control
411,621,7330,memory,592,False,./assets/img/canyon/memory/39.jpg,canyon,0.0,,False,,79,new,12.33,3,rest,maybe_old,,,,Children,2.0,Revaluation
412,623,7330,memory,638,False,./assets/img/ocean/memory/4.jpg,ocean,10.0,,True,,80,old,12.33,3,rest,maybe_old,,,,Children,1.0,Control
413,625,7330,memory,1256,False,./assets/img/ocean/memory/19.jpg,ocean,10.0,,True,,81,old,12.33,3,rest,definitely_old,,,,Children,1.0,Control
414,627,7330,memory,1520,False,./assets/img/ocean/memory/13.jpg,ocean,0.0,,False,,82,new,12.33,3,rest,maybe_old,,,,Children,1.0,Control
415,629,7330,memory,975,False,./assets/img/canyon/memory/13.jpg,canyon,10.0,,True,,83,old,12.33,3,rest,maybe_old,,,,Children,2.0,Revaluation
416,631,7330,memory,927,False,./assets/img/canyon/memory/6.jpg,canyon,10.0,,True,,84,old,12.33,3,rest,maybe_old,,,,Children,2.0,Revaluation
417,633,7330,memory,1152,False,./assets/img/ocean/memory/12.jpg,ocean,10.0,,True,,85,old,12.33,3,rest,definitely_old,,,,Children,1.0,Control
418,635,7330,memory,1264,False,./assets/img/canyon/memory/21.jpg,canyon,0.0,,False,,86,new,12.33,3,rest,maybe_old,,,,Children,2.0,Revaluation
419,637,7330,memory,1466,False,./assets/img/ocean/memory/33.jpg,ocean,10.0,,True,,87,old,12.33,3,rest,maybe_old,,,,Children,1.0,Control
420,469,7472,memory,2748,False,./assets/img/ocean/memory/27.jpg,ocean,10.0,,True,,4,old,20.16,2,rest,maybe_old,,,,Adults,1.0,Revaluation
421,471,7472,memory,1897,False,./assets/img/canyon/memory/9.jpg,canyon,10.0,,True,,5,new,20.16,2,rest,definitely_new,,,,Adults,2.0,Control
422,473,7472,memory,1987,False,./assets/img/canyon/memory/15.jpg,canyon,10.0,,True,,6,old,20.16,2,rest,definitely_old,,,,Adults,2.0,Control
423,475,7472,memory,2045,False,./assets/img/ocean/memory/17.jpg,ocean,10.0,,True,,7,new,20.16,2,rest,maybe_new,,,,Adults,1.0,Revaluation
424,477,7472,memory,1868,False,./assets/img/ocean/memory/18.jpg,ocean,0.0,,False,,8,new,20.16,2,rest,maybe_old,,,,Adults,1.0,Revaluation
425,479,7472,memory,1611,False,./assets/img/canyon/memory/23.jpg,canyon,0.0,,False,,9,old,20.16,2,rest,definitely_new,,,,Adults,2.0,Control
426,481,7472,memory,1637,False,./assets/img/canyon/memory/4.jpg,canyon,0.0,,False,,10,new,20.16,2,rest,maybe_old,,,,Adults,2.0,Control
427,483,7472,memory,2187,False,./assets/img/canyon/memory/0.jpg,canyon,10.0,,True,,11,old,20.16,2,rest,definitely_old,,,,Adults,2.0,Control
428,485,7472,memory,1445,False,./assets/img/ocean/memory/40.jpg,ocean,10.0,,True,,12,new,20.16,2,rest,maybe_new,,,,Adults,1.0,Revaluation
429,487,7472,memory,1927,False,./assets/img/canyon/memory/32.jpg,canyon,10.0,,True,,13,new,20.16,2,rest,definitely_new,,,,Adults,2.0,Control
430,489,7472,memory,1025,False,./assets/img/ocean/memory/33.jpg,ocean,10.0,,True,,14,old,20.16,2,rest,definitely_old,,,,Adults,1.0,Revaluation
431,491,7472,memory,2527,False,./assets/img/canyon/memory/33.jpg,canyon,0.0,,False,,15,old,20.16,2,rest,definitely_new,,,,Adults,2.0,Control
432,493,7472,memory,2547,False,./assets/img/canyon/memory/12.jpg,canyon,0.0,,False,,16,old,20.16,2,rest,maybe_new,,,,Adults,2.0,Control
433,495,7472,memory,1195,False,./assets/img/canyon/memory/17.jpg,canyon,10.0,,True,,17,new,20.16,2,rest,definitely_new,,,,Adults,2.0,Control
434,497,7472,memory,1746,False,./assets/img/canyon/memory/20.jpg,canyon,0.0,,False,,18,new,20.16,2,rest,maybe_old,,,,Adults,2.0,Control
435,499,7472,memory,1237,False,./assets/img/ocean/memory/13.jpg,ocean,10.0,,True,,19,old,20.16,2,rest,definitely_old,,,,Adults,1.0,Revaluation
436,501,7472,memory,1235,False,./assets/img/canyon/memory/19.jpg,canyon,10.0,,True,,20,new,20.16,2,rest,maybe_new,,,,Adults,2.0,Control
437,503,7472,memory,1445,False,./assets/img/ocean/memory/41.jpg,ocean,10.0,,True,,21,new,20.16,2,rest,definitely_new,,,,Adults,1.0,Revaluation
438,505,7472,memory,1857,False,./assets/img/ocean/memory/20.jpg,ocean,10.0,,True,,22,new,20.16,2,rest,definitely_new,,,,Adults,1.0,Revaluation
439,507,7472,memory,2326,False,./assets/img/canyon/memory/18.jpg,canyon,10.0,,True,,23,new,20.16,2,rest,definitely_new,,,,Adults,2.0,Control
440,509,7472,memory,1146,False,./assets/img/canyon/memory/16.jpg,canyon,0.0,,False,,24,new,20.16,2,rest,definitely_old,,,,Adults,2.0,Control
441,511,7472,memory,1005,False,./assets/img/ocean/memory/9.jpg,ocean,0.0,,False,,25,new,20.16,2,rest,definitely_old,,,,Adults,1.0,Revaluation
442,513,7472,memory,1387,False,./assets/img/canyon/memory/27.jpg,canyon,10.0,,True,,26,new,20.16,2,rest,definitely_new,,,,Adults,2.0,Control
443,515,7472,memory,1427,False,./assets/img/ocean/memory/3.jpg,ocean,10.0,,True,,27,old,20.16,2,rest,definitely_old,,,,Adults,1.0,Revaluation
444,517,7472,memory,1574,False,./assets/img/canyon/memory/37.jpg,canyon,0.0,,False,,28,new,20.16,2,rest,definitely_old,,,,Adults,2.0,Control
445,519,7472,memory,1576,False,./assets/img/ocean/memory/29.jpg,ocean,0.0,,False,,29,new,20.16,2,rest,maybe_old,,,,Adults,1.0,Revaluation
446,521,7472,memory,1525,False,./assets/img/ocean/memory/4.jpg,ocean,10.0,,True,,30,old,20.16,2,rest,maybe_old,,,,Adults,1.0,Revaluation
447,523,7472,memory,1016,False,./assets/img/canyon/memory/2.jpg,canyon,10.0,,True,,31,old,20.16,2,rest,definitely_old,,,,Adults,2.0,Control
448,525,7472,memory,1437,False,./assets/img/canyon/memory/14.jpg,canyon,10.0,,True,,32,new,20.16,2,rest,maybe_new,,,,Adults,2.0,Control
449,527,7472,memory,983,False,./assets/img/canyon/memory/31.jpg,canyon,10.0,,True,,33,old,20.16,2,rest,definitely_old,,,,Adults,2.0,Control
450,529,7472,memory,926,False,./assets/img/ocean/memory/6.jpg,ocean,10.0,,True,,34,old,20.16,2,rest,definitely_old,,,,Adults,1.0,Revaluation
451,531,7472,memory,1736,False,./assets/img/canyon/memory/3.jpg,canyon,10.0,,True,,35,old,20.16,2,rest,maybe_old,,,,Adults,2.0,Control
452,533,7472,memory,1127,False,./assets/img/ocean/memory/26.jpg,ocean,0.0,,False,,36,new,20.16,2,rest,definitely_old,,,,Adults,1.0,Revaluation
453,535,7472,memory,1915,False,./assets/img/ocean/memory/14.jpg,ocean,0.0,,False,,37,old,20.16,2,rest,definitely_new,,,,Adults,1.0,Revaluation
454,537,7472,memory,1503,False,./assets/img/ocean/memory/38.jpg,ocean,10.0,,True,,38,new,20.16,2,rest,maybe_new,,,,Adults,1.0,Revaluation
455,539,7472,memory,816,False,./assets/img/ocean/memory/8.jpg,ocean,0.0,,False,,39,new,20.16,2,rest,definitely_old,,,,Adults,1.0,Revaluation
456,541,7472,memory,996,False,./assets/img/canyon/memory/35.jpg,canyon,10.0,,True,,40,old,20.16,2,rest,definitely_old,,,,Adults,2.0,Control
457,543,7472,memory,1597,False,./assets/img/ocean/memory/7.jpg,ocean,0.0,,False,,41,old,20.16,2,rest,definitely_new,,,,Adults,1.0,Revaluation
458,545,7472,memory,946,False,./assets/img/canyon/memory/7.jpg,canyon,0.0,,False,,42,new,20.16,2,rest,definitely_old,,,,Adults,2.0,Control
459,547,7472,memory,1570,False,./assets/img/ocean/memory/2.jpg,ocean,10.0,,True,,43,old,20.16,2,rest,maybe_old,,,,Adults,1.0,Revaluation
460,549,7472,memory,1515,False,./assets/img/ocean/memory/0.jpg,ocean,10.0,,True,,44,new,20.16,2,rest,maybe_new,,,,Adults,1.0,Revaluation
461,551,7472,memory,897,False,./assets/img/ocean/memory/36.jpg,ocean,10.0,,True,,45,old,20.16,2,rest,definitely_old,,,,Adults,1.0,Revaluation
462,553,7472,memory,946,False,./assets/img/ocean/memory/39.jpg,ocean,10.0,,True,,46,old,20.16,2,rest,definitely_old,,,,Adults,1.0,Revaluation
463,555,7472,memory,716,False,./assets/img/canyon/memory/39.jpg,canyon,0.0,,False,,47,new,20.16,2,rest,definitely_old,,,,Adults,2.0,Control
464,557,7472,memory,1367,False,./assets/img/ocean/memory/35.jpg,ocean,10.0,,True,,48,new,20.16,2,rest,definitely_new,,,,Adults,1.0,Revaluation
465,559,7472,memory,1455,False,./assets/img/canyon/memory/40.jpg,canyon,0.0,,False,,49,old,20.16,2,rest,definitely_new,,,,Adults,2.0,Control
466,561,7472,memory,765,False,./assets/img/canyon/memory/30.jpg,canyon,0.0,,False,,50,old,20.16,2,rest,definitely_new,,,,Adults,2.0,Control
467,563,7472,memory,976,False,./assets/img/canyon/memory/34.jpg,canyon,0.0,,False,,51,new,20.16,2,rest,definitely_old,,,,Adults,2.0,Control
468,565,7472,memory,975,False,./assets/img/ocean/memory/34.jpg,ocean,0.0,,False,,52,old,20.16,2,rest,definitely_new,,,,Adults,1.0,Revaluation
469,567,7472,memory,696,False,./assets/img/ocean/memory/10.jpg,ocean,0.0,,False,,53,new,20.16,2,rest,definitely_old,,,,Adults,1.0,Revaluation
470,569,7472,memory,637,False,./assets/img/ocean/memory/22.jpg,ocean,10.0,,True,,54,old,20.16,2,rest,definitely_old,,,,Adults,1.0,Revaluation
471,571,7472,memory,1607,False,./assets/img/ocean/memory/23.jpg,ocean,10.0,,True,,55,new,20.16,2,rest,maybe_new,,,,Adults,1.0,Revaluation
472,573,7472,memory,1134,False,./assets/img/canyon/memory/41.jpg,canyon,10.0,,True,,56,new,20.16,2,rest,definitely_new,,,,Adults,2.0,Control
473,575,7472,memory,935,False,./assets/img/canyon/memory/8.jpg,canyon,0.0,,False,,57,old,20.16,2,rest,definitely_new,,,,Adults,2.0,Control
474,577,7472,memory,967,False,./assets/img/ocean/memory/28.jpg,ocean,0.0,,False,,58,old,20.16,2,rest,definitely_new,,,,Adults,1.0,Revaluation
475,579,7472,memory,1927,False,./assets/img/ocean/memory/24.jpg,ocean,0.0,,False,,59,new,20.16,2,rest,maybe_old,,,,Adults,1.0,Revaluation
476,581,7472,memory,1316,False,./assets/img/canyon/memory/26.jpg,canyon,10.0,,True,,60,new,20.16,2,rest,maybe_new,,,,Adults,2.0,Control
477,583,7472,memory,1316,False,./assets/img/ocean/memory/31.jpg,ocean,10.0,,True,,61,new,20.16,2,rest,maybe_new,,,,Adults,1.0,Revaluation
478,585,7472,memory,1297,False,./assets/img/canyon/memory/36.jpg,canyon,0.0,,False,,62,old,20.16,2,rest,definitely_new,,,,Adults,2.0,Control
479,587,7472,memory,696,False,./assets/img/canyon/memory/28.jpg,canyon,10.0,,True,,63,old,20.16,2,rest,definitely_old,,,,Adults,2.0,Control
480,589,7472,memory,1417,False,./assets/img/canyon/memory/29.jpg,canyon,0.0,,False,,64,old,20.16,2,rest,maybe_new,,,,Adults,2.0,Control
481,591,7472,memory,996,False,./assets/img/canyon/memory/11.jpg,canyon,0.0,,False,,65,old,20.16,2,rest,definitely_new,,,,Adults,2.0,Control
482,593,7472,memory,1105,False,./assets/img/ocean/memory/16.jpg,ocean,0.0,,False,,66,old,20.16,2,rest,definitely_new,,,,Adults,1.0,Revaluation
483,595,7472,memory,1586,False,./assets/img/ocean/memory/1.jpg,ocean,0.0,,False,,67,old,20.16,2,rest,maybe_new,,,,Adults,1.0,Revaluation
484,597,7472,memory,1855,False,./assets/img/canyon/memory/38.jpg,canyon,0.0,,False,,68,new,20.16,2,rest,maybe_old,,,,Adults,2.0,Control
485,599,7472,memory,1355,False,./assets/img/ocean/memory/30.jpg,ocean,10.0,,True,,69,new,20.16,2,rest,definitely_new,,,,Adults,1.0,Revaluation
486,601,7472,memory,846,False,./assets/img/canyon/memory/21.jpg,canyon,10.0,,True,,70,new,20.16,2,rest,definitely_new,,,,Adults,2.0,Control
487,603,7472,memory,875,False,./assets/img/ocean/memory/15.jpg,ocean,10.0,,True,,71,new,20.16,2,rest,definitely_new,,,,Adults,1.0,Revaluation
488,605,7472,memory,996,False,./assets/img/canyon/memory/22.jpg,canyon,10.0,,True,,72,old,20.16,2,rest,definitely_old,,,,Adults,2.0,Control
489,607,7472,memory,1765,False,./assets/img/ocean/memory/32.jpg,ocean,10.0,,True,,73,old,20.16,2,rest,maybe_old,,,,Adults,1.0,Revaluation
490,609,7472,memory,1074,False,./assets/img/ocean/memory/21.jpg,ocean,10.0,,True,,74,new,20.16,2,rest,definitely_new,,,,Adults,1.0,Revaluation
491,611,7472,memory,1535,False,./assets/img/canyon/memory/1.jpg,canyon,10.0,,True,,75,old,20.16,2,rest,maybe_old,,,,Adults,2.0,Control
492,613,7472,memory,616,False,./assets/img/canyon/memory/13.jpg,canyon,0.0,,False,,76,new,20.16,2,rest,definitely_old,,,,Adults,2.0,Control
493,615,7472,memory,787,False,./assets/img/ocean/memory/19.jpg,ocean,10.0,,True,,77,new,20.16,2,rest,definitely_new,,,,Adults,1.0,Revaluation
494,617,7472,memory,824,False,./assets/img/canyon/memory/6.jpg,canyon,10.0,,True,,78,old,20.16,2,rest,definitely_old,,,,Adults,2.0,Control
495,619,7472,memory,813,False,./assets/img/ocean/memory/12.jpg,ocean,0.0,,False,,79,new,20.16,2,rest,definitely_old,,,,Adults,1.0,Revaluation
496,621,7472,memory,816,False,./assets/img/canyon/memory/10.jpg,canyon,0.0,,False,,80,old,20.16,2,rest,definitely_new,,,,Adults,2.0,Control
497,623,7472,memory,807,False,./assets/img/ocean/memory/37.jpg,ocean,10.0,,True,,81,old,20.16,2,rest,maybe_old,,,,Adults,1.0,Revaluation
498,625,7472,memory,1426,False,./assets/img/ocean/memory/25.jpg,ocean,10.0,,True,,82,old,20.16,2,rest,definitely_old,,,,Adults,1.0,Revaluation
499,627,7472,memory,844,False,./assets/img/ocean/memory/5.jpg,ocean,10.0,,True,,83,old,20.16,2,rest,definitely_old,,,,Adults,1.0,Revaluation
500,629,7472,memory,912,False,./assets/img/ocean/memory/11.jpg,ocean,10.0,,True,,84,old,20.16,2,rest,definitely_old,,,,Adults,1.0,Revaluation
501,631,7472,memory,934,False,./assets/img/canyon/memory/24.jpg,canyon,0.0,,False,,85,new,20.16,2,rest,definitely_old,,,,Adults,2.0,Control
502,633,7472,memory,1366,False,./assets/img/canyon/memory/25.jpg,canyon,10.0,,True,,86,old,20.16,2,rest,definitely_old,,,,Adults,2.0,Control
503,635,7472,memory,1276,False,./assets/img/canyon/memory/5.jpg,canyon,10.0,,True,,87,new,20.16,2,rest,definitely_new,,,,Adults,2.0,Control
504,471,7419,memory,3131,False,./assets/img/canyon/memory/27.jpg,canyon,10.0,,True,,4,new,17.68,8,rest,definitely_new,,,,Adolescents,1.0,Revaluation
505,473,7419,memory,3127,False,./assets/img/canyon/memory/33.jpg,canyon,10.0,,True,,5,old,17.68,8,rest,definitely_old,,,,Adolescents,1.0,Revaluation
506,475,7419,memory,787,False,./assets/img/canyon/memory/0.jpg,canyon,10.0,,True,,6,old,17.68,8,rest,definitely_old,,,,Adolescents,1.0,Revaluation
507,477,7419,memory,1558,False,./assets/img/canyon/memory/13.jpg,canyon,0.0,,False,,7,new,17.68,8,rest,maybe_old,,,,Adolescents,1.0,Revaluation
508,479,7419,memory,955,False,./assets/img/ocean/memory/21.jpg,ocean,0.0,,False,,8,new,17.68,8,rest,definitely_old,,,,Adolescents,2.0,Control
509,481,7419,memory,2022,False,./assets/img/ocean/memory/41.jpg,ocean,10.0,,True,,9,new,17.68,8,rest,maybe_new,,,,Adolescents,2.0,Control
510,483,7419,memory,2404,False,./assets/img/ocean/memory/31.jpg,ocean,10.0,,True,,10,old,17.68,8,rest,maybe_old,,,,Adolescents,2.0,Control
511,485,7419,memory,2145,False,./assets/img/canyon/memory/17.jpg,canyon,10.0,,True,,11,new,17.68,8,rest,definitely_new,,,,Adolescents,1.0,Revaluation
512,487,7419,memory,1157,False,./assets/img/ocean/memory/12.jpg,ocean,10.0,,True,,12,old,17.68,8,rest,definitely_old,,,,Adolescents,2.0,Control
513,489,7419,memory,2324,False,./assets/img/canyon/memory/25.jpg,canyon,10.0,,True,,13,new,17.68,8,rest,maybe_new,,,,Adolescents,1.0,Revaluation
514,491,7419,memory,1738,False,./assets/img/ocean/memory/19.jpg,ocean,0.0,,False,,14,old,17.68,8,rest,definitely_new,,,,Adolescents,2.0,Control
515,493,7419,memory,1693,False,./assets/img/canyon/memory/6.jpg,canyon,0.0,,False,,15,new,17.68,8,rest,definitely_old,,,,Adolescents,1.0,Revaluation
516,495,7419,memory,1997,False,./assets/img/canyon/memory/34.jpg,canyon,10.0,,True,,16,new,17.68,8,rest,maybe_new,,,,Adolescents,1.0,Revaluation
517,497,7419,memory,1645,False,./assets/img/ocean/memory/29.jpg,ocean,10.0,,True,,17,new,17.68,8,rest,maybe_new,,,,Adolescents,2.0,Control
518,499,7419,memory,1267,False,./assets/img/canyon/memory/23.jpg,canyon,10.0,,True,,18,old,17.68,8,rest,definitely_old,,,,Adolescents,1.0,Revaluation
519,501,7419,memory,1585,False,./assets/img/ocean/memory/16.jpg,ocean,10.0,,True,,19,new,17.68,8,rest,definitely_new,,,,Adolescents,2.0,Control
520,503,7419,memory,1840,False,./assets/img/ocean/memory/27.jpg,ocean,0.0,,False,,20,old,17.68,8,rest,maybe_new,,,,Adolescents,2.0,Control
521,505,7419,memory,1448,False,./assets/img/ocean/memory/5.jpg,ocean,10.0,,True,,21,new,17.68,8,rest,maybe_new,,,,Adolescents,2.0,Control
522,507,7419,memory,1752,False,./assets/img/canyon/memory/21.jpg,canyon,10.0,,True,,22,old,17.68,8,rest,maybe_old,,,,Adolescents,1.0,Revaluation
523,509,7419,memory,2268,False,./assets/img/ocean/memory/38.jpg,ocean,0.0,,False,,23,old,17.68,8,rest,maybe_new,,,,Adolescents,2.0,Control
524,511,7419,memory,1377,False,./assets/img/canyon/memory/1.jpg,canyon,10.0,,True,,24,new,17.68,8,rest,maybe_new,,,,Adolescents,1.0,Revaluation
525,513,7419,memory,1660,False,./assets/img/canyon/memory/36.jpg,canyon,10.0,,True,,25,new,17.68,8,rest,maybe_new,,,,Adolescents,1.0,Revaluation
526,515,7419,memory,1014,False,./assets/img/canyon/memory/3.jpg,canyon,10.0,,True,,26,new,17.68,8,rest,maybe_new,,,,Adolescents,1.0,Revaluation
527,517,7419,memory,863,False,./assets/img/canyon/memory/30.jpg,canyon,0.0,,False,,27,old,17.68,8,rest,maybe_new,,,,Adolescents,1.0,Revaluation
528,519,7419,memory,2369,False,./assets/img/ocean/memory/7.jpg,ocean,10.0,,True,,28,new,17.68,8,rest,definitely_new,,,,Adolescents,2.0,Control
529,521,7419,memory,1261,False,./assets/img/canyon/memory/11.jpg,canyon,10.0,,True,,29,new,17.68,8,rest,definitely_new,,,,Adolescents,1.0,Revaluation
530,523,7419,memory,1360,False,./assets/img/ocean/memory/13.jpg,ocean,10.0,,True,,30,new,17.68,8,rest,definitely_new,,,,Adolescents,2.0,Control
531,525,7419,memory,1062,False,./assets/img/canyon/memory/18.jpg,canyon,10.0,,True,,31,new,17.68,8,rest,definitely_new,,,,Adolescents,1.0,Revaluation
532,527,7419,memory,771,False,./assets/img/ocean/memory/25.jpg,ocean,0.0,,False,,32,old,17.68,8,rest,definitely_new,,,,Adolescents,2.0,Control
533,529,7419,memory,2246,False,./assets/img/ocean/memory/33.jpg,ocean,0.0,,False,,33,old,17.68,8,rest,maybe_new,,,,Adolescents,2.0,Control
534,531,7419,memory,1922,False,./assets/img/canyon/memory/24.jpg,canyon,10.0,,True,,34,old,17.68,8,rest,maybe_old,,,,Adolescents,1.0,Revaluation
535,533,7419,memory,1659,False,./assets/img/ocean/memory/32.jpg,ocean,10.0,,True,,35,old,17.68,8,rest,maybe_old,,,,Adolescents,2.0,Control
536,535,7419,memory,1867,False,./assets/img/canyon/memory/32.jpg,canyon,10.0,,True,,36,new,17.68,8,rest,maybe_new,,,,Adolescents,1.0,Revaluation
537,537,7419,memory,1582,False,./assets/img/canyon/memory/29.jpg,canyon,10.0,,True,,37,old,17.68,8,rest,maybe_old,,,,Adolescents,1.0,Revaluation
538,539,7419,memory,1355,False,./assets/img/ocean/memory/26.jpg,ocean,0.0,,False,,38,new,17.68,8,rest,maybe_old,,,,Adolescents,2.0,Control
539,541,7419,memory,1252,False,./assets/img/canyon/memory/40.jpg,canyon,10.0,,True,,39,old,17.68,8,rest,maybe_old,,,,Adolescents,1.0,Revaluation
540,543,7419,memory,1593,False,./assets/img/ocean/memory/6.jpg,ocean,0.0,,False,,40,old,17.68,8,rest,definitely_new,,,,Adolescents,2.0,Control
541,545,7419,memory,1085,False,./assets/img/canyon/memory/9.jpg,canyon,10.0,,True,,41,old,17.68,8,rest,definitely_old,,,,Adolescents,1.0,Revaluation
542,547,7419,memory,1601,False,./assets/img/canyon/memory/8.jpg,canyon,10.0,,True,,42,new,17.68,8,rest,definitely_new,,,,Adolescents,1.0,Revaluation
543,549,7419,memory,1566,False,./assets/img/canyon/memory/16.jpg,canyon,0.0,,False,,43,new,17.68,8,rest,maybe_old,,,,Adolescents,1.0,Revaluation
544,551,7419,memory,1193,False,./assets/img/canyon/memory/15.jpg,canyon,10.0,,True,,44,old,17.68,8,rest,maybe_old,,,,Adolescents,1.0,Revaluation
545,553,7419,memory,2464,False,./assets/img/canyon/memory/4.jpg,canyon,0.0,,False,,45,old,17.68,8,rest,maybe_new,,,,Adolescents,1.0,Revaluation
546,555,7419,memory,1095,False,./assets/img/canyon/memory/5.jpg,canyon,10.0,,True,,46,new,17.68,8,rest,maybe_new,,,,Adolescents,1.0,Revaluation
547,557,7419,memory,1910,False,./assets/img/ocean/memory/35.jpg,ocean,10.0,,True,,47,new,17.68,8,rest,definitely_new,,,,Adolescents,2.0,Control
548,559,7419,memory,1311,False,./assets/img/ocean/memory/24.jpg,ocean,10.0,,True,,48,new,17.68,8,rest,definitely_new,,,,Adolescents,2.0,Control
549,561,7419,memory,1100,False,./assets/img/canyon/memory/28.jpg,canyon,10.0,,True,,49,old,17.68,8,rest,definitely_old,,,,Adolescents,1.0,Revaluation
550,563,7419,memory,2309,False,./assets/img/ocean/memory/9.jpg,ocean,10.0,,True,,50,new,17.68,8,rest,maybe_new,,,,Adolescents,2.0,Control
551,565,7419,memory,1494,False,./assets/img/ocean/memory/3.jpg,ocean,10.0,,True,,51,new,17.68,8,rest,maybe_new,,,,Adolescents,2.0,Control
552,567,7419,memory,1327,False,./assets/img/canyon/memory/20.jpg,canyon,0.0,,False,,52,old,17.68,8,rest,definitely_new,,,,Adolescents,1.0,Revaluation
553,569,7419,memory,1882,False,./assets/img/ocean/memory/20.jpg,ocean,10.0,,True,,53,new,17.68,8,rest,maybe_new,,,,Adolescents,2.0,Control
554,571,7419,memory,1934,False,./assets/img/canyon/memory/19.jpg,canyon,0.0,,False,,54,new,17.68,8,rest,maybe_old,,,,Adolescents,1.0,Revaluation
555,573,7419,memory,1657,False,./assets/img/ocean/memory/22.jpg,ocean,0.0,,False,,55,old,17.68,8,rest,maybe_new,,,,Adolescents,2.0,Control
556,575,7419,memory,1169,False,./assets/img/ocean/memory/2.jpg,ocean,10.0,,True,,56,new,17.68,8,rest,definitely_new,,,,Adolescents,2.0,Control
557,577,7419,memory,899,False,./assets/img/ocean/memory/34.jpg,ocean,10.0,,True,,57,new,17.68,8,rest,definitely_new,,,,Adolescents,2.0,Control
558,579,7419,memory,1361,False,./assets/img/canyon/memory/22.jpg,canyon,0.0,,False,,58,old,17.68,8,rest,maybe_new,,,,Adolescents,1.0,Revaluation
559,581,7419,memory,1293,False,./assets/img/ocean/memory/39.jpg,ocean,10.0,,True,,59,new,17.68,8,rest,definitely_new,,,,Adolescents,2.0,Control
560,583,7419,memory,1164,False,./assets/img/canyon/memory/39.jpg,canyon,10.0,,True,,60,new,17.68,8,rest,maybe_new,,,,Adolescents,1.0,Revaluation
561,585,7419,memory,1996,False,./assets/img/canyon/memory/31.jpg,canyon,10.0,,True,,61,old,17.68,8,rest,maybe_old,,,,Adolescents,1.0,Revaluation
562,587,7419,memory,1865,False,./assets/img/ocean/memory/14.jpg,ocean,10.0,,True,,62,new,17.68,8,rest,definitely_new,,,,Adolescents,2.0,Control
563,589,7419,memory,1525,False,./assets/img/ocean/memory/23.jpg,ocean,0.0,,False,,63,new,17.68,8,rest,definitely_old,,,,Adolescents,2.0,Control
564,591,7419,memory,1517,False,./assets/img/ocean/memory/18.jpg,ocean,0.0,,False,,64,old,17.68,8,rest,maybe_new,,,,Adolescents,2.0,Control
565,593,7419,memory,1427,False,./assets/img/ocean/memory/36.jpg,ocean,0.0,,False,,65,old,17.68,8,rest,definitely_new,,,,Adolescents,2.0,Control
566,595,7419,memory,1991,False,./assets/img/canyon/memory/38.jpg,canyon,0.0,,False,,66,new,17.68,8,rest,maybe_old,,,,Adolescents,1.0,Revaluation
567,597,7419,memory,1504,False,./assets/img/ocean/memory/37.jpg,ocean,0.0,,False,,67,old,17.68,8,rest,maybe_new,,,,Adolescents,2.0,Control
568,599,7419,memory,1683,False,./assets/img/ocean/memory/30.jpg,ocean,0.0,,False,,68,old,17.68,8,rest,definitely_new,,,,Adolescents,2.0,Control
569,601,7419,memory,965,False,./assets/img/ocean/memory/15.jpg,ocean,0.0,,False,,69,old,17.68,8,rest,definitely_new,,,,Adolescents,2.0,Control
570,603,7419,memory,996,False,./assets/img/ocean/memory/1.jpg,ocean,0.0,,False,,70,old,17.68,8,rest,definitely_new,,,,Adolescents,2.0,Control
571,605,7419,memory,975,False,./assets/img/canyon/memory/35.jpg,canyon,0.0,,False,,71,old,17.68,8,rest,definitely_new,,,,Adolescents,1.0,Revaluation
572,607,7419,memory,826,False,./assets/img/ocean/memory/17.jpg,ocean,10.0,,True,,72,new,17.68,8,rest,definitely_new,,,,Adolescents,2.0,Control
573,609,7419,memory,1988,False,./assets/img/canyon/memory/26.jpg,canyon,10.0,,True,,73,new,17.68,8,rest,definitely_new,,,,Adolescents,1.0,Revaluation
574,611,7419,memory,1246,False,./assets/img/canyon/memory/37.jpg,canyon,0.0,,False,,74,old,17.68,8,rest,definitely_new,,,,Adolescents,1.0,Revaluation
575,613,7419,memory,3094,False,./assets/img/ocean/memory/40.jpg,ocean,0.0,,False,,75,old,17.68,8,rest,maybe_new,,,,Adolescents,2.0,Control
576,615,7419,memory,1302,False,./assets/img/canyon/memory/7.jpg,canyon,10.0,,True,,76,old,17.68,8,rest,definitely_old,,,,Adolescents,1.0,Revaluation
577,617,7419,memory,1198,False,./assets/img/ocean/memory/28.jpg,ocean,10.0,,True,,77,old,17.68,8,rest,definitely_old,,,,Adolescents,2.0,Control
578,619,7419,memory,1047,False,./assets/img/canyon/memory/41.jpg,canyon,0.0,,False,,78,new,17.68,8,rest,maybe_old,,,,Adolescents,1.0,Revaluation
579,621,7419,memory,1344,False,./assets/img/ocean/memory/8.jpg,ocean,0.0,,False,,79,old,17.68,8,rest,maybe_new,,,,Adolescents,2.0,Control
580,623,7419,memory,1114,False,./assets/img/canyon/memory/2.jpg,canyon,10.0,,True,,80,old,17.68,8,rest,definitely_old,,,,Adolescents,1.0,Revaluation
581,625,7419,memory,1706,False,./assets/img/canyon/memory/10.jpg,canyon,10.0,,True,,81,old,17.68,8,rest,maybe_old,,,,Adolescents,1.0,Revaluation
582,627,7419,memory,2893,False,./assets/img/ocean/memory/4.jpg,ocean,10.0,,True,,82,new,17.68,8,rest,maybe_new,,,,Adolescents,2.0,Control
583,629,7419,memory,2001,False,./assets/img/ocean/memory/10.jpg,ocean,10.0,,True,,83,new,17.68,8,rest,maybe_new,,,,Adolescents,2.0,Control
584,631,7419,memory,1921,False,./assets/img/canyon/memory/14.jpg,canyon,0.0,,False,,84,new,17.68,8,rest,maybe_old,,,,Adolescents,1.0,Revaluation
585,633,7419,memory,1917,False,./assets/img/ocean/memory/0.jpg,ocean,0.0,,False,,85,old,17.68,8,rest,maybe_new,,,,Adolescents,2.0,Control
586,635,7419,memory,1692,False,./assets/img/ocean/memory/11.jpg,ocean,0.0,,False,,86,old,17.68,8,rest,definitely_new,,,,Adolescents,2.0,Control
587,637,7419,memory,1455,False,./assets/img/canyon/memory/12.jpg,canyon,0.0,,False,,87,old,17.68,8,rest,definitely_new,,,,Adolescents,1.0,Revaluation
588,471,7444,memory,2038,False,./assets/img/ocean/memory/25.jpg,ocean,10.0,,True,,4,old,19.87,2,rest,maybe_old,,,,Adults,1.0,Revaluation
589,473,7444,memory,1342,False,./assets/img/ocean/memory/27.jpg,ocean,10.0,,True,,5,old,19.87,2,rest,maybe_old,,,,Adults,1.0,Revaluation
590,475,7444,memory,800,False,./assets/img/canyon/memory/16.jpg,canyon,0.0,,False,,6,new,19.87,2,rest,definitely_old,,,,Adults,2.0,Control
591,477,7444,memory,1424,False,./assets/img/ocean/memory/19.jpg,ocean,10.0,,True,,7,new,19.87,2,rest,definitely_new,,,,Adults,1.0,Revaluation
592,479,7444,memory,1354,False,./assets/img/ocean/memory/13.jpg,ocean,10.0,,True,,8,new,19.87,2,rest,maybe_new,,,,Adults,1.0,Revaluation
593,481,7444,memory,1771,False,./assets/img/canyon/memory/41.jpg,canyon,0.0,,False,,9,new,19.87,2,rest,maybe_old,,,,Adults,2.0,Control
594,483,7444,memory,931,False,./assets/img/ocean/memory/16.jpg,ocean,10.0,,True,,10,old,19.87,2,rest,definitely_old,,,,Adults,1.0,Revaluation
595,485,7444,memory,1139,False,./assets/img/ocean/memory/21.jpg,ocean,10.0,,True,,11,old,19.87,2,rest,definitely_old,,,,Adults,1.0,Revaluation
596,487,7444,memory,1124,False,./assets/img/ocean/memory/28.jpg,ocean,10.0,,True,,12,old,19.87,2,rest,maybe_old,,,,Adults,1.0,Revaluation
597,489,7444,memory,1287,False,./assets/img/ocean/memory/31.jpg,ocean,10.0,,True,,13,old,19.87,2,rest,definitely_old,,,,Adults,1.0,Revaluation
598,491,7444,memory,846,False,./assets/img/canyon/memory/1.jpg,canyon,10.0,,True,,14,old,19.87,2,rest,definitely_old,,,,Adults,2.0,Control
599,493,7444,memory,1384,False,./assets/img/ocean/memory/37.jpg,ocean,0.0,,False,,15,old,19.87,2,rest,maybe_new,,,,Adults,1.0,Revaluation
600,495,7444,memory,1190,False,./assets/img/ocean/memory/32.jpg,ocean,0.0,,False,,16,new,19.87,2,rest,maybe_old,,,,Adults,1.0,Revaluation
601,497,7444,memory,774,False,./assets/img/canyon/memory/25.jpg,canyon,10.0,,True,,17,old,19.87,2,rest,definitely_old,,,,Adults,2.0,Control
602,499,7444,memory,1264,False,./assets/img/canyon/memory/36.jpg,canyon,0.0,,False,,18,old,19.87,2,rest,maybe_new,,,,Adults,2.0,Control
603,501,7444,memory,1013,False,./assets/img/canyon/memory/5.jpg,canyon,0.0,,False,,19,old,19.87,2,rest,maybe_new,,,,Adults,2.0,Control
604,503,7444,memory,1128,False,./assets/img/ocean/memory/36.jpg,ocean,10.0,,True,,20,old,19.87,2,rest,maybe_old,,,,Adults,1.0,Revaluation
605,505,7444,memory,1470,False,./assets/img/canyon/memory/35.jpg,canyon,0.0,,False,,21,new,19.87,2,rest,maybe_old,,,,Adults,2.0,Control
606,507,7444,memory,1181,False,./assets/img/ocean/memory/24.jpg,ocean,10.0,,True,,22,new,19.87,2,rest,definitely_new,,,,Adults,1.0,Revaluation
607,509,7444,memory,1247,False,./assets/img/ocean/memory/18.jpg,ocean,0.0,,False,,23,new,19.87,2,rest,maybe_old,,,,Adults,1.0,Revaluation
608,511,7444,memory,977,False,./assets/img/ocean/memory/33.jpg,ocean,10.0,,True,,24,old,19.87,2,rest,definitely_old,,,,Adults,1.0,Revaluation
609,513,7444,memory,1734,False,./assets/img/canyon/memory/24.jpg,canyon,10.0,,True,,25,old,19.87,2,rest,maybe_old,,,,Adults,2.0,Control
610,515,7444,memory,1237,False,./assets/img/ocean/memory/14.jpg,ocean,10.0,,True,,26,new,19.87,2,rest,definitely_new,,,,Adults,1.0,Revaluation
611,517,7444,memory,1126,False,./assets/img/canyon/memory/7.jpg,canyon,10.0,,True,,27,new,19.87,2,rest,maybe_new,,,,Adults,2.0,Control
612,519,7444,memory,1068,False,./assets/img/canyon/memory/19.jpg,canyon,0.0,,False,,28,old,19.87,2,rest,maybe_new,,,,Adults,2.0,Control
613,521,7444,memory,1098,False,./assets/img/canyon/memory/18.jpg,canyon,10.0,,True,,29,new,19.87,2,rest,maybe_new,,,,Adults,2.0,Control
614,523,7444,memory,1870,False,./assets/img/canyon/memory/8.jpg,canyon,10.0,,True,,30,new,19.87,2,rest,maybe_new,,,,Adults,2.0,Control
615,525,7444,memory,1173,False,./assets/img/ocean/memory/4.jpg,ocean,0.0,,False,,31,new,19.87,2,rest,maybe_old,,,,Adults,1.0,Revaluation
616,527,7444,memory,1051,False,./assets/img/canyon/memory/17.jpg,canyon,10.0,,True,,32,old,19.87,2,rest,maybe_old,,,,Adults,2.0,Control
617,529,7444,memory,1325,False,./assets/img/ocean/memory/40.jpg,ocean,0.0,,False,,33,new,19.87,2,rest,definitely_old,,,,Adults,1.0,Revaluation
618,531,7444,memory,1140,False,./assets/img/canyon/memory/9.jpg,canyon,10.0,,True,,34,new,19.87,2,rest,definitely_new,,,,Adults,2.0,Control
619,533,7444,memory,1129,False,./assets/img/ocean/memory/34.jpg,ocean,0.0,,False,,35,old,19.87,2,rest,maybe_new,,,,Adults,1.0,Revaluation
620,535,7444,memory,948,False,./assets/img/canyon/memory/33.jpg,canyon,0.0,,False,,36,new,19.87,2,rest,definitely_old,,,,Adults,2.0,Control
621,537,7444,memory,1365,False,./assets/img/canyon/memory/32.jpg,canyon,10.0,,True,,37,old,19.87,2,rest,maybe_old,,,,Adults,2.0,Control
622,539,7444,memory,1977,False,./assets/img/ocean/memory/5.jpg,ocean,0.0,,False,,38,new,19.87,2,rest,maybe_old,,,,Adults,1.0,Revaluation
623,541,7444,memory,1175,False,./assets/img/canyon/memory/30.jpg,canyon,10.0,,True,,39,old,19.87,2,rest,definitely_old,,,,Adults,2.0,Control
624,543,7444,memory,1359,False,./assets/img/ocean/memory/23.jpg,ocean,10.0,,True,,40,new,19.87,2,rest,maybe_new,,,,Adults,1.0,Revaluation
625,545,7444,memory,1110,False,./assets/img/canyon/memory/13.jpg,canyon,10.0,,True,,41,old,19.87,2,rest,definitely_old,,,,Adults,2.0,Control
626,547,7444,memory,1041,False,./assets/img/canyon/memory/31.jpg,canyon,0.0,,False,,42,new,19.87,2,rest,definitely_old,,,,Adults,2.0,Control
627,549,7444,memory,903,False,./assets/img/ocean/memory/38.jpg,ocean,10.0,,True,,43,new,19.87,2,rest,definitely_new,,,,Adults,1.0,Revaluation
628,551,7444,memory,999,False,./assets/img/ocean/memory/26.jpg,ocean,10.0,,True,,44,old,19.87,2,rest,maybe_old,,,,Adults,1.0,Revaluation
629,553,7444,memory,1279,False,./assets/img/ocean/memory/39.jpg,ocean,10.0,,True,,45,old,19.87,2,rest,maybe_old,,,,Adults,1.0,Revaluation
630,555,7444,memory,974,False,./assets/img/canyon/memory/40.jpg,canyon,10.0,,True,,46,new,19.87,2,rest,maybe_new,,,,Adults,2.0,Control
631,557,7444,memory,896,False,./assets/img/canyon/memory/28.jpg,canyon,10.0,,True,,47,old,19.87,2,rest,definitely_old,,,,Adults,2.0,Control
632,559,7444,memory,1934,False,./assets/img/ocean/memory/20.jpg,ocean,0.0,,False,,48,new,19.87,2,rest,maybe_old,,,,Adults,1.0,Revaluation
633,561,7444,memory,1447,False,./assets/img/canyon/memory/12.jpg,canyon,10.0,,True,,49,new,19.87,2,rest,maybe_new,,,,Adults,2.0,Control
634,563,7444,memory,975,False,./assets/img/canyon/memory/22.jpg,canyon,10.0,,True,,50,old,19.87,2,rest,definitely_old,,,,Adults,2.0,Control
635,565,7444,memory,759,False,./assets/img/canyon/memory/0.jpg,canyon,10.0,,True,,51,old,19.87,2,rest,definitely_old,,,,Adults,2.0,Control
636,567,7444,memory,1184,False,./assets/img/ocean/memory/6.jpg,ocean,10.0,,True,,52,old,19.87,2,rest,definitely_old,,,,Adults,1.0,Revaluation
637,569,7444,memory,1181,False,./assets/img/ocean/memory/29.jpg,ocean,10.0,,True,,53,new,19.87,2,rest,definitely_new,,,,Adults,1.0,Revaluation
638,571,7444,memory,1343,False,./assets/img/ocean/memory/35.jpg,ocean,10.0,,True,,54,new,19.87,2,rest,definitely_new,,,,Adults,1.0,Revaluation
639,573,7444,memory,748,False,./assets/img/canyon/memory/34.jpg,canyon,0.0,,False,,55,new,19.87,2,rest,definitely_old,,,,Adults,2.0,Control
640,575,7444,memory,1210,False,./assets/img/ocean/memory/9.jpg,ocean,10.0,,True,,56,new,19.87,2,rest,maybe_new,,,,Adults,1.0,Revaluation
641,577,7444,memory,1665,False,./assets/img/canyon/memory/15.jpg,canyon,10.0,,True,,57,old,19.87,2,rest,maybe_old,,,,Adults,2.0,Control
642,579,7444,memory,1062,False,./assets/img/ocean/memory/17.jpg,ocean,10.0,,True,,58,old,19.87,2,rest,definitely_old,,,,Adults,1.0,Revaluation
643,581,7444,memory,1119,False,./assets/img/ocean/memory/12.jpg,ocean,10.0,,True,,59,old,19.87,2,rest,definitely_old,,,,Adults,1.0,Revaluation
644,583,7444,memory,1471,False,./assets/img/canyon/memory/38.jpg,canyon,10.0,,True,,60,new,19.87,2,rest,maybe_new,,,,Adults,2.0,Control
645,585,7444,memory,961,False,./assets/img/ocean/memory/11.jpg,ocean,0.0,,False,,61,old,19.87,2,rest,definitely_new,,,,Adults,1.0,Revaluation
646,587,7444,memory,1577,False,./assets/img/canyon/memory/20.jpg,canyon,0.0,,False,,62,old,19.87,2,rest,maybe_new,,,,Adults,2.0,Control
647,589,7444,memory,920,False,./assets/img/canyon/memory/4.jpg,canyon,0.0,,False,,63,new,19.87,2,rest,definitely_old,,,,Adults,2.0,Control
648,591,7444,memory,1178,False,./assets/img/canyon/memory/39.jpg,canyon,0.0,,False,,64,new,19.87,2,rest,maybe_old,,,,Adults,2.0,Control
649,593,7444,memory,897,False,./assets/img/ocean/memory/41.jpg,ocean,10.0,,True,,65,old,19.87,2,rest,definitely_old,,,,Adults,1.0,Revaluation
650,595,7444,memory,1030,False,./assets/img/ocean/memory/2.jpg,ocean,10.0,,True,,66,new,19.87,2,rest,maybe_new,,,,Adults,1.0,Revaluation
651,597,7444,memory,1113,False,./assets/img/canyon/memory/29.jpg,canyon,0.0,,False,,67,old,19.87,2,rest,maybe_new,,,,Adults,2.0,Control
652,599,7444,memory,1196,False,./assets/img/ocean/memory/15.jpg,ocean,10.0,,True,,68,new,19.87,2,rest,definitely_new,,,,Adults,1.0,Revaluation
653,601,7444,memory,1431,False,./assets/img/ocean/memory/8.jpg,ocean,0.0,,False,,69,new,19.87,2,rest,maybe_old,,,,Adults,1.0,Revaluation
654,603,7444,memory,1335,False,./assets/img/canyon/memory/6.jpg,canyon,0.0,,False,,70,new,19.87,2,rest,definitely_old,,,,Adults,2.0,Control
655,605,7444,memory,1339,False,./assets/img/canyon/memory/21.jpg,canyon,10.0,,True,,71,old,19.87,2,rest,maybe_old,,,,Adults,2.0,Control
656,607,7444,memory,1233,False,./assets/img/ocean/memory/7.jpg,ocean,10.0,,True,,72,new,19.87,2,rest,maybe_new,,,,Adults,1.0,Revaluation
657,609,7444,memory,1550,False,./assets/img/canyon/memory/14.jpg,canyon,0.0,,False,,73,old,19.87,2,rest,definitely_new,,,,Adults,2.0,Control
658,611,7444,memory,1055,False,./assets/img/canyon/memory/27.jpg,canyon,0.0,,False,,74,old,19.87,2,rest,definitely_new,,,,Adults,2.0,Control
659,613,7444,memory,1504,False,./assets/img/canyon/memory/26.jpg,canyon,0.0,,False,,75,old,19.87,2,rest,maybe_new,,,,Adults,2.0,Control
660,615,7444,memory,1168,False,./assets/img/ocean/memory/30.jpg,ocean,10.0,,True,,76,old,19.87,2,rest,maybe_old,,,,Adults,1.0,Revaluation
661,617,7444,memory,854,False,./assets/img/ocean/memory/1.jpg,ocean,10.0,,True,,77,old,19.87,2,rest,definitely_old,,,,Adults,1.0,Revaluation
662,619,7444,memory,916,False,./assets/img/canyon/memory/3.jpg,canyon,0.0,,False,,78,new,19.87,2,rest,maybe_old,,,,Adults,2.0,Control
663,621,7444,memory,1294,False,./assets/img/ocean/memory/10.jpg,ocean,10.0,,True,,79,new,19.87,2,rest,maybe_new,,,,Adults,1.0,Revaluation
664,623,7444,memory,1000,False,./assets/img/ocean/memory/3.jpg,ocean,10.0,,True,,80,new,19.87,2,rest,maybe_new,,,,Adults,1.0,Revaluation
665,625,7444,memory,863,False,./assets/img/canyon/memory/2.jpg,canyon,0.0,,False,,81,new,19.87,2,rest,maybe_old,,,,Adults,2.0,Control
666,627,7444,memory,997,False,./assets/img/ocean/memory/22.jpg,ocean,10.0,,True,,82,old,19.87,2,rest,maybe_old,,,,Adults,1.0,Revaluation
667,629,7444,memory,872,False,./assets/img/canyon/memory/37.jpg,canyon,10.0,,True,,83,new,19.87,2,rest,maybe_new,,,,Adults,2.0,Control
668,631,7444,memory,1470,False,./assets/img/canyon/memory/23.jpg,canyon,10.0,,True,,84,new,19.87,2,rest,definitely_new,,,,Adults,2.0,Control
669,633,7444,memory,1915,False,./assets/img/ocean/memory/0.jpg,ocean,10.0,,True,,85,old,19.87,2,rest,maybe_old,,,,Adults,1.0,Revaluation
670,635,7444,memory,842,False,./assets/img/canyon/memory/11.jpg,canyon,0.0,,False,,86,new,19.87,2,rest,definitely_old,,,,Adults,2.0,Control
671,637,7444,memory,1102,False,./assets/img/canyon/memory/10.jpg,canyon,0.0,,False,,87,old,19.87,2,rest,maybe_new,,,,Adults,2.0,Control
672,469,7345,memory,2192,False,./assets/img/canyon/memory/21.jpg,canyon,0.0,,False,,4,new,13.33,4,rest,definitely_old,,,,Adolescents,2.0,Control
673,471,7345,memory,1195,False,./assets/img/ocean/memory/23.jpg,ocean,0.0,,False,,5,new,13.33,4,rest,definitely_old,,,,Adolescents,1.0,Revaluation
674,473,7345,memory,1321,False,./assets/img/ocean/memory/13.jpg,ocean,10.0,,True,,6,old,13.33,4,rest,definitely_old,,,,Adolescents,1.0,Revaluation
675,475,7345,memory,935,False,./assets/img/canyon/memory/6.jpg,canyon,10.0,,True,,7,old,13.33,4,rest,definitely_old,,,,Adolescents,2.0,Control
676,477,7345,memory,1776,False,./assets/img/ocean/memory/28.jpg,ocean,10.0,,True,,8,new,13.33,4,rest,maybe_new,,,,Adolescents,1.0,Revaluation
677,479,7345,memory,1520,False,./assets/img/ocean/memory/21.jpg,ocean,10.0,,True,,9,new,13.33,4,rest,maybe_new,,,,Adolescents,1.0,Revaluation
678,481,7345,memory,1497,False,./assets/img/ocean/memory/24.jpg,ocean,10.0,,True,,10,old,13.33,4,rest,definitely_old,,,,Adolescents,1.0,Revaluation
679,483,7345,memory,813,False,./assets/img/canyon/memory/30.jpg,canyon,0.0,,False,,11,new,13.33,4,rest,definitely_old,,,,Adolescents,2.0,Control
680,485,7345,memory,1769,False,./assets/img/canyon/memory/5.jpg,canyon,10.0,,True,,12,new,13.33,4,rest,maybe_new,,,,Adolescents,2.0,Control
681,487,7345,memory,902,False,./assets/img/ocean/memory/10.jpg,ocean,0.0,,False,,13,new,13.33,4,rest,definitely_old,,,,Adolescents,1.0,Revaluation
682,489,7345,memory,1161,False,./assets/img/ocean/memory/27.jpg,ocean,10.0,,True,,14,old,13.33,4,rest,definitely_old,,,,Adolescents,1.0,Revaluation
683,491,7345,memory,1125,False,./assets/img/canyon/memory/15.jpg,canyon,0.0,,False,,15,new,13.33,4,rest,maybe_old,,,,Adolescents,2.0,Control
684,493,7345,memory,2782,False,./assets/img/ocean/memory/25.jpg,ocean,10.0,,True,,16,old,13.33,4,rest,maybe_old,,,,Adolescents,1.0,Revaluation
685,495,7345,memory,1631,False,./assets/img/ocean/memory/36.jpg,ocean,10.0,,True,,17,new,13.33,4,rest,maybe_new,,,,Adolescents,1.0,Revaluation
686,497,7345,memory,1552,False,./assets/img/ocean/memory/35.jpg,ocean,10.0,,True,,18,old,13.33,4,rest,definitely_old,,,,Adolescents,1.0,Revaluation
687,499,7345,memory,1597,False,./assets/img/canyon/memory/23.jpg,canyon,10.0,,True,,19,new,13.33,4,rest,maybe_new,,,,Adolescents,2.0,Control
688,501,7345,memory,1406,False,./assets/img/canyon/memory/41.jpg,canyon,0.0,,False,,20,old,13.33,4,rest,maybe_new,,,,Adolescents,2.0,Control
689,503,7345,memory,1101,False,./assets/img/ocean/memory/16.jpg,ocean,10.0,,True,,21,old,13.33,4,rest,definitely_old,,,,Adolescents,1.0,Revaluation
690,505,7345,memory,774,False,./assets/img/canyon/memory/33.jpg,canyon,0.0,,False,,22,new,13.33,4,rest,definitely_old,,,,Adolescents,2.0,Control
691,507,7345,memory,1421,False,./assets/img/ocean/memory/33.jpg,ocean,10.0,,True,,23,old,13.33,4,rest,maybe_old,,,,Adolescents,1.0,Revaluation
692,509,7345,memory,894,False,./assets/img/canyon/memory/39.jpg,canyon,10.0,,True,,24,old,13.33,4,rest,definitely_old,,,,Adolescents,2.0,Control
693,511,7345,memory,2238,False,./assets/img/canyon/memory/8.jpg,canyon,10.0,,True,,25,old,13.33,4,rest,definitely_old,,,,Adolescents,2.0,Control
694,513,7345,memory,675,False,./assets/img/canyon/memory/2.jpg,canyon,10.0,,True,,26,old,13.33,4,rest,definitely_old,,,,Adolescents,2.0,Control
695,515,7345,memory,974,False,./assets/img/ocean/memory/39.jpg,ocean,10.0,,True,,27,old,13.33,4,rest,definitely_old,,,,Adolescents,1.0,Revaluation
696,517,7345,memory,910,False,./assets/img/canyon/memory/27.jpg,canyon,10.0,,True,,28,old,13.33,4,rest,definitely_old,,,,Adolescents,2.0,Control
697,519,7345,memory,678,False,./assets/img/canyon/memory/28.jpg,canyon,10.0,,True,,29,old,13.33,4,rest,definitely_old,,,,Adolescents,2.0,Control
698,521,7345,memory,693,False,./assets/img/canyon/memory/24.jpg,canyon,0.0,,False,,30,new,13.33,4,rest,definitely_old,,,,Adolescents,2.0,Control
699,523,7345,memory,943,False,./assets/img/canyon/memory/31.jpg,canyon,10.0,,True,,31,old,13.33,4,rest,definitely_old,,,,Adolescents,2.0,Control
700,525,7345,memory,719,False,./assets/img/canyon/memory/17.jpg,canyon,0.0,,False,,32,new,13.33,4,rest,definitely_old,,,,Adolescents,2.0,Control
701,527,7345,memory,1022,False,./assets/img/ocean/memory/26.jpg,ocean,10.0,,True,,33,old,13.33,4,rest,definitely_old,,,,Adolescents,1.0,Revaluation
702,529,7345,memory,1303,False,./assets/img/canyon/memory/36.jpg,canyon,10.0,,True,,34,new,13.33,4,rest,maybe_new,,,,Adolescents,2.0,Control
703,531,7345,memory,927,False,./assets/img/canyon/memory/18.jpg,canyon,0.0,,False,,35,new,13.33,4,rest,definitely_old,,,,Adolescents,2.0,Control
704,533,7345,memory,1399,False,./assets/img/ocean/memory/41.jpg,ocean,10.0,,True,,36,new,13.33,4,rest,maybe_new,,,,Adolescents,1.0,Revaluation
705,535,7345,memory,1191,False,./assets/img/ocean/memory/7.jpg,ocean,10.0,,True,,37,new,13.33,4,rest,maybe_new,,,,Adolescents,1.0,Revaluation
706,537,7345,memory,990,False,./assets/img/ocean/memory/29.jpg,ocean,10.0,,True,,38,old,13.33,4,rest,maybe_old,,,,Adolescents,1.0,Revaluation
707,539,7345,memory,671,False,./assets/img/canyon/memory/37.jpg,canyon,10.0,,True,,39,old,13.33,4,rest,definitely_old,,,,Adolescents,2.0,Control
