,index,subject_id,task_part,rt,timeout,stimulus,environment,score,isCatch,correct,block_condition,block_order,rewardMap,trial_num,ground_truth,age,subject_condition,rest,response0,response1,is_optimal_first,is_optimal_second,categorical_age,trial
50,217,7787,revaluation,[953.1000000238419],False,./assets/img/canyon/animals/giraffe.jpg,canyon,8.0,,False,Revaluation,1.0,"{""ArrowUp,ArrowLeft"":2,""ArrowUp,ArrowRight"":11,""ArrowDown,ArrowLeft"":8,""ArrowDown,ArrowRight"":27}",0,,20.35,8,rest,ArrowLeft,,,,Adults,0
51,219,7787,revaluation,[576.7000000476837],False,./assets/img/canyon/animals/giraffe.jpg,canyon,27.0,,True,Revaluation,1.0,"{""ArrowUp,ArrowLeft"":2,""ArrowUp,ArrowRight"":11,""ArrowDown,ArrowLeft"":8,""ArrowDown,ArrowRight"":27}",1,,20.35,8,rest,ArrowRight,,,,Adults,1
52,221,7787,revaluation,[701.2999999523163],False,./assets/img/canyon/animals/lion.jpg,canyon,2.0,,False,Revaluation,1.0,"{""ArrowUp,ArrowLeft"":2,""ArrowUp,ArrowRight"":11,""ArrowDown,ArrowLeft"":8,""ArrowDown,ArrowRight"":27}",2,,20.35,8,rest,ArrowLeft,,,,Adults,0
53,223,7787,revaluation,[484.39999997615814],False,./assets/img/canyon/animals/lion.jpg,canyon,11.0,,True,Revaluation,1.0,"{""ArrowUp,ArrowLeft"":2,""ArrowUp,ArrowRight"":11,""ArrowDown,ArrowLeft"":8,""ArrowDown,ArrowRight"":27}",3,,20.35,8,rest,ArrowRight,,,,Adults,1
54,225,7787,revaluation,[605.8999999761581],False,./assets/img/canyon/animals/lion.jpg,canyon,11.0,,True,Revaluation,1.0,"{""ArrowUp,ArrowLeft"":2,""ArrowUp,ArrowRight"":11,""ArrowDown,ArrowLeft"":8,""ArrowDown,ArrowRight"":27}",4,,20.35,8,rest,ArrowRight,,,,Adults,2
55,227,7787,revaluation,[433],False,./assets/img/canyon/animals/giraffe.jpg,canyon,27.0,,True,Revaluation,1.0,"{""ArrowUp,ArrowLeft"":2,""ArrowUp,ArrowRight"":11,""ArrowDown,ArrowLeft"":8,""ArrowDown,ArrowRight"":27}",5,,20.35,8,rest,ArrowRight,,,,Adults,2
56,229,7787,revaluation,[489.2000000476837],False,./assets/img/canyon/animals/giraffe.jpg,canyon,27.0,,True,Revaluation,1.0,"{""ArrowUp,ArrowLeft"":2,""ArrowUp,ArrowRight"":11,""ArrowDown,ArrowLeft"":8,""ArrowDown,ArrowRight"":27}",6,,20.35,8,rest,ArrowRight,,,,Adults,3
57,231,7787,revaluation,[430.1999999284744],False,./assets/img/canyon/animals/lion.jpg,canyon,11.0,,True,Revaluation,1.0,"{""ArrowUp,ArrowLeft"":2,""ArrowUp,ArrowRight"":11,""ArrowDown,ArrowLeft"":8,""ArrowDown,ArrowRight"":27}",7,,20.35,8,rest,ArrowRight,,,,Adults,3
58,233,7787,revaluation,[515.5],False,./assets/img/canyon/animals/lion.jpg,canyon,11.0,,True,Revaluation,1.0,"{""ArrowUp,ArrowLeft"":2,""ArrowUp,ArrowRight"":11,""ArrowDown,ArrowLeft"":8,""ArrowDown,ArrowRight"":27}",8,,20.35,8,rest,ArrowRight,,,,Adults,4
59,235,7787,revaluation,[419.7999999523163],False,./assets/img/canyon/animals/giraffe.jpg,canyon,27.0,,True,Revaluation,1.0,"{""ArrowUp,ArrowLeft"":2,""ArrowUp,ArrowRight"":11,""ArrowDown,ArrowLeft"":8,""ArrowDown,ArrowRight"":27}",9,,20.35,8,rest,ArrowRight,,,,Adults,4
60,237,7787,revaluation,[328.8000000715256],False,./assets/img/canyon/animals/lion.jpg,canyon,11.0,,True,Revaluation,1.0,"{""ArrowUp,ArrowLeft"":2,""ArrowUp,ArrowRight"":11,""ArrowDown,ArrowLeft"":8,""ArrowDown,ArrowRight"":27}",10,,20.35,8,rest,ArrowRight,,,,Adults,5
61,239,7787,revaluation,[408.5],False,./assets/img/canyon/animals/giraffe.jpg,canyon,27.0,,True,Revaluation,1.0,"{""ArrowUp,ArrowLeft"":2,""ArrowUp,ArrowRight"":11,""ArrowDown,ArrowLeft"":8,""ArrowDown,ArrowRight"":27}",11,,20.35,8,rest,ArrowRight,,,,Adults,5
62,241,7787,revaluation,[397.7999999523163],False,./assets/img/canyon/animals/giraffe.jpg,canyon,27.0,,True,Revaluation,1.0,"{""ArrowUp,ArrowLeft"":2,""ArrowUp,ArrowRight"":11,""ArrowDown,ArrowLeft"":8,""ArrowDown,ArrowRight"":27}",12,,20.35,8,rest,ArrowRight,,,,Adults,6
63,243,7787,revaluation,[524.6999999284744],False,./assets/img/canyon/animals/lion.jpg,canyon,11.0,,True,Revaluation,1.0,"{""ArrowUp,ArrowLeft"":2,""ArrowUp,ArrowRight"":11,""ArrowDown,ArrowLeft"":8,""ArrowDown,ArrowRight"":27}",13,,20.35,8,rest,ArrowRight,,,,Adults,6
64,245,7787,revaluation,[389.6999999284744],False,./assets/img/canyon/animals/lion.jpg,canyon,11.0,,True,Revaluation,1.0,"{""ArrowUp,ArrowLeft"":2,""ArrowUp,ArrowRight"":11,""ArrowDown,ArrowLeft"":8,""ArrowDown,ArrowRight"":27}",14,,20.35,8,rest,ArrowRight,,,,Adults,7
65,247,7787,revaluation,[346.59999990463257],False,./assets/img/canyon/animals/giraffe.jpg,canyon,27.0,,True,Revaluation,1.0,"{""ArrowUp,ArrowLeft"":2,""ArrowUp,ArrowRight"":11,""ArrowDown,ArrowLeft"":8,""ArrowDown,ArrowRight"":27}",15,,20.35,8,rest,ArrowRight,,,,Adults,7
66,249,7787,revaluation,[399.2999999523163],False,./assets/img/canyon/animals/giraffe.jpg,canyon,27.0,,True,Revaluation,1.0,"{""ArrowUp,ArrowLeft"":2,""ArrowUp,ArrowRight"":11,""ArrowDown,ArrowLeft"":8,""ArrowDown,ArrowRight"":27}",16,,20.35,8,rest,ArrowRight,,,,Adults,8
67,251,7787,revaluation,[379.7000000476837],False,./assets/img/canyon/animals/lion.jpg,canyon,11.0,,True,Revaluation,1.0,"{""ArrowUp,ArrowLeft"":2,""ArrowUp,ArrowRight"":11,""ArrowDown,ArrowLeft"":8,""ArrowDown,ArrowRight"":27}",17,,20.35,8,rest,ArrowRight,,,,Adults,8
130,386,7787,revaluation,[735.3999999761581],False,./assets/img/ocean/animals/seahorse.jpg,ocean,8.0,,False,Control,2.0,"{""ArrowUp,ArrowLeft"":23,""ArrowUp,ArrowRight"":10,""ArrowDown,ArrowLeft"":8,""ArrowDown,ArrowRight"":30}",0,,20.35,8,rest,ArrowLeft,,,,Adults,0
131,388,7787,revaluation,[555.8999999761581],False,./assets/img/ocean/animals/octopus.jpg,ocean,23.0,,True,Control,2.0,"{""ArrowUp,ArrowLeft"":23,""ArrowUp,ArrowRight"":10,""ArrowDown,ArrowLeft"":8,""ArrowDown,ArrowRight"":30}",1,,20.35,8,rest,ArrowLeft,,,,Adults,0
132,390,7787,revaluation,[326.40000009536743],False,./assets/img/ocean/animals/octopus.jpg,ocean,10.0,,False,Control,2.0,"{""ArrowUp,ArrowLeft"":23,""ArrowUp,ArrowRight"":10,""ArrowDown,ArrowLeft"":8,""ArrowDown,ArrowRight"":30}",2,,20.35,8,rest,ArrowRight,,,,Adults,1
133,392,7787,revaluation,[609.8000000715256],False,./assets/img/ocean/animals/seahorse.jpg,ocean,30.0,,True,Control,2.0,"{""ArrowUp,ArrowLeft"":23,""ArrowUp,ArrowRight"":10,""ArrowDown,ArrowLeft"":8,""ArrowDown,ArrowRight"":30}",3,,20.35,8,rest,ArrowRight,,,,Adults,1
134,394,7787,revaluation,[943.1000000238419],False,./assets/img/ocean/animals/octopus.jpg,ocean,23.0,,True,Control,2.0,"{""ArrowUp,ArrowLeft"":23,""ArrowUp,ArrowRight"":10,""ArrowDown,ArrowLeft"":8,""ArrowDown,ArrowRight"":30}",4,,20.35,8,rest,ArrowLeft,,,,Adults,2
135,396,7787,revaluation,[542.5],False,./assets/img/ocean/animals/octopus.jpg,ocean,23.0,,True,Control,2.0,"{""ArrowUp,ArrowLeft"":23,""ArrowUp,ArrowRight"":10,""ArrowDown,ArrowLeft"":8,""ArrowDown,ArrowRight"":30}",5,,20.35,8,rest,ArrowLeft,,,,Adults,3
136,398,7787,revaluation,[520.8999999761581],False,./assets/img/ocean/animals/octopus.jpg,ocean,23.0,,True,Control,2.0,"{""ArrowUp,ArrowLeft"":23,""ArrowUp,ArrowRight"":10,""ArrowDown,ArrowLeft"":8,""ArrowDown,ArrowRight"":30}",6,,20.35,8,rest,ArrowLeft,,,,Adults,4
137,400,7787,revaluation,[492.39999997615814],False,./assets/img/ocean/animals/octopus.jpg,ocean,23.0,,True,Control,2.0,"{""ArrowUp,ArrowLeft"":23,""ArrowUp,ArrowRight"":10,""ArrowDown,ArrowLeft"":8,""ArrowDown,ArrowRight"":30}",7,,20.35,8,rest,ArrowLeft,,,,Adults,5
138,402,7787,revaluation,[487.39999997615814],False,./assets/img/ocean/animals/octopus.jpg,ocean,23.0,,True,Control,2.0,"{""ArrowUp,ArrowLeft"":23,""ArrowUp,ArrowRight"":10,""ArrowDown,ArrowLeft"":8,""ArrowDown,ArrowRight"":30}",8,,20.35,8,rest,ArrowLeft,,,,Adults,6
139,404,7787,revaluation,[566.8999999761581],False,./assets/img/ocean/animals/seahorse.jpg,ocean,30.0,,True,Control,2.0,"{""ArrowUp,ArrowLeft"":23,""ArrowUp,ArrowRight"":10,""ArrowDown,ArrowLeft"":8,""ArrowDown,ArrowRight"":30}",9,,20.35,8,rest,ArrowRight,,,,Adults,2
140,406,7787,revaluation,[580.7999999523163],False,./assets/img/ocean/animals/seahorse.jpg,ocean,30.0,,True,Control,2.0,"{""ArrowUp,ArrowLeft"":23,""ArrowUp,ArrowRight"":10,""ArrowDown,ArrowLeft"":8,""ArrowDown,ArrowRight"":30}",10,,20.35,8,rest,ArrowRight,,,,Adults,3
141,408,7787,revaluation,[451.10000002384186],False,./assets/img/ocean/animals/octopus.jpg,ocean,23.0,,True,Control,2.0,"{""ArrowUp,ArrowLeft"":23,""ArrowUp,ArrowRight"":10,""ArrowDown,ArrowLeft"":8,""ArrowDown,ArrowRight"":30}",11,,20.35,8,rest,ArrowLeft,,,,Adults,7
142,410,7787,revaluation,[489.60000002384186],False,./assets/img/ocean/animals/seahorse.jpg,ocean,30.0,,True,Control,2.0,"{""ArrowUp,ArrowLeft"":23,""ArrowUp,ArrowRight"":10,""ArrowDown,ArrowLeft"":8,""ArrowDown,ArrowRight"":30}",12,,20.35,8,rest,ArrowRight,,,,Adults,4
143,412,7787,revaluation,[448.89999997615814],False,./assets/img/ocean/animals/seahorse.jpg,ocean,30.0,,True,Control,2.0,"{""ArrowUp,ArrowLeft"":23,""ArrowUp,ArrowRight"":10,""ArrowDown,ArrowLeft"":8,""ArrowDown,ArrowRight"":30}",13,,20.35,8,rest,ArrowRight,,,,Adults,5
144,414,7787,revaluation,[537.8999999761581],False,./assets/img/ocean/animals/seahorse.jpg,ocean,30.0,,True,Control,2.0,"{""ArrowUp,ArrowLeft"":23,""ArrowUp,ArrowRight"":10,""ArrowDown,ArrowLeft"":8,""ArrowDown,ArrowRight"":30}",14,,20.35,8,rest,ArrowRight,,,,Adults,6
145,416,7787,revaluation,[540],False,./assets/img/ocean/animals/octopus.jpg,ocean,23.0,,True,Control,2.0,"{""ArrowUp,ArrowLeft"":23,""ArrowUp,ArrowRight"":10,""ArrowDown,ArrowLeft"":8,""ArrowDown,ArrowRight"":30}",15,,20.35,8,rest,ArrowLeft,,,,Adults,8
146,418,7787,revaluation,[496.2000000476837],False,./assets/img/ocean/animals/seahorse.jpg,ocean,30.0,,True,Control,2.0,"{""ArrowUp,ArrowLeft"":23,""ArrowUp,ArrowRight"":10,""ArrowDown,ArrowLeft"":8,""ArrowDown,ArrowRight"":30}",16,,20.35,8,rest,ArrowRight,,,,Adults,7
147,420,7787,revaluation,[531.1000000238419],False,./assets/img/ocean/animals/seahorse.jpg,ocean,30.0,,True,Control,2.0,"{""ArrowUp,ArrowLeft"":23,""ArrowUp,ArrowRight"":10,""ArrowDown,ArrowLeft"":8,""ArrowDown,ArrowRight"":30}",17,,20.35,8,rest,ArrowRight,,,,Adults,8
298,217,7480,revaluation,[1213.7000000476837],False,./assets/img/ocean/animals/seahorse.jpg,ocean,27.0,,True,Revaluation,1.0,"{""ArrowUp,ArrowLeft"":2,""ArrowUp,ArrowRight"":11,""ArrowDown,ArrowLeft"":8,""ArrowDown,ArrowRight"":27}",0,,21.43,4,rest,ArrowRight,,,,Adults,0
299,219,7480,revaluation,[567.5],False,./assets/img/ocean/animals/seahorse.jpg,ocean,27.0,,True,Revaluation,1.0,"{""ArrowUp,ArrowLeft"":2,""ArrowUp,ArrowRight"":11,""ArrowDown,ArrowLeft"":8,""ArrowDown,ArrowRight"":27}",1,,21.43,4,rest,ArrowRight,,,,Adults,1
300,221,7480,revaluation,[1042.3999999761581],False,./assets/img/ocean/animals/octopus.jpg,ocean,2.0,,False,Revaluation,1.0,"{""ArrowUp,ArrowLeft"":2,""ArrowUp,ArrowRight"":11,""ArrowDown,ArrowLeft"":8,""ArrowDown,ArrowRight"":27}",2,,21.43,4,rest,ArrowLeft,,,,Adults,0
301,223,7480,revaluation,[552.6000000238419],False,./assets/img/ocean/animals/octopus.jpg,ocean,11.0,,True,Revaluation,1.0,"{""ArrowUp,ArrowLeft"":2,""ArrowUp,ArrowRight"":11,""ArrowDown,ArrowLeft"":8,""ArrowDown,ArrowRight"":27}",3,,21.43,4,rest,ArrowRight,,,,Adults,1
302,225,7480,revaluation,[615],False,./assets/img/ocean/animals/octopus.jpg,ocean,11.0,,True,Revaluation,1.0,"{""ArrowUp,ArrowLeft"":2,""ArrowUp,ArrowRight"":11,""ArrowDown,ArrowLeft"":8,""ArrowDown,ArrowRight"":27}",4,,21.43,4,rest,ArrowRight,,,,Adults,2
303,227,7480,revaluation,[1114.4000000357628],False,./assets/img/ocean/animals/octopus.jpg,ocean,11.0,,True,Revaluation,1.0,"{""ArrowUp,ArrowLeft"":2,""ArrowUp,ArrowRight"":11,""ArrowDown,ArrowLeft"":8,""ArrowDown,ArrowRight"":27}",5,,21.43,4,rest,ArrowRight,,,,Adults,3
304,229,7480,revaluation,[906.3999999761581],False,./assets/img/ocean/animals/seahorse.jpg,ocean,27.0,,True,Revaluation,1.0,"{""ArrowUp,ArrowLeft"":2,""ArrowUp,ArrowRight"":11,""ArrowDown,ArrowLeft"":8,""ArrowDown,ArrowRight"":27}",6,,21.43,4,rest,ArrowRight,,,,Adults,2
305,231,7480,revaluation,[514.8000000119209],False,./assets/img/ocean/animals/seahorse.jpg,ocean,8.0,,False,Revaluation,1.0,"{""ArrowUp,ArrowLeft"":2,""ArrowUp,ArrowRight"":11,""ArrowDown,ArrowLeft"":8,""ArrowDown,ArrowRight"":27}",7,,21.43,4,rest,ArrowLeft,,,,Adults,3
306,233,7480,revaluation,[521.3000000119209],False,./assets/img/ocean/animals/octopus.jpg,ocean,11.0,,True,Revaluation,1.0,"{""ArrowUp,ArrowLeft"":2,""ArrowUp,ArrowRight"":11,""ArrowDown,ArrowLeft"":8,""ArrowDown,ArrowRight"":27}",8,,21.43,4,rest,ArrowRight,,,,Adults,4
307,235,7480,revaluation,[380.69999998807907],False,./assets/img/ocean/animals/octopus.jpg,ocean,11.0,,True,Revaluation,1.0,"{""ArrowUp,ArrowLeft"":2,""ArrowUp,ArrowRight"":11,""ArrowDown,ArrowLeft"":8,""ArrowDown,ArrowRight"":27}",9,,21.43,4,rest,ArrowRight,,,,Adults,5
308,237,7480,revaluation,[403],False,./assets/img/ocean/animals/seahorse.jpg,ocean,27.0,,True,Revaluation,1.0,"{""ArrowUp,ArrowLeft"":2,""ArrowUp,ArrowRight"":11,""ArrowDown,ArrowLeft"":8,""ArrowDown,ArrowRight"":27}",10,,21.43,4,rest,ArrowRight,,,,Adults,4
309,239,7480,revaluation,[859.6000000238419],False,./assets/img/ocean/animals/octopus.jpg,ocean,11.0,,True,Revaluation,1.0,"{""ArrowUp,ArrowLeft"":2,""ArrowUp,ArrowRight"":11,""ArrowDown,ArrowLeft"":8,""ArrowDown,ArrowRight"":27}",11,,21.43,4,rest,ArrowRight,,,,Adults,6
310,241,7480,revaluation,[359.19999998807907],False,./assets/img/ocean/animals/seahorse.jpg,ocean,27.0,,True,Revaluation,1.0,"{""ArrowUp,ArrowLeft"":2,""ArrowUp,ArrowRight"":11,""ArrowDown,ArrowLeft"":8,""ArrowDown,ArrowRight"":27}",12,,21.43,4,rest,ArrowRight,,,,Adults,5
311,243,7480,revaluation,[312.0999999642372],False,./assets/img/ocean/animals/seahorse.jpg,ocean,27.0,,True,Revaluation,1.0,"{""ArrowUp,ArrowLeft"":2,""ArrowUp,ArrowRight"":11,""ArrowDown,ArrowLeft"":8,""ArrowDown,ArrowRight"":27}",13,,21.43,4,rest,ArrowRight,,,,Adults,6
312,245,7480,revaluation,[77.39999997615814],False,./assets/img/ocean/animals/octopus.jpg,ocean,11.0,,True,Revaluation,1.0,"{""ArrowUp,ArrowLeft"":2,""ArrowUp,ArrowRight"":11,""ArrowDown,ArrowLeft"":8,""ArrowDown,ArrowRight"":27}",14,,21.43,4,rest,ArrowRight,,,,Adults,7
313,247,7480,revaluation,[351.5],False,./assets/img/ocean/animals/seahorse.jpg,ocean,27.0,,True,Revaluation,1.0,"{""ArrowUp,ArrowLeft"":2,""ArrowUp,ArrowRight"":11,""ArrowDown,ArrowLeft"":8,""ArrowDown,ArrowRight"":27}",15,,21.43,4,rest,ArrowRight,,,,Adults,7
314,249,7480,revaluation,[568.6999999880791],False,./assets/img/ocean/animals/octopus.jpg,ocean,11.0,,True,Revaluation,1.0,"{""ArrowUp,ArrowLeft"":2,""ArrowUp,ArrowRight"":11,""ArrowDown,ArrowLeft"":8,""ArrowDown,ArrowRight"":27}",16,,21.43,4,rest,ArrowRight,,,,Adults,8
315,251,7480,revaluation,[557.1000000238419],False,./assets/img/ocean/animals/seahorse.jpg,ocean,27.0,,True,Revaluation,1.0,"{""ArrowUp,ArrowLeft"":2,""ArrowUp,ArrowRight"":11,""ArrowDown,ArrowLeft"":8,""ArrowDown,ArrowRight"":27}",17,,21.43,4,rest,ArrowRight,,,,Adults,8
378,386,7480,revaluation,[795.1000000238419],False,./assets/img/canyon/animals/giraffe.jpg,canyon,23.0,,True,Control,2.0,"{""ArrowUp,ArrowLeft"":23,""ArrowUp,ArrowRight"":10,""ArrowDown,ArrowLeft"":8,""ArrowDown,ArrowRight"":30}",0,,21.43,4,rest,ArrowLeft,,,,Adults,0
379,388,7480,revaluation,[776.6000000238419],False,./assets/img/canyon/animals/giraffe.jpg,canyon,23.0,,True,Control,2.0,"{""ArrowUp,ArrowLeft"":23,""ArrowUp,ArrowRight"":10,""ArrowDown,ArrowLeft"":8,""ArrowDown,ArrowRight"":30}",1,,21.43,4,rest,ArrowLeft,,,,Adults,1
380,390,7480,revaluation,[470.30000001192093],False,./assets/img/canyon/animals/giraffe.jpg,canyon,23.0,,True,Control,2.0,"{""ArrowUp,ArrowLeft"":23,""ArrowUp,ArrowRight"":10,""ArrowDown,ArrowLeft"":8,""ArrowDown,ArrowRight"":30}",2,,21.43,4,rest,ArrowLeft,,,,Adults,2
381,392,7480,revaluation,[624.2000000476837],False,./assets/img/canyon/animals/lion.jpg,canyon,30.0,,True,Control,2.0,"{""ArrowUp,ArrowLeft"":23,""ArrowUp,ArrowRight"":10,""ArrowDown,ArrowLeft"":8,""ArrowDown,ArrowRight"":30}",3,,21.43,4,rest,ArrowRight,,,,Adults,0
382,394,7480,revaluation,[429.10000002384186],False,./assets/img/canyon/animals/lion.jpg,canyon,30.0,,True,Control,2.0,"{""ArrowUp,ArrowLeft"":23,""ArrowUp,ArrowRight"":10,""ArrowDown,ArrowLeft"":8,""ArrowDown,ArrowRight"":30}",4,,21.43,4,rest,ArrowRight,,,,Adults,1
383,396,7480,revaluation,[390.4000000357628],False,./assets/img/canyon/animals/lion.jpg,canyon,30.0,,True,Control,2.0,"{""ArrowUp,ArrowLeft"":23,""ArrowUp,ArrowRight"":10,""ArrowDown,ArrowLeft"":8,""ArrowDown,ArrowRight"":30}",5,,21.43,4,rest,ArrowRight,,,,Adults,2
384,398,7480,revaluation,[905.8999999761581],False,./assets/img/canyon/animals/lion.jpg,canyon,30.0,,True,Control,2.0,"{""ArrowUp,ArrowLeft"":23,""ArrowUp,ArrowRight"":10,""ArrowDown,ArrowLeft"":8,""ArrowDown,ArrowRight"":30}",6,,21.43,4,rest,ArrowRight,,,,Adults,3
385,400,7480,revaluation,[660.3000000119209],False,./assets/img/canyon/animals/lion.jpg,canyon,30.0,,True,Control,2.0,"{""ArrowUp,ArrowLeft"":23,""ArrowUp,ArrowRight"":10,""ArrowDown,ArrowLeft"":8,""ArrowDown,ArrowRight"":30}",7,,21.43,4,rest,ArrowRight,,,,Adults,4
386,402,7480,revaluation,[534],False,./assets/img/canyon/animals/lion.jpg,canyon,30.0,,True,Control,2.0,"{""ArrowUp,ArrowLeft"":23,""ArrowUp,ArrowRight"":10,""ArrowDown,ArrowLeft"":8,""ArrowDown,ArrowRight"":30}",8,,21.43,4,rest,ArrowRight,,,,Adults,5
387,404,7480,revaluation,[392],False,./assets/img/canyon/animals/lion.jpg,canyon,30.0,,True,Control,2.0,"{""ArrowUp,ArrowLeft"":23,""ArrowUp,ArrowRight"":10,""ArrowDown,ArrowLeft"":8,""ArrowDown,ArrowRight"":30}",9,,21.43,4,rest,ArrowRight,,,,Adults,6
388,406,7480,revaluation,[501.89999997615814],False,./assets/img/canyon/animals/lion.jpg,canyon,30.0,,True,Control,2.0,"{""ArrowUp,ArrowLeft"":23,""ArrowUp,ArrowRight"":10,""ArrowDown,ArrowLeft"":8,""ArrowDown,ArrowRight"":30}",10,,21.43,4,rest,ArrowRight,,,,Adults,7
389,408,7480,revaluation,[808.3999999761581],False,./assets/img/canyon/animals/giraffe.jpg,canyon,23.0,,True,Control,2.0,"{""ArrowUp,ArrowLeft"":23,""ArrowUp,ArrowRight"":10,""ArrowDown,ArrowLeft"":8,""ArrowDown,ArrowRight"":30}",11,,21.43,4,rest,ArrowLeft,,,,Adults,3
390,410,7480,revaluation,[394.80000001192093],False,./assets/img/canyon/animals/lion.jpg,canyon,8.0,,False,Control,2.0,"{""ArrowUp,ArrowLeft"":23,""ArrowUp,ArrowRight"":10,""ArrowDown,ArrowLeft"":8,""ArrowDown,ArrowRight"":30}",12,,21.43,4,rest,ArrowLeft,,,,Adults,8
391,412,7480,revaluation,[1071.0999999642372],False,./assets/img/canyon/animals/giraffe.jpg,canyon,23.0,,True,Control,2.0,"{""ArrowUp,ArrowLeft"":23,""ArrowUp,ArrowRight"":10,""ArrowDown,ArrowLeft"":8,""ArrowDown,ArrowRight"":30}",13,,21.43,4,rest,ArrowLeft,,,,Adults,4
392,414,7480,revaluation,[874],False,./assets/img/canyon/animals/giraffe.jpg,canyon,23.0,,True,Control,2.0,"{""ArrowUp,ArrowLeft"":23,""ArrowUp,ArrowRight"":10,""ArrowDown,ArrowLeft"":8,""ArrowDown,ArrowRight"":30}",14,,21.43,4,rest,ArrowLeft,,,,Adults,5
393,416,7480,revaluation,[837.3999999761581],False,./assets/img/canyon/animals/giraffe.jpg,canyon,23.0,,True,Control,2.0,"{""ArrowUp,ArrowLeft"":23,""ArrowUp,ArrowRight"":10,""ArrowDown,ArrowLeft"":8,""ArrowDown,ArrowRight"":30}",15,,21.43,4,rest,ArrowLeft,,,,Adults,6
394,418,7480,revaluation,[530.4000000357628],False,./assets/img/canyon/animals/giraffe.jpg,canyon,23.0,,True,Control,2.0,"{""ArrowUp,ArrowLeft"":23,""ArrowUp,ArrowRight"":10,""ArrowDown,ArrowLeft"":8,""ArrowDown,ArrowRight"":30}",16,,21.43,4,rest,ArrowLeft,,,,Adults,7
395,420,7480,revaluation,[502.60000002384186],False,./assets/img/canyon/animals/giraffe.jpg,canyon,23.0,,True,Control,2.0,"{""ArrowUp,ArrowLeft"":23,""ArrowUp,ArrowRight"":10,""ArrowDown,ArrowLeft"":8,""ArrowDown,ArrowRight"":30}",17,,21.43,4,rest,ArrowLeft,,,,Adults,8
546,217,7982,revaluation,[1979.699999988079],False,./assets/img/ocean/animals/seahorse.jpg,ocean,7.0,,False,Revaluation,1.0,"{""ArrowUp,ArrowLeft"":27,""ArrowUp,ArrowRight"":15,""ArrowDown,ArrowLeft"":21,""ArrowDown,ArrowRight"":7}",0,,17.66,2,rest,ArrowRight,,,,Adolescents,0
547,219,7982,revaluation,[411.2999999821186],False,./assets/img/ocean/animals/seahorse.jpg,ocean,21.0,,True,Revaluation,1.0,"{""ArrowUp,ArrowLeft"":27,""ArrowUp,ArrowRight"":15,""ArrowDown,ArrowLeft"":21,""ArrowDown,ArrowRight"":7}",1,,17.66,2,rest,ArrowLeft,,,,Adolescents,1
548,221,7982,revaluation,[549.5],False,./assets/img/ocean/animals/seahorse.jpg,ocean,21.0,,True,Revaluation,1.0,"{""ArrowUp,ArrowLeft"":27,""ArrowUp,ArrowRight"":15,""ArrowDown,ArrowLeft"":21,""ArrowDown,ArrowRight"":7}",2,,17.66,2,rest,ArrowLeft,,,,Adolescents,2
549,223,7982,revaluation,[1010.2000000178814],False,./assets/img/ocean/animals/octopus.jpg,ocean,15.0,,False,Revaluation,1.0,"{""ArrowUp,ArrowLeft"":27,""ArrowUp,ArrowRight"":15,""ArrowDown,ArrowLeft"":21,""ArrowDown,ArrowRight"":7}",3,,17.66,2,rest,ArrowRight,,,,Adolescents,0
550,225,7982,revaluation,[374.09999999403954],False,./assets/img/ocean/animals/octopus.jpg,ocean,27.0,,True,Revaluation,1.0,"{""ArrowUp,ArrowLeft"":27,""ArrowUp,ArrowRight"":15,""ArrowDown,ArrowLeft"":21,""ArrowDown,ArrowRight"":7}",4,,17.66,2,rest,ArrowLeft,,,,Adolescents,1
551,227,7982,revaluation,[629.6999999880791],False,./assets/img/ocean/animals/octopus.jpg,ocean,27.0,,True,Revaluation,1.0,"{""ArrowUp,ArrowLeft"":27,""ArrowUp,ArrowRight"":15,""ArrowDown,ArrowLeft"":21,""ArrowDown,ArrowRight"":7}",5,,17.66,2,rest,ArrowLeft,,,,Adolescents,2
552,229,7982,revaluation,[511.2999999821186],False,./assets/img/ocean/animals/octopus.jpg,ocean,27.0,,True,Revaluation,1.0,"{""ArrowUp,ArrowLeft"":27,""ArrowUp,ArrowRight"":15,""ArrowDown,ArrowLeft"":21,""ArrowDown,ArrowRight"":7}",6,,17.66,2,rest,ArrowLeft,,,,Adolescents,3
553,231,7982,revaluation,[451.90000000596046],False,./assets/img/ocean/animals/octopus.jpg,ocean,27.0,,True,Revaluation,1.0,"{""ArrowUp,ArrowLeft"":27,""ArrowUp,ArrowRight"":15,""ArrowDown,ArrowLeft"":21,""ArrowDown,ArrowRight"":7}",7,,17.66,2,rest,ArrowLeft,,,,Adolescents,4
554,233,7982,revaluation,[494.30000001192093],False,./assets/img/ocean/animals/seahorse.jpg,ocean,21.0,,True,Revaluation,1.0,"{""ArrowUp,ArrowLeft"":27,""ArrowUp,ArrowRight"":15,""ArrowDown,ArrowLeft"":21,""ArrowDown,ArrowRight"":7}",8,,17.66,2,rest,ArrowLeft,,,,Adolescents,3
556,237,7982,revaluation,[342.09999999403954],False,./assets/img/ocean/animals/seahorse.jpg,ocean,21.0,,True,Revaluation,1.0,"{""ArrowUp,ArrowLeft"":27,""ArrowUp,ArrowRight"":15,""ArrowDown,ArrowLeft"":21,""ArrowDown,ArrowRight"":7}",10,,17.66,2,rest,ArrowLeft,,,,Adolescents,5
557,239,7982,revaluation,[300],False,./assets/img/ocean/animals/octopus.jpg,ocean,27.0,,True,Revaluation,1.0,"{""ArrowUp,ArrowLeft"":27,""ArrowUp,ArrowRight"":15,""ArrowDown,ArrowLeft"":21,""ArrowDown,ArrowRight"":7}",11,,17.66,2,rest,ArrowLeft,,,,Adolescents,5
558,241,7982,revaluation,[460.09999999403954],False,./assets/img/ocean/animals/octopus.jpg,ocean,27.0,,True,Revaluation,1.0,"{""ArrowUp,ArrowLeft"":27,""ArrowUp,ArrowRight"":15,""ArrowDown,ArrowLeft"":21,""ArrowDown,ArrowRight"":7}",12,,17.66,2,rest,ArrowLeft,,,,Adolescents,6
559,243,7982,revaluation,[587.8000000119209],False,./assets/img/ocean/animals/seahorse.jpg,ocean,21.0,,True,Revaluation,1.0,"{""ArrowUp,ArrowLeft"":27,""ArrowUp,ArrowRight"":15,""ArrowDown,ArrowLeft"":21,""ArrowDown,ArrowRight"":7}",13,,17.66,2,rest,ArrowLeft,,,,Adolescents,6
560,245,7982,revaluation,[558.3000000119209],False,./assets/img/ocean/animals/octopus.jpg,ocean,27.0,,True,Revaluation,1.0,"{""ArrowUp,ArrowLeft"":27,""ArrowUp,ArrowRight"":15,""ArrowDown,ArrowLeft"":21,""ArrowDown,ArrowRight"":7}",14,,17.66,2,rest,ArrowLeft,,,,Adolescents,7
563,251,7982,revaluation,[346.2999999821186],False,./assets/img/ocean/animals/octopus.jpg,ocean,27.0,,True,Revaluation,1.0,"{""ArrowUp,ArrowLeft"":27,""ArrowUp,ArrowRight"":15,""ArrowDown,ArrowLeft"":21,""ArrowDown,ArrowRight"":7}",17,,17.66,2,rest,ArrowLeft,,,,Adolescents,8
626,386,7982,revaluation,[817.2999999821186],False,./assets/img/canyon/animals/lion.jpg,canyon,26.0,,True,Control,2.0,"{""ArrowUp,ArrowLeft"":26,""ArrowUp,ArrowRight"":10,""ArrowDown,ArrowLeft"":5,""ArrowDown,ArrowRight"":17}",0,,17.66,2,rest,ArrowLeft,,,,Adolescents,0
627,388,7982,revaluation,[441.5],False,./assets/img/canyon/animals/lion.jpg,canyon,26.0,,True,Control,2.0,"{""ArrowUp,ArrowLeft"":26,""ArrowUp,ArrowRight"":10,""ArrowDown,ArrowLeft"":5,""ArrowDown,ArrowRight"":17}",1,,17.66,2,rest,ArrowLeft,,,,Adolescents,1
628,390,7982,revaluation,[641.7000000178814],False,./assets/img/canyon/animals/lion.jpg,canyon,26.0,,True,Control,2.0,"{""ArrowUp,ArrowLeft"":26,""ArrowUp,ArrowRight"":10,""ArrowDown,ArrowLeft"":5,""ArrowDown,ArrowRight"":17}",2,,17.66,2,rest,ArrowLeft,,,,Adolescents,2
629,392,7982,revaluation,[678.0999999940395],False,./assets/img/canyon/animals/giraffe.jpg,canyon,17.0,,True,Control,2.0,"{""ArrowUp,ArrowLeft"":26,""ArrowUp,ArrowRight"":10,""ArrowDown,ArrowLeft"":5,""ArrowDown,ArrowRight"":17}",3,,17.66,2,rest,ArrowRight,,,,Adolescents,0
630,394,7982,revaluation,[494.5],False,./assets/img/canyon/animals/giraffe.jpg,canyon,5.0,,False,Control,2.0,"{""ArrowUp,ArrowLeft"":26,""ArrowUp,ArrowRight"":10,""ArrowDown,ArrowLeft"":5,""ArrowDown,ArrowRight"":17}",4,,17.66,2,rest,ArrowLeft,,,,Adolescents,1
631,396,7982,revaluation,[444.60000002384186],False,./assets/img/canyon/animals/lion.jpg,canyon,10.0,,False,Control,2.0,"{""ArrowUp,ArrowLeft"":26,""ArrowUp,ArrowRight"":10,""ArrowDown,ArrowLeft"":5,""ArrowDown,ArrowRight"":17}",5,,17.66,2,rest,ArrowRight,,,,Adolescents,3
632,398,7982,revaluation,[1405.699999988079],False,./assets/img/canyon/animals/lion.jpg,canyon,26.0,,True,Control,2.0,"{""ArrowUp,ArrowLeft"":26,""ArrowUp,ArrowRight"":10,""ArrowDown,ArrowLeft"":5,""ArrowDown,ArrowRight"":17}",6,,17.66,2,rest,ArrowLeft,,,,Adolescents,4
633,400,7982,revaluation,[948],False,./assets/img/canyon/animals/giraffe.jpg,canyon,17.0,,True,Control,2.0,"{""ArrowUp,ArrowLeft"":26,""ArrowUp,ArrowRight"":10,""ArrowDown,ArrowLeft"":5,""ArrowDown,ArrowRight"":17}",7,,17.66,2,rest,ArrowRight,,,,Adolescents,2
634,402,7982,revaluation,[460.59999999403954],False,./assets/img/canyon/animals/lion.jpg,canyon,26.0,,True,Control,2.0,"{""ArrowUp,ArrowLeft"":26,""ArrowUp,ArrowRight"":10,""ArrowDown,ArrowLeft"":5,""ArrowDown,ArrowRight"":17}",8,,17.66,2,rest,ArrowLeft,,,,Adolescents,5
635,404,7982,revaluation,[975.0999999940395],False,./assets/img/canyon/animals/giraffe.jpg,canyon,5.0,,False,Control,2.0,"{""ArrowUp,ArrowLeft"":26,""ArrowUp,ArrowRight"":10,""ArrowDown,ArrowLeft"":5,""ArrowDown,ArrowRight"":17}",9,,17.66,2,rest,ArrowLeft,,,,Adolescents,3
636,406,7982,revaluation,[504],False,./assets/img/canyon/animals/giraffe.jpg,canyon,17.0,,True,Control,2.0,"{""ArrowUp,ArrowLeft"":26,""ArrowUp,ArrowRight"":10,""ArrowDown,ArrowLeft"":5,""ArrowDown,ArrowRight"":17}",10,,17.66,2,rest,ArrowRight,,,,Adolescents,4
637,408,7982,revaluation,[456.19999998807907],False,./assets/img/canyon/animals/lion.jpg,canyon,26.0,,True,Control,2.0,"{""ArrowUp,ArrowLeft"":26,""ArrowUp,ArrowRight"":10,""ArrowDown,ArrowLeft"":5,""ArrowDown,ArrowRight"":17}",11,,17.66,2,rest,ArrowLeft,,,,Adolescents,6
638,410,7982,revaluation,[1604.699999988079],False,./assets/img/canyon/animals/giraffe.jpg,canyon,5.0,,False,Control,2.0,"{""ArrowUp,ArrowLeft"":26,""ArrowUp,ArrowRight"":10,""ArrowDown,ArrowLeft"":5,""ArrowDown,ArrowRight"":17}",12,,17.66,2,rest,ArrowLeft,,,,Adolescents,5
639,412,7982,revaluation,[582.9000000059605],False,./assets/img/canyon/animals/giraffe.jpg,canyon,17.0,,True,Control,2.0,"{""ArrowUp,ArrowLeft"":26,""ArrowUp,ArrowRight"":10,""ArrowDown,ArrowLeft"":5,""ArrowDown,ArrowRight"":17}",13,,17.66,2,rest,ArrowRight,,,,Adolescents,6
640,414,7982,revaluation,[518.4000000059605],False,./assets/img/canyon/animals/lion.jpg,canyon,26.0,,True,Control,2.0,"{""ArrowUp,ArrowLeft"":26,""ArrowUp,ArrowRight"":10,""ArrowDown,ArrowLeft"":5,""ArrowDown,ArrowRight"":17}",14,,17.66,2,rest,ArrowLeft,,,,Adolescents,7
641,416,7982,revaluation,[1117.9000000059605],False,./assets/img/canyon/animals/giraffe.jpg,canyon,17.0,,True,Control,2.0,"{""ArrowUp,ArrowLeft"":26,""ArrowUp,ArrowRight"":10,""ArrowDown,ArrowLeft"":5,""ArrowDown,ArrowRight"":17}",15,,17.66,2,rest,ArrowRight,,,,Adolescents,7
642,418,7982,revaluation,[580.5999999940395],False,./assets/img/canyon/animals/giraffe.jpg,canyon,17.0,,True,Control,2.0,"{""ArrowUp,ArrowLeft"":26,""ArrowUp,ArrowRight"":10,""ArrowDown,ArrowLeft"":5,""ArrowDown,ArrowRight"":17}",16,,17.66,2,rest,ArrowRight,,,,Adolescents,8
643,420,7982,revaluation,[593],False,./assets/img/canyon/animals/lion.jpg,canyon,26.0,,True,Control,2.0,"{""ArrowUp,ArrowLeft"":26,""ArrowUp,ArrowRight"":10,""ArrowDown,ArrowLeft"":5,""ArrowDown,ArrowRight"":17}",17,,17.66,2,rest,ArrowLeft,,,,Adolescents,8
794,215,7969,revaluation,[1069.7999999988824],False,./assets/img/canyon/animals/giraffe.jpg,canyon,27.0,,True,Revaluation,1.0,"{""ArrowUp,ArrowLeft"":27,""ArrowUp,ArrowRight"":15,""ArrowDown,ArrowLeft"":21,""ArrowDown,ArrowRight"":7}",0,,14.2,6,rest,ArrowLeft,,,,Adolescents,0
795,217,7969,revaluation,[499.5],False,./assets/img/canyon/animals/giraffe.jpg,canyon,27.0,,True,Revaluation,1.0,"{""ArrowUp,ArrowLeft"":27,""ArrowUp,ArrowRight"":15,""ArrowDown,ArrowLeft"":21,""ArrowDown,ArrowRight"":7}",1,,14.2,6,rest,ArrowLeft,,,,Adolescents,1
796,219,7969,revaluation,[715.9000000003725],False,./assets/img/canyon/animals/giraffe.jpg,canyon,27.0,,True,Revaluation,1.0,"{""ArrowUp,ArrowLeft"":27,""ArrowUp,ArrowRight"":15,""ArrowDown,ArrowLeft"":21,""ArrowDown,ArrowRight"":7}",2,,14.2,6,rest,ArrowLeft,,,,Adolescents,2
797,221,7969,revaluation,[705.1999999992549],False,./assets/img/canyon/animals/giraffe.jpg,canyon,27.0,,True,Revaluation,1.0,"{""ArrowUp,ArrowLeft"":27,""ArrowUp,ArrowRight"":15,""ArrowDown,ArrowLeft"":21,""ArrowDown,ArrowRight"":7}",3,,14.2,6,rest,ArrowLeft,,,,Adolescents,3
798,223,7969,revaluation,[661.2999999988824],False,./assets/img/canyon/animals/lion.jpg,canyon,7.0,,False,Revaluation,1.0,"{""ArrowUp,ArrowLeft"":27,""ArrowUp,ArrowRight"":15,""ArrowDown,ArrowLeft"":21,""ArrowDown,ArrowRight"":7}",4,,14.2,6,rest,ArrowRight,,,,Adolescents,0
799,225,7969,revaluation,[467.09999999962747],False,./assets/img/canyon/animals/lion.jpg,canyon,21.0,,True,Revaluation,1.0,"{""ArrowUp,ArrowLeft"":27,""ArrowUp,ArrowRight"":15,""ArrowDown,ArrowLeft"":21,""ArrowDown,ArrowRight"":7}",5,,14.2,6,rest,ArrowLeft,,,,Adolescents,1
800,227,7969,revaluation,[1109.4000000003725],False,./assets/img/canyon/animals/giraffe.jpg,canyon,27.0,,True,Revaluation,1.0,"{""ArrowUp,ArrowLeft"":27,""ArrowUp,ArrowRight"":15,""ArrowDown,ArrowLeft"":21,""ArrowDown,ArrowRight"":7}",6,,14.2,6,rest,ArrowLeft,,,,Adolescents,4
801,229,7969,revaluation,[855.2999999988824],False,./assets/img/canyon/animals/giraffe.jpg,canyon,27.0,,True,Revaluation,1.0,"{""ArrowUp,ArrowLeft"":27,""ArrowUp,ArrowRight"":15,""ArrowDown,ArrowLeft"":21,""ArrowDown,ArrowRight"":7}",7,,14.2,6,rest,ArrowLeft,,,,Adolescents,5
802,231,7969,revaluation,[664],False,./assets/img/canyon/animals/giraffe.jpg,canyon,27.0,,True,Revaluation,1.0,"{""ArrowUp,ArrowLeft"":27,""ArrowUp,ArrowRight"":15,""ArrowDown,ArrowLeft"":21,""ArrowDown,ArrowRight"":7}",8,,14.2,6,rest,ArrowLeft,,,,Adolescents,6
803,233,7969,revaluation,[1351.0999999996275],False,./assets/img/canyon/animals/lion.jpg,canyon,21.0,,True,Revaluation,1.0,"{""ArrowUp,ArrowLeft"":27,""ArrowUp,ArrowRight"":15,""ArrowDown,ArrowLeft"":21,""ArrowDown,ArrowRight"":7}",9,,14.2,6,rest,ArrowLeft,,,,Adolescents,2
804,235,7969,revaluation,[962.2999999988824],False,./assets/img/canyon/animals/lion.jpg,canyon,7.0,,False,Revaluation,1.0,"{""ArrowUp,ArrowLeft"":27,""ArrowUp,ArrowRight"":15,""ArrowDown,ArrowLeft"":21,""ArrowDown,ArrowRight"":7}",10,,14.2,6,rest,ArrowRight,,,,Adolescents,3
805,237,7969,revaluation,[678.9000000003725],False,./assets/img/canyon/animals/lion.jpg,canyon,21.0,,True,Revaluation,1.0,"{""ArrowUp,ArrowLeft"":27,""ArrowUp,ArrowRight"":15,""ArrowDown,ArrowLeft"":21,""ArrowDown,ArrowRight"":7}",11,,14.2,6,rest,ArrowLeft,,,,Adolescents,4
806,239,7969,revaluation,[794.0999999996275],False,./assets/img/canyon/animals/giraffe.jpg,canyon,27.0,,True,Revaluation,1.0,"{""ArrowUp,ArrowLeft"":27,""ArrowUp,ArrowRight"":15,""ArrowDown,ArrowLeft"":21,""ArrowDown,ArrowRight"":7}",12,,14.2,6,rest,ArrowLeft,,,,Adolescents,7
807,241,7969,revaluation,[516.0999999996275],False,./assets/img/canyon/animals/lion.jpg,canyon,21.0,,True,Revaluation,1.0,"{""ArrowUp,ArrowLeft"":27,""ArrowUp,ArrowRight"":15,""ArrowDown,ArrowLeft"":21,""ArrowDown,ArrowRight"":7}",13,,14.2,6,rest,ArrowLeft,,,,Adolescents,5
808,243,7969,revaluation,[385.80000000074506],False,./assets/img/canyon/animals/lion.jpg,canyon,21.0,,True,Revaluation,1.0,"{""ArrowUp,ArrowLeft"":27,""ArrowUp,ArrowRight"":15,""ArrowDown,ArrowLeft"":21,""ArrowDown,ArrowRight"":7}",14,,14.2,6,rest,ArrowLeft,,,,Adolescents,6
809,245,7969,revaluation,[551],False,./assets/img/canyon/animals/lion.jpg,canyon,21.0,,True,Revaluation,1.0,"{""ArrowUp,ArrowLeft"":27,""ArrowUp,ArrowRight"":15,""ArrowDown,ArrowLeft"":21,""ArrowDown,ArrowRight"":7}",15,,14.2,6,rest,ArrowLeft,,,,Adolescents,7
810,247,7969,revaluation,[1003.5999999996275],False,./assets/img/canyon/animals/lion.jpg,canyon,21.0,,True,Revaluation,1.0,"{""ArrowUp,ArrowLeft"":27,""ArrowUp,ArrowRight"":15,""ArrowDown,ArrowLeft"":21,""ArrowDown,ArrowRight"":7}",16,,14.2,6,rest,ArrowLeft,,,,Adolescents,8
811,249,7969,revaluation,[1246.199999999255],False,./assets/img/canyon/animals/giraffe.jpg,canyon,15.0,,False,Revaluation,1.0,"{""ArrowUp,ArrowLeft"":27,""ArrowUp,ArrowRight"":15,""ArrowDown,ArrowLeft"":21,""ArrowDown,ArrowRight"":7}",17,,14.2,6,rest,ArrowRight,,,,Adolescents,8
874,384,7969,revaluation,[595],False,./assets/img/ocean/animals/seahorse.jpg,ocean,26.0,,True,Control,2.0,"{""ArrowUp,ArrowLeft"":26,""ArrowUp,ArrowRight"":10,""ArrowDown,ArrowLeft"":5,""ArrowDown,ArrowRight"":17}",0,,14.2,6,rest,ArrowLeft,,,,Adolescents,0
875,386,7969,revaluation,[528.3999999985099],False,./assets/img/ocean/animals/octopus.jpg,ocean,17.0,,True,Control,2.0,"{""ArrowUp,ArrowLeft"":26,""ArrowUp,ArrowRight"":10,""ArrowDown,ArrowLeft"":5,""ArrowDown,ArrowRight"":17}",1,,14.2,6,rest,ArrowRight,,,,Adolescents,0
876,388,7969,revaluation,[710.3000000007451],False,./assets/img/ocean/animals/seahorse.jpg,ocean,26.0,,True,Control,2.0,"{""ArrowUp,ArrowLeft"":26,""ArrowUp,ArrowRight"":10,""ArrowDown,ArrowLeft"":5,""ArrowDown,ArrowRight"":17}",2,,14.2,6,rest,ArrowLeft,,,,Adolescents,1
877,390,7969,revaluation,[470.59999999962747],False,./assets/img/ocean/animals/octopus.jpg,ocean,17.0,,True,Control,2.0,"{""ArrowUp,ArrowLeft"":26,""ArrowUp,ArrowRight"":10,""ArrowDown,ArrowLeft"":5,""ArrowDown,ArrowRight"":17}",3,,14.2,6,rest,ArrowRight,,,,Adolescents,1
878,392,7969,revaluation,[1112.699999999255],False,./assets/img/ocean/animals/octopus.jpg,ocean,5.0,,False,Control,2.0,"{""ArrowUp,ArrowLeft"":26,""ArrowUp,ArrowRight"":10,""ArrowDown,ArrowLeft"":5,""ArrowDown,ArrowRight"":17}",4,,14.2,6,rest,ArrowLeft,,,,Adolescents,2
879,394,7969,revaluation,[1144.300000000745],False,./assets/img/ocean/animals/seahorse.jpg,ocean,26.0,,True,Control,2.0,"{""ArrowUp,ArrowLeft"":26,""ArrowUp,ArrowRight"":10,""ArrowDown,ArrowLeft"":5,""ArrowDown,ArrowRight"":17}",5,,14.2,6,rest,ArrowLeft,,,,Adolescents,2
880,396,7969,revaluation,[901.3000000007451],False,./assets/img/ocean/animals/seahorse.jpg,ocean,26.0,,True,Control,2.0,"{""ArrowUp,ArrowLeft"":26,""ArrowUp,ArrowRight"":10,""ArrowDown,ArrowLeft"":5,""ArrowDown,ArrowRight"":17}",6,,14.2,6,rest,ArrowLeft,,,,Adolescents,3
881,398,7969,revaluation,[523.4000000003725],False,./assets/img/ocean/animals/seahorse.jpg,ocean,26.0,,True,Control,2.0,"{""ArrowUp,ArrowLeft"":26,""ArrowUp,ArrowRight"":10,""ArrowDown,ArrowLeft"":5,""ArrowDown,ArrowRight"":17}",7,,14.2,6,rest,ArrowLeft,,,,Adolescents,4
882,400,7969,revaluation,[494.90000000037253],False,./assets/img/ocean/animals/seahorse.jpg,ocean,26.0,,True,Control,2.0,"{""ArrowUp,ArrowLeft"":26,""ArrowUp,ArrowRight"":10,""ArrowDown,ArrowLeft"":5,""ArrowDown,ArrowRight"":17}",8,,14.2,6,rest,ArrowLeft,,,,Adolescents,5
883,402,7969,revaluation,[788.5],False,./assets/img/ocean/animals/octopus.jpg,ocean,17.0,,True,Control,2.0,"{""ArrowUp,ArrowLeft"":26,""ArrowUp,ArrowRight"":10,""ArrowDown,ArrowLeft"":5,""ArrowDown,ArrowRight"":17}",9,,14.2,6,rest,ArrowRight,,,,Adolescents,3
884,404,7969,revaluation,[575.1000000014901],False,./assets/img/ocean/animals/octopus.jpg,ocean,17.0,,True,Control,2.0,"{""ArrowUp,ArrowLeft"":26,""ArrowUp,ArrowRight"":10,""ArrowDown,ArrowLeft"":5,""ArrowDown,ArrowRight"":17}",10,,14.2,6,rest,ArrowRight,,,,Adolescents,4
885,406,7969,revaluation,[791.2999999988824],False,./assets/img/ocean/animals/seahorse.jpg,ocean,26.0,,True,Control,2.0,"{""ArrowUp,ArrowLeft"":26,""ArrowUp,ArrowRight"":10,""ArrowDown,ArrowLeft"":5,""ArrowDown,ArrowRight"":17}",11,,14.2,6,rest,ArrowLeft,,,,Adolescents,6
886,408,7969,revaluation,[924],False,./assets/img/ocean/animals/octopus.jpg,ocean,17.0,,True,Control,2.0,"{""ArrowUp,ArrowLeft"":26,""ArrowUp,ArrowRight"":10,""ArrowDown,ArrowLeft"":5,""ArrowDown,ArrowRight"":17}",12,,14.2,6,rest,ArrowRight,,,,Adolescents,5
887,410,7969,revaluation,[725.7000000011176],False,./assets/img/ocean/animals/octopus.jpg,ocean,17.0,,True,Control,2.0,"{""ArrowUp,ArrowLeft"":26,""ArrowUp,ArrowRight"":10,""ArrowDown,ArrowLeft"":5,""ArrowDown,ArrowRight"":17}",13,,14.2,6,rest,ArrowRight,,,,Adolescents,6
888,412,7969,revaluation,[706.0999999996275],False,./assets/img/ocean/animals/seahorse.jpg,ocean,26.0,,True,Control,2.0,"{""ArrowUp,ArrowLeft"":26,""ArrowUp,ArrowRight"":10,""ArrowDown,ArrowLeft"":5,""ArrowDown,ArrowRight"":17}",14,,14.2,6,rest,ArrowLeft,,,,Adolescents,7
889,414,7969,revaluation,[938.2000000011176],False,./assets/img/ocean/animals/octopus.jpg,ocean,17.0,,True,Control,2.0,"{""ArrowUp,ArrowLeft"":26,""ArrowUp,ArrowRight"":10,""ArrowDown,ArrowLeft"":5,""ArrowDown,ArrowRight"":17}",15,,14.2,6,rest,ArrowRight,,,,Adolescents,7
890,416,7969,revaluation,[579.1999999992549],False,./assets/img/ocean/animals/octopus.jpg,ocean,17.0,,True,Control,2.0,"{""ArrowUp,ArrowLeft"":26,""ArrowUp,ArrowRight"":10,""ArrowDown,ArrowLeft"":5,""ArrowDown,ArrowRight"":17}",16,,14.2,6,rest,ArrowRight,,,,Adolescents,8
891,418,7969,revaluation,[708.5],False,./assets/img/ocean/animals/seahorse.jpg,ocean,26.0,,True,Control,2.0,"{""ArrowUp,ArrowLeft"":26,""ArrowUp,ArrowRight"":10,""ArrowDown,ArrowLeft"":5,""ArrowDown,ArrowRight"":17}",17,,14.2,6,rest,ArrowLeft,,,,Adolescents,8
1042,217,7330,revaluation,[996.0999999046326],False,./assets/img/ocean/animals/seahorse.jpg,ocean,10.0,,False,Control,1.0,"{""ArrowUp,ArrowLeft"":23,""ArrowUp,ArrowRight"":10,""ArrowDown,ArrowLeft"":8,""ArrowDown,ArrowRight"":30}",0,,12.33,3,rest,ArrowRight,,,,Children,0
1043,219,7330,revaluation,[583.4000000953674],False,./assets/img/ocean/animals/octopus.jpg,ocean,30.0,,True,Control,1.0,"{""ArrowUp,ArrowLeft"":23,""ArrowUp,ArrowRight"":10,""ArrowDown,ArrowLeft"":8,""ArrowDown,ArrowRight"":30}",1,,12.33,3,rest,ArrowRight,,,,Children,0
1044,221,7330,revaluation,[918.7000000476837],False,./assets/img/ocean/animals/octopus.jpg,ocean,30.0,,True,Control,1.0,"{""ArrowUp,ArrowLeft"":23,""ArrowUp,ArrowRight"":10,""ArrowDown,ArrowLeft"":8,""ArrowDown,ArrowRight"":30}",2,,12.33,3,rest,ArrowRight,,,,Children,1
1045,223,7330,revaluation,[600.2999999523163],False,./assets/img/ocean/animals/octopus.jpg,ocean,30.0,,True,Control,1.0,"{""ArrowUp,ArrowLeft"":23,""ArrowUp,ArrowRight"":10,""ArrowDown,ArrowLeft"":8,""ArrowDown,ArrowRight"":30}",3,,12.33,3,rest,ArrowRight,,,,Children,2
1046,225,7330,revaluation,[412.59999990463257],False,./assets/img/ocean/animals/seahorse.jpg,ocean,23.0,,True,Control,1.0,"{""ArrowUp,ArrowLeft"":23,""ArrowUp,ArrowRight"":10,""ArrowDown,ArrowLeft"":8,""ArrowDown,ArrowRight"":30}",4,,12.33,3,rest,ArrowLeft,,,,Children,1
1047,227,7330,revaluation,[406.90000009536743],False,./assets/img/ocean/animals/seahorse.jpg,ocean,23.0,,True,Control,1.0,"{""ArrowUp,ArrowLeft"":23,""ArrowUp,ArrowRight"":10,""ArrowDown,ArrowLeft"":8,""ArrowDown,ArrowRight"":30}",5,,12.33,3,rest,ArrowLeft,,,,Children,2
1048,229,7330,revaluation,[1094.5],False,./assets/img/ocean/animals/octopus.jpg,ocean,30.0,,True,Control,1.0,"{""ArrowUp,ArrowLeft"":23,""ArrowUp,ArrowRight"":10,""ArrowDown,ArrowLeft"":8,""ArrowDown,ArrowRight"":30}",6,,12.33,3,rest,ArrowRight,,,,Children,3
1049,231,7330,revaluation,[705.2999999523163],False,./assets/img/ocean/animals/seahorse.jpg,ocean,23.0,,True,Control,1.0,"{""ArrowUp,ArrowLeft"":23,""ArrowUp,ArrowRight"":10,""ArrowDown,ArrowLeft"":8,""ArrowDown,ArrowRight"":30}",7,,12.33,3,rest,ArrowLeft,,,,Children,3
1050,233,7330,revaluation,[680.1000001430511],False,./assets/img/ocean/animals/seahorse.jpg,ocean,23.0,,True,Control,1.0,"{""ArrowUp,ArrowLeft"":23,""ArrowUp,ArrowRight"":10,""ArrowDown,ArrowLeft"":8,""ArrowDown,ArrowRight"":30}",8,,12.33,3,rest,ArrowLeft,,,,Children,4
1051,235,7330,revaluation,[700],False,./assets/img/ocean/animals/seahorse.jpg,ocean,23.0,,True,Control,1.0,"{""ArrowUp,ArrowLeft"":23,""ArrowUp,ArrowRight"":10,""ArrowDown,ArrowLeft"":8,""ArrowDown,ArrowRight"":30}",9,,12.33,3,rest,ArrowLeft,,,,Children,5
1052,237,7330,revaluation,[720.7999999523163],False,./assets/img/ocean/animals/octopus.jpg,ocean,30.0,,True,Control,1.0,"{""ArrowUp,ArrowLeft"":23,""ArrowUp,ArrowRight"":10,""ArrowDown,ArrowLeft"":8,""ArrowDown,ArrowRight"":30}",10,,12.33,3,rest,ArrowRight,,,,Children,4
1053,239,7330,revaluation,[397.10000014305115],False,./assets/img/ocean/animals/octopus.jpg,ocean,8.0,,False,Control,1.0,"{""ArrowUp,ArrowLeft"":23,""ArrowUp,ArrowRight"":10,""ArrowDown,ArrowLeft"":8,""ArrowDown,ArrowRight"":30}",11,,12.33,3,rest,ArrowLeft,,,,Children,5
1054,241,7330,revaluation,[817.3000001907349],False,./assets/img/ocean/animals/seahorse.jpg,ocean,23.0,,True,Control,1.0,"{""ArrowUp,ArrowLeft"":23,""ArrowUp,ArrowRight"":10,""ArrowDown,ArrowLeft"":8,""ArrowDown,ArrowRight"":30}",12,,12.33,3,rest,ArrowLeft,,,,Children,6
1055,243,7330,revaluation,[461.09999990463257],False,./assets/img/ocean/animals/octopus.jpg,ocean,30.0,,True,Control,1.0,"{""ArrowUp,ArrowLeft"":23,""ArrowUp,ArrowRight"":10,""ArrowDown,ArrowLeft"":8,""ArrowDown,ArrowRight"":30}",13,,12.33,3,rest,ArrowRight,,,,Children,6
1056,245,7330,revaluation,[625.7999999523163],False,./assets/img/ocean/animals/octopus.jpg,ocean,30.0,,True,Control,1.0,"{""ArrowUp,ArrowLeft"":23,""ArrowUp,ArrowRight"":10,""ArrowDown,ArrowLeft"":8,""ArrowDown,ArrowRight"":30}",14,,12.33,3,rest,ArrowRight,,,,Children,7
1057,247,7330,revaluation,[727.3999998569489],False,./assets/img/ocean/animals/octopus.jpg,ocean,30.0,,True,Control,1.0,"{""ArrowUp,ArrowLeft"":23,""ArrowUp,ArrowRight"":10,""ArrowDown,ArrowLeft"":8,""ArrowDown,ArrowRight"":30}",15,,12.33,3,rest,ArrowRight,,,,Children,8
1058,249,7330,revaluation,[1002],False,./assets/img/ocean/animals/seahorse.jpg,ocean,23.0,,True,Control,1.0,"{""ArrowUp,ArrowLeft"":23,""ArrowUp,ArrowRight"":10,""ArrowDown,ArrowLeft"":8,""ArrowDown,ArrowRight"":30}",16,,12.33,3,rest,ArrowLeft,,,,Children,7
1059,251,7330,revaluation,[518.6000001430511],False,./assets/img/ocean/animals/seahorse.jpg,ocean,10.0,,False,Control,1.0,"{""ArrowUp,ArrowLeft"":23,""ArrowUp,ArrowRight"":10,""ArrowDown,ArrowLeft"":8,""ArrowDown,ArrowRight"":30}",17,,12.33,3,rest,ArrowRight,,,,Children,8
1122,386,7330,revaluation,[796],False,./assets/img/canyon/animals/giraffe.jpg,canyon,2.0,,False,Revaluation,2.0,"{""ArrowUp,ArrowLeft"":2,""ArrowUp,ArrowRight"":11,""ArrowDown,ArrowLeft"":8,""ArrowDown,ArrowRight"":27}",0,,12.33,3,rest,ArrowLeft,,,,Children,0
1123,388,7330,revaluation,[1095],False,./assets/img/canyon/animals/lion.jpg,canyon,27.0,,True,Revaluation,2.0,"{""ArrowUp,ArrowLeft"":2,""ArrowUp,ArrowRight"":11,""ArrowDown,ArrowLeft"":8,""ArrowDown,ArrowRight"":27}",1,,12.33,3,rest,ArrowRight,,,,Children,0
1124,390,7330,revaluation,[856.7999999523163],False,./assets/img/canyon/animals/lion.jpg,canyon,27.0,,True,Revaluation,2.0,"{""ArrowUp,ArrowLeft"":2,""ArrowUp,ArrowRight"":11,""ArrowDown,ArrowLeft"":8,""ArrowDown,ArrowRight"":27}",2,,12.33,3,rest,ArrowRight,,,,Children,1
1125,392,7330,revaluation,[852.5999999046326],False,./assets/img/canyon/animals/giraffe.jpg,canyon,11.0,,True,Revaluation,2.0,"{""ArrowUp,ArrowLeft"":2,""ArrowUp,ArrowRight"":11,""ArrowDown,ArrowLeft"":8,""ArrowDown,ArrowRight"":27}",3,,12.33,3,rest,ArrowRight,,,,Children,1
1126,394,7330,revaluation,[529.8999998569489],False,./assets/img/canyon/animals/giraffe.jpg,canyon,2.0,,False,Revaluation,2.0,"{""ArrowUp,ArrowLeft"":2,""ArrowUp,ArrowRight"":11,""ArrowDown,ArrowLeft"":8,""ArrowDown,ArrowRight"":27}",4,,12.33,3,rest,ArrowLeft,,,,Children,2
1127,396,7330,revaluation,[430.5],False,./assets/img/canyon/animals/lion.jpg,canyon,27.0,,True,Revaluation,2.0,"{""ArrowUp,ArrowLeft"":2,""ArrowUp,ArrowRight"":11,""ArrowDown,ArrowLeft"":8,""ArrowDown,ArrowRight"":27}",5,,12.33,3,rest,ArrowRight,,,,Children,2
1128,398,7330,revaluation,[387.90000009536743],False,./assets/img/canyon/animals/giraffe.jpg,canyon,11.0,,True,Revaluation,2.0,"{""ArrowUp,ArrowLeft"":2,""ArrowUp,ArrowRight"":11,""ArrowDown,ArrowLeft"":8,""ArrowDown,ArrowRight"":27}",6,,12.33,3,rest,ArrowRight,,,,Children,3
1129,400,7330,revaluation,[1028.7999999523163],False,./assets/img/canyon/animals/giraffe.jpg,canyon,11.0,,True,Revaluation,2.0,"{""ArrowUp,ArrowLeft"":2,""ArrowUp,ArrowRight"":11,""ArrowDown,ArrowLeft"":8,""ArrowDown,ArrowRight"":27}",7,,12.33,3,rest,ArrowRight,,,,Children,4
1130,402,7330,revaluation,[568.7999999523163],False,./assets/img/canyon/animals/giraffe.jpg,canyon,11.0,,True,Revaluation,2.0,"{""ArrowUp,ArrowLeft"":2,""ArrowUp,ArrowRight"":11,""ArrowDown,ArrowLeft"":8,""ArrowDown,ArrowRight"":27}",8,,12.33,3,rest,ArrowRight,,,,Children,5
1131,404,7330,revaluation,[676.2000000476837],False,./assets/img/canyon/animals/giraffe.jpg,canyon,11.0,,True,Revaluation,2.0,"{""ArrowUp,ArrowLeft"":2,""ArrowUp,ArrowRight"":11,""ArrowDown,ArrowLeft"":8,""ArrowDown,ArrowRight"":27}",9,,12.33,3,rest,ArrowRight,,,,Children,6
1132,406,7330,revaluation,[904.5],False,./assets/img/canyon/animals/lion.jpg,canyon,8.0,,False,Revaluation,2.0,"{""ArrowUp,ArrowLeft"":2,""ArrowUp,ArrowRight"":11,""ArrowDown,ArrowLeft"":8,""ArrowDown,ArrowRight"":27}",10,,12.33,3,rest,ArrowLeft,,,,Children,3
1133,408,7330,revaluation,[853.0999999046326],False,./assets/img/canyon/animals/lion.jpg,canyon,27.0,,True,Revaluation,2.0,"{""ArrowUp,ArrowLeft"":2,""ArrowUp,ArrowRight"":11,""ArrowDown,ArrowLeft"":8,""ArrowDown,ArrowRight"":27}",11,,12.33,3,rest,ArrowRight,,,,Children,4
1134,410,7330,revaluation,[457.5],False,./assets/img/canyon/animals/lion.jpg,canyon,27.0,,True,Revaluation,2.0,"{""ArrowUp,ArrowLeft"":2,""ArrowUp,ArrowRight"":11,""ArrowDown,ArrowLeft"":8,""ArrowDown,ArrowRight"":27}",12,,12.33,3,rest,ArrowRight,,,,Children,5
1135,412,7330,revaluation,[1013.2000000476837],False,./assets/img/canyon/animals/lion.jpg,canyon,27.0,,True,Revaluation,2.0,"{""ArrowUp,ArrowLeft"":2,""ArrowUp,ArrowRight"":11,""ArrowDown,ArrowLeft"":8,""ArrowDown,ArrowRight"":27}",13,,12.33,3,rest,ArrowRight,,,,Children,6
1136,414,7330,revaluation,[1168.7000000476837],False,./assets/img/canyon/animals/lion.jpg,canyon,27.0,,True,Revaluation,2.0,"{""ArrowUp,ArrowLeft"":2,""ArrowUp,ArrowRight"":11,""ArrowDown,ArrowLeft"":8,""ArrowDown,ArrowRight"":27}",14,,12.33,3,rest,ArrowRight,,,,Children,7
1137,416,7330,revaluation,[581.1999998092651],False,./assets/img/canyon/animals/giraffe.jpg,canyon,11.0,,True,Revaluation,2.0,"{""ArrowUp,ArrowLeft"":2,""ArrowUp,ArrowRight"":11,""ArrowDown,ArrowLeft"":8,""ArrowDown,ArrowRight"":27}",15,,12.33,3,rest,ArrowRight,,,,Children,7
1138,418,7330,revaluation,[862],False,./assets/img/canyon/animals/giraffe.jpg,canyon,11.0,,True,Revaluation,2.0,"{""ArrowUp,ArrowLeft"":2,""ArrowUp,ArrowRight"":11,""ArrowDown,ArrowLeft"":8,""ArrowDown,ArrowRight"":27}",16,,12.33,3,rest,ArrowRight,,,,Children,8
1139,420,7330,revaluation,[634.6999998092651],False,./assets/img/canyon/animals/lion.jpg,canyon,27.0,,True,Revaluation,2.0,"{""ArrowUp,ArrowLeft"":2,""ArrowUp,ArrowRight"":11,""ArrowDown,ArrowLeft"":8,""ArrowDown,ArrowRight"":27}",17,,12.33,3,rest,ArrowRight,,,,Children,8
1290,215,7472,revaluation,[697.2000000476837],False,./assets/img/ocean/animals/seahorse.jpg,ocean,7.0,,False,Revaluation,1.0,"{""ArrowUp,ArrowLeft"":27,""ArrowUp,ArrowRight"":15,""ArrowDown,ArrowLeft"":21,""ArrowDown,ArrowRight"":7}",0,,20.16,2,rest,ArrowRight,,,,Adults,0
1291,217,7472,revaluation,[503.10000002384186],False,./assets/img/ocean/animals/seahorse.jpg,ocean,21.0,,True,Revaluation,1.0,"{""ArrowUp,ArrowLeft"":27,""ArrowUp,ArrowRight"":15,""ArrowDown,ArrowLeft"":21,""ArrowDown,ArrowRight"":7}",1,,20.16,2,rest,ArrowLeft,,,,Adults,1
1292,219,7472,revaluation,[614.8000000715256],False,./assets/img/ocean/animals/seahorse.jpg,ocean,21.0,,True,Revaluation,1.0,"{""ArrowUp,ArrowLeft"":27,""ArrowUp,ArrowRight"":15,""ArrowDown,ArrowLeft"":21,""ArrowDown,ArrowRight"":7}",2,,20.16,2,rest,ArrowLeft,,,,Adults,2
1293,221,7472,revaluation,[1073.5999999046326],False,./assets/img/ocean/animals/octopus.jpg,ocean,27.0,,True,Revaluation,1.0,"{""ArrowUp,ArrowLeft"":27,""ArrowUp,ArrowRight"":15,""ArrowDown,ArrowLeft"":21,""ArrowDown,ArrowRight"":7}",3,,20.16,2,rest,ArrowLeft,,,,Adults,0
1294,223,7472,revaluation,[773.7000000476837],False,./assets/img/ocean/animals/octopus.jpg,ocean,15.0,,False,Revaluation,1.0,"{""ArrowUp,ArrowLeft"":27,""ArrowUp,ArrowRight"":15,""ArrowDown,ArrowLeft"":21,""ArrowDown,ArrowRight"":7}",4,,20.16,2,rest,ArrowRight,,,,Adults,1
1295,225,7472,revaluation,[464],False,./assets/img/ocean/animals/octopus.jpg,ocean,27.0,,True,Revaluation,1.0,"{""ArrowUp,ArrowLeft"":27,""ArrowUp,ArrowRight"":15,""ArrowDown,ArrowLeft"":21,""ArrowDown,ArrowRight"":7}",5,,20.16,2,rest,ArrowLeft,,,,Adults,2
1296,227,7472,revaluation,[375.60000002384186],False,./assets/img/ocean/animals/octopus.jpg,ocean,27.0,,True,Revaluation,1.0,"{""ArrowUp,ArrowLeft"":27,""ArrowUp,ArrowRight"":15,""ArrowDown,ArrowLeft"":21,""ArrowDown,ArrowRight"":7}",6,,20.16,2,rest,ArrowLeft,,,,Adults,3
1297,229,7472,revaluation,[869.9000000953674],False,./assets/img/ocean/animals/seahorse.jpg,ocean,21.0,,True,Revaluation,1.0,"{""ArrowUp,ArrowLeft"":27,""ArrowUp,ArrowRight"":15,""ArrowDown,ArrowLeft"":21,""ArrowDown,ArrowRight"":7}",7,,20.16,2,rest,ArrowLeft,,,,Adults,3
1298,231,7472,revaluation,[465.10000002384186],False,./assets/img/ocean/animals/seahorse.jpg,ocean,21.0,,True,Revaluation,1.0,"{""ArrowUp,ArrowLeft"":27,""ArrowUp,ArrowRight"":15,""ArrowDown,ArrowLeft"":21,""ArrowDown,ArrowRight"":7}",8,,20.16,2,rest,ArrowLeft,,,,Adults,4
1299,233,7472,revaluation,[267.7999999523163],False,./assets/img/ocean/animals/seahorse.jpg,ocean,21.0,,True,Revaluation,1.0,"{""ArrowUp,ArrowLeft"":27,""ArrowUp,ArrowRight"":15,""ArrowDown,ArrowLeft"":21,""ArrowDown,ArrowRight"":7}",9,,20.16,2,rest,ArrowLeft,,,,Adults,5
1300,235,7472,revaluation,[258.5],False,./assets/img/ocean/animals/seahorse.jpg,ocean,21.0,,True,Revaluation,1.0,"{""ArrowUp,ArrowLeft"":27,""ArrowUp,ArrowRight"":15,""ArrowDown,ArrowLeft"":21,""ArrowDown,ArrowRight"":7}",10,,20.16,2,rest,ArrowLeft,,,,Adults,6
1301,237,7472,revaluation,[67.40000009536743],False,./assets/img/ocean/animals/octopus.jpg,ocean,27.0,,True,Revaluation,1.0,"{""ArrowUp,ArrowLeft"":27,""ArrowUp,ArrowRight"":15,""ArrowDown,ArrowLeft"":21,""ArrowDown,ArrowRight"":7}",11,,20.16,2,rest,ArrowLeft,,,,Adults,4
1302,239,7472,revaluation,[209.5],False,./assets/img/ocean/animals/seahorse.jpg,ocean,21.0,,True,Revaluation,1.0,"{""ArrowUp,ArrowLeft"":27,""ArrowUp,ArrowRight"":15,""ArrowDown,ArrowLeft"":21,""ArrowDown,ArrowRight"":7}",12,,20.16,2,rest,ArrowLeft,,,,Adults,7
1303,241,7472,revaluation,[262.2000000476837],False,./assets/img/ocean/animals/octopus.jpg,ocean,27.0,,True,Revaluation,1.0,"{""ArrowUp,ArrowLeft"":27,""ArrowUp,ArrowRight"":15,""ArrowDown,ArrowLeft"":21,""ArrowDown,ArrowRight"":7}",13,,20.16,2,rest,ArrowLeft,,,,Adults,5
1304,243,7472,revaluation,[6.5],False,./assets/img/ocean/animals/octopus.jpg,ocean,27.0,,True,Revaluation,1.0,"{""ArrowUp,ArrowLeft"":27,""ArrowUp,ArrowRight"":15,""ArrowDown,ArrowLeft"":21,""ArrowDown,ArrowRight"":7}",14,,20.16,2,rest,ArrowLeft,,,,Adults,6
1305,245,7472,revaluation,[90.39999997615814],False,./assets/img/ocean/animals/octopus.jpg,ocean,27.0,,True,Revaluation,1.0,"{""ArrowUp,ArrowLeft"":27,""ArrowUp,ArrowRight"":15,""ArrowDown,ArrowLeft"":21,""ArrowDown,ArrowRight"":7}",15,,20.16,2,rest,ArrowLeft,,,,Adults,7
1306,247,7472,revaluation,[306.6999999284744],False,./assets/img/ocean/animals/seahorse.jpg,ocean,21.0,,True,Revaluation,1.0,"{""ArrowUp,ArrowLeft"":27,""ArrowUp,ArrowRight"":15,""ArrowDown,ArrowLeft"":21,""ArrowDown,ArrowRight"":7}",16,,20.16,2,rest,ArrowLeft,,,,Adults,8
1307,249,7472,revaluation,[239.5],False,./assets/img/ocean/animals/octopus.jpg,ocean,27.0,,True,Revaluation,1.0,"{""ArrowUp,ArrowLeft"":27,""ArrowUp,ArrowRight"":15,""ArrowDown,ArrowLeft"":21,""ArrowDown,ArrowRight"":7}",17,,20.16,2,rest,ArrowLeft,,,,Adults,8
1370,384,7472,revaluation,[930.2999999523163],False,./assets/img/canyon/animals/lion.jpg,canyon,26.0,,True,Control,2.0,"{""ArrowUp,ArrowLeft"":26,""ArrowUp,ArrowRight"":10,""ArrowDown,ArrowLeft"":5,""ArrowDown,ArrowRight"":17}",0,,20.16,2,rest,ArrowLeft,,,,Adults,0
1371,386,7472,revaluation,[999.2999999523163],False,./assets/img/canyon/animals/giraffe.jpg,canyon,17.0,,True,Control,2.0,"{""ArrowUp,ArrowLeft"":26,""ArrowUp,ArrowRight"":10,""ArrowDown,ArrowLeft"":5,""ArrowDown,ArrowRight"":17}",1,,20.16,2,rest,ArrowRight,,,,Adults,0
1372,388,7472,revaluation,[884.1999999284744],False,./assets/img/canyon/animals/giraffe.jpg,canyon,5.0,,False,Control,2.0,"{""ArrowUp,ArrowLeft"":26,""ArrowUp,ArrowRight"":10,""ArrowDown,ArrowLeft"":5,""ArrowDown,ArrowRight"":17}",2,,20.16,2,rest,ArrowLeft,,,,Adults,1
1373,390,7472,revaluation,[401.2999999523163],False,./assets/img/canyon/animals/lion.jpg,canyon,26.0,,True,Control,2.0,"{""ArrowUp,ArrowLeft"":26,""ArrowUp,ArrowRight"":10,""ArrowDown,ArrowLeft"":5,""ArrowDown,ArrowRight"":17}",3,,20.16,2,rest,ArrowLeft,,,,Adults,1
1374,392,7472,revaluation,[629],False,./assets/img/canyon/animals/lion.jpg,canyon,26.0,,True,Control,2.0,"{""ArrowUp,ArrowLeft"":26,""ArrowUp,ArrowRight"":10,""ArrowDown,ArrowLeft"":5,""ArrowDown,ArrowRight"":17}",4,,20.16,2,rest,ArrowLeft,,,,Adults,2
1375,394,7472,revaluation,[660.1999999284744],False,./assets/img/canyon/animals/lion.jpg,canyon,26.0,,True,Control,2.0,"{""ArrowUp,ArrowLeft"":26,""ArrowUp,ArrowRight"":10,""ArrowDown,ArrowLeft"":5,""ArrowDown,ArrowRight"":17}",5,,20.16,2,rest,ArrowLeft,,,,Adults,3
1376,396,7472,revaluation,[1054],False,./assets/img/canyon/animals/giraffe.jpg,canyon,17.0,,True,Control,2.0,"{""ArrowUp,ArrowLeft"":26,""ArrowUp,ArrowRight"":10,""ArrowDown,ArrowLeft"":5,""ArrowDown,ArrowRight"":17}",6,,20.16,2,rest,ArrowRight,,,,Adults,2
1377,398,7472,revaluation,[616.8000000715256],False,./assets/img/canyon/animals/giraffe.jpg,canyon,17.0,,True,Control,2.0,"{""ArrowUp,ArrowLeft"":26,""ArrowUp,ArrowRight"":10,""ArrowDown,ArrowLeft"":5,""ArrowDown,ArrowRight"":17}",7,,20.16,2,rest,ArrowRight,,,,Adults,3
1378,400,7472,revaluation,[830.7999999523163],False,./assets/img/canyon/animals/giraffe.jpg,canyon,17.0,,True,Control,2.0,"{""ArrowUp,ArrowLeft"":26,""ArrowUp,ArrowRight"":10,""ArrowDown,ArrowLeft"":5,""ArrowDown,ArrowRight"":17}",8,,20.16,2,rest,ArrowRight,,,,Adults,4
1379,402,7472,revaluation,[484.10000002384186],False,./assets/img/canyon/animals/giraffe.jpg,canyon,17.0,,True,Control,2.0,"{""ArrowUp,ArrowLeft"":26,""ArrowUp,ArrowRight"":10,""ArrowDown,ArrowLeft"":5,""ArrowDown,ArrowRight"":17}",9,,20.16,2,rest,ArrowRight,,,,Adults,5
1380,404,7472,revaluation,[620.5999999046326],False,./assets/img/canyon/animals/lion.jpg,canyon,10.0,,False,Control,2.0,"{""ArrowUp,ArrowLeft"":26,""ArrowUp,ArrowRight"":10,""ArrowDown,ArrowLeft"":5,""ArrowDown,ArrowRight"":17}",10,,20.16,2,rest,ArrowRight,,,,Adults,4
1381,406,7472,revaluation,[364.5],False,./assets/img/canyon/animals/lion.jpg,canyon,26.0,,True,Control,2.0,"{""ArrowUp,ArrowLeft"":26,""ArrowUp,ArrowRight"":10,""ArrowDown,ArrowLeft"":5,""ArrowDown,ArrowRight"":17}",11,,20.16,2,rest,ArrowLeft,,,,Adults,5
1382,408,7472,revaluation,[1069.7000000476837],False,./assets/img/canyon/animals/giraffe.jpg,canyon,17.0,,True,Control,2.0,"{""ArrowUp,ArrowLeft"":26,""ArrowUp,ArrowRight"":10,""ArrowDown,ArrowLeft"":5,""ArrowDown,ArrowRight"":17}",12,,20.16,2,rest,ArrowRight,,,,Adults,6
1383,410,7472,revaluation,[692.5999999046326],False,./assets/img/canyon/animals/giraffe.jpg,canyon,17.0,,True,Control,2.0,"{""ArrowUp,ArrowLeft"":26,""ArrowUp,ArrowRight"":10,""ArrowDown,ArrowLeft"":5,""ArrowDown,ArrowRight"":17}",13,,20.16,2,rest,ArrowRight,,,,Adults,7
1384,412,7472,revaluation,[888.2999999523163],False,./assets/img/canyon/animals/lion.jpg,canyon,26.0,,True,Control,2.0,"{""ArrowUp,ArrowLeft"":26,""ArrowUp,ArrowRight"":10,""ArrowDown,ArrowLeft"":5,""ArrowDown,ArrowRight"":17}",14,,20.16,2,rest,ArrowLeft,,,,Adults,6
1385,414,7472,revaluation,[412.10000002384186],False,./assets/img/canyon/animals/lion.jpg,canyon,26.0,,True,Control,2.0,"{""ArrowUp,ArrowLeft"":26,""ArrowUp,ArrowRight"":10,""ArrowDown,ArrowLeft"":5,""ArrowDown,ArrowRight"":17}",15,,20.16,2,rest,ArrowLeft,,,,Adults,7
1386,416,7472,revaluation,[435.10000002384186],False,./assets/img/canyon/animals/lion.jpg,canyon,26.0,,True,Control,2.0,"{""ArrowUp,ArrowLeft"":26,""ArrowUp,ArrowRight"":10,""ArrowDown,ArrowLeft"":5,""ArrowDown,ArrowRight"":17}",16,,20.16,2,rest,ArrowLeft,,,,Adults,8
1387,418,7472,revaluation,[699.1999999284744],False,./assets/img/canyon/animals/giraffe.jpg,canyon,17.0,,True,Control,2.0,"{""ArrowUp,ArrowLeft"":26,""ArrowUp,ArrowRight"":10,""ArrowDown,ArrowLeft"":5,""ArrowDown,ArrowRight"":17}",17,,20.16,2,rest,ArrowRight,,,,Adults,8
1538,217,7419,revaluation,[932.5],False,./assets/img/canyon/animals/giraffe.jpg,canyon,2.0,,False,Revaluation,1.0,"{""ArrowUp,ArrowLeft"":2,""ArrowUp,ArrowRight"":11,""ArrowDown,ArrowLeft"":8,""ArrowDown,ArrowRight"":27}",0,,17.68,8,rest,ArrowLeft,,,,Adolescents,0
1539,219,7419,revaluation,[1137.9000000953674],False,./assets/img/canyon/animals/lion.jpg,canyon,8.0,,False,Revaluation,1.0,"{""ArrowUp,ArrowLeft"":2,""ArrowUp,ArrowRight"":11,""ArrowDown,ArrowLeft"":8,""ArrowDown,ArrowRight"":27}",1,,17.68,8,rest,ArrowLeft,,,,Adolescents,0
1540,221,7419,revaluation,[375.7000000476837],False,./assets/img/canyon/animals/giraffe.jpg,canyon,11.0,,True,Revaluation,1.0,"{""ArrowUp,ArrowLeft"":2,""ArrowUp,ArrowRight"":11,""ArrowDown,ArrowLeft"":8,""ArrowDown,ArrowRight"":27}",2,,17.68,8,rest,ArrowRight,,,,Adolescents,1
1541,223,7419,revaluation,[356],False,./assets/img/canyon/animals/lion.jpg,canyon,27.0,,True,Revaluation,1.0,"{""ArrowUp,ArrowLeft"":2,""ArrowUp,ArrowRight"":11,""ArrowDown,ArrowLeft"":8,""ArrowDown,ArrowRight"":27}",3,,17.68,8,rest,ArrowRight,,,,Adolescents,1
1542,225,7419,revaluation,[469.40000009536743],False,./assets/img/canyon/animals/giraffe.jpg,canyon,11.0,,True,Revaluation,1.0,"{""ArrowUp,ArrowLeft"":2,""ArrowUp,ArrowRight"":11,""ArrowDown,ArrowLeft"":8,""ArrowDown,ArrowRight"":27}",4,,17.68,8,rest,ArrowRight,,,,Adolescents,2
1543,227,7419,revaluation,[311.09999990463257],False,./assets/img/canyon/animals/lion.jpg,canyon,27.0,,True,Revaluation,1.0,"{""ArrowUp,ArrowLeft"":2,""ArrowUp,ArrowRight"":11,""ArrowDown,ArrowLeft"":8,""ArrowDown,ArrowRight"":27}",5,,17.68,8,rest,ArrowRight,,,,Adolescents,2
1544,229,7419,revaluation,[333.39999985694885],False,./assets/img/canyon/animals/giraffe.jpg,canyon,11.0,,True,Revaluation,1.0,"{""ArrowUp,ArrowLeft"":2,""ArrowUp,ArrowRight"":11,""ArrowDown,ArrowLeft"":8,""ArrowDown,ArrowRight"":27}",6,,17.68,8,rest,ArrowRight,,,,Adolescents,3
1545,231,7419,revaluation,[319],False,./assets/img/canyon/animals/lion.jpg,canyon,27.0,,True,Revaluation,1.0,"{""ArrowUp,ArrowLeft"":2,""ArrowUp,ArrowRight"":11,""ArrowDown,ArrowLeft"":8,""ArrowDown,ArrowRight"":27}",7,,17.68,8,rest,ArrowRight,,,,Adolescents,3
1546,233,7419,revaluation,[373.39999985694885],False,./assets/img/canyon/animals/lion.jpg,canyon,27.0,,True,Revaluation,1.0,"{""ArrowUp,ArrowLeft"":2,""ArrowUp,ArrowRight"":11,""ArrowDown,ArrowLeft"":8,""ArrowDown,ArrowRight"":27}",8,,17.68,8,rest,ArrowRight,,,,Adolescents,4
1547,235,7419,revaluation,[347.39999985694885],False,./assets/img/canyon/animals/giraffe.jpg,canyon,11.0,,True,Revaluation,1.0,"{""ArrowUp,ArrowLeft"":2,""ArrowUp,ArrowRight"":11,""ArrowDown,ArrowLeft"":8,""ArrowDown,ArrowRight"":27}",9,,17.68,8,rest,ArrowRight,,,,Adolescents,4
1548,237,7419,revaluation,[427.2000000476837],False,./assets/img/canyon/animals/giraffe.jpg,canyon,11.0,,True,Revaluation,1.0,"{""ArrowUp,ArrowLeft"":2,""ArrowUp,ArrowRight"":11,""ArrowDown,ArrowLeft"":8,""ArrowDown,ArrowRight"":27}",10,,17.68,8,rest,ArrowRight,,,,Adolescents,5
1549,239,7419,revaluation,[331.59999990463257],False,./assets/img/canyon/animals/lion.jpg,canyon,27.0,,True,Revaluation,1.0,"{""ArrowUp,ArrowLeft"":2,""ArrowUp,ArrowRight"":11,""ArrowDown,ArrowLeft"":8,""ArrowDown,ArrowRight"":27}",11,,17.68,8,rest,ArrowRight,,,,Adolescents,5
1550,241,7419,revaluation,[317.5],False,./assets/img/canyon/animals/lion.jpg,canyon,27.0,,True,Revaluation,1.0,"{""ArrowUp,ArrowLeft"":2,""ArrowUp,ArrowRight"":11,""ArrowDown,ArrowLeft"":8,""ArrowDown,ArrowRight"":27}",12,,17.68,8,rest,ArrowRight,,,,Adolescents,6
1551,243,7419,revaluation,[361.90000009536743],False,./assets/img/canyon/animals/giraffe.jpg,canyon,11.0,,True,Revaluation,1.0,"{""ArrowUp,ArrowLeft"":2,""ArrowUp,ArrowRight"":11,""ArrowDown,ArrowLeft"":8,""ArrowDown,ArrowRight"":27}",13,,17.68,8,rest,ArrowRight,,,,Adolescents,6
1552,245,7419,revaluation,[133.39999985694885],False,./assets/img/canyon/animals/giraffe.jpg,canyon,11.0,,True,Revaluation,1.0,"{""ArrowUp,ArrowLeft"":2,""ArrowUp,ArrowRight"":11,""ArrowDown,ArrowLeft"":8,""ArrowDown,ArrowRight"":27}",14,,17.68,8,rest,ArrowRight,,,,Adolescents,7
1553,247,7419,revaluation,[33.59999990463257],False,./assets/img/canyon/animals/lion.jpg,canyon,27.0,,True,Revaluation,1.0,"{""ArrowUp,ArrowLeft"":2,""ArrowUp,ArrowRight"":11,""ArrowDown,ArrowLeft"":8,""ArrowDown,ArrowRight"":27}",15,,17.68,8,rest,ArrowRight,,,,Adolescents,7
1554,249,7419,revaluation,[9],False,./assets/img/canyon/animals/lion.jpg,canyon,27.0,,True,Revaluation,1.0,"{""ArrowUp,ArrowLeft"":2,""ArrowUp,ArrowRight"":11,""ArrowDown,ArrowLeft"":8,""ArrowDown,ArrowRight"":27}",16,,17.68,8,rest,ArrowRight,,,,Adolescents,8
1555,251,7419,revaluation,[9.700000047683716],False,./assets/img/canyon/animals/giraffe.jpg,canyon,11.0,,True,Revaluation,1.0,"{""ArrowUp,ArrowLeft"":2,""ArrowUp,ArrowRight"":11,""ArrowDown,ArrowLeft"":8,""ArrowDown,ArrowRight"":27}",17,,17.68,8,rest,ArrowRight,,,,Adolescents,8
1618,386,7419,revaluation,[958.2999999523163],False,./assets/img/ocean/animals/octopus.jpg,ocean,30.0,,True,Control,2.0,"{""ArrowUp,ArrowLeft"":23,""ArrowUp,ArrowRight"":10,""ArrowDown,ArrowLeft"":8,""ArrowDown,ArrowRight"":30}",0,,17.68,8,rest,ArrowRight,,,,Adolescents,0
1620,390,7419,revaluation,[815.2000000476837],False,./assets/img/ocean/animals/seahorse.jpg,ocean,23.0,,True,Control,2.0,"{""ArrowUp,ArrowLeft"":23,""ArrowUp,ArrowRight"":10,""ArrowDown,ArrowLeft"":8,""ArrowDown,ArrowRight"":30}",2,,17.68,8,rest,ArrowLeft,,,,Adolescents,1
1621,392,7419,revaluation,[473.59999990463257],False,./assets/img/ocean/animals/seahorse.jpg,ocean,10.0,,False,Control,2.0,"{""ArrowUp,ArrowLeft"":23,""ArrowUp,ArrowRight"":10,""ArrowDown,ArrowLeft"":8,""ArrowDown,ArrowRight"":30}",3,,17.68,8,rest,ArrowRight,,,,Adolescents,2
1622,394,7419,revaluation,[668.5],False,./assets/img/ocean/animals/seahorse.jpg,ocean,23.0,,True,Control,2.0,"{""ArrowUp,ArrowLeft"":23,""ArrowUp,ArrowRight"":10,""ArrowDown,ArrowLeft"":8,""ArrowDown,ArrowRight"":30}",4,,17.68,8,rest,ArrowLeft,,,,Adolescents,3
1623,396,7419,revaluation,[631.4000000953674],False,./assets/img/ocean/animals/octopus.jpg,ocean,30.0,,True,Control,2.0,"{""ArrowUp,ArrowLeft"":23,""ArrowUp,ArrowRight"":10,""ArrowDown,ArrowLeft"":8,""ArrowDown,ArrowRight"":30}",5,,17.68,8,rest,ArrowRight,,,,Adolescents,1
1624,398,7419,revaluation,[522.8000001907349],False,./assets/img/ocean/animals/octopus.jpg,ocean,30.0,,True,Control,2.0,"{""ArrowUp,ArrowLeft"":23,""ArrowUp,ArrowRight"":10,""ArrowDown,ArrowLeft"":8,""ArrowDown,ArrowRight"":30}",6,,17.68,8,rest,ArrowRight,,,,Adolescents,2
1625,400,7419,revaluation,[491.5],False,./assets/img/ocean/animals/seahorse.jpg,ocean,23.0,,True,Control,2.0,"{""ArrowUp,ArrowLeft"":23,""ArrowUp,ArrowRight"":10,""ArrowDown,ArrowLeft"":8,""ArrowDown,ArrowRight"":30}",7,,17.68,8,rest,ArrowLeft,,,,Adolescents,4
1626,402,7419,revaluation,[350.2999999523163],False,./assets/img/ocean/animals/octopus.jpg,ocean,30.0,,True,Control,2.0,"{""ArrowUp,ArrowLeft"":23,""ArrowUp,ArrowRight"":10,""ArrowDown,ArrowLeft"":8,""ArrowDown,ArrowRight"":30}",8,,17.68,8,rest,ArrowRight,,,,Adolescents,3
1627,404,7419,revaluation,[751.2000000476837],False,./assets/img/ocean/animals/octopus.jpg,ocean,30.0,,True,Control,2.0,"{""ArrowUp,ArrowLeft"":23,""ArrowUp,ArrowRight"":10,""ArrowDown,ArrowLeft"":8,""ArrowDown,ArrowRight"":30}",9,,17.68,8,rest,ArrowRight,,,,Adolescents,4
1628,406,7419,revaluation,[537.5],False,./assets/img/ocean/animals/octopus.jpg,ocean,30.0,,True,Control,2.0,"{""ArrowUp,ArrowLeft"":23,""ArrowUp,ArrowRight"":10,""ArrowDown,ArrowLeft"":8,""ArrowDown,ArrowRight"":30}",10,,17.68,8,rest,ArrowRight,,,,Adolescents,5
1629,408,7419,revaluation,[778.1000001430511],False,./assets/img/ocean/animals/seahorse.jpg,ocean,23.0,,True,Control,2.0,"{""ArrowUp,ArrowLeft"":23,""ArrowUp,ArrowRight"":10,""ArrowDown,ArrowLeft"":8,""ArrowDown,ArrowRight"":30}",11,,17.68,8,rest,ArrowLeft,,,,Adolescents,5
1630,410,7419,revaluation,[658],False,./assets/img/ocean/animals/seahorse.jpg,ocean,23.0,,True,Control,2.0,"{""ArrowUp,ArrowLeft"":23,""ArrowUp,ArrowRight"":10,""ArrowDown,ArrowLeft"":8,""ArrowDown,ArrowRight"":30}",12,,17.68,8,rest,ArrowLeft,,,,Adolescents,6
1631,412,7419,revaluation,[614],False,./assets/img/ocean/animals/octopus.jpg,ocean,30.0,,True,Control,2.0,"{""ArrowUp,ArrowLeft"":23,""ArrowUp,ArrowRight"":10,""ArrowDown,ArrowLeft"":8,""ArrowDown,ArrowRight"":30}",13,,17.68,8,rest,ArrowRight,,,,Adolescents,6
1632,414,7419,revaluation,[622.8999998569489],False,./assets/img/ocean/animals/seahorse.jpg,ocean,23.0,,True,Control,2.0,"{""ArrowUp,ArrowLeft"":23,""ArrowUp,ArrowRight"":10,""ArrowDown,ArrowLeft"":8,""ArrowDown,ArrowRight"":30}",14,,17.68,8,rest,ArrowLeft,,,,Adolescents,7
1633,416,7419,revaluation,[488],False,./assets/img/ocean/animals/octopus.jpg,ocean,30.0,,True,Control,2.0,"{""ArrowUp,ArrowLeft"":23,""ArrowUp,ArrowRight"":10,""ArrowDown,ArrowLeft"":8,""ArrowDown,ArrowRight"":30}",15,,17.68,8,rest,ArrowRight,,,,Adolescents,7
1634,418,7419,revaluation,[644.2999999523163],False,./assets/img/ocean/animals/octopus.jpg,ocean,30.0,,True,Control,2.0,"{""ArrowUp,ArrowLeft"":23,""ArrowUp,ArrowRight"":10,""ArrowDown,ArrowLeft"":8,""ArrowDown,ArrowRight"":30}",16,,17.68,8,rest,ArrowRight,,,,Adolescents,8
1635,420,7419,revaluation,[599.9000000953674],False,./assets/img/ocean/animals/seahorse.jpg,ocean,23.0,,True,Control,2.0,"{""ArrowUp,ArrowLeft"":23,""ArrowUp,ArrowRight"":10,""ArrowDown,ArrowLeft"":8,""ArrowDown,ArrowRight"":30}",17,,17.68,8,rest,ArrowLeft,,,,Adolescents,8
1786,217,7444,revaluation,[1066],False,./assets/img/ocean/animals/octopus.jpg,ocean,7.0,,False,Revaluation,1.0,"{""ArrowUp,ArrowLeft"":27,""ArrowUp,ArrowRight"":15,""ArrowDown,ArrowLeft"":21,""ArrowDown,ArrowRight"":7}",0,,19.87,2,rest,ArrowRight,,,,Adults,0
1787,219,7444,revaluation,[699],False,./assets/img/ocean/animals/seahorse.jpg,ocean,15.0,,False,Revaluation,1.0,"{""ArrowUp,ArrowLeft"":27,""ArrowUp,ArrowRight"":15,""ArrowDown,ArrowLeft"":21,""ArrowDown,ArrowRight"":7}",1,,19.87,2,rest,ArrowRight,,,,Adults,0
1788,221,7444,revaluation,[571],False,./assets/img/ocean/animals/seahorse.jpg,ocean,27.0,,True,Revaluation,1.0,"{""ArrowUp,ArrowLeft"":27,""ArrowUp,ArrowRight"":15,""ArrowDown,ArrowLeft"":21,""ArrowDown,ArrowRight"":7}",2,,19.87,2,rest,ArrowLeft,,,,Adults,1
1789,223,7444,revaluation,[370],False,./assets/img/ocean/animals/seahorse.jpg,ocean,27.0,,True,Revaluation,1.0,"{""ArrowUp,ArrowLeft"":27,""ArrowUp,ArrowRight"":15,""ArrowDown,ArrowLeft"":21,""ArrowDown,ArrowRight"":7}",3,,19.87,2,rest,ArrowLeft,,,,Adults,2
1790,225,7444,revaluation,[477],False,./assets/img/ocean/animals/octopus.jpg,ocean,21.0,,True,Revaluation,1.0,"{""ArrowUp,ArrowLeft"":27,""ArrowUp,ArrowRight"":15,""ArrowDown,ArrowLeft"":21,""ArrowDown,ArrowRight"":7}",4,,19.87,2,rest,ArrowLeft,,,,Adults,1
1791,227,7444,revaluation,[289],False,./assets/img/ocean/animals/seahorse.jpg,ocean,27.0,,True,Revaluation,1.0,"{""ArrowUp,ArrowLeft"":27,""ArrowUp,ArrowRight"":15,""ArrowDown,ArrowLeft"":21,""ArrowDown,ArrowRight"":7}",5,,19.87,2,rest,ArrowLeft,,,,Adults,3
1792,229,7444,revaluation,[235],False,./assets/img/ocean/animals/seahorse.jpg,ocean,27.0,,True,Revaluation,1.0,"{""ArrowUp,ArrowLeft"":27,""ArrowUp,ArrowRight"":15,""ArrowDown,ArrowLeft"":21,""ArrowDown,ArrowRight"":7}",6,,19.87,2,rest,ArrowLeft,,,,Adults,4
1793,231,7444,revaluation,[295],False,./assets/img/ocean/animals/seahorse.jpg,ocean,27.0,,True,Revaluation,1.0,"{""ArrowUp,ArrowLeft"":27,""ArrowUp,ArrowRight"":15,""ArrowDown,ArrowLeft"":21,""ArrowDown,ArrowRight"":7}",7,,19.87,2,rest,ArrowLeft,,,,Adults,5
1794,233,7444,revaluation,[315],False,./assets/img/ocean/animals/octopus.jpg,ocean,21.0,,True,Revaluation,1.0,"{""ArrowUp,ArrowLeft"":27,""ArrowUp,ArrowRight"":15,""ArrowDown,ArrowLeft"":21,""ArrowDown,ArrowRight"":7}",8,,19.87,2,rest,ArrowLeft,,,,Adults,2
1795,235,7444,revaluation,[306],False,./assets/img/ocean/animals/octopus.jpg,ocean,21.0,,True,Revaluation,1.0,"{""ArrowUp,ArrowLeft"":27,""ArrowUp,ArrowRight"":15,""ArrowDown,ArrowLeft"":21,""ArrowDown,ArrowRight"":7}",9,,19.87,2,rest,ArrowLeft,,,,Adults,3
1796,237,7444,revaluation,[307],False,./assets/img/ocean/animals/octopus.jpg,ocean,21.0,,True,Revaluation,1.0,"{""ArrowUp,ArrowLeft"":27,""ArrowUp,ArrowRight"":15,""ArrowDown,ArrowLeft"":21,""ArrowDown,ArrowRight"":7}",10,,19.87,2,rest,ArrowLeft,,,,Adults,4
1797,239,7444,revaluation,[316],False,./assets/img/ocean/animals/seahorse.jpg,ocean,27.0,,True,Revaluation,1.0,"{""ArrowUp,ArrowLeft"":27,""ArrowUp,ArrowRight"":15,""ArrowDown,ArrowLeft"":21,""ArrowDown,ArrowRight"":7}",11,,19.87,2,rest,ArrowLeft,,,,Adults,6
1798,241,7444,revaluation,[309],False,./assets/img/ocean/animals/octopus.jpg,ocean,21.0,,True,Revaluation,1.0,"{""ArrowUp,ArrowLeft"":27,""ArrowUp,ArrowRight"":15,""ArrowDown,ArrowLeft"":21,""ArrowDown,ArrowRight"":7}",12,,19.87,2,rest,ArrowLeft,,,,Adults,5
1799,243,7444,revaluation,[327],False,./assets/img/ocean/animals/octopus.jpg,ocean,21.0,,True,Revaluation,1.0,"{""ArrowUp,ArrowLeft"":27,""ArrowUp,ArrowRight"":15,""ArrowDown,ArrowLeft"":21,""ArrowDown,ArrowRight"":7}",13,,19.87,2,rest,ArrowLeft,,,,Adults,6
1800,245,7444,revaluation,[305],False,./assets/img/ocean/animals/seahorse.jpg,ocean,27.0,,True,Revaluation,1.0,"{""ArrowUp,ArrowLeft"":27,""ArrowUp,ArrowRight"":15,""ArrowDown,ArrowLeft"":21,""ArrowDown,ArrowRight"":7}",14,,19.87,2,rest,ArrowLeft,,,,Adults,7
1801,247,7444,revaluation,[301],False,./assets/img/ocean/animals/octopus.jpg,ocean,21.0,,True,Revaluation,1.0,"{""ArrowUp,ArrowLeft"":27,""ArrowUp,ArrowRight"":15,""ArrowDown,ArrowLeft"":21,""ArrowDown,ArrowRight"":7}",15,,19.87,2,rest,ArrowLeft,,,,Adults,7
1802,249,7444,revaluation,[329],False,./assets/img/ocean/animals/seahorse.jpg,ocean,27.0,,True,Revaluation,1.0,"{""ArrowUp,ArrowLeft"":27,""ArrowUp,ArrowRight"":15,""ArrowDown,ArrowLeft"":21,""ArrowDown,ArrowRight"":7}",16,,19.87,2,rest,ArrowLeft,,,,Adults,8
1803,251,7444,revaluation,[327],False,./assets/img/ocean/animals/octopus.jpg,ocean,21.0,,True,Revaluation,1.0,"{""ArrowUp,ArrowLeft"":27,""ArrowUp,ArrowRight"":15,""ArrowDown,ArrowLeft"":21,""ArrowDown,ArrowRight"":7}",17,,19.87,2,rest,ArrowLeft,,,,Adults,8
1866,386,7444,revaluation,[780],False,./assets/img/canyon/animals/giraffe.jpg,canyon,26.0,,True,Control,2.0,"{""ArrowUp,ArrowLeft"":26,""ArrowUp,ArrowRight"":10,""ArrowDown,ArrowLeft"":5,""ArrowDown,ArrowRight"":17}",0,,19.87,2,rest,ArrowLeft,,,,Adults,0
1867,388,7444,revaluation,[486],False,./assets/img/canyon/animals/lion.jpg,canyon,17.0,,True,Control,2.0,"{""ArrowUp,ArrowLeft"":26,""ArrowUp,ArrowRight"":10,""ArrowDown,ArrowLeft"":5,""ArrowDown,ArrowRight"":17}",1,,19.87,2,rest,ArrowRight,,,,Adults,0
1868,390,7444,revaluation,[400],False,./assets/img/canyon/animals/lion.jpg,canyon,5.0,,False,Control,2.0,"{""ArrowUp,ArrowLeft"":26,""ArrowUp,ArrowRight"":10,""ArrowDown,ArrowLeft"":5,""ArrowDown,ArrowRight"":17}",2,,19.87,2,rest,ArrowLeft,,,,Adults,1
1869,392,7444,revaluation,[542],False,./assets/img/canyon/animals/giraffe.jpg,canyon,26.0,,True,Control,2.0,"{""ArrowUp,ArrowLeft"":26,""ArrowUp,ArrowRight"":10,""ArrowDown,ArrowLeft"":5,""ArrowDown,ArrowRight"":17}",3,,19.87,2,rest,ArrowLeft,,,,Adults,1
1870,394,7444,revaluation,[1042],False,./assets/img/canyon/animals/giraffe.jpg,canyon,26.0,,True,Control,2.0,"{""ArrowUp,ArrowLeft"":26,""ArrowUp,ArrowRight"":10,""ArrowDown,ArrowLeft"":5,""ArrowDown,ArrowRight"":17}",4,,19.87,2,rest,ArrowLeft,,,,Adults,2
1871,396,7444,revaluation,[534],False,./assets/img/canyon/animals/lion.jpg,canyon,17.0,,True,Control,2.0,"{""ArrowUp,ArrowLeft"":26,""ArrowUp,ArrowRight"":10,""ArrowDown,ArrowLeft"":5,""ArrowDown,ArrowRight"":17}",5,,19.87,2,rest,ArrowRight,,,,Adults,2
1872,398,7444,revaluation,[466],False,./assets/img/canyon/animals/lion.jpg,canyon,17.0,,True,Control,2.0,"{""ArrowUp,ArrowLeft"":26,""ArrowUp,ArrowRight"":10,""ArrowDown,ArrowLeft"":5,""ArrowDown,ArrowRight"":17}",6,,19.87,2,rest,ArrowRight,,,,Adults,3
1873,400,7444,revaluation,[537],False,./assets/img/canyon/animals/giraffe.jpg,canyon,26.0,,True,Control,2.0,"{""ArrowUp,ArrowLeft"":26,""ArrowUp,ArrowRight"":10,""ArrowDown,ArrowLeft"":5,""ArrowDown,ArrowRight"":17}",7,,19.87,2,rest,ArrowLeft,,,,Adults,3
1874,402,7444,revaluation,[508],False,./assets/img/canyon/animals/lion.jpg,canyon,17.0,,True,Control,2.0,"{""ArrowUp,ArrowLeft"":26,""ArrowUp,ArrowRight"":10,""ArrowDown,ArrowLeft"":5,""ArrowDown,ArrowRight"":17}",8,,19.87,2,rest,ArrowRight,,,,Adults,4
1875,404,7444,revaluation,[409],False,./assets/img/canyon/animals/lion.jpg,canyon,17.0,,True,Control,2.0,"{""ArrowUp,ArrowLeft"":26,""ArrowUp,ArrowRight"":10,""ArrowDown,ArrowLeft"":5,""ArrowDown,ArrowRight"":17}",9,,19.87,2,rest,ArrowRight,,,,Adults,5
1876,406,7444,revaluation,[633],False,./assets/img/canyon/animals/lion.jpg,canyon,17.0,,True,Control,2.0,"{""ArrowUp,ArrowLeft"":26,""ArrowUp,ArrowRight"":10,""ArrowDown,ArrowLeft"":5,""ArrowDown,ArrowRight"":17}",10,,19.87,2,rest,ArrowRight,,,,Adults,6
1877,408,7444,revaluation,[523],False,./assets/img/canyon/animals/giraffe.jpg,canyon,26.0,,True,Control,2.0,"{""ArrowUp,ArrowLeft"":26,""ArrowUp,ArrowRight"":10,""ArrowDown,ArrowLeft"":5,""ArrowDown,ArrowRight"":17}",11,,19.87,2,rest,ArrowLeft,,,,Adults,4
1878,410,7444,revaluation,[841],False,./assets/img/canyon/animals/lion.jpg,canyon,17.0,,True,Control,2.0,"{""ArrowUp,ArrowLeft"":26,""ArrowUp,ArrowRight"":10,""ArrowDown,ArrowLeft"":5,""ArrowDown,ArrowRight"":17}",12,,19.87,2,rest,ArrowRight,,,,Adults,7
1879,412,7444,revaluation,[611],False,./assets/img/canyon/animals/giraffe.jpg,canyon,26.0,,True,Control,2.0,"{""ArrowUp,ArrowLeft"":26,""ArrowUp,ArrowRight"":10,""ArrowDown,ArrowLeft"":5,""ArrowDown,ArrowRight"":17}",13,,19.87,2,rest,ArrowLeft,,,,Adults,5
1880,414,7444,revaluation,[799],False,./assets/img/canyon/animals/giraffe.jpg,canyon,26.0,,True,Control,2.0,"{""ArrowUp,ArrowLeft"":26,""ArrowUp,ArrowRight"":10,""ArrowDown,ArrowLeft"":5,""ArrowDown,ArrowRight"":17}",14,,19.87,2,rest,ArrowLeft,,,,Adults,6
1881,416,7444,revaluation,[570],False,./assets/img/canyon/animals/giraffe.jpg,canyon,26.0,,True,Control,2.0,"{""ArrowUp,ArrowLeft"":26,""ArrowUp,ArrowRight"":10,""ArrowDown,ArrowLeft"":5,""ArrowDown,ArrowRight"":17}",15,,19.87,2,rest,ArrowLeft,,,,Adults,7
1882,418,7444,revaluation,[671],False,./assets/img/canyon/animals/lion.jpg,canyon,17.0,,True,Control,2.0,"{""ArrowUp,ArrowLeft"":26,""ArrowUp,ArrowRight"":10,""ArrowDown,ArrowLeft"":5,""ArrowDown,ArrowRight"":17}",16,,19.87,2,rest,ArrowRight,,,,Adults,8
1883,420,7444,revaluation,[680],False,./assets/img/canyon/animals/giraffe.jpg,canyon,26.0,,True,Control,2.0,"{""ArrowUp,ArrowLeft"":26,""ArrowUp,ArrowRight"":10,""ArrowDown,ArrowLeft"":5,""ArrowDown,ArrowRight"":17}",17,,19.87,2,rest,ArrowLeft,,,,Adults,8
2034,215,7345,revaluation,[887.5999999046326],False,./assets/img/ocean/animals/seahorse.jpg,ocean,27.0,,True,Revaluation,1.0,"{""ArrowUp,ArrowLeft"":2,""ArrowUp,ArrowRight"":11,""ArrowDown,ArrowLeft"":8,""ArrowDown,ArrowRight"":27}",0,,13.33,4,rest,ArrowRight,,,,Adolescents,0
2035,217,7345,revaluation,[483],False,./assets/img/ocean/animals/octopus.jpg,ocean,2.0,,False,Revaluation,1.0,"{""ArrowUp,ArrowLeft"":2,""ArrowUp,ArrowRight"":11,""ArrowDown,ArrowLeft"":8,""ArrowDown,ArrowRight"":27}",1,,13.33,4,rest,ArrowLeft,,,,Adolescents,0
2036,219,7345,revaluation,[677.2000000476837],False,./assets/img/ocean/animals/seahorse.jpg,ocean,27.0,,True,Revaluation,1.0,"{""ArrowUp,ArrowLeft"":2,""ArrowUp,ArrowRight"":11,""ArrowDown,ArrowLeft"":8,""ArrowDown,ArrowRight"":27}",2,,13.33,4,rest,ArrowRight,,,,Adolescents,1
2037,221,7345,revaluation,[755.9000000953674],False,./assets/img/ocean/animals/seahorse.jpg,ocean,27.0,,True,Revaluation,1.0,"{""ArrowUp,ArrowLeft"":2,""ArrowUp,ArrowRight"":11,""ArrowDown,ArrowLeft"":8,""ArrowDown,ArrowRight"":27}",3,,13.33,4,rest,ArrowRight,,,,Adolescents,2
2038,223,7345,revaluation,[557.5999999046326],False,./assets/img/ocean/animals/octopus.jpg,ocean,11.0,,True,Revaluation,1.0,"{""ArrowUp,ArrowLeft"":2,""ArrowUp,ArrowRight"":11,""ArrowDown,ArrowLeft"":8,""ArrowDown,ArrowRight"":27}",4,,13.33,4,rest,ArrowRight,,,,Adolescents,1
2039,225,7345,revaluation,[479.5],False,./assets/img/ocean/animals/seahorse.jpg,ocean,27.0,,True,Revaluation,1.0,"{""ArrowUp,ArrowLeft"":2,""ArrowUp,ArrowRight"":11,""ArrowDown,ArrowLeft"":8,""ArrowDown,ArrowRight"":27}",5,,13.33,4,rest,ArrowRight,,,,Adolescents,3
2040,227,7345,revaluation,[495.2999999523163],False,./assets/img/ocean/animals/seahorse.jpg,ocean,27.0,,True,Revaluation,1.0,"{""ArrowUp,ArrowLeft"":2,""ArrowUp,ArrowRight"":11,""ArrowDown,ArrowLeft"":8,""ArrowDown,ArrowRight"":27}",6,,13.33,4,rest,ArrowRight,,,,Adolescents,4
2041,229,7345,revaluation,[731],False,./assets/img/ocean/animals/octopus.jpg,ocean,2.0,,False,Revaluation,1.0,"{""ArrowUp,ArrowLeft"":2,""ArrowUp,ArrowRight"":11,""ArrowDown,ArrowLeft"":8,""ArrowDown,ArrowRight"":27}",7,,13.33,4,rest,ArrowLeft,,,,Adolescents,2
2042,231,7345,revaluation,[446.90000009536743],False,./assets/img/ocean/animals/octopus.jpg,ocean,11.0,,True,Revaluation,1.0,"{""ArrowUp,ArrowLeft"":2,""ArrowUp,ArrowRight"":11,""ArrowDown,ArrowLeft"":8,""ArrowDown,ArrowRight"":27}",8,,13.33,4,rest,ArrowRight,,,,Adolescents,3
2043,233,7345,revaluation,[473.60000014305115],False,./assets/img/ocean/animals/seahorse.jpg,ocean,8.0,,False,Revaluation,1.0,"{""ArrowUp,ArrowLeft"":2,""ArrowUp,ArrowRight"":11,""ArrowDown,ArrowLeft"":8,""ArrowDown,ArrowRight"":27}",9,,13.33,4,rest,ArrowLeft,,,,Adolescents,5
2044,235,7345,revaluation,[868.2999999523163],False,./assets/img/ocean/animals/octopus.jpg,ocean,11.0,,True,Revaluation,1.0,"{""ArrowUp,ArrowLeft"":2,""ArrowUp,ArrowRight"":11,""ArrowDown,ArrowLeft"":8,""ArrowDown,ArrowRight"":27}",10,,13.33,4,rest,ArrowRight,,,,Adolescents,4
2045,237,7345,revaluation,[439.7999999523163],False,./assets/img/ocean/animals/seahorse.jpg,ocean,27.0,,True,Revaluation,1.0,"{""ArrowUp,ArrowLeft"":2,""ArrowUp,ArrowRight"":11,""ArrowDown,ArrowLeft"":8,""ArrowDown,ArrowRight"":27}",11,,13.33,4,rest,ArrowRight,,,,Adolescents,6
2046,239,7345,revaluation,[459.90000009536743],False,./assets/img/ocean/animals/octopus.jpg,ocean,11.0,,True,Revaluation,1.0,"{""ArrowUp,ArrowLeft"":2,""ArrowUp,ArrowRight"":11,""ArrowDown,ArrowLeft"":8,""ArrowDown,ArrowRight"":27}",12,,13.33,4,rest,ArrowRight,,,,Adolescents,5
2047,241,7345,revaluation,[456.90000009536743],False,./assets/img/ocean/animals/seahorse.jpg,ocean,27.0,,True,Revaluation,1.0,"{""ArrowUp,ArrowLeft"":2,""ArrowUp,ArrowRight"":11,""ArrowDown,ArrowLeft"":8,""ArrowDown,ArrowRight"":27}",13,,13.33,4,rest,ArrowRight,,,,Adolescents,7
2048,243,7345,revaluation,[441.5],False,./assets/img/ocean/animals/octopus.jpg,ocean,11.0,,True,Revaluation,1.0,"{""ArrowUp,ArrowLeft"":2,""ArrowUp,ArrowRight"":11,""ArrowDown,ArrowLeft"":8,""ArrowDown,ArrowRight"":27}",14,,13.33,4,rest,ArrowRight,,,,Adolescents,6
2049,245,7345,revaluation,[454.90000009536743],False,./assets/img/ocean/animals/seahorse.jpg,ocean,27.0,,True,Revaluation,1.0,"{""ArrowUp,ArrowLeft"":2,""ArrowUp,ArrowRight"":11,""ArrowDown,ArrowLeft"":8,""ArrowDown,ArrowRight"":27}",15,,13.33,4,rest,ArrowRight,,,,Adolescents,8
2050,247,7345,revaluation,[526.4000000953674],False,./assets/img/ocean/animals/octopus.jpg,ocean,11.0,,True,Revaluation,1.0,"{""ArrowUp,ArrowLeft"":2,""ArrowUp,ArrowRight"":11,""ArrowDown,ArrowLeft"":8,""ArrowDown,ArrowRight"":27}",16,,13.33,4,rest,ArrowRight,,,,Adolescents,7
2051,249,7345,revaluation,[449.59999990463257],False,./assets/img/ocean/animals/octopus.jpg,ocean,11.0,,True,Revaluation,1.0,"{""ArrowUp,ArrowLeft"":2,""ArrowUp,ArrowRight"":11,""ArrowDown,ArrowLeft"":8,""ArrowDown,ArrowRight"":27}",17,,13.33,4,rest,ArrowRight,,,,Adolescents,8
2114,384,7345,revaluation,[879.5],False,./assets/img/canyon/animals/lion.jpg,canyon,30.0,,True,Control,2.0,"{""ArrowUp,ArrowLeft"":23,""ArrowUp,ArrowRight"":10,""ArrowDown,ArrowLeft"":8,""ArrowDown,ArrowRight"":30}",0,,13.33,4,rest,ArrowRight,,,,Adolescents,0
2115,386,7345,revaluation,[542.5999999046326],False,./assets/img/canyon/animals/lion.jpg,canyon,30.0,,True,Control,2.0,"{""ArrowUp,ArrowLeft"":23,""ArrowUp,ArrowRight"":10,""ArrowDown,ArrowLeft"":8,""ArrowDown,ArrowRight"":30}",1,,13.33,4,rest,ArrowRight,,,,Adolescents,1
2116,388,7345,revaluation,[768.7000000476837],False,./assets/img/canyon/animals/giraffe.jpg,canyon,23.0,,True,Control,2.0,"{""ArrowUp,ArrowLeft"":23,""ArrowUp,ArrowRight"":10,""ArrowDown,ArrowLeft"":8,""ArrowDown,ArrowRight"":30}",2,,13.33,4,rest,ArrowLeft,,,,Adolescents,0
2117,390,7345,revaluation,[520.2999999523163],False,./assets/img/canyon/animals/giraffe.jpg,canyon,23.0,,True,Control,2.0,"{""ArrowUp,ArrowLeft"":23,""ArrowUp,ArrowRight"":10,""ArrowDown,ArrowLeft"":8,""ArrowDown,ArrowRight"":30}",3,,13.33,4,rest,ArrowLeft,,,,Adolescents,1
2118,392,7345,revaluation,[569.5],False,./assets/img/canyon/animals/lion.jpg,canyon,30.0,,True,Control,2.0,"{""ArrowUp,ArrowLeft"":23,""ArrowUp,ArrowRight"":10,""ArrowDown,ArrowLeft"":8,""ArrowDown,ArrowRight"":30}",4,,13.33,4,rest,ArrowRight,,,,Adolescents,2
2119,394,7345,revaluation,[477.90000009536743],False,./assets/img/canyon/animals/giraffe.jpg,canyon,10.0,,False,Control,2.0,"{""ArrowUp,ArrowLeft"":23,""ArrowUp,ArrowRight"":10,""ArrowDown,ArrowLeft"":8,""ArrowDown,ArrowRight"":30}",5,,13.33,4,rest,ArrowRight,,,,Adolescents,2
2120,396,7345,revaluation,[488.10000014305115],False,./assets/img/canyon/animals/lion.jpg,canyon,30.0,,True,Control,2.0,"{""ArrowUp,ArrowLeft"":23,""ArrowUp,ArrowRight"":10,""ArrowDown,ArrowLeft"":8,""ArrowDown,ArrowRight"":30}",6,,13.33,4,rest,ArrowRight,,,,Adolescents,3
2121,398,7345,revaluation,[490.59999990463257],False,./assets/img/canyon/animals/lion.jpg,canyon,30.0,,True,Control,2.0,"{""ArrowUp,ArrowLeft"":23,""ArrowUp,ArrowRight"":10,""ArrowDown,ArrowLeft"":8,""ArrowDown,ArrowRight"":30}",7,,13.33,4,rest,ArrowRight,,,,Adolescents,4
2122,400,7345,revaluation,[429.7000000476837],False,./assets/img/canyon/animals/giraffe.jpg,canyon,23.0,,True,Control,2.0,"{""ArrowUp,ArrowLeft"":23,""ArrowUp,ArrowRight"":10,""ArrowDown,ArrowLeft"":8,""ArrowDown,ArrowRight"":30}",8,,13.33,4,rest,ArrowLeft,,,,Adolescents,3
2123,402,7345,revaluation,[721.2000000476837],False,./assets/img/canyon/animals/giraffe.jpg,canyon,23.0,,True,Control,2.0,"{""ArrowUp,ArrowLeft"":23,""ArrowUp,ArrowRight"":10,""ArrowDown,ArrowLeft"":8,""ArrowDown,ArrowRight"":30}",9,,13.33,4,rest,ArrowLeft,,,,Adolescents,4
2124,404,7345,revaluation,[565.5],False,./assets/img/canyon/animals/giraffe.jpg,canyon,23.0,,True,Control,2.0,"{""ArrowUp,ArrowLeft"":23,""ArrowUp,ArrowRight"":10,""ArrowDown,ArrowLeft"":8,""ArrowDown,ArrowRight"":30}",10,,13.33,4,rest,ArrowLeft,,,,Adolescents,5
2125,406,7345,revaluation,[438.90000009536743],False,./assets/img/canyon/animals/giraffe.jpg,canyon,23.0,,True,Control,2.0,"{""ArrowUp,ArrowLeft"":23,""ArrowUp,ArrowRight"":10,""ArrowDown,ArrowLeft"":8,""ArrowDown,ArrowRight"":30}",11,,13.33,4,rest,ArrowLeft,,,,Adolescents,6
2126,408,7345,revaluation,[462],False,./assets/img/canyon/animals/lion.jpg,canyon,30.0,,True,Control,2.0,"{""ArrowUp,ArrowLeft"":23,""ArrowUp,ArrowRight"":10,""ArrowDown,ArrowLeft"":8,""ArrowDown,ArrowRight"":30}",12,,13.33,4,rest,ArrowRight,,,,Adolescents,5
2127,410,7345,revaluation,[577],False,./assets/img/canyon/animals/lion.jpg,canyon,30.0,,True,Control,2.0,"{""ArrowUp,ArrowLeft"":23,""ArrowUp,ArrowRight"":10,""ArrowDown,ArrowLeft"":8,""ArrowDown,ArrowRight"":30}",13,,13.33,4,rest,ArrowRight,,,,Adolescents,6
2128,412,7345,revaluation,[420.10000014305115],False,./assets/img/canyon/animals/lion.jpg,canyon,30.0,,True,Control,2.0,"{""ArrowUp,ArrowLeft"":23,""ArrowUp,ArrowRight"":10,""ArrowDown,ArrowLeft"":8,""ArrowDown,ArrowRight"":30}",14,,13.33,4,rest,ArrowRight,,,,Adolescents,7
2129,414,7345,revaluation,[527.7999999523163],False,./assets/img/canyon/animals/giraffe.jpg,canyon,23.0,,True,Control,2.0,"{""ArrowUp,ArrowLeft"":23,""ArrowUp,ArrowRight"":10,""ArrowDown,ArrowLeft"":8,""ArrowDown,ArrowRight"":30}",15,,13.33,4,rest,ArrowLeft,,,,Adolescents,7
2130,416,7345,revaluation,[536],False,./assets/img/canyon/animals/lion.jpg,canyon,30.0,,True,Control,2.0,"{""ArrowUp,ArrowLeft"":23,""ArrowUp,ArrowRight"":10,""ArrowDown,ArrowLeft"":8,""ArrowDown,ArrowRight"":30}",16,,13.33,4,rest,ArrowRight,,,,Adolescents,8
2131,418,7345,revaluation,[829.6000001430511],False,./assets/img/canyon/animals/giraffe.jpg,canyon,23.0,,True,Control,2.0,"{""ArrowUp,ArrowLeft"":23,""ArrowUp,ArrowRight"":10,""ArrowDown,ArrowLeft"":8,""ArrowDown,ArrowRight"":30}",17,,13.33,4,rest,ArrowLeft,,,,Adolescents,8
2282,218,7484,revaluation,[623],False,./assets/img/canyon/animals/lion.jpg,canyon,8.0,,False,Revaluation,1.0,"{""ArrowUp,ArrowLeft"":2,""ArrowUp,ArrowRight"":11,""ArrowDown,ArrowLeft"":8,""ArrowDown,ArrowRight"":27}",0,,21.55,8,rest,ArrowLeft,,,,Adults,0
2283,220,7484,revaluation,[712],False,./assets/img/canyon/animals/lion.jpg,canyon,27.0,,True,Revaluation,1.0,"{""ArrowUp,ArrowLeft"":2,""ArrowUp,ArrowRight"":11,""ArrowDown,ArrowLeft"":8,""ArrowDown,ArrowRight"":27}",1,,21.55,8,rest,ArrowRight,,,,Adults,1
2284,222,7484,revaluation,[550],False,./assets/img/canyon/animals/lion.jpg,canyon,27.0,,True,Revaluation,1.0,"{""ArrowUp,ArrowLeft"":2,""ArrowUp,ArrowRight"":11,""ArrowDown,ArrowLeft"":8,""ArrowDown,ArrowRight"":27}",2,,21.55,8,rest,ArrowRight,,,,Adults,2
2285,224,7484,revaluation,[788.9999999997672],False,./assets/img/canyon/animals/giraffe.jpg,canyon,2.0,,False,Revaluation,1.0,"{""ArrowUp,ArrowLeft"":2,""ArrowUp,ArrowRight"":11,""ArrowDown,ArrowLeft"":8,""ArrowDown,ArrowRight"":27}",3,,21.55,8,rest,ArrowLeft,,,,Adults,0
2286,226,7484,revaluation,[657],False,./assets/img/canyon/animals/lion.jpg,canyon,27.0,,True,Revaluation,1.0,"{""ArrowUp,ArrowLeft"":2,""ArrowUp,ArrowRight"":11,""ArrowDown,ArrowLeft"":8,""ArrowDown,ArrowRight"":27}",4,,21.55,8,rest,ArrowRight,,,,Adults,3
2287,228,7484,revaluation,[729],False,./assets/img/canyon/animals/lion.jpg,canyon,27.0,,True,Revaluation,1.0,"{""ArrowUp,ArrowLeft"":2,""ArrowUp,ArrowRight"":11,""ArrowDown,ArrowLeft"":8,""ArrowDown,ArrowRight"":27}",5,,21.55,8,rest,ArrowRight,,,,Adults,4
2288,230,7484,revaluation,[458],False,./assets/img/canyon/animals/lion.jpg,canyon,27.0,,True,Revaluation,1.0,"{""ArrowUp,ArrowLeft"":2,""ArrowUp,ArrowRight"":11,""ArrowDown,ArrowLeft"":8,""ArrowDown,ArrowRight"":27}",6,,21.55,8,rest,ArrowRight,,,,Adults,5
2289,232,7484,revaluation,[423],False,./assets/img/canyon/animals/lion.jpg,canyon,27.0,,True,Revaluation,1.0,"{""ArrowUp,ArrowLeft"":2,""ArrowUp,ArrowRight"":11,""ArrowDown,ArrowLeft"":8,""ArrowDown,ArrowRight"":27}",7,,21.55,8,rest,ArrowRight,,,,Adults,6
2290,234,7484,revaluation,[480],False,./assets/img/canyon/animals/giraffe.jpg,canyon,11.0,,True,Revaluation,1.0,"{""ArrowUp,ArrowLeft"":2,""ArrowUp,ArrowRight"":11,""ArrowDown,ArrowLeft"":8,""ArrowDown,ArrowRight"":27}",8,,21.55,8,rest,ArrowRight,,,,Adults,1
2291,236,7484,revaluation,[503],False,./assets/img/canyon/animals/giraffe.jpg,canyon,11.0,,True,Revaluation,1.0,"{""ArrowUp,ArrowLeft"":2,""ArrowUp,ArrowRight"":11,""ArrowDown,ArrowLeft"":8,""ArrowDown,ArrowRight"":27}",9,,21.55,8,rest,ArrowRight,,,,Adults,2
2292,238,7484,revaluation,[475],False,./assets/img/canyon/animals/giraffe.jpg,canyon,11.0,,True,Revaluation,1.0,"{""ArrowUp,ArrowLeft"":2,""ArrowUp,ArrowRight"":11,""ArrowDown,ArrowLeft"":8,""ArrowDown,ArrowRight"":27}",10,,21.55,8,rest,ArrowRight,,,,Adults,3
2293,240,7484,revaluation,[508],False,./assets/img/canyon/animals/lion.jpg,canyon,27.0,,True,Revaluation,1.0,"{""ArrowUp,ArrowLeft"":2,""ArrowUp,ArrowRight"":11,""ArrowDown,ArrowLeft"":8,""ArrowDown,ArrowRight"":27}",11,,21.55,8,rest,ArrowRight,,,,Adults,7
2294,242,7484,revaluation,[426],False,./assets/img/canyon/animals/giraffe.jpg,canyon,11.0,,True,Revaluation,1.0,"{""ArrowUp,ArrowLeft"":2,""ArrowUp,ArrowRight"":11,""ArrowDown,ArrowLeft"":8,""ArrowDown,ArrowRight"":27}",12,,21.55,8,rest,ArrowRight,,,,Adults,4
2295,244,7484,revaluation,[447],False,./assets/img/canyon/animals/lion.jpg,canyon,27.0,,True,Revaluation,1.0,"{""ArrowUp,ArrowLeft"":2,""ArrowUp,ArrowRight"":11,""ArrowDown,ArrowLeft"":8,""ArrowDown,ArrowRight"":27}",13,,21.55,8,rest,ArrowRight,,,,Adults,8
2296,246,7484,revaluation,[517],False,./assets/img/canyon/animals/giraffe.jpg,canyon,11.0,,True,Revaluation,1.0,"{""ArrowUp,ArrowLeft"":2,""ArrowUp,ArrowRight"":11,""ArrowDown,ArrowLeft"":8,""ArrowDown,ArrowRight"":27}",14,,21.55,8,rest,ArrowRight,,,,Adults,5
2297,248,7484,revaluation,[871],False,./assets/img/canyon/animals/giraffe.jpg,canyon,11.0,,True,Revaluation,1.0,"{""ArrowUp,ArrowLeft"":2,""ArrowUp,ArrowRight"":11,""ArrowDown,ArrowLeft"":8,""ArrowDown,ArrowRight"":27}",15,,21.55,8,rest,ArrowRight,,,,Adults,6
2298,250,7484,revaluation,[364.00000000023283],False,./assets/img/canyon/animals/giraffe.jpg,canyon,2.0,,False,Revaluation,1.0,"{""ArrowUp,ArrowLeft"":2,""ArrowUp,ArrowRight"":11,""ArrowDown,ArrowLeft"":8,""ArrowDown,ArrowRight"":27}",16,,21.55,8,rest,ArrowLeft,,,,Adults,7
2299,252,7484,revaluation,[836],False,./assets/img/canyon/animals/giraffe.jpg,canyon,11.0,,True,Revaluation,1.0,"{""ArrowUp,ArrowLeft"":2,""ArrowUp,ArrowRight"":11,""ArrowDown,ArrowLeft"":8,""ArrowDown,ArrowRight"":27}",17,,21.55,8,rest,ArrowRight,,,,Adults,8
2362,387,7484,revaluation,[986],False,./assets/img/ocean/animals/seahorse.jpg,ocean,23.0,,True,Control,2.0,"{""ArrowUp,ArrowLeft"":23,""ArrowUp,ArrowRight"":10,""ArrowDown,ArrowLeft"":8,""ArrowDown,ArrowRight"":30}",0,,21.55,8,rest,ArrowLeft,,,,Adults,0
2363,389,7484,revaluation,[638],False,./assets/img/ocean/animals/seahorse.jpg,ocean,23.0,,True,Control,2.0,"{""ArrowUp,ArrowLeft"":23,""ArrowUp,ArrowRight"":10,""ArrowDown,ArrowLeft"":8,""ArrowDown,ArrowRight"":30}",1,,21.55,8,rest,ArrowLeft,,,,Adults,1
2364,391,7484,revaluation,[454],False,./assets/img/ocean/animals/octopus.jpg,ocean,30.0,,True,Control,2.0,"{""ArrowUp,ArrowLeft"":23,""ArrowUp,ArrowRight"":10,""ArrowDown,ArrowLeft"":8,""ArrowDown,ArrowRight"":30}",2,,21.55,8,rest,ArrowRight,,,,Adults,0
2365,393,7484,revaluation,[571.9999999997672],False,./assets/img/ocean/animals/octopus.jpg,ocean,30.0,,True,Control,2.0,"{""ArrowUp,ArrowLeft"":23,""ArrowUp,ArrowRight"":10,""ArrowDown,ArrowLeft"":8,""ArrowDown,ArrowRight"":30}",3,,21.55,8,rest,ArrowRight,,,,Adults,1
2366,395,7484,revaluation,[429],False,./assets/img/ocean/animals/octopus.jpg,ocean,30.0,,True,Control,2.0,"{""ArrowUp,ArrowLeft"":23,""ArrowUp,ArrowRight"":10,""ArrowDown,ArrowLeft"":8,""ArrowDown,ArrowRight"":30}",4,,21.55,8,rest,ArrowRight,,,,Adults,2
2367,397,7484,revaluation,[537.0000000002328],False,./assets/img/ocean/animals/seahorse.jpg,ocean,23.0,,True,Control,2.0,"{""ArrowUp,ArrowLeft"":23,""ArrowUp,ArrowRight"":10,""ArrowDown,ArrowLeft"":8,""ArrowDown,ArrowRight"":30}",5,,21.55,8,rest,ArrowLeft,,,,Adults,2
2368,399,7484,revaluation,[456.99999999976717],False,./assets/img/ocean/animals/seahorse.jpg,ocean,10.0,,False,Control,2.0,"{""ArrowUp,ArrowLeft"":23,""ArrowUp,ArrowRight"":10,""ArrowDown,ArrowLeft"":8,""ArrowDown,ArrowRight"":30}",6,,21.55,8,rest,ArrowRight,,,,Adults,3
2369,401,7484,revaluation,[557],False,./assets/img/ocean/animals/seahorse.jpg,ocean,23.0,,True,Control,2.0,"{""ArrowUp,ArrowLeft"":23,""ArrowUp,ArrowRight"":10,""ArrowDown,ArrowLeft"":8,""ArrowDown,ArrowRight"":30}",7,,21.55,8,rest,ArrowLeft,,,,Adults,4
2370,403,7484,revaluation,[509],False,./assets/img/ocean/animals/octopus.jpg,ocean,30.0,,True,Control,2.0,"{""ArrowUp,ArrowLeft"":23,""ArrowUp,ArrowRight"":10,""ArrowDown,ArrowLeft"":8,""ArrowDown,ArrowRight"":30}",8,,21.55,8,rest,ArrowRight,,,,Adults,3
2371,405,7484,revaluation,[523],False,./assets/img/ocean/animals/octopus.jpg,ocean,30.0,,True,Control,2.0,"{""ArrowUp,ArrowLeft"":23,""ArrowUp,ArrowRight"":10,""ArrowDown,ArrowLeft"":8,""ArrowDown,ArrowRight"":30}",9,,21.55,8,rest,ArrowRight,,,,Adults,4
2372,407,7484,revaluation,[463],False,./assets/img/ocean/animals/seahorse.jpg,ocean,10.0,,False,Control,2.0,"{""ArrowUp,ArrowLeft"":23,""ArrowUp,ArrowRight"":10,""ArrowDown,ArrowLeft"":8,""ArrowDown,ArrowRight"":30}",10,,21.55,8,rest,ArrowRight,,,,Adults,5
2373,409,7484,revaluation,[461],False,./assets/img/ocean/animals/octopus.jpg,ocean,30.0,,True,Control,2.0,"{""ArrowUp,ArrowLeft"":23,""ArrowUp,ArrowRight"":10,""ArrowDown,ArrowLeft"":8,""ArrowDown,ArrowRight"":30}",11,,21.55,8,rest,ArrowRight,,,,Adults,5
2374,411,7484,revaluation,[510],False,./assets/img/ocean/animals/octopus.jpg,ocean,30.0,,True,Control,2.0,"{""ArrowUp,ArrowLeft"":23,""ArrowUp,ArrowRight"":10,""ArrowDown,ArrowLeft"":8,""ArrowDown,ArrowRight"":30}",12,,21.55,8,rest,ArrowRight,,,,Adults,6
2375,413,7484,revaluation,[605],False,./assets/img/ocean/animals/seahorse.jpg,ocean,23.0,,True,Control,2.0,"{""ArrowUp,ArrowLeft"":23,""ArrowUp,ArrowRight"":10,""ArrowDown,ArrowLeft"":8,""ArrowDown,ArrowRight"":30}",13,,21.55,8,rest,ArrowLeft,,,,Adults,6
2376,415,7484,revaluation,[476],False,./assets/img/ocean/animals/octopus.jpg,ocean,30.0,,True,Control,2.0,"{""ArrowUp,ArrowLeft"":23,""ArrowUp,ArrowRight"":10,""ArrowDown,ArrowLeft"":8,""ArrowDown,ArrowRight"":30}",14,,21.55,8,rest,ArrowRight,,,,Adults,7
2377,417,7484,revaluation,[508],False,./assets/img/ocean/animals/seahorse.jpg,ocean,23.0,,True,Control,2.0,"{""ArrowUp,ArrowLeft"":23,""ArrowUp,ArrowRight"":10,""ArrowDown,ArrowLeft"":8,""ArrowDown,ArrowRight"":30}",15,,21.55,8,rest,ArrowLeft,,,,Adults,7
2378,419,7484,revaluation,[611],False,./assets/img/ocean/animals/seahorse.jpg,ocean,23.0,,True,Control,2.0,"{""ArrowUp,ArrowLeft"":23,""ArrowUp,ArrowRight"":10,""ArrowDown,ArrowLeft"":8,""ArrowDown,ArrowRight"":30}",16,,21.55,8,rest,ArrowLeft,,,,Adults,8
2379,421,7484,revaluation,[1612],False,./assets/img/ocean/animals/octopus.jpg,ocean,30.0,,True,Control,2.0,"{""ArrowUp,ArrowLeft"":23,""ArrowUp,ArrowRight"":10,""ArrowDown,ArrowLeft"":8,""ArrowDown,ArrowRight"":30}",17,,21.55,8,rest,ArrowRight,,,,Adults,8
2530,221,7404,revaluation,[1250.2999997138977],False,./assets/img/canyon/animals/lion.jpg,canyon,30.0,,True,Control,1.0,"{""ArrowUp,ArrowLeft"":23,""ArrowUp,ArrowRight"":10,""ArrowDown,ArrowLeft"":8,""ArrowDown,ArrowRight"":30}",0,,16.61,7,rest,ArrowRight,,,,Adolescents,0
2531,223,7404,revaluation,[842.2000002861023],False,./assets/img/canyon/animals/giraffe.jpg,canyon,23.0,,True,Control,1.0,"{""ArrowUp,ArrowLeft"":23,""ArrowUp,ArrowRight"":10,""ArrowDown,ArrowLeft"":8,""ArrowDown,ArrowRight"":30}",1,,16.61,7,rest,ArrowLeft,,,,Adolescents,0
2532,225,7404,revaluation,[783.2999997138977],False,./assets/img/canyon/animals/lion.jpg,canyon,30.0,,True,Control,1.0,"{""ArrowUp,ArrowLeft"":23,""ArrowUp,ArrowRight"":10,""ArrowDown,ArrowLeft"":8,""ArrowDown,ArrowRight"":30}",2,,16.61,7,rest,ArrowRight,,,,Adolescents,1
2533,227,7404,revaluation,[341.40000009536743],False,./assets/img/canyon/animals/lion.jpg,canyon,8.0,,False,Control,1.0,"{""ArrowUp,ArrowLeft"":23,""ArrowUp,ArrowRight"":10,""ArrowDown,ArrowLeft"":8,""ArrowDown,ArrowRight"":30}",3,,16.61,7,rest,ArrowLeft,,,,Adolescents,2
2534,229,7404,revaluation,[786],False,./assets/img/canyon/animals/giraffe.jpg,canyon,23.0,,True,Control,1.0,"{""ArrowUp,ArrowLeft"":23,""ArrowUp,ArrowRight"":10,""ArrowDown,ArrowLeft"":8,""ArrowDown,ArrowRight"":30}",4,,16.61,7,rest,ArrowLeft,,,,Adolescents,1
2535,231,7404,revaluation,[825.5],False,./assets/img/canyon/animals/giraffe.jpg,canyon,23.0,,True,Control,1.0,"{""ArrowUp,ArrowLeft"":23,""ArrowUp,ArrowRight"":10,""ArrowDown,ArrowLeft"":8,""ArrowDown,ArrowRight"":30}",5,,16.61,7,rest,ArrowLeft,,,,Adolescents,2
2536,233,7404,revaluation,[858.9000000953674],False,./assets/img/canyon/animals/lion.jpg,canyon,30.0,,True,Control,1.0,"{""ArrowUp,ArrowLeft"":23,""ArrowUp,ArrowRight"":10,""ArrowDown,ArrowLeft"":8,""ArrowDown,ArrowRight"":30}",6,,16.61,7,rest,ArrowRight,,,,Adolescents,3
2537,235,7404,revaluation,[1161.9000000953674],False,./assets/img/canyon/animals/giraffe.jpg,canyon,23.0,,True,Control,1.0,"{""ArrowUp,ArrowLeft"":23,""ArrowUp,ArrowRight"":10,""ArrowDown,ArrowLeft"":8,""ArrowDown,ArrowRight"":30}",7,,16.61,7,rest,ArrowLeft,,,,Adolescents,3
2538,237,7404,revaluation,[750],False,./assets/img/canyon/animals/giraffe.jpg,canyon,23.0,,True,Control,1.0,"{""ArrowUp,ArrowLeft"":23,""ArrowUp,ArrowRight"":10,""ArrowDown,ArrowLeft"":8,""ArrowDown,ArrowRight"":30}",8,,16.61,7,rest,ArrowLeft,,,,Adolescents,4
2539,239,7404,revaluation,[701.1999998092651],False,./assets/img/canyon/animals/lion.jpg,canyon,30.0,,True,Control,1.0,"{""ArrowUp,ArrowLeft"":23,""ArrowUp,ArrowRight"":10,""ArrowDown,ArrowLeft"":8,""ArrowDown,ArrowRight"":30}",9,,16.61,7,rest,ArrowRight,,,,Adolescents,4
2540,241,7404,revaluation,[869.3000001907349],False,./assets/img/canyon/animals/lion.jpg,canyon,30.0,,True,Control,1.0,"{""ArrowUp,ArrowLeft"":23,""ArrowUp,ArrowRight"":10,""ArrowDown,ArrowLeft"":8,""ArrowDown,ArrowRight"":30}",10,,16.61,7,rest,ArrowRight,,,,Adolescents,5
2541,243,7404,revaluation,[1706.9000000953674],False,./assets/img/canyon/animals/giraffe.jpg,canyon,23.0,,True,Control,1.0,"{""ArrowUp,ArrowLeft"":23,""ArrowUp,ArrowRight"":10,""ArrowDown,ArrowLeft"":8,""ArrowDown,ArrowRight"":30}",11,,16.61,7,rest,ArrowLeft,,,,Adolescents,5
2542,245,7404,revaluation,[1651],False,./assets/img/canyon/animals/lion.jpg,canyon,30.0,,True,Control,1.0,"{""ArrowUp,ArrowLeft"":23,""ArrowUp,ArrowRight"":10,""ArrowDown,ArrowLeft"":8,""ArrowDown,ArrowRight"":30}",12,,16.61,7,rest,ArrowRight,,,,Adolescents,6
2543,247,7404,revaluation,[575.5],False,./assets/img/canyon/animals/lion.jpg,canyon,30.0,,True,Control,1.0,"{""ArrowUp,ArrowLeft"":23,""ArrowUp,ArrowRight"":10,""ArrowDown,ArrowLeft"":8,""ArrowDown,ArrowRight"":30}",13,,16.61,7,rest,ArrowRight,,,,Adolescents,7
2544,249,7404,revaluation,[1256.6999998092651],False,./assets/img/canyon/animals/giraffe.jpg,canyon,23.0,,True,Control,1.0,"{""ArrowUp,ArrowLeft"":23,""ArrowUp,ArrowRight"":10,""ArrowDown,ArrowLeft"":8,""ArrowDown,ArrowRight"":30}",14,,16.61,7,rest,ArrowLeft,,,,Adolescents,6
2545,251,7404,revaluation,[1030.5999999046326],False,./assets/img/canyon/animals/lion.jpg,canyon,30.0,,True,Control,1.0,"{""ArrowUp,ArrowLeft"":23,""ArrowUp,ArrowRight"":10,""ArrowDown,ArrowLeft"":8,""ArrowDown,ArrowRight"":30}",15,,16.61,7,rest,ArrowRight,,,,Adolescents,8
2546,253,7404,revaluation,[680.4000000953674],False,./assets/img/canyon/animals/giraffe.jpg,canyon,23.0,,True,Control,1.0,"{""ArrowUp,ArrowLeft"":23,""ArrowUp,ArrowRight"":10,""ArrowDown,ArrowLeft"":8,""ArrowDown,ArrowRight"":30}",16,,16.61,7,rest,ArrowLeft,,,,Adolescents,7
