,level_0,index,subject_id,task_part,timeout,stimulus,environment,score,isCatch,correct,block_condition,block_order,rewardMap,trial_num,ground_truth,age,gender,subject_condition,rest,rt0,rt1,response0,response1,is_optimal_first,is_optimal_second,optimal_score,categorical_age,trial
50,50,215,7472,revaluation,False,./assets/img/ocean/animals/seahorse.jpg,ocean,7.0,,False,revaluation,1.0,"{""ArrowUp,ArrowLeft"":27,""ArrowUp,ArrowRight"":15,""ArrowDown,ArrowLeft"":21,""ArrowDown,ArrowRight"":7}",0,,20.16,Female,2,rest,697.2000000476837,,ArrowRight,,,,,Adults,0
51,51,217,7472,revaluation,False,./assets/img/ocean/animals/seahorse.jpg,ocean,21.0,,True,revaluation,1.0,"{""ArrowUp,ArrowLeft"":27,""ArrowUp,ArrowRight"":15,""ArrowDown,ArrowLeft"":21,""ArrowDown,ArrowRight"":7}",1,,20.16,Female,2,rest,503.10000002384186,,ArrowLeft,,,,,Adults,1
52,52,219,7472,revaluation,False,./assets/img/ocean/animals/seahorse.jpg,ocean,21.0,,True,revaluation,1.0,"{""ArrowUp,ArrowLeft"":27,""ArrowUp,ArrowRight"":15,""ArrowDown,ArrowLeft"":21,""ArrowDown,ArrowRight"":7}",2,,20.16,Female,2,rest,614.8000000715256,,ArrowLeft,,,,,Adults,2
53,53,221,7472,revaluation,False,./assets/img/ocean/animals/octopus.jpg,ocean,27.0,,True,revaluation,1.0,"{""ArrowUp,ArrowLeft"":27,""ArrowUp,ArrowRight"":15,""ArrowDown,ArrowLeft"":21,""ArrowDown,ArrowRight"":7}",3,,20.16,Female,2,rest,1073.5999999046326,,ArrowLeft,,,,,Adults,0
54,54,223,7472,revaluation,False,./assets/img/ocean/animals/octopus.jpg,ocean,15.0,,False,revaluation,1.0,"{""ArrowUp,ArrowLeft"":27,""ArrowUp,ArrowRight"":15,""ArrowDown,ArrowLeft"":21,""ArrowDown,ArrowRight"":7}",4,,20.16,Female,2,rest,773.7000000476837,,ArrowRight,,,,,Adults,1
55,55,225,7472,revaluation,False,./assets/img/ocean/animals/octopus.jpg,ocean,27.0,,True,revaluation,1.0,"{""ArrowUp,ArrowLeft"":27,""ArrowUp,ArrowRight"":15,""ArrowDown,ArrowLeft"":21,""ArrowDown,ArrowRight"":7}",5,,20.16,Female,2,rest,464.0,,ArrowLeft,,,,,Adults,2
56,56,227,7472,revaluation,False,./assets/img/ocean/animals/octopus.jpg,ocean,27.0,,True,revaluation,1.0,"{""ArrowUp,ArrowLeft"":27,""ArrowUp,ArrowRight"":15,""ArrowDown,ArrowLeft"":21,""ArrowDown,ArrowRight"":7}",6,,20.16,Female,2,rest,375.60000002384186,,ArrowLeft,,,,,Adults,3
57,57,229,7472,revaluation,False,./assets/img/ocean/animals/seahorse.jpg,ocean,21.0,,True,revaluation,1.0,"{""ArrowUp,ArrowLeft"":27,""ArrowUp,ArrowRight"":15,""ArrowDown,ArrowLeft"":21,""ArrowDown,ArrowRight"":7}",7,,20.16,Female,2,rest,869.9000000953674,,ArrowLeft,,,,,Adults,3
58,58,231,7472,revaluation,False,./assets/img/ocean/animals/seahorse.jpg,ocean,21.0,,True,revaluation,1.0,"{""ArrowUp,ArrowLeft"":27,""ArrowUp,ArrowRight"":15,""ArrowDown,ArrowLeft"":21,""ArrowDown,ArrowRight"":7}",8,,20.16,Female,2,rest,465.10000002384186,,ArrowLeft,,,,,Adults,4
59,59,233,7472,revaluation,False,./assets/img/ocean/animals/seahorse.jpg,ocean,21.0,,True,revaluation,1.0,"{""ArrowUp,ArrowLeft"":27,""ArrowUp,ArrowRight"":15,""ArrowDown,ArrowLeft"":21,""ArrowDown,ArrowRight"":7}",9,,20.16,Female,2,rest,267.7999999523163,,ArrowLeft,,,,,Adults,5
60,60,235,7472,revaluation,False,./assets/img/ocean/animals/seahorse.jpg,ocean,21.0,,True,revaluation,1.0,"{""ArrowUp,ArrowLeft"":27,""ArrowUp,ArrowRight"":15,""ArrowDown,ArrowLeft"":21,""ArrowDown,ArrowRight"":7}",10,,20.16,Female,2,rest,258.5,,ArrowLeft,,,,,Adults,6
61,61,237,7472,revaluation,False,./assets/img/ocean/animals/octopus.jpg,ocean,27.0,,True,revaluation,1.0,"{""ArrowUp,ArrowLeft"":27,""ArrowUp,ArrowRight"":15,""ArrowDown,ArrowLeft"":21,""ArrowDown,ArrowRight"":7}",11,,20.16,Female,2,rest,67.40000009536743,,ArrowLeft,,,,,Adults,4
62,62,239,7472,revaluation,False,./assets/img/ocean/animals/seahorse.jpg,ocean,21.0,,True,revaluation,1.0,"{""ArrowUp,ArrowLeft"":27,""ArrowUp,ArrowRight"":15,""ArrowDown,ArrowLeft"":21,""ArrowDown,ArrowRight"":7}",12,,20.16,Female,2,rest,209.5,,ArrowLeft,,,,,Adults,7
63,63,241,7472,revaluation,False,./assets/img/ocean/animals/octopus.jpg,ocean,27.0,,True,revaluation,1.0,"{""ArrowUp,ArrowLeft"":27,""ArrowUp,ArrowRight"":15,""ArrowDown,ArrowLeft"":21,""ArrowDown,ArrowRight"":7}",13,,20.16,Female,2,rest,262.2000000476837,,ArrowLeft,,,,,Adults,5
64,64,243,7472,revaluation,False,./assets/img/ocean/animals/octopus.jpg,ocean,27.0,,True,revaluation,1.0,"{""ArrowUp,ArrowLeft"":27,""ArrowUp,ArrowRight"":15,""ArrowDown,ArrowLeft"":21,""ArrowDown,ArrowRight"":7}",14,,20.16,Female,2,rest,6.5,,ArrowLeft,,,,,Adults,6
65,65,245,7472,revaluation,False,./assets/img/ocean/animals/octopus.jpg,ocean,27.0,,True,revaluation,1.0,"{""ArrowUp,ArrowLeft"":27,""ArrowUp,ArrowRight"":15,""ArrowDown,ArrowLeft"":21,""ArrowDown,ArrowRight"":7}",15,,20.16,Female,2,rest,90.39999997615814,,ArrowLeft,,,,,Adults,7
66,66,247,7472,revaluation,False,./assets/img/ocean/animals/seahorse.jpg,ocean,21.0,,True,revaluation,1.0,"{""ArrowUp,ArrowLeft"":27,""ArrowUp,ArrowRight"":15,""ArrowDown,ArrowLeft"":21,""ArrowDown,ArrowRight"":7}",16,,20.16,Female,2,rest,306.6999999284744,,ArrowLeft,,,,,Adults,8
67,67,249,7472,revaluation,False,./assets/img/ocean/animals/octopus.jpg,ocean,27.0,,True,revaluation,1.0,"{""ArrowUp,ArrowLeft"":27,""ArrowUp,ArrowRight"":15,""ArrowDown,ArrowLeft"":21,""ArrowDown,ArrowRight"":7}",17,,20.16,Female,2,rest,239.5,,ArrowLeft,,,,,Adults,8
130,130,384,7472,revaluation,False,./assets/img/canyon/animals/lion.jpg,canyon,26.0,,True,original,2.0,"{""ArrowUp,ArrowLeft"":26,""ArrowUp,ArrowRight"":10,""ArrowDown,ArrowLeft"":5,""ArrowDown,ArrowRight"":17}",0,,20.16,Female,2,rest,930.2999999523163,,ArrowLeft,,,,,Adults,0
131,131,386,7472,revaluation,False,./assets/img/canyon/animals/giraffe.jpg,canyon,17.0,,True,original,2.0,"{""ArrowUp,ArrowLeft"":26,""ArrowUp,ArrowRight"":10,""ArrowDown,ArrowLeft"":5,""ArrowDown,ArrowRight"":17}",1,,20.16,Female,2,rest,999.2999999523163,,ArrowRight,,,,,Adults,0
132,132,388,7472,revaluation,False,./assets/img/canyon/animals/giraffe.jpg,canyon,5.0,,False,original,2.0,"{""ArrowUp,ArrowLeft"":26,""ArrowUp,ArrowRight"":10,""ArrowDown,ArrowLeft"":5,""ArrowDown,ArrowRight"":17}",2,,20.16,Female,2,rest,884.1999999284744,,ArrowLeft,,,,,Adults,1
133,133,390,7472,revaluation,False,./assets/img/canyon/animals/lion.jpg,canyon,26.0,,True,original,2.0,"{""ArrowUp,ArrowLeft"":26,""ArrowUp,ArrowRight"":10,""ArrowDown,ArrowLeft"":5,""ArrowDown,ArrowRight"":17}",3,,20.16,Female,2,rest,401.2999999523163,,ArrowLeft,,,,,Adults,1
134,134,392,7472,revaluation,False,./assets/img/canyon/animals/lion.jpg,canyon,26.0,,True,original,2.0,"{""ArrowUp,ArrowLeft"":26,""ArrowUp,ArrowRight"":10,""ArrowDown,ArrowLeft"":5,""ArrowDown,ArrowRight"":17}",4,,20.16,Female,2,rest,629.0,,ArrowLeft,,,,,Adults,2
135,135,394,7472,revaluation,False,./assets/img/canyon/animals/lion.jpg,canyon,26.0,,True,original,2.0,"{""ArrowUp,ArrowLeft"":26,""ArrowUp,ArrowRight"":10,""ArrowDown,ArrowLeft"":5,""ArrowDown,ArrowRight"":17}",5,,20.16,Female,2,rest,660.1999999284744,,ArrowLeft,,,,,Adults,3
136,136,396,7472,revaluation,False,./assets/img/canyon/animals/giraffe.jpg,canyon,17.0,,True,original,2.0,"{""ArrowUp,ArrowLeft"":26,""ArrowUp,ArrowRight"":10,""ArrowDown,ArrowLeft"":5,""ArrowDown,ArrowRight"":17}",6,,20.16,Female,2,rest,1054.0,,ArrowRight,,,,,Adults,2
137,137,398,7472,revaluation,False,./assets/img/canyon/animals/giraffe.jpg,canyon,17.0,,True,original,2.0,"{""ArrowUp,ArrowLeft"":26,""ArrowUp,ArrowRight"":10,""ArrowDown,ArrowLeft"":5,""ArrowDown,ArrowRight"":17}",7,,20.16,Female,2,rest,616.8000000715256,,ArrowRight,,,,,Adults,3
138,138,400,7472,revaluation,False,./assets/img/canyon/animals/giraffe.jpg,canyon,17.0,,True,original,2.0,"{""ArrowUp,ArrowLeft"":26,""ArrowUp,ArrowRight"":10,""ArrowDown,ArrowLeft"":5,""ArrowDown,ArrowRight"":17}",8,,20.16,Female,2,rest,830.7999999523163,,ArrowRight,,,,,Adults,4
139,139,402,7472,revaluation,False,./assets/img/canyon/animals/giraffe.jpg,canyon,17.0,,True,original,2.0,"{""ArrowUp,ArrowLeft"":26,""ArrowUp,ArrowRight"":10,""ArrowDown,ArrowLeft"":5,""ArrowDown,ArrowRight"":17}",9,,20.16,Female,2,rest,484.10000002384186,,ArrowRight,,,,,Adults,5
140,140,404,7472,revaluation,False,./assets/img/canyon/animals/lion.jpg,canyon,10.0,,False,original,2.0,"{""ArrowUp,ArrowLeft"":26,""ArrowUp,ArrowRight"":10,""ArrowDown,ArrowLeft"":5,""ArrowDown,ArrowRight"":17}",10,,20.16,Female,2,rest,620.5999999046326,,ArrowRight,,,,,Adults,4
141,141,406,7472,revaluation,False,./assets/img/canyon/animals/lion.jpg,canyon,26.0,,True,original,2.0,"{""ArrowUp,ArrowLeft"":26,""ArrowUp,ArrowRight"":10,""ArrowDown,ArrowLeft"":5,""ArrowDown,ArrowRight"":17}",11,,20.16,Female,2,rest,364.5,,ArrowLeft,,,,,Adults,5
142,142,408,7472,revaluation,False,./assets/img/canyon/animals/giraffe.jpg,canyon,17.0,,True,original,2.0,"{""ArrowUp,ArrowLeft"":26,""ArrowUp,ArrowRight"":10,""ArrowDown,ArrowLeft"":5,""ArrowDown,ArrowRight"":17}",12,,20.16,Female,2,rest,1069.7000000476837,,ArrowRight,,,,,Adults,6
143,143,410,7472,revaluation,False,./assets/img/canyon/animals/giraffe.jpg,canyon,17.0,,True,original,2.0,"{""ArrowUp,ArrowLeft"":26,""ArrowUp,ArrowRight"":10,""ArrowDown,ArrowLeft"":5,""ArrowDown,ArrowRight"":17}",13,,20.16,Female,2,rest,692.5999999046326,,ArrowRight,,,,,Adults,7
144,144,412,7472,revaluation,False,./assets/img/canyon/animals/lion.jpg,canyon,26.0,,True,original,2.0,"{""ArrowUp,ArrowLeft"":26,""ArrowUp,ArrowRight"":10,""ArrowDown,ArrowLeft"":5,""ArrowDown,ArrowRight"":17}",14,,20.16,Female,2,rest,888.2999999523163,,ArrowLeft,,,,,Adults,6
145,145,414,7472,revaluation,False,./assets/img/canyon/animals/lion.jpg,canyon,26.0,,True,original,2.0,"{""ArrowUp,ArrowLeft"":26,""ArrowUp,ArrowRight"":10,""ArrowDown,ArrowLeft"":5,""ArrowDown,ArrowRight"":17}",15,,20.16,Female,2,rest,412.10000002384186,,ArrowLeft,,,,,Adults,7
146,146,416,7472,revaluation,False,./assets/img/canyon/animals/lion.jpg,canyon,26.0,,True,original,2.0,"{""ArrowUp,ArrowLeft"":26,""ArrowUp,ArrowRight"":10,""ArrowDown,ArrowLeft"":5,""ArrowDown,ArrowRight"":17}",16,,20.16,Female,2,rest,435.10000002384186,,ArrowLeft,,,,,Adults,8
147,147,418,7472,revaluation,False,./assets/img/canyon/animals/giraffe.jpg,canyon,17.0,,True,original,2.0,"{""ArrowUp,ArrowLeft"":26,""ArrowUp,ArrowRight"":10,""ArrowDown,ArrowLeft"":5,""ArrowDown,ArrowRight"":17}",17,,20.16,Female,2,rest,699.1999999284744,,ArrowRight,,,,,Adults,8
298,50,217,8153,revaluation,False,./assets/img/canyon/animals/lion.jpg,canyon,8.0,,False,revaluation,1.0,"{""ArrowUp,ArrowLeft"":2,""ArrowUp,ArrowRight"":11,""ArrowDown,ArrowLeft"":8,""ArrowDown,ArrowRight"":27}",0,,9.8,Male,8,rest,1687.9000000001397,,ArrowLeft,,,,,Children,0
299,51,219,8153,revaluation,False,./assets/img/canyon/animals/giraffe.jpg,canyon,2.0,,False,revaluation,1.0,"{""ArrowUp,ArrowLeft"":2,""ArrowUp,ArrowRight"":11,""ArrowDown,ArrowLeft"":8,""ArrowDown,ArrowRight"":27}",1,,9.8,Male,8,rest,1044.4000000001397,,ArrowLeft,,,,,Children,0
300,52,221,8153,revaluation,False,./assets/img/canyon/animals/lion.jpg,canyon,27.0,,True,revaluation,1.0,"{""ArrowUp,ArrowLeft"":2,""ArrowUp,ArrowRight"":11,""ArrowDown,ArrowLeft"":8,""ArrowDown,ArrowRight"":27}",2,,9.8,Male,8,rest,623.1000000000931,,ArrowRight,,,,,Children,1
301,53,223,8153,revaluation,False,./assets/img/canyon/animals/lion.jpg,canyon,27.0,,True,revaluation,1.0,"{""ArrowUp,ArrowLeft"":2,""ArrowUp,ArrowRight"":11,""ArrowDown,ArrowLeft"":8,""ArrowDown,ArrowRight"":27}",3,,9.8,Male,8,rest,1035.1999999999534,,ArrowRight,,,,,Children,2
302,54,225,8153,revaluation,False,./assets/img/canyon/animals/lion.jpg,canyon,27.0,,True,revaluation,1.0,"{""ArrowUp,ArrowLeft"":2,""ArrowUp,ArrowRight"":11,""ArrowDown,ArrowLeft"":8,""ArrowDown,ArrowRight"":27}",4,,9.8,Male,8,rest,829.9000000001397,,ArrowRight,,,,,Children,3
303,55,227,8153,revaluation,False,./assets/img/canyon/animals/lion.jpg,canyon,27.0,,True,revaluation,1.0,"{""ArrowUp,ArrowLeft"":2,""ArrowUp,ArrowRight"":11,""ArrowDown,ArrowLeft"":8,""ArrowDown,ArrowRight"":27}",5,,9.8,Male,8,rest,711.3000000000466,,ArrowRight,,,,,Children,4
304,56,229,8153,revaluation,False,./assets/img/canyon/animals/lion.jpg,canyon,27.0,,True,revaluation,1.0,"{""ArrowUp,ArrowLeft"":2,""ArrowUp,ArrowRight"":11,""ArrowDown,ArrowLeft"":8,""ArrowDown,ArrowRight"":27}",6,,9.8,Male,8,rest,508.80000000004657,,ArrowRight,,,,,Children,5
305,57,231,8153,revaluation,False,./assets/img/canyon/animals/giraffe.jpg,canyon,11.0,,True,revaluation,1.0,"{""ArrowUp,ArrowLeft"":2,""ArrowUp,ArrowRight"":11,""ArrowDown,ArrowLeft"":8,""ArrowDown,ArrowRight"":27}",7,,9.8,Male,8,rest,174.69999999995343,,ArrowRight,,,,,Children,1
306,58,233,8153,revaluation,False,./assets/img/canyon/animals/giraffe.jpg,canyon,11.0,,True,revaluation,1.0,"{""ArrowUp,ArrowLeft"":2,""ArrowUp,ArrowRight"":11,""ArrowDown,ArrowLeft"":8,""ArrowDown,ArrowRight"":27}",8,,9.8,Male,8,rest,406.70000000018626,,ArrowRight,,,,,Children,2
307,59,235,8153,revaluation,False,./assets/img/canyon/animals/lion.jpg,canyon,27.0,,True,revaluation,1.0,"{""ArrowUp,ArrowLeft"":2,""ArrowUp,ArrowRight"":11,""ArrowDown,ArrowLeft"":8,""ArrowDown,ArrowRight"":27}",9,,9.8,Male,8,rest,1143.9000000001397,,ArrowRight,,,,,Children,6
308,60,237,8153,revaluation,False,./assets/img/canyon/animals/lion.jpg,canyon,27.0,,True,revaluation,1.0,"{""ArrowUp,ArrowLeft"":2,""ArrowUp,ArrowRight"":11,""ArrowDown,ArrowLeft"":8,""ArrowDown,ArrowRight"":27}",10,,9.8,Male,8,rest,596.5,,ArrowRight,,,,,Children,7
309,61,239,8153,revaluation,False,./assets/img/canyon/animals/giraffe.jpg,canyon,11.0,,True,revaluation,1.0,"{""ArrowUp,ArrowLeft"":2,""ArrowUp,ArrowRight"":11,""ArrowDown,ArrowLeft"":8,""ArrowDown,ArrowRight"":27}",11,,9.8,Male,8,rest,473.39999999990687,,ArrowRight,,,,,Children,3
310,62,241,8153,revaluation,False,./assets/img/canyon/animals/giraffe.jpg,canyon,2.0,,False,revaluation,1.0,"{""ArrowUp,ArrowLeft"":2,""ArrowUp,ArrowRight"":11,""ArrowDown,ArrowLeft"":8,""ArrowDown,ArrowRight"":27}",12,,9.8,Male,8,rest,607.0,,ArrowLeft,,,,,Children,4
311,63,243,8153,revaluation,False,./assets/img/canyon/animals/lion.jpg,canyon,27.0,,True,revaluation,1.0,"{""ArrowUp,ArrowLeft"":2,""ArrowUp,ArrowRight"":11,""ArrowDown,ArrowLeft"":8,""ArrowDown,ArrowRight"":27}",13,,9.8,Male,8,rest,501.69999999995343,,ArrowRight,,,,,Children,8
312,64,245,8153,revaluation,False,./assets/img/canyon/animals/giraffe.jpg,canyon,11.0,,True,revaluation,1.0,"{""ArrowUp,ArrowLeft"":2,""ArrowUp,ArrowRight"":11,""ArrowDown,ArrowLeft"":8,""ArrowDown,ArrowRight"":27}",14,,9.8,Male,8,rest,917.6000000000931,,ArrowRight,,,,,Children,5
313,65,247,8153,revaluation,False,./assets/img/canyon/animals/giraffe.jpg,canyon,11.0,,True,revaluation,1.0,"{""ArrowUp,ArrowLeft"":2,""ArrowUp,ArrowRight"":11,""ArrowDown,ArrowLeft"":8,""ArrowDown,ArrowRight"":27}",15,,9.8,Male,8,rest,190.39999999990687,,ArrowRight,,,,,Children,6
314,66,249,8153,revaluation,False,./assets/img/canyon/animals/giraffe.jpg,canyon,11.0,,True,revaluation,1.0,"{""ArrowUp,ArrowLeft"":2,""ArrowUp,ArrowRight"":11,""ArrowDown,ArrowLeft"":8,""ArrowDown,ArrowRight"":27}",16,,9.8,Male,8,rest,262.0,,ArrowRight,,,,,Children,7
315,67,251,8153,revaluation,False,./assets/img/canyon/animals/giraffe.jpg,canyon,11.0,,True,revaluation,1.0,"{""ArrowUp,ArrowLeft"":2,""ArrowUp,ArrowRight"":11,""ArrowDown,ArrowLeft"":8,""ArrowDown,ArrowRight"":27}",17,,9.8,Male,8,rest,176.39999999990687,,ArrowRight,,,,,Children,8
378,130,386,8153,revaluation,False,./assets/img/ocean/animals/seahorse.jpg,ocean,10.0,,False,original,2.0,"{""ArrowUp,ArrowLeft"":23,""ArrowUp,ArrowRight"":10,""ArrowDown,ArrowLeft"":8,""ArrowDown,ArrowRight"":30}",0,,9.8,Male,8,rest,1315.3999999999069,,ArrowRight,,,,,Children,0
379,131,388,8153,revaluation,False,./assets/img/ocean/animals/seahorse.jpg,ocean,23.0,,True,original,2.0,"{""ArrowUp,ArrowLeft"":23,""ArrowUp,ArrowRight"":10,""ArrowDown,ArrowLeft"":8,""ArrowDown,ArrowRight"":30}",1,,9.8,Male,8,rest,464.19999999995343,,ArrowLeft,,,,,Children,1
380,132,390,8153,revaluation,False,./assets/img/ocean/animals/seahorse.jpg,ocean,23.0,,True,original,2.0,"{""ArrowUp,ArrowLeft"":23,""ArrowUp,ArrowRight"":10,""ArrowDown,ArrowLeft"":8,""ArrowDown,ArrowRight"":30}",2,,9.8,Male,8,rest,704.5,,ArrowLeft,,,,,Children,2
381,133,392,8153,revaluation,False,./assets/img/ocean/animals/octopus.jpg,ocean,30.0,,True,original,2.0,"{""ArrowUp,ArrowLeft"":23,""ArrowUp,ArrowRight"":10,""ArrowDown,ArrowLeft"":8,""ArrowDown,ArrowRight"":30}",3,,9.8,Male,8,rest,884.6999999999534,,ArrowRight,,,,,Children,0
382,134,394,8153,revaluation,False,./assets/img/ocean/animals/seahorse.jpg,ocean,23.0,,True,original,2.0,"{""ArrowUp,ArrowLeft"":23,""ArrowUp,ArrowRight"":10,""ArrowDown,ArrowLeft"":8,""ArrowDown,ArrowRight"":30}",4,,9.8,Male,8,rest,998.3999999999069,,ArrowLeft,,,,,Children,3
383,135,396,8153,revaluation,False,./assets/img/ocean/animals/seahorse.jpg,ocean,23.0,,True,original,2.0,"{""ArrowUp,ArrowLeft"":23,""ArrowUp,ArrowRight"":10,""ArrowDown,ArrowLeft"":8,""ArrowDown,ArrowRight"":30}",5,,9.8,Male,8,rest,1284.0,,ArrowLeft,,,,,Children,4
384,136,398,8153,revaluation,False,./assets/img/ocean/animals/octopus.jpg,ocean,30.0,,True,original,2.0,"{""ArrowUp,ArrowLeft"":23,""ArrowUp,ArrowRight"":10,""ArrowDown,ArrowLeft"":8,""ArrowDown,ArrowRight"":30}",6,,9.8,Male,8,rest,614.3999999999069,,ArrowRight,,,,,Children,1
385,137,400,8153,revaluation,False,./assets/img/ocean/animals/seahorse.jpg,ocean,23.0,,True,original,2.0,"{""ArrowUp,ArrowLeft"":23,""ArrowUp,ArrowRight"":10,""ArrowDown,ArrowLeft"":8,""ArrowDown,ArrowRight"":30}",7,,9.8,Male,8,rest,833.9000000001397,,ArrowLeft,,,,,Children,5
386,138,402,8153,revaluation,False,./assets/img/ocean/animals/octopus.jpg,ocean,30.0,,True,original,2.0,"{""ArrowUp,ArrowLeft"":23,""ArrowUp,ArrowRight"":10,""ArrowDown,ArrowLeft"":8,""ArrowDown,ArrowRight"":30}",8,,9.8,Male,8,rest,377.29999999981374,,ArrowRight,,,,,Children,2
387,139,404,8153,revaluation,False,./assets/img/ocean/animals/seahorse.jpg,ocean,23.0,,True,original,2.0,"{""ArrowUp,ArrowLeft"":23,""ArrowUp,ArrowRight"":10,""ArrowDown,ArrowLeft"":8,""ArrowDown,ArrowRight"":30}",9,,9.8,Male,8,rest,814.0,,ArrowLeft,,,,,Children,6
388,140,406,8153,revaluation,False,./assets/img/ocean/animals/octopus.jpg,ocean,30.0,,True,original,2.0,"{""ArrowUp,ArrowLeft"":23,""ArrowUp,ArrowRight"":10,""ArrowDown,ArrowLeft"":8,""ArrowDown,ArrowRight"":30}",10,,9.8,Male,8,rest,550.5,,ArrowRight,,,,,Children,3
389,141,408,8153,revaluation,False,./assets/img/ocean/animals/octopus.jpg,ocean,30.0,,True,original,2.0,"{""ArrowUp,ArrowLeft"":23,""ArrowUp,ArrowRight"":10,""ArrowDown,ArrowLeft"":8,""ArrowDown,ArrowRight"":30}",11,,9.8,Male,8,rest,456.9000000001397,,ArrowRight,,,,,Children,4
390,142,410,8153,revaluation,False,./assets/img/ocean/animals/seahorse.jpg,ocean,23.0,,True,original,2.0,"{""ArrowUp,ArrowLeft"":23,""ArrowUp,ArrowRight"":10,""ArrowDown,ArrowLeft"":8,""ArrowDown,ArrowRight"":30}",12,,9.8,Male,8,rest,783.6000000000931,,ArrowLeft,,,,,Children,7
391,143,412,8153,revaluation,False,./assets/img/ocean/animals/octopus.jpg,ocean,30.0,,True,original,2.0,"{""ArrowUp,ArrowLeft"":23,""ArrowUp,ArrowRight"":10,""ArrowDown,ArrowLeft"":8,""ArrowDown,ArrowRight"":30}",13,,9.8,Male,8,rest,544.3999999999069,,ArrowRight,,,,,Children,5
392,144,414,8153,revaluation,False,./assets/img/ocean/animals/octopus.jpg,ocean,30.0,,True,original,2.0,"{""ArrowUp,ArrowLeft"":23,""ArrowUp,ArrowRight"":10,""ArrowDown,ArrowLeft"":8,""ArrowDown,ArrowRight"":30}",14,,9.8,Male,8,rest,542.5999999998603,,ArrowRight,,,,,Children,6
393,145,416,8153,revaluation,False,./assets/img/ocean/animals/octopus.jpg,ocean,30.0,,True,original,2.0,"{""ArrowUp,ArrowLeft"":23,""ArrowUp,ArrowRight"":10,""ArrowDown,ArrowLeft"":8,""ArrowDown,ArrowRight"":30}",15,,9.8,Male,8,rest,518.1000000000931,,ArrowRight,,,,,Children,7
394,146,418,8153,revaluation,False,./assets/img/ocean/animals/seahorse.jpg,ocean,23.0,,True,original,2.0,"{""ArrowUp,ArrowLeft"":23,""ArrowUp,ArrowRight"":10,""ArrowDown,ArrowLeft"":8,""ArrowDown,ArrowRight"":30}",16,,9.8,Male,8,rest,1003.1999999999534,,ArrowLeft,,,,,Children,8
395,147,420,8153,revaluation,False,./assets/img/ocean/animals/octopus.jpg,ocean,30.0,,True,original,2.0,"{""ArrowUp,ArrowLeft"":23,""ArrowUp,ArrowRight"":10,""ArrowDown,ArrowLeft"":8,""ArrowDown,ArrowRight"":30}",17,,9.8,Male,8,rest,570.0,,ArrowRight,,,,,Children,8
546,50,217,8152,revaluation,False,./assets/img/ocean/animals/seahorse.jpg,ocean,30.0,,True,original,1.0,"{""ArrowUp,ArrowLeft"":23,""ArrowUp,ArrowRight"":10,""ArrowDown,ArrowLeft"":8,""ArrowDown,ArrowRight"":30}",0,,7.69,Male,3,rest,959.2999999998137,,ArrowRight,,,,,Children,0
547,51,219,8152,revaluation,False,./assets/img/ocean/animals/octopus.jpg,ocean,23.0,,True,original,1.0,"{""ArrowUp,ArrowLeft"":23,""ArrowUp,ArrowRight"":10,""ArrowDown,ArrowLeft"":8,""ArrowDown,ArrowRight"":30}",1,,7.69,Male,3,rest,764.0,,ArrowLeft,,,,,Children,0
548,52,221,8152,revaluation,False,./assets/img/ocean/animals/seahorse.jpg,ocean,30.0,,True,original,1.0,"{""ArrowUp,ArrowLeft"":23,""ArrowUp,ArrowRight"":10,""ArrowDown,ArrowLeft"":8,""ArrowDown,ArrowRight"":30}",2,,7.69,Male,3,rest,451.4000000001397,,ArrowRight,,,,,Children,1
549,53,223,8152,revaluation,False,./assets/img/ocean/animals/octopus.jpg,ocean,23.0,,True,original,1.0,"{""ArrowUp,ArrowLeft"":23,""ArrowUp,ArrowRight"":10,""ArrowDown,ArrowLeft"":8,""ArrowDown,ArrowRight"":30}",3,,7.69,Male,3,rest,685.1999999999534,,ArrowLeft,,,,,Children,1
550,54,225,8152,revaluation,False,./assets/img/ocean/animals/seahorse.jpg,ocean,30.0,,True,original,1.0,"{""ArrowUp,ArrowLeft"":23,""ArrowUp,ArrowRight"":10,""ArrowDown,ArrowLeft"":8,""ArrowDown,ArrowRight"":30}",4,,7.69,Male,3,rest,569.6999999999534,,ArrowRight,,,,,Children,2
551,55,227,8152,revaluation,False,./assets/img/ocean/animals/octopus.jpg,ocean,23.0,,True,original,1.0,"{""ArrowUp,ArrowLeft"":23,""ArrowUp,ArrowRight"":10,""ArrowDown,ArrowLeft"":8,""ArrowDown,ArrowRight"":30}",5,,7.69,Male,3,rest,624.3000000000466,,ArrowLeft,,,,,Children,2
552,56,229,8152,revaluation,False,./assets/img/ocean/animals/octopus.jpg,ocean,10.0,,False,original,1.0,"{""ArrowUp,ArrowLeft"":23,""ArrowUp,ArrowRight"":10,""ArrowDown,ArrowLeft"":8,""ArrowDown,ArrowRight"":30}",6,,7.69,Male,3,rest,680.6999999999534,,ArrowRight,,,,,Children,3
553,57,231,8152,revaluation,False,./assets/img/ocean/animals/seahorse.jpg,ocean,30.0,,True,original,1.0,"{""ArrowUp,ArrowLeft"":23,""ArrowUp,ArrowRight"":10,""ArrowDown,ArrowLeft"":8,""ArrowDown,ArrowRight"":30}",7,,7.69,Male,3,rest,713.0,,ArrowRight,,,,,Children,3
554,58,233,8152,revaluation,False,./assets/img/ocean/animals/seahorse.jpg,ocean,30.0,,True,original,1.0,"{""ArrowUp,ArrowLeft"":23,""ArrowUp,ArrowRight"":10,""ArrowDown,ArrowLeft"":8,""ArrowDown,ArrowRight"":30}",8,,7.69,Male,3,rest,537.9000000001397,,ArrowRight,,,,,Children,4
555,59,235,8152,revaluation,False,./assets/img/ocean/animals/octopus.jpg,ocean,23.0,,True,original,1.0,"{""ArrowUp,ArrowLeft"":23,""ArrowUp,ArrowRight"":10,""ArrowDown,ArrowLeft"":8,""ArrowDown,ArrowRight"":30}",9,,7.69,Male,3,rest,922.0999999997439,,ArrowLeft,,,,,Children,4
556,60,237,8152,revaluation,False,./assets/img/ocean/animals/octopus.jpg,ocean,23.0,,True,original,1.0,"{""ArrowUp,ArrowLeft"":23,""ArrowUp,ArrowRight"":10,""ArrowDown,ArrowLeft"":8,""ArrowDown,ArrowRight"":30}",10,,7.69,Male,3,rest,642.1000000000931,,ArrowLeft,,,,,Children,5
557,61,239,8152,revaluation,False,./assets/img/ocean/animals/octopus.jpg,ocean,23.0,,True,original,1.0,"{""ArrowUp,ArrowLeft"":23,""ArrowUp,ArrowRight"":10,""ArrowDown,ArrowLeft"":8,""ArrowDown,ArrowRight"":30}",11,,7.69,Male,3,rest,686.2000000001863,,ArrowLeft,,,,,Children,6
558,62,241,8152,revaluation,False,./assets/img/ocean/animals/seahorse.jpg,ocean,30.0,,True,original,1.0,"{""ArrowUp,ArrowLeft"":23,""ArrowUp,ArrowRight"":10,""ArrowDown,ArrowLeft"":8,""ArrowDown,ArrowRight"":30}",12,,7.69,Male,3,rest,697.2000000001863,,ArrowRight,,,,,Children,5
559,63,243,8152,revaluation,False,./assets/img/ocean/animals/octopus.jpg,ocean,23.0,,True,original,1.0,"{""ArrowUp,ArrowLeft"":23,""ArrowUp,ArrowRight"":10,""ArrowDown,ArrowLeft"":8,""ArrowDown,ArrowRight"":30}",13,,7.69,Male,3,rest,837.1000000000931,,ArrowLeft,,,,,Children,7
560,64,245,8152,revaluation,False,./assets/img/ocean/animals/octopus.jpg,ocean,23.0,,True,original,1.0,"{""ArrowUp,ArrowLeft"":23,""ArrowUp,ArrowRight"":10,""ArrowDown,ArrowLeft"":8,""ArrowDown,ArrowRight"":30}",14,,7.69,Male,3,rest,819.5,,ArrowLeft,,,,,Children,8
561,65,247,8152,revaluation,False,./assets/img/ocean/animals/seahorse.jpg,ocean,30.0,,True,original,1.0,"{""ArrowUp,ArrowLeft"":23,""ArrowUp,ArrowRight"":10,""ArrowDown,ArrowLeft"":8,""ArrowDown,ArrowRight"":30}",15,,7.69,Male,3,rest,853.3999999999069,,ArrowRight,,,,,Children,6
562,66,249,8152,revaluation,False,./assets/img/ocean/animals/seahorse.jpg,ocean,30.0,,True,original,1.0,"{""ArrowUp,ArrowLeft"":23,""ArrowUp,ArrowRight"":10,""ArrowDown,ArrowLeft"":8,""ArrowDown,ArrowRight"":30}",16,,7.69,Male,3,rest,553.5,,ArrowRight,,,,,Children,7
563,67,251,8152,revaluation,False,./assets/img/ocean/animals/seahorse.jpg,ocean,30.0,,True,original,1.0,"{""ArrowUp,ArrowLeft"":23,""ArrowUp,ArrowRight"":10,""ArrowDown,ArrowLeft"":8,""ArrowDown,ArrowRight"":30}",17,,7.69,Male,3,rest,530.5,,ArrowRight,,,,,Children,8
626,130,386,8152,revaluation,False,./assets/img/canyon/animals/giraffe.jpg,canyon,2.0,,False,revaluation,2.0,"{""ArrowUp,ArrowLeft"":2,""ArrowUp,ArrowRight"":11,""ArrowDown,ArrowLeft"":8,""ArrowDown,ArrowRight"":27}",0,,7.69,Male,3,rest,920.6000000000931,,ArrowLeft,,,,,Children,0
627,131,388,8152,revaluation,False,./assets/img/canyon/animals/lion.jpg,canyon,8.0,,False,revaluation,2.0,"{""ArrowUp,ArrowLeft"":2,""ArrowUp,ArrowRight"":11,""ArrowDown,ArrowLeft"":8,""ArrowDown,ArrowRight"":27}",1,,7.69,Male,3,rest,633.0,,ArrowLeft,,,,,Children,0
628,132,390,8152,revaluation,False,./assets/img/canyon/animals/lion.jpg,canyon,27.0,,True,revaluation,2.0,"{""ArrowUp,ArrowLeft"":2,""ArrowUp,ArrowRight"":11,""ArrowDown,ArrowLeft"":8,""ArrowDown,ArrowRight"":27}",2,,7.69,Male,3,rest,388.8000000002794,,ArrowRight,,,,,Children,1
629,133,392,8152,revaluation,False,./assets/img/canyon/animals/giraffe.jpg,canyon,11.0,,True,revaluation,2.0,"{""ArrowUp,ArrowLeft"":2,""ArrowUp,ArrowRight"":11,""ArrowDown,ArrowLeft"":8,""ArrowDown,ArrowRight"":27}",3,,7.69,Male,3,rest,492.39999999990687,,ArrowRight,,,,,Children,1
630,134,394,8152,revaluation,False,./assets/img/canyon/animals/giraffe.jpg,canyon,11.0,,True,revaluation,2.0,"{""ArrowUp,ArrowLeft"":2,""ArrowUp,ArrowRight"":11,""ArrowDown,ArrowLeft"":8,""ArrowDown,ArrowRight"":27}",4,,7.69,Male,3,rest,254.89999999990687,,ArrowRight,,,,,Children,2
631,135,396,8152,revaluation,False,./assets/img/canyon/animals/giraffe.jpg,canyon,11.0,,True,revaluation,2.0,"{""ArrowUp,ArrowLeft"":2,""ArrowUp,ArrowRight"":11,""ArrowDown,ArrowLeft"":8,""ArrowDown,ArrowRight"":27}",5,,7.69,Male,3,rest,356.20000000018626,,ArrowRight,,,,,Children,3
632,136,398,8152,revaluation,False,./assets/img/canyon/animals/giraffe.jpg,canyon,11.0,,True,revaluation,2.0,"{""ArrowUp,ArrowLeft"":2,""ArrowUp,ArrowRight"":11,""ArrowDown,ArrowLeft"":8,""ArrowDown,ArrowRight"":27}",6,,7.69,Male,3,rest,53.5,,ArrowRight,,,,,Children,4
633,137,400,8152,revaluation,False,./assets/img/canyon/animals/lion.jpg,canyon,27.0,,True,revaluation,2.0,"{""ArrowUp,ArrowLeft"":2,""ArrowUp,ArrowRight"":11,""ArrowDown,ArrowLeft"":8,""ArrowDown,ArrowRight"":27}",7,,7.69,Male,3,rest,472.60000000009313,,ArrowRight,,,,,Children,2
634,138,402,8152,revaluation,False,./assets/img/canyon/animals/giraffe.jpg,canyon,11.0,,True,revaluation,2.0,"{""ArrowUp,ArrowLeft"":2,""ArrowUp,ArrowRight"":11,""ArrowDown,ArrowLeft"":8,""ArrowDown,ArrowRight"":27}",8,,7.69,Male,3,rest,97.10000000009313,,ArrowRight,,,,,Children,5
635,139,404,8152,revaluation,False,./assets/img/canyon/animals/lion.jpg,canyon,27.0,,True,revaluation,2.0,"{""ArrowUp,ArrowLeft"":2,""ArrowUp,ArrowRight"":11,""ArrowDown,ArrowLeft"":8,""ArrowDown,ArrowRight"":27}",9,,7.69,Male,3,rest,21.299999999813735,,ArrowRight,,,,,Children,3
636,140,406,8152,revaluation,False,./assets/img/canyon/animals/lion.jpg,canyon,27.0,,True,revaluation,2.0,"{""ArrowUp,ArrowLeft"":2,""ArrowUp,ArrowRight"":11,""ArrowDown,ArrowLeft"":8,""ArrowDown,ArrowRight"":27}",10,,7.69,Male,3,rest,265.39999999990687,,ArrowRight,,,,,Children,4
637,141,408,8152,revaluation,False,./assets/img/canyon/animals/giraffe.jpg,canyon,11.0,,True,revaluation,2.0,"{""ArrowUp,ArrowLeft"":2,""ArrowUp,ArrowRight"":11,""ArrowDown,ArrowLeft"":8,""ArrowDown,ArrowRight"":27}",11,,7.69,Male,3,rest,265.10000000009313,,ArrowRight,,,,,Children,6
638,142,410,8152,revaluation,False,./assets/img/canyon/animals/giraffe.jpg,canyon,11.0,,True,revaluation,2.0,"{""ArrowUp,ArrowLeft"":2,""ArrowUp,ArrowRight"":11,""ArrowDown,ArrowLeft"":8,""ArrowDown,ArrowRight"":27}",12,,7.69,Male,3,rest,39.60000000009313,,ArrowRight,,,,,Children,7
639,143,412,8152,revaluation,False,./assets/img/canyon/animals/lion.jpg,canyon,27.0,,True,revaluation,2.0,"{""ArrowUp,ArrowLeft"":2,""ArrowUp,ArrowRight"":11,""ArrowDown,ArrowLeft"":8,""ArrowDown,ArrowRight"":27}",13,,7.69,Male,3,rest,181.40000000037253,,ArrowRight,,,,,Children,5
640,144,414,8152,revaluation,False,./assets/img/canyon/animals/lion.jpg,canyon,27.0,,True,revaluation,2.0,"{""ArrowUp,ArrowLeft"":2,""ArrowUp,ArrowRight"":11,""ArrowDown,ArrowLeft"":8,""ArrowDown,ArrowRight"":27}",14,,7.69,Male,3,rest,347.60000000009313,,ArrowRight,,,,,Children,6
641,145,416,8152,revaluation,False,./assets/img/canyon/animals/giraffe.jpg,canyon,11.0,,True,revaluation,2.0,"{""ArrowUp,ArrowLeft"":2,""ArrowUp,ArrowRight"":11,""ArrowDown,ArrowLeft"":8,""ArrowDown,ArrowRight"":27}",15,,7.69,Male,3,rest,79.09999999962747,,ArrowRight,,,,,Children,8
642,146,418,8152,revaluation,False,./assets/img/canyon/animals/lion.jpg,canyon,27.0,,True,revaluation,2.0,"{""ArrowUp,ArrowLeft"":2,""ArrowUp,ArrowRight"":11,""ArrowDown,ArrowLeft"":8,""ArrowDown,ArrowRight"":27}",16,,7.69,Male,3,rest,77.10000000009313,,ArrowRight,,,,,Children,7
643,147,420,8152,revaluation,False,./assets/img/canyon/animals/lion.jpg,canyon,27.0,,True,revaluation,2.0,"{""ArrowUp,ArrowLeft"":2,""ArrowUp,ArrowRight"":11,""ArrowDown,ArrowLeft"":8,""ArrowDown,ArrowRight"":27}",17,,7.69,Male,3,rest,253.10000000009313,,ArrowRight,,,,,Children,8
794,50,215,7513,revaluation,False,./assets/img/ocean/animals/seahorse.jpg,ocean,10.0,,False,original,1.0,"{""ArrowUp,ArrowLeft"":23,""ArrowUp,ArrowRight"":10,""ArrowDown,ArrowLeft"":8,""ArrowDown,ArrowRight"":30}",0,,23.74,Male,3,rest,1263.5,,ArrowRight,,,,,Adults,0
795,51,217,7513,revaluation,False,./assets/img/ocean/animals/octopus.jpg,ocean,30.0,,True,original,1.0,"{""ArrowUp,ArrowLeft"":23,""ArrowUp,ArrowRight"":10,""ArrowDown,ArrowLeft"":8,""ArrowDown,ArrowRight"":30}",1,,23.74,Male,3,rest,617.0,,ArrowRight,,,,,Adults,0
796,52,219,7513,revaluation,False,./assets/img/ocean/animals/octopus.jpg,ocean,30.0,,True,original,1.0,"{""ArrowUp,ArrowLeft"":23,""ArrowUp,ArrowRight"":10,""ArrowDown,ArrowLeft"":8,""ArrowDown,ArrowRight"":30}",2,,23.74,Male,3,rest,590.2000000476837,,ArrowRight,,,,,Adults,1
797,53,221,7513,revaluation,False,./assets/img/ocean/animals/seahorse.jpg,ocean,23.0,,True,original,1.0,"{""ArrowUp,ArrowLeft"":23,""ArrowUp,ArrowRight"":10,""ArrowDown,ArrowLeft"":8,""ArrowDown,ArrowRight"":30}",3,,23.74,Male,3,rest,414.7999999523163,,ArrowLeft,,,,,Adults,1
798,54,223,7513,revaluation,False,./assets/img/ocean/animals/seahorse.jpg,ocean,23.0,,True,original,1.0,"{""ArrowUp,ArrowLeft"":23,""ArrowUp,ArrowRight"":10,""ArrowDown,ArrowLeft"":8,""ArrowDown,ArrowRight"":30}",4,,23.74,Male,3,rest,477.5,,ArrowLeft,,,,,Adults,2
799,55,225,7513,revaluation,False,./assets/img/ocean/animals/seahorse.jpg,ocean,23.0,,True,original,1.0,"{""ArrowUp,ArrowLeft"":23,""ArrowUp,ArrowRight"":10,""ArrowDown,ArrowLeft"":8,""ArrowDown,ArrowRight"":30}",5,,23.74,Male,3,rest,510.39999997615814,,ArrowLeft,,,,,Adults,3
800,56,227,7513,revaluation,False,./assets/img/ocean/animals/octopus.jpg,ocean,30.0,,True,original,1.0,"{""ArrowUp,ArrowLeft"":23,""ArrowUp,ArrowRight"":10,""ArrowDown,ArrowLeft"":8,""ArrowDown,ArrowRight"":30}",6,,23.74,Male,3,rest,467.89999997615814,,ArrowRight,,,,,Adults,2
801,57,229,7513,revaluation,False,./assets/img/ocean/animals/seahorse.jpg,ocean,23.0,,True,original,1.0,"{""ArrowUp,ArrowLeft"":23,""ArrowUp,ArrowRight"":10,""ArrowDown,ArrowLeft"":8,""ArrowDown,ArrowRight"":30}",7,,23.74,Male,3,rest,603.5,,ArrowLeft,,,,,Adults,4
802,58,231,7513,revaluation,False,./assets/img/ocean/animals/seahorse.jpg,ocean,23.0,,True,original,1.0,"{""ArrowUp,ArrowLeft"":23,""ArrowUp,ArrowRight"":10,""ArrowDown,ArrowLeft"":8,""ArrowDown,ArrowRight"":30}",8,,23.74,Male,3,rest,857.6999999284744,,ArrowLeft,,,,,Adults,5
803,59,233,7513,revaluation,False,./assets/img/ocean/animals/octopus.jpg,ocean,30.0,,True,original,1.0,"{""ArrowUp,ArrowLeft"":23,""ArrowUp,ArrowRight"":10,""ArrowDown,ArrowLeft"":8,""ArrowDown,ArrowRight"":30}",9,,23.74,Male,3,rest,560.7000000476837,,ArrowRight,,,,,Adults,3
804,60,235,7513,revaluation,False,./assets/img/ocean/animals/seahorse.jpg,ocean,10.0,,False,original,1.0,"{""ArrowUp,ArrowLeft"":23,""ArrowUp,ArrowRight"":10,""ArrowDown,ArrowLeft"":8,""ArrowDown,ArrowRight"":30}",10,,23.74,Male,3,rest,465.5,,ArrowRight,,,,,Adults,6
805,61,237,7513,revaluation,False,./assets/img/ocean/animals/seahorse.jpg,ocean,23.0,,True,original,1.0,"{""ArrowUp,ArrowLeft"":23,""ArrowUp,ArrowRight"":10,""ArrowDown,ArrowLeft"":8,""ArrowDown,ArrowRight"":30}",11,,23.74,Male,3,rest,814.7999999523163,,ArrowLeft,,,,,Adults,7
806,62,239,7513,revaluation,False,./assets/img/ocean/animals/octopus.jpg,ocean,30.0,,True,original,1.0,"{""ArrowUp,ArrowLeft"":23,""ArrowUp,ArrowRight"":10,""ArrowDown,ArrowLeft"":8,""ArrowDown,ArrowRight"":30}",12,,23.74,Male,3,rest,601.4000000953674,,ArrowRight,,,,,Adults,4
807,63,241,7513,revaluation,False,./assets/img/ocean/animals/octopus.jpg,ocean,30.0,,True,original,1.0,"{""ArrowUp,ArrowLeft"":23,""ArrowUp,ArrowRight"":10,""ArrowDown,ArrowLeft"":8,""ArrowDown,ArrowRight"":30}",13,,23.74,Male,3,rest,416.10000002384186,,ArrowRight,,,,,Adults,5
808,64,243,7513,revaluation,False,./assets/img/ocean/animals/octopus.jpg,ocean,30.0,,True,original,1.0,"{""ArrowUp,ArrowLeft"":23,""ArrowUp,ArrowRight"":10,""ArrowDown,ArrowLeft"":8,""ArrowDown,ArrowRight"":30}",14,,23.74,Male,3,rest,538.5,,ArrowRight,,,,,Adults,6
809,65,245,7513,revaluation,False,./assets/img/ocean/animals/octopus.jpg,ocean,30.0,,True,original,1.0,"{""ArrowUp,ArrowLeft"":23,""ArrowUp,ArrowRight"":10,""ArrowDown,ArrowLeft"":8,""ArrowDown,ArrowRight"":30}",15,,23.74,Male,3,rest,470.5,,ArrowRight,,,,,Adults,7
810,66,247,7513,revaluation,False,./assets/img/ocean/animals/seahorse.jpg,ocean,23.0,,True,original,1.0,"{""ArrowUp,ArrowLeft"":23,""ArrowUp,ArrowRight"":10,""ArrowDown,ArrowLeft"":8,""ArrowDown,ArrowRight"":30}",16,,23.74,Male,3,rest,509.60000002384186,,ArrowLeft,,,,,Adults,8
811,67,249,7513,revaluation,False,./assets/img/ocean/animals/octopus.jpg,ocean,30.0,,True,original,1.0,"{""ArrowUp,ArrowLeft"":23,""ArrowUp,ArrowRight"":10,""ArrowDown,ArrowLeft"":8,""ArrowDown,ArrowRight"":30}",17,,23.74,Male,3,rest,454.5,,ArrowRight,,,,,Adults,8
874,130,384,7513,revaluation,False,./assets/img/canyon/animals/giraffe.jpg,canyon,2.0,,False,revaluation,2.0,"{""ArrowUp,ArrowLeft"":2,""ArrowUp,ArrowRight"":11,""ArrowDown,ArrowLeft"":8,""ArrowDown,ArrowRight"":27}",0,,23.74,Male,3,rest,690.5,,ArrowLeft,,,,,Adults,0
875,131,386,7513,revaluation,False,./assets/img/canyon/animals/lion.jpg,canyon,27.0,,True,revaluation,2.0,"{""ArrowUp,ArrowLeft"":2,""ArrowUp,ArrowRight"":11,""ArrowDown,ArrowLeft"":8,""ArrowDown,ArrowRight"":27}",1,,23.74,Male,3,rest,1244.7999999523163,,ArrowRight,,,,,Adults,0
876,132,388,7513,revaluation,False,./assets/img/canyon/animals/lion.jpg,canyon,27.0,,True,revaluation,2.0,"{""ArrowUp,ArrowLeft"":2,""ArrowUp,ArrowRight"":11,""ArrowDown,ArrowLeft"":8,""ArrowDown,ArrowRight"":27}",2,,23.74,Male,3,rest,668.1000000238419,,ArrowRight,,,,,Adults,1
877,133,390,7513,revaluation,False,./assets/img/canyon/animals/giraffe.jpg,canyon,11.0,,True,revaluation,2.0,"{""ArrowUp,ArrowLeft"":2,""ArrowUp,ArrowRight"":11,""ArrowDown,ArrowLeft"":8,""ArrowDown,ArrowRight"":27}",3,,23.74,Male,3,rest,821.0,,ArrowRight,,,,,Adults,1
878,134,392,7513,revaluation,False,./assets/img/canyon/animals/giraffe.jpg,canyon,11.0,,True,revaluation,2.0,"{""ArrowUp,ArrowLeft"":2,""ArrowUp,ArrowRight"":11,""ArrowDown,ArrowLeft"":8,""ArrowDown,ArrowRight"":27}",4,,23.74,Male,3,rest,797.8000000715256,,ArrowRight,,,,,Adults,2
879,135,394,7513,revaluation,False,./assets/img/canyon/animals/lion.jpg,canyon,27.0,,True,revaluation,2.0,"{""ArrowUp,ArrowLeft"":2,""ArrowUp,ArrowRight"":11,""ArrowDown,ArrowLeft"":8,""ArrowDown,ArrowRight"":27}",5,,23.74,Male,3,rest,412.40000009536743,,ArrowRight,,,,,Adults,2
880,136,396,7513,revaluation,False,./assets/img/canyon/animals/lion.jpg,canyon,27.0,,True,revaluation,2.0,"{""ArrowUp,ArrowLeft"":2,""ArrowUp,ArrowRight"":11,""ArrowDown,ArrowLeft"":8,""ArrowDown,ArrowRight"":27}",6,,23.74,Male,3,rest,635.3999999761581,,ArrowRight,,,,,Adults,3
881,137,398,7513,revaluation,False,./assets/img/canyon/animals/lion.jpg,canyon,8.0,,False,revaluation,2.0,"{""ArrowUp,ArrowLeft"":2,""ArrowUp,ArrowRight"":11,""ArrowDown,ArrowLeft"":8,""ArrowDown,ArrowRight"":27}",7,,23.74,Male,3,rest,479.1999999284744,,ArrowLeft,,,,,Adults,4
882,138,400,7513,revaluation,False,./assets/img/canyon/animals/giraffe.jpg,canyon,11.0,,True,revaluation,2.0,"{""ArrowUp,ArrowLeft"":2,""ArrowUp,ArrowRight"":11,""ArrowDown,ArrowLeft"":8,""ArrowDown,ArrowRight"":27}",8,,23.74,Male,3,rest,1196.0999999046326,,ArrowRight,,,,,Adults,3
883,139,402,7513,revaluation,False,./assets/img/canyon/animals/giraffe.jpg,canyon,11.0,,True,revaluation,2.0,"{""ArrowUp,ArrowLeft"":2,""ArrowUp,ArrowRight"":11,""ArrowDown,ArrowLeft"":8,""ArrowDown,ArrowRight"":27}",9,,23.74,Male,3,rest,687.0,,ArrowRight,,,,,Adults,4
884,140,404,7513,revaluation,False,./assets/img/canyon/animals/lion.jpg,canyon,27.0,,True,revaluation,2.0,"{""ArrowUp,ArrowLeft"":2,""ArrowUp,ArrowRight"":11,""ArrowDown,ArrowLeft"":8,""ArrowDown,ArrowRight"":27}",10,,23.74,Male,3,rest,435.2999999523163,,ArrowRight,,,,,Adults,5
885,141,406,7513,revaluation,False,./assets/img/canyon/animals/giraffe.jpg,canyon,11.0,,True,revaluation,2.0,"{""ArrowUp,ArrowLeft"":2,""ArrowUp,ArrowRight"":11,""ArrowDown,ArrowLeft"":8,""ArrowDown,ArrowRight"":27}",11,,23.74,Male,3,rest,540.1999999284744,,ArrowRight,,,,,Adults,5
886,142,408,7513,revaluation,False,./assets/img/canyon/animals/giraffe.jpg,canyon,11.0,,True,revaluation,2.0,"{""ArrowUp,ArrowLeft"":2,""ArrowUp,ArrowRight"":11,""ArrowDown,ArrowLeft"":8,""ArrowDown,ArrowRight"":27}",12,,23.74,Male,3,rest,373.7000000476837,,ArrowRight,,,,,Adults,6
887,143,410,7513,revaluation,False,./assets/img/canyon/animals/lion.jpg,canyon,27.0,,True,revaluation,2.0,"{""ArrowUp,ArrowLeft"":2,""ArrowUp,ArrowRight"":11,""ArrowDown,ArrowLeft"":8,""ArrowDown,ArrowRight"":27}",13,,23.74,Male,3,rest,544.2999999523163,,ArrowRight,,,,,Adults,6
888,144,412,7513,revaluation,False,./assets/img/canyon/animals/lion.jpg,canyon,27.0,,True,revaluation,2.0,"{""ArrowUp,ArrowLeft"":2,""ArrowUp,ArrowRight"":11,""ArrowDown,ArrowLeft"":8,""ArrowDown,ArrowRight"":27}",14,,23.74,Male,3,rest,446.10000002384186,,ArrowRight,,,,,Adults,7
889,145,414,7513,revaluation,False,./assets/img/canyon/animals/giraffe.jpg,canyon,11.0,,True,revaluation,2.0,"{""ArrowUp,ArrowLeft"":2,""ArrowUp,ArrowRight"":11,""ArrowDown,ArrowLeft"":8,""ArrowDown,ArrowRight"":27}",15,,23.74,Male,3,rest,461.7999999523163,,ArrowRight,,,,,Adults,7
890,146,416,7513,revaluation,False,./assets/img/canyon/animals/giraffe.jpg,canyon,11.0,,True,revaluation,2.0,"{""ArrowUp,ArrowLeft"":2,""ArrowUp,ArrowRight"":11,""ArrowDown,ArrowLeft"":8,""ArrowDown,ArrowRight"":27}",16,,23.74,Male,3,rest,500.89999997615814,,ArrowRight,,,,,Adults,8
891,147,418,7513,revaluation,False,./assets/img/canyon/animals/lion.jpg,canyon,27.0,,True,revaluation,2.0,"{""ArrowUp,ArrowLeft"":2,""ArrowUp,ArrowRight"":11,""ArrowDown,ArrowLeft"":8,""ArrowDown,ArrowRight"":27}",17,,23.74,Male,3,rest,599.6999999284744,,ArrowRight,,,,,Adults,8
1042,50,217,7315,revaluation,False,./assets/img/ocean/animals/octopus.jpg,ocean,7.0,,False,revaluation,1.0,"{""ArrowUp,ArrowLeft"":27,""ArrowUp,ArrowRight"":15,""ArrowDown,ArrowLeft"":21,""ArrowDown,ArrowRight"":7}",0,,12.99,Male,2,rest,568.0999999996275,,ArrowRight,,,,,Children,0
1043,51,219,7315,revaluation,False,./assets/img/ocean/animals/seahorse.jpg,ocean,15.0,,False,revaluation,1.0,"{""ArrowUp,ArrowLeft"":27,""ArrowUp,ArrowRight"":15,""ArrowDown,ArrowLeft"":21,""ArrowDown,ArrowRight"":7}",1,,12.99,Male,2,rest,658.0,,ArrowRight,,,,,Children,0
1044,52,221,7315,revaluation,False,./assets/img/ocean/animals/octopus.jpg,ocean,21.0,,True,revaluation,1.0,"{""ArrowUp,ArrowLeft"":27,""ArrowUp,ArrowRight"":15,""ArrowDown,ArrowLeft"":21,""ArrowDown,ArrowRight"":7}",2,,12.99,Male,2,rest,636.5999999996275,,ArrowLeft,,,,,Children,1
1045,53,223,7315,revaluation,False,./assets/img/ocean/animals/seahorse.jpg,ocean,27.0,,True,revaluation,1.0,"{""ArrowUp,ArrowLeft"":27,""ArrowUp,ArrowRight"":15,""ArrowDown,ArrowLeft"":21,""ArrowDown,ArrowRight"":7}",3,,12.99,Male,2,rest,336.40000000037253,,ArrowLeft,,,,,Children,1
1046,54,225,7315,revaluation,False,./assets/img/ocean/animals/octopus.jpg,ocean,21.0,,True,revaluation,1.0,"{""ArrowUp,ArrowLeft"":27,""ArrowUp,ArrowRight"":15,""ArrowDown,ArrowLeft"":21,""ArrowDown,ArrowRight"":7}",4,,12.99,Male,2,rest,406.5,,ArrowLeft,,,,,Children,2
1047,55,227,7315,revaluation,False,./assets/img/ocean/animals/octopus.jpg,ocean,21.0,,True,revaluation,1.0,"{""ArrowUp,ArrowLeft"":27,""ArrowUp,ArrowRight"":15,""ArrowDown,ArrowLeft"":21,""ArrowDown,ArrowRight"":7}",5,,12.99,Male,2,rest,390.2000000011176,,ArrowLeft,,,,,Children,3
1048,56,229,7315,revaluation,False,./assets/img/ocean/animals/octopus.jpg,ocean,21.0,,True,revaluation,1.0,"{""ArrowUp,ArrowLeft"":27,""ArrowUp,ArrowRight"":15,""ArrowDown,ArrowLeft"":21,""ArrowDown,ArrowRight"":7}",6,,12.99,Male,2,rest,385.30000000074506,,ArrowLeft,,,,,Children,4
1049,57,231,7315,revaluation,False,./assets/img/ocean/animals/octopus.jpg,ocean,21.0,,True,revaluation,1.0,"{""ArrowUp,ArrowLeft"":27,""ArrowUp,ArrowRight"":15,""ArrowDown,ArrowLeft"":21,""ArrowDown,ArrowRight"":7}",7,,12.99,Male,2,rest,309.0,,ArrowLeft,,,,,Children,5
1050,58,233,7315,revaluation,False,./assets/img/ocean/animals/seahorse.jpg,ocean,27.0,,True,revaluation,1.0,"{""ArrowUp,ArrowLeft"":27,""ArrowUp,ArrowRight"":15,""ArrowDown,ArrowLeft"":21,""ArrowDown,ArrowRight"":7}",8,,12.99,Male,2,rest,543.9000000003725,,ArrowLeft,,,,,Children,2
1051,59,235,7315,revaluation,False,./assets/img/ocean/animals/seahorse.jpg,ocean,27.0,,True,revaluation,1.0,"{""ArrowUp,ArrowLeft"":27,""ArrowUp,ArrowRight"":15,""ArrowDown,ArrowLeft"":21,""ArrowDown,ArrowRight"":7}",9,,12.99,Male,2,rest,735.8000000007451,,ArrowLeft,,,,,Children,3
1052,60,237,7315,revaluation,False,./assets/img/ocean/animals/seahorse.jpg,ocean,27.0,,True,revaluation,1.0,"{""ArrowUp,ArrowLeft"":27,""ArrowUp,ArrowRight"":15,""ArrowDown,ArrowLeft"":21,""ArrowDown,ArrowRight"":7}",10,,12.99,Male,2,rest,701.9000000003725,,ArrowLeft,,,,,Children,4
1053,61,239,7315,revaluation,False,./assets/img/ocean/animals/seahorse.jpg,ocean,27.0,,True,revaluation,1.0,"{""ArrowUp,ArrowLeft"":27,""ArrowUp,ArrowRight"":15,""ArrowDown,ArrowLeft"":21,""ArrowDown,ArrowRight"":7}",11,,12.99,Male,2,rest,267.09999999962747,,ArrowLeft,,,,,Children,5
1054,62,241,7315,revaluation,False,./assets/img/ocean/animals/seahorse.jpg,ocean,27.0,,True,revaluation,1.0,"{""ArrowUp,ArrowLeft"":27,""ArrowUp,ArrowRight"":15,""ArrowDown,ArrowLeft"":21,""ArrowDown,ArrowRight"":7}",12,,12.99,Male,2,rest,393.19999999925494,,ArrowLeft,,,,,Children,6
1055,63,243,7315,revaluation,False,./assets/img/ocean/animals/octopus.jpg,ocean,21.0,,True,revaluation,1.0,"{""ArrowUp,ArrowLeft"":27,""ArrowUp,ArrowRight"":15,""ArrowDown,ArrowLeft"":21,""ArrowDown,ArrowRight"":7}",13,,12.99,Male,2,rest,476.6000000014901,,ArrowLeft,,,,,Children,6
1056,64,245,7315,revaluation,False,./assets/img/ocean/animals/octopus.jpg,ocean,21.0,,True,revaluation,1.0,"{""ArrowUp,ArrowLeft"":27,""ArrowUp,ArrowRight"":15,""ArrowDown,ArrowLeft"":21,""ArrowDown,ArrowRight"":7}",14,,12.99,Male,2,rest,400.80000000074506,,ArrowLeft,,,,,Children,7
1057,65,247,7315,revaluation,False,./assets/img/ocean/animals/octopus.jpg,ocean,21.0,,True,revaluation,1.0,"{""ArrowUp,ArrowLeft"":27,""ArrowUp,ArrowRight"":15,""ArrowDown,ArrowLeft"":21,""ArrowDown,ArrowRight"":7}",15,,12.99,Male,2,rest,251.59999999962747,,ArrowLeft,,,,,Children,8
1058,66,249,7315,revaluation,False,./assets/img/ocean/animals/seahorse.jpg,ocean,27.0,,True,revaluation,1.0,"{""ArrowUp,ArrowLeft"":27,""ArrowUp,ArrowRight"":15,""ArrowDown,ArrowLeft"":21,""ArrowDown,ArrowRight"":7}",16,,12.99,Male,2,rest,379.69999999925494,,ArrowLeft,,,,,Children,7
1059,67,251,7315,revaluation,False,./assets/img/ocean/animals/seahorse.jpg,ocean,27.0,,True,revaluation,1.0,"{""ArrowUp,ArrowLeft"":27,""ArrowUp,ArrowRight"":15,""ArrowDown,ArrowLeft"":21,""ArrowDown,ArrowRight"":7}",17,,12.99,Male,2,rest,417.40000000037253,,ArrowLeft,,,,,Children,8
1122,130,386,7315,revaluation,False,./assets/img/canyon/animals/giraffe.jpg,canyon,17.0,,True,original,2.0,"{""ArrowUp,ArrowLeft"":26,""ArrowUp,ArrowRight"":10,""ArrowDown,ArrowLeft"":5,""ArrowDown,ArrowRight"":17}",0,,12.99,Male,2,rest,559.7999999988824,,ArrowRight,,,,,Children,0
1123,131,388,7315,revaluation,False,./assets/img/canyon/animals/giraffe.jpg,canyon,5.0,,False,original,2.0,"{""ArrowUp,ArrowLeft"":26,""ArrowUp,ArrowRight"":10,""ArrowDown,ArrowLeft"":5,""ArrowDown,ArrowRight"":17}",1,,12.99,Male,2,rest,431.2999999988824,,ArrowLeft,,,,,Children,1
1124,132,390,7315,revaluation,False,./assets/img/canyon/animals/lion.jpg,canyon,26.0,,True,original,2.0,"{""ArrowUp,ArrowLeft"":26,""ArrowUp,ArrowRight"":10,""ArrowDown,ArrowLeft"":5,""ArrowDown,ArrowRight"":17}",2,,12.99,Male,2,rest,796.5999999996275,,ArrowLeft,,,,,Children,0
1125,133,392,7315,revaluation,False,./assets/img/canyon/animals/giraffe.jpg,canyon,17.0,,True,original,2.0,"{""ArrowUp,ArrowLeft"":26,""ArrowUp,ArrowRight"":10,""ArrowDown,ArrowLeft"":5,""ArrowDown,ArrowRight"":17}",3,,12.99,Male,2,rest,427.90000000037253,,ArrowRight,,,,,Children,2
1126,134,394,7315,revaluation,False,./assets/img/canyon/animals/giraffe.jpg,canyon,17.0,,True,original,2.0,"{""ArrowUp,ArrowLeft"":26,""ArrowUp,ArrowRight"":10,""ArrowDown,ArrowLeft"":5,""ArrowDown,ArrowRight"":17}",4,,12.99,Male,2,rest,660.4000000003725,,ArrowRight,,,,,Children,3
1127,135,396,7315,revaluation,False,./assets/img/canyon/animals/lion.jpg,canyon,26.0,,True,original,2.0,"{""ArrowUp,ArrowLeft"":26,""ArrowUp,ArrowRight"":10,""ArrowDown,ArrowLeft"":5,""ArrowDown,ArrowRight"":17}",5,,12.99,Male,2,rest,454.5,,ArrowLeft,,,,,Children,1
1128,136,398,7315,revaluation,False,./assets/img/canyon/animals/lion.jpg,canyon,10.0,,False,original,2.0,"{""ArrowUp,ArrowLeft"":26,""ArrowUp,ArrowRight"":10,""ArrowDown,ArrowLeft"":5,""ArrowDown,ArrowRight"":17}",6,,12.99,Male,2,rest,631.3000000007451,,ArrowRight,,,,,Children,2
1129,137,400,7315,revaluation,False,./assets/img/canyon/animals/lion.jpg,canyon,26.0,,True,original,2.0,"{""ArrowUp,ArrowLeft"":26,""ArrowUp,ArrowRight"":10,""ArrowDown,ArrowLeft"":5,""ArrowDown,ArrowRight"":17}",7,,12.99,Male,2,rest,396.7999999988824,,ArrowLeft,,,,,Children,3
1130,138,402,7315,revaluation,False,./assets/img/canyon/animals/giraffe.jpg,canyon,17.0,,True,original,2.0,"{""ArrowUp,ArrowLeft"":26,""ArrowUp,ArrowRight"":10,""ArrowDown,ArrowLeft"":5,""ArrowDown,ArrowRight"":17}",8,,12.99,Male,2,rest,531.4000000003725,,ArrowRight,,,,,Children,4
1131,139,404,7315,revaluation,False,./assets/img/canyon/animals/giraffe.jpg,canyon,17.0,,True,original,2.0,"{""ArrowUp,ArrowLeft"":26,""ArrowUp,ArrowRight"":10,""ArrowDown,ArrowLeft"":5,""ArrowDown,ArrowRight"":17}",9,,12.99,Male,2,rest,487.19999999925494,,ArrowRight,,,,,Children,5
1132,140,406,7315,revaluation,False,./assets/img/canyon/animals/lion.jpg,canyon,26.0,,True,original,2.0,"{""ArrowUp,ArrowLeft"":26,""ArrowUp,ArrowRight"":10,""ArrowDown,ArrowLeft"":5,""ArrowDown,ArrowRight"":17}",10,,12.99,Male,2,rest,429.0,,ArrowLeft,,,,,Children,4
1133,141,408,7315,revaluation,False,./assets/img/canyon/animals/lion.jpg,canyon,26.0,,True,original,2.0,"{""ArrowUp,ArrowLeft"":26,""ArrowUp,ArrowRight"":10,""ArrowDown,ArrowLeft"":5,""ArrowDown,ArrowRight"":17}",11,,12.99,Male,2,rest,582.9000000003725,,ArrowLeft,,,,,Children,5
1134,142,410,7315,revaluation,False,./assets/img/canyon/animals/giraffe.jpg,canyon,17.0,,True,original,2.0,"{""ArrowUp,ArrowLeft"":26,""ArrowUp,ArrowRight"":10,""ArrowDown,ArrowLeft"":5,""ArrowDown,ArrowRight"":17}",12,,12.99,Male,2,rest,662.7000000011176,,ArrowRight,,,,,Children,6
1135,143,412,7315,revaluation,False,./assets/img/canyon/animals/lion.jpg,canyon,26.0,,True,original,2.0,"{""ArrowUp,ArrowLeft"":26,""ArrowUp,ArrowRight"":10,""ArrowDown,ArrowLeft"":5,""ArrowDown,ArrowRight"":17}",13,,12.99,Male,2,rest,613.5,,ArrowLeft,,,,,Children,6
1136,144,414,7315,revaluation,False,./assets/img/canyon/animals/lion.jpg,canyon,26.0,,True,original,2.0,"{""ArrowUp,ArrowLeft"":26,""ArrowUp,ArrowRight"":10,""ArrowDown,ArrowLeft"":5,""ArrowDown,ArrowRight"":17}",14,,12.99,Male,2,rest,771.8999999985099,,ArrowLeft,,,,,Children,7
1137,145,416,7315,revaluation,False,./assets/img/canyon/animals/giraffe.jpg,canyon,17.0,,True,original,2.0,"{""ArrowUp,ArrowLeft"":26,""ArrowUp,ArrowRight"":10,""ArrowDown,ArrowLeft"":5,""ArrowDown,ArrowRight"":17}",15,,12.99,Male,2,rest,413.69999999925494,,ArrowRight,,,,,Children,7
1138,146,418,7315,revaluation,False,./assets/img/canyon/animals/giraffe.jpg,canyon,17.0,,True,original,2.0,"{""ArrowUp,ArrowLeft"":26,""ArrowUp,ArrowRight"":10,""ArrowDown,ArrowLeft"":5,""ArrowDown,ArrowRight"":17}",16,,12.99,Male,2,rest,814.7999999988824,,ArrowRight,,,,,Children,8
1139,147,420,7315,revaluation,False,./assets/img/canyon/animals/lion.jpg,canyon,26.0,,True,original,2.0,"{""ArrowUp,ArrowLeft"":26,""ArrowUp,ArrowRight"":10,""ArrowDown,ArrowLeft"":5,""ArrowDown,ArrowRight"":17}",17,,12.99,Male,2,rest,550.5,,ArrowLeft,,,,,Children,8
1290,50,215,7301,revaluation,False,./assets/img/ocean/animals/seahorse.jpg,ocean,17.0,,True,original,1.0,"{""ArrowUp,ArrowLeft"":26,""ArrowUp,ArrowRight"":10,""ArrowDown,ArrowLeft"":5,""ArrowDown,ArrowRight"":17}",0,,11.83,Male,1,rest,1049.8999999910593,,ArrowRight,,,,,Children,0
1291,51,217,7301,revaluation,False,./assets/img/ocean/animals/octopus.jpg,ocean,26.0,,True,original,1.0,"{""ArrowUp,ArrowLeft"":26,""ArrowUp,ArrowRight"":10,""ArrowDown,ArrowLeft"":5,""ArrowDown,ArrowRight"":17}",1,,11.83,Male,1,rest,584.0999999940395,,ArrowLeft,,,,,Children,0
1292,52,219,7301,revaluation,False,./assets/img/ocean/animals/seahorse.jpg,ocean,17.0,,True,original,1.0,"{""ArrowUp,ArrowLeft"":26,""ArrowUp,ArrowRight"":10,""ArrowDown,ArrowLeft"":5,""ArrowDown,ArrowRight"":17}",2,,11.83,Male,1,rest,592.7000000029802,,ArrowRight,,,,,Children,1
1293,53,221,7301,revaluation,False,./assets/img/ocean/animals/seahorse.jpg,ocean,17.0,,True,original,1.0,"{""ArrowUp,ArrowLeft"":26,""ArrowUp,ArrowRight"":10,""ArrowDown,ArrowLeft"":5,""ArrowDown,ArrowRight"":17}",3,,11.83,Male,1,rest,762.1000000089407,,ArrowRight,,,,,Children,2
1294,54,223,7301,revaluation,False,./assets/img/ocean/animals/octopus.jpg,ocean,26.0,,True,original,1.0,"{""ArrowUp,ArrowLeft"":26,""ArrowUp,ArrowRight"":10,""ArrowDown,ArrowLeft"":5,""ArrowDown,ArrowRight"":17}",4,,11.83,Male,1,rest,642.5999999940395,,ArrowLeft,,,,,Children,1
1295,55,225,7301,revaluation,False,./assets/img/ocean/animals/octopus.jpg,ocean,26.0,,True,original,1.0,"{""ArrowUp,ArrowLeft"":26,""ArrowUp,ArrowRight"":10,""ArrowDown,ArrowLeft"":5,""ArrowDown,ArrowRight"":17}",5,,11.83,Male,1,rest,614.2000000029802,,ArrowLeft,,,,,Children,2
1296,56,227,7301,revaluation,False,./assets/img/ocean/animals/octopus.jpg,ocean,26.0,,True,original,1.0,"{""ArrowUp,ArrowLeft"":26,""ArrowUp,ArrowRight"":10,""ArrowDown,ArrowLeft"":5,""ArrowDown,ArrowRight"":17}",6,,11.83,Male,1,rest,595.5999999940395,,ArrowLeft,,,,,Children,3
1297,57,229,7301,revaluation,False,./assets/img/ocean/animals/octopus.jpg,ocean,26.0,,True,original,1.0,"{""ArrowUp,ArrowLeft"":26,""ArrowUp,ArrowRight"":10,""ArrowDown,ArrowLeft"":5,""ArrowDown,ArrowRight"":17}",7,,11.83,Male,1,rest,560.9000000059605,,ArrowLeft,,,,,Children,4
1298,58,231,7301,revaluation,False,./assets/img/ocean/animals/octopus.jpg,ocean,26.0,,True,original,1.0,"{""ArrowUp,ArrowLeft"":26,""ArrowUp,ArrowRight"":10,""ArrowDown,ArrowLeft"":5,""ArrowDown,ArrowRight"":17}",8,,11.83,Male,1,rest,587.5,,ArrowLeft,,,,,Children,5
1299,59,233,7301,revaluation,False,./assets/img/ocean/animals/seahorse.jpg,ocean,17.0,,True,original,1.0,"{""ArrowUp,ArrowLeft"":26,""ArrowUp,ArrowRight"":10,""ArrowDown,ArrowLeft"":5,""ArrowDown,ArrowRight"":17}",9,,11.83,Male,1,rest,554.8999999910593,,ArrowRight,,,,,Children,3
1300,60,235,7301,revaluation,False,./assets/img/ocean/animals/seahorse.jpg,ocean,17.0,,True,original,1.0,"{""ArrowUp,ArrowLeft"":26,""ArrowUp,ArrowRight"":10,""ArrowDown,ArrowLeft"":5,""ArrowDown,ArrowRight"":17}",10,,11.83,Male,1,rest,738.2000000029802,,ArrowRight,,,,,Children,4
1301,61,237,7301,revaluation,False,./assets/img/ocean/animals/seahorse.jpg,ocean,17.0,,True,original,1.0,"{""ArrowUp,ArrowLeft"":26,""ArrowUp,ArrowRight"":10,""ArrowDown,ArrowLeft"":5,""ArrowDown,ArrowRight"":17}",11,,11.83,Male,1,rest,696.2999999970198,,ArrowRight,,,,,Children,5
1302,62,239,7301,revaluation,False,./assets/img/ocean/animals/seahorse.jpg,ocean,17.0,,True,original,1.0,"{""ArrowUp,ArrowLeft"":26,""ArrowUp,ArrowRight"":10,""ArrowDown,ArrowLeft"":5,""ArrowDown,ArrowRight"":17}",12,,11.83,Male,1,rest,704.2000000029802,,ArrowRight,,,,,Children,6
1303,63,241,7301,revaluation,False,./assets/img/ocean/animals/seahorse.jpg,ocean,17.0,,True,original,1.0,"{""ArrowUp,ArrowLeft"":26,""ArrowUp,ArrowRight"":10,""ArrowDown,ArrowLeft"":5,""ArrowDown,ArrowRight"":17}",13,,11.83,Male,1,rest,725.3999999910593,,ArrowRight,,,,,Children,7
1304,64,243,7301,revaluation,False,./assets/img/ocean/animals/octopus.jpg,ocean,26.0,,True,original,1.0,"{""ArrowUp,ArrowLeft"":26,""ArrowUp,ArrowRight"":10,""ArrowDown,ArrowLeft"":5,""ArrowDown,ArrowRight"":17}",14,,11.83,Male,1,rest,717.5,,ArrowLeft,,,,,Children,6
1305,65,245,7301,revaluation,False,./assets/img/ocean/animals/octopus.jpg,ocean,26.0,,True,original,1.0,"{""ArrowUp,ArrowLeft"":26,""ArrowUp,ArrowRight"":10,""ArrowDown,ArrowLeft"":5,""ArrowDown,ArrowRight"":17}",15,,11.83,Male,1,rest,669.0999999940395,,ArrowLeft,,,,,Children,7
1306,66,247,7301,revaluation,False,./assets/img/ocean/animals/octopus.jpg,ocean,26.0,,True,original,1.0,"{""ArrowUp,ArrowLeft"":26,""ArrowUp,ArrowRight"":10,""ArrowDown,ArrowLeft"":5,""ArrowDown,ArrowRight"":17}",16,,11.83,Male,1,rest,795.2999999970198,,ArrowLeft,,,,,Children,8
1307,67,249,7301,revaluation,False,./assets/img/ocean/animals/seahorse.jpg,ocean,17.0,,True,original,1.0,"{""ArrowUp,ArrowLeft"":26,""ArrowUp,ArrowRight"":10,""ArrowDown,ArrowLeft"":5,""ArrowDown,ArrowRight"":17}",17,,11.83,Male,1,rest,915.0,,ArrowRight,,,,,Children,8
1370,130,384,7301,revaluation,True,./assets/img/canyon/animals/lion.jpg,canyon,-5.0,,False,revaluation,2.0,"{""ArrowUp,ArrowLeft"":27,""ArrowUp,ArrowRight"":15,""ArrowDown,ArrowLeft"":21,""ArrowDown,ArrowRight"":7}",0,,11.83,Male,1,rest,,,,,,,,Children,0
1371,131,386,7301,revaluation,False,./assets/img/canyon/animals/lion.jpg,canyon,27.0,,True,revaluation,2.0,"{""ArrowUp,ArrowLeft"":27,""ArrowUp,ArrowRight"":15,""ArrowDown,ArrowLeft"":21,""ArrowDown,ArrowRight"":7}",1,,11.83,Male,1,rest,1604.4000000059605,,ArrowLeft,,,,,Children,1
1372,132,388,7301,revaluation,False,./assets/img/canyon/animals/lion.jpg,canyon,15.0,,False,revaluation,2.0,"{""ArrowUp,ArrowLeft"":27,""ArrowUp,ArrowRight"":15,""ArrowDown,ArrowLeft"":21,""ArrowDown,ArrowRight"":7}",2,,11.83,Male,1,rest,1192.7999999970198,,ArrowRight,,,,,Children,2
1373,133,390,7301,revaluation,False,./assets/img/canyon/animals/lion.jpg,canyon,27.0,,True,revaluation,2.0,"{""ArrowUp,ArrowLeft"":27,""ArrowUp,ArrowRight"":15,""ArrowDown,ArrowLeft"":21,""ArrowDown,ArrowRight"":7}",3,,11.83,Male,1,rest,507.59999999403954,,ArrowLeft,,,,,Children,3
1374,134,392,7301,revaluation,False,./assets/img/canyon/animals/giraffe.jpg,canyon,7.0,,False,revaluation,2.0,"{""ArrowUp,ArrowLeft"":27,""ArrowUp,ArrowRight"":15,""ArrowDown,ArrowLeft"":21,""ArrowDown,ArrowRight"":7}",4,,11.83,Male,1,rest,667.0999999940395,,ArrowRight,,,,,Children,0
1375,135,394,7301,revaluation,False,./assets/img/canyon/animals/giraffe.jpg,canyon,21.0,,True,revaluation,2.0,"{""ArrowUp,ArrowLeft"":27,""ArrowUp,ArrowRight"":15,""ArrowDown,ArrowLeft"":21,""ArrowDown,ArrowRight"":7}",5,,11.83,Male,1,rest,557.9000000059605,,ArrowLeft,,,,,Children,1
1376,136,396,7301,revaluation,False,./assets/img/canyon/animals/giraffe.jpg,canyon,21.0,,True,revaluation,2.0,"{""ArrowUp,ArrowLeft"":27,""ArrowUp,ArrowRight"":15,""ArrowDown,ArrowLeft"":21,""ArrowDown,ArrowRight"":7}",6,,11.83,Male,1,rest,706.5,,ArrowLeft,,,,,Children,2
1377,137,398,7301,revaluation,False,./assets/img/canyon/animals/giraffe.jpg,canyon,21.0,,True,revaluation,2.0,"{""ArrowUp,ArrowLeft"":27,""ArrowUp,ArrowRight"":15,""ArrowDown,ArrowLeft"":21,""ArrowDown,ArrowRight"":7}",7,,11.83,Male,1,rest,513.0999999940395,,ArrowLeft,,,,,Children,3
1378,138,400,7301,revaluation,False,./assets/img/canyon/animals/lion.jpg,canyon,27.0,,True,revaluation,2.0,"{""ArrowUp,ArrowLeft"":27,""ArrowUp,ArrowRight"":15,""ArrowDown,ArrowLeft"":21,""ArrowDown,ArrowRight"":7}",8,,11.83,Male,1,rest,587.0,,ArrowLeft,,,,,Children,4
1379,139,402,7301,revaluation,False,./assets/img/canyon/animals/giraffe.jpg,canyon,21.0,,True,revaluation,2.0,"{""ArrowUp,ArrowLeft"":27,""ArrowUp,ArrowRight"":15,""ArrowDown,ArrowLeft"":21,""ArrowDown,ArrowRight"":7}",9,,11.83,Male,1,rest,793.2999999970198,,ArrowLeft,,,,,Children,4
1380,140,404,7301,revaluation,False,./assets/img/canyon/animals/giraffe.jpg,canyon,21.0,,True,revaluation,2.0,"{""ArrowUp,ArrowLeft"":27,""ArrowUp,ArrowRight"":15,""ArrowDown,ArrowLeft"":21,""ArrowDown,ArrowRight"":7}",10,,11.83,Male,1,rest,540.4000000059605,,ArrowLeft,,,,,Children,5
1381,141,406,7301,revaluation,False,./assets/img/canyon/animals/giraffe.jpg,canyon,21.0,,True,revaluation,2.0,"{""ArrowUp,ArrowLeft"":27,""ArrowUp,ArrowRight"":15,""ArrowDown,ArrowLeft"":21,""ArrowDown,ArrowRight"":7}",11,,11.83,Male,1,rest,633.0,,ArrowLeft,,,,,Children,6
1382,142,408,7301,revaluation,False,./assets/img/canyon/animals/giraffe.jpg,canyon,21.0,,True,revaluation,2.0,"{""ArrowUp,ArrowLeft"":27,""ArrowUp,ArrowRight"":15,""ArrowDown,ArrowLeft"":21,""ArrowDown,ArrowRight"":7}",12,,11.83,Male,1,rest,168.1000000089407,,ArrowLeft,,,,,Children,7
1383,143,410,7301,revaluation,False,./assets/img/canyon/animals/giraffe.jpg,canyon,21.0,,True,revaluation,2.0,"{""ArrowUp,ArrowLeft"":27,""ArrowUp,ArrowRight"":15,""ArrowDown,ArrowLeft"":21,""ArrowDown,ArrowRight"":7}",13,,11.83,Male,1,rest,126.09999999403954,,ArrowLeft,,,,,Children,8
1384,144,412,7301,revaluation,False,./assets/img/canyon/animals/lion.jpg,canyon,27.0,,True,revaluation,2.0,"{""ArrowUp,ArrowLeft"":27,""ArrowUp,ArrowRight"":15,""ArrowDown,ArrowLeft"":21,""ArrowDown,ArrowRight"":7}",14,,11.83,Male,1,rest,91.79999999701977,,ArrowLeft,,,,,Children,5
1385,145,414,7301,revaluation,False,./assets/img/canyon/animals/lion.jpg,canyon,27.0,,True,revaluation,2.0,"{""ArrowUp,ArrowLeft"":27,""ArrowUp,ArrowRight"":15,""ArrowDown,ArrowLeft"":21,""ArrowDown,ArrowRight"":7}",15,,11.83,Male,1,rest,234.20000000298023,,ArrowLeft,,,,,Children,6
1386,146,416,7301,revaluation,False,./assets/img/canyon/animals/lion.jpg,canyon,27.0,,True,revaluation,2.0,"{""ArrowUp,ArrowLeft"":27,""ArrowUp,ArrowRight"":15,""ArrowDown,ArrowLeft"":21,""ArrowDown,ArrowRight"":7}",16,,11.83,Male,1,rest,376.5,,ArrowLeft,,,,,Children,7
1387,147,418,7301,revaluation,False,./assets/img/canyon/animals/lion.jpg,canyon,27.0,,True,revaluation,2.0,"{""ArrowUp,ArrowLeft"":27,""ArrowUp,ArrowRight"":15,""ArrowDown,ArrowLeft"":21,""ArrowDown,ArrowRight"":7}",17,,11.83,Male,1,rest,93.90000000596046,,ArrowLeft,,,,,Children,8
1538,50,215,7317,revaluation,False,./assets/img/ocean/animals/octopus.jpg,ocean,17.0,,True,original,1.0,"{""ArrowUp,ArrowLeft"":26,""ArrowUp,ArrowRight"":10,""ArrowDown,ArrowLeft"":5,""ArrowDown,ArrowRight"":17}",0,,12.25,Male,1,rest,1399.0,,ArrowRight,,,,,Children,0
1539,51,217,7317,revaluation,False,./assets/img/ocean/animals/octopus.jpg,ocean,17.0,,True,original,1.0,"{""ArrowUp,ArrowLeft"":26,""ArrowUp,ArrowRight"":10,""ArrowDown,ArrowLeft"":5,""ArrowDown,ArrowRight"":17}",1,,12.25,Male,1,rest,569.4000005722046,,ArrowRight,,,,,Children,1
1540,52,219,7317,revaluation,False,./assets/img/ocean/animals/octopus.jpg,ocean,17.0,,True,original,1.0,"{""ArrowUp,ArrowLeft"":26,""ArrowUp,ArrowRight"":10,""ArrowDown,ArrowLeft"":5,""ArrowDown,ArrowRight"":17}",2,,12.25,Male,1,rest,569.3000001907349,,ArrowRight,,,,,Children,2
1541,53,221,7317,revaluation,False,./assets/img/ocean/animals/seahorse.jpg,ocean,26.0,,True,original,1.0,"{""ArrowUp,ArrowLeft"":26,""ArrowUp,ArrowRight"":10,""ArrowDown,ArrowLeft"":5,""ArrowDown,ArrowRight"":17}",3,,12.25,Male,1,rest,649.8000001907349,,ArrowLeft,,,,,Children,0
1542,54,223,7317,revaluation,False,./assets/img/ocean/animals/octopus.jpg,ocean,17.0,,True,original,1.0,"{""ArrowUp,ArrowLeft"":26,""ArrowUp,ArrowRight"":10,""ArrowDown,ArrowLeft"":5,""ArrowDown,ArrowRight"":17}",4,,12.25,Male,1,rest,558.6000003814697,,ArrowRight,,,,,Children,3
1543,55,225,7317,revaluation,False,./assets/img/ocean/animals/octopus.jpg,ocean,17.0,,True,original,1.0,"{""ArrowUp,ArrowLeft"":26,""ArrowUp,ArrowRight"":10,""ArrowDown,ArrowLeft"":5,""ArrowDown,ArrowRight"":17}",5,,12.25,Male,1,rest,734.6000003814697,,ArrowRight,,,,,Children,4
1544,56,227,7317,revaluation,False,./assets/img/ocean/animals/octopus.jpg,ocean,17.0,,True,original,1.0,"{""ArrowUp,ArrowLeft"":26,""ArrowUp,ArrowRight"":10,""ArrowDown,ArrowLeft"":5,""ArrowDown,ArrowRight"":17}",6,,12.25,Male,1,rest,630.6999998092651,,ArrowRight,,,,,Children,5
1545,57,229,7317,revaluation,False,./assets/img/ocean/animals/octopus.jpg,ocean,17.0,,True,original,1.0,"{""ArrowUp,ArrowLeft"":26,""ArrowUp,ArrowRight"":10,""ArrowDown,ArrowLeft"":5,""ArrowDown,ArrowRight"":17}",7,,12.25,Male,1,rest,527.4000005722046,,ArrowRight,,,,,Children,6
1546,58,231,7317,revaluation,False,./assets/img/ocean/animals/seahorse.jpg,ocean,26.0,,True,original,1.0,"{""ArrowUp,ArrowLeft"":26,""ArrowUp,ArrowRight"":10,""ArrowDown,ArrowLeft"":5,""ArrowDown,ArrowRight"":17}",8,,12.25,Male,1,rest,563.0999994277954,,ArrowLeft,,,,,Children,1
1547,59,233,7317,revaluation,False,./assets/img/ocean/animals/seahorse.jpg,ocean,26.0,,True,original,1.0,"{""ArrowUp,ArrowLeft"":26,""ArrowUp,ArrowRight"":10,""ArrowDown,ArrowLeft"":5,""ArrowDown,ArrowRight"":17}",9,,12.25,Male,1,rest,537.6000003814697,,ArrowLeft,,,,,Children,2
1548,60,235,7317,revaluation,False,./assets/img/ocean/animals/octopus.jpg,ocean,17.0,,True,original,1.0,"{""ArrowUp,ArrowLeft"":26,""ArrowUp,ArrowRight"":10,""ArrowDown,ArrowLeft"":5,""ArrowDown,ArrowRight"":17}",10,,12.25,Male,1,rest,510.80000019073486,,ArrowRight,,,,,Children,7
1549,61,237,7317,revaluation,False,./assets/img/ocean/animals/seahorse.jpg,ocean,26.0,,True,original,1.0,"{""ArrowUp,ArrowLeft"":26,""ArrowUp,ArrowRight"":10,""ArrowDown,ArrowLeft"":5,""ArrowDown,ArrowRight"":17}",11,,12.25,Male,1,rest,549.1000003814697,,ArrowLeft,,,,,Children,3
1550,62,239,7317,revaluation,False,./assets/img/ocean/animals/octopus.jpg,ocean,17.0,,True,original,1.0,"{""ArrowUp,ArrowLeft"":26,""ArrowUp,ArrowRight"":10,""ArrowDown,ArrowLeft"":5,""ArrowDown,ArrowRight"":17}",12,,12.25,Male,1,rest,1044.6999998092651,,ArrowRight,,,,,Children,8
1551,63,241,7317,revaluation,False,./assets/img/ocean/animals/seahorse.jpg,ocean,26.0,,True,original,1.0,"{""ArrowUp,ArrowLeft"":26,""ArrowUp,ArrowRight"":10,""ArrowDown,ArrowLeft"":5,""ArrowDown,ArrowRight"":17}",13,,12.25,Male,1,rest,748.8000001907349,,ArrowLeft,,,,,Children,4
1552,64,243,7317,revaluation,False,./assets/img/ocean/animals/seahorse.jpg,ocean,26.0,,True,original,1.0,"{""ArrowUp,ArrowLeft"":26,""ArrowUp,ArrowRight"":10,""ArrowDown,ArrowLeft"":5,""ArrowDown,ArrowRight"":17}",14,,12.25,Male,1,rest,781.2999992370605,,ArrowLeft,,,,,Children,5
1553,65,245,7317,revaluation,False,./assets/img/ocean/animals/seahorse.jpg,ocean,26.0,,True,original,1.0,"{""ArrowUp,ArrowLeft"":26,""ArrowUp,ArrowRight"":10,""ArrowDown,ArrowLeft"":5,""ArrowDown,ArrowRight"":17}",15,,12.25,Male,1,rest,685.4000005722046,,ArrowLeft,,,,,Children,6
1554,66,247,7317,revaluation,False,./assets/img/ocean/animals/seahorse.jpg,ocean,26.0,,True,original,1.0,"{""ArrowUp,ArrowLeft"":26,""ArrowUp,ArrowRight"":10,""ArrowDown,ArrowLeft"":5,""ArrowDown,ArrowRight"":17}",16,,12.25,Male,1,rest,566.0999994277954,,ArrowLeft,,,,,Children,7
1555,67,249,7317,revaluation,False,./assets/img/ocean/animals/seahorse.jpg,ocean,26.0,,True,original,1.0,"{""ArrowUp,ArrowLeft"":26,""ArrowUp,ArrowRight"":10,""ArrowDown,ArrowLeft"":5,""ArrowDown,ArrowRight"":17}",17,,12.25,Male,1,rest,798.0,,ArrowLeft,,,,,Children,8
1618,130,384,7317,revaluation,False,./assets/img/canyon/animals/lion.jpg,canyon,7.0,,False,revaluation,2.0,"{""ArrowUp,ArrowLeft"":27,""ArrowUp,ArrowRight"":15,""ArrowDown,ArrowLeft"":21,""ArrowDown,ArrowRight"":7}",0,,12.25,Male,1,rest,1009.1999998092651,,ArrowRight,,,,,Children,0
1619,131,386,7317,revaluation,False,./assets/img/canyon/animals/giraffe.jpg,canyon,27.0,,True,revaluation,2.0,"{""ArrowUp,ArrowLeft"":27,""ArrowUp,ArrowRight"":15,""ArrowDown,ArrowLeft"":21,""ArrowDown,ArrowRight"":7}",1,,12.25,Male,1,rest,1672.3000001907349,,ArrowLeft,,,,,Children,0
1620,132,388,7317,revaluation,False,./assets/img/canyon/animals/giraffe.jpg,canyon,27.0,,True,revaluation,2.0,"{""ArrowUp,ArrowLeft"":27,""ArrowUp,ArrowRight"":15,""ArrowDown,ArrowLeft"":21,""ArrowDown,ArrowRight"":7}",2,,12.25,Male,1,rest,927.1000003814697,,ArrowLeft,,,,,Children,1
1621,133,390,7317,revaluation,False,./assets/img/canyon/animals/lion.jpg,canyon,21.0,,True,revaluation,2.0,"{""ArrowUp,ArrowLeft"":27,""ArrowUp,ArrowRight"":15,""ArrowDown,ArrowLeft"":21,""ArrowDown,ArrowRight"":7}",3,,12.25,Male,1,rest,782.1999998092651,,ArrowLeft,,,,,Children,1
1622,134,392,7317,revaluation,False,./assets/img/canyon/animals/giraffe.jpg,canyon,27.0,,True,revaluation,2.0,"{""ArrowUp,ArrowLeft"":27,""ArrowUp,ArrowRight"":15,""ArrowDown,ArrowLeft"":21,""ArrowDown,ArrowRight"":7}",4,,12.25,Male,1,rest,704.6999998092651,,ArrowLeft,,,,,Children,2
1623,135,394,7317,revaluation,False,./assets/img/canyon/animals/lion.jpg,canyon,21.0,,True,revaluation,2.0,"{""ArrowUp,ArrowLeft"":27,""ArrowUp,ArrowRight"":15,""ArrowDown,ArrowLeft"":21,""ArrowDown,ArrowRight"":7}",5,,12.25,Male,1,rest,398.5,,ArrowLeft,,,,,Children,2
1624,136,396,7317,revaluation,False,./assets/img/canyon/animals/lion.jpg,canyon,21.0,,True,revaluation,2.0,"{""ArrowUp,ArrowLeft"":27,""ArrowUp,ArrowRight"":15,""ArrowDown,ArrowLeft"":21,""ArrowDown,ArrowRight"":7}",6,,12.25,Male,1,rest,676.6000003814697,,ArrowLeft,,,,,Children,3
1625,137,398,7317,revaluation,False,./assets/img/canyon/animals/lion.jpg,canyon,21.0,,True,revaluation,2.0,"{""ArrowUp,ArrowLeft"":27,""ArrowUp,ArrowRight"":15,""ArrowDown,ArrowLeft"":21,""ArrowDown,ArrowRight"":7}",7,,12.25,Male,1,rest,804.3000001907349,,ArrowLeft,,,,,Children,4
1626,138,400,7317,revaluation,False,./assets/img/canyon/animals/giraffe.jpg,canyon,27.0,,True,revaluation,2.0,"{""ArrowUp,ArrowLeft"":27,""ArrowUp,ArrowRight"":15,""ArrowDown,ArrowLeft"":21,""ArrowDown,ArrowRight"":7}",8,,12.25,Male,1,rest,980.9000005722046,,ArrowLeft,,,,,Children,3
1627,139,402,7317,revaluation,False,./assets/img/canyon/animals/giraffe.jpg,canyon,27.0,,True,revaluation,2.0,"{""ArrowUp,ArrowLeft"":27,""ArrowUp,ArrowRight"":15,""ArrowDown,ArrowLeft"":21,""ArrowDown,ArrowRight"":7}",9,,12.25,Male,1,rest,885.6000003814697,,ArrowLeft,,,,,Children,4
1628,140,404,7317,revaluation,False,./assets/img/canyon/animals/giraffe.jpg,canyon,15.0,,False,revaluation,2.0,"{""ArrowUp,ArrowLeft"":27,""ArrowUp,ArrowRight"":15,""ArrowDown,ArrowLeft"":21,""ArrowDown,ArrowRight"":7}",10,,12.25,Male,1,rest,469.30000019073486,,ArrowRight,,,,,Children,5
1629,141,406,7317,revaluation,False,./assets/img/canyon/animals/lion.jpg,canyon,21.0,,True,revaluation,2.0,"{""ArrowUp,ArrowLeft"":27,""ArrowUp,ArrowRight"":15,""ArrowDown,ArrowLeft"":21,""ArrowDown,ArrowRight"":7}",11,,12.25,Male,1,rest,357.19999980926514,,ArrowLeft,,,,,Children,5
1630,142,408,7317,revaluation,False,./assets/img/canyon/animals/lion.jpg,canyon,21.0,,True,revaluation,2.0,"{""ArrowUp,ArrowLeft"":27,""ArrowUp,ArrowRight"":15,""ArrowDown,ArrowLeft"":21,""ArrowDown,ArrowRight"":7}",12,,12.25,Male,1,rest,134.39999961853027,,ArrowLeft,,,,,Children,6
1631,143,410,7317,revaluation,False,./assets/img/canyon/animals/lion.jpg,canyon,21.0,,True,revaluation,2.0,"{""ArrowUp,ArrowLeft"":27,""ArrowUp,ArrowRight"":15,""ArrowDown,ArrowLeft"":21,""ArrowDown,ArrowRight"":7}",13,,12.25,Male,1,rest,20.40000057220459,,ArrowLeft,,,,,Children,7
1632,144,412,7317,revaluation,False,./assets/img/canyon/animals/giraffe.jpg,canyon,27.0,,True,revaluation,2.0,"{""ArrowUp,ArrowLeft"":27,""ArrowUp,ArrowRight"":15,""ArrowDown,ArrowLeft"":21,""ArrowDown,ArrowRight"":7}",14,,12.25,Male,1,rest,214.19999980926514,,ArrowLeft,,,,,Children,6
1633,145,414,7317,revaluation,False,./assets/img/canyon/animals/giraffe.jpg,canyon,27.0,,True,revaluation,2.0,"{""ArrowUp,ArrowLeft"":27,""ArrowUp,ArrowRight"":15,""ArrowDown,ArrowLeft"":21,""ArrowDown,ArrowRight"":7}",15,,12.25,Male,1,rest,437.6000003814697,,ArrowLeft,,,,,Children,7
1634,146,416,7317,revaluation,False,./assets/img/canyon/animals/lion.jpg,canyon,21.0,,True,revaluation,2.0,"{""ArrowUp,ArrowLeft"":27,""ArrowUp,ArrowRight"":15,""ArrowDown,ArrowLeft"":21,""ArrowDown,ArrowRight"":7}",16,,12.25,Male,1,rest,68.40000057220459,,ArrowLeft,,,,,Children,8
1635,147,418,7317,revaluation,False,./assets/img/canyon/animals/giraffe.jpg,canyon,27.0,,True,revaluation,2.0,"{""ArrowUp,ArrowLeft"":27,""ArrowUp,ArrowRight"":15,""ArrowDown,ArrowLeft"":21,""ArrowDown,ArrowRight"":7}",17,,12.25,Male,1,rest,543.1000003814697,,ArrowLeft,,,,,Children,8
1786,50,217,7505,revaluation,False,./assets/img/ocean/animals/seahorse.jpg,ocean,30.0,,True,original,1.0,"{""ArrowUp,ArrowLeft"":23,""ArrowUp,ArrowRight"":10,""ArrowDown,ArrowLeft"":8,""ArrowDown,ArrowRight"":30}",0,,22.4,Female,3,rest,820.0,,ArrowRight,,,,,Adults,0
1787,51,219,7505,revaluation,False,./assets/img/ocean/animals/seahorse.jpg,ocean,30.0,,True,original,1.0,"{""ArrowUp,ArrowLeft"":23,""ArrowUp,ArrowRight"":10,""ArrowDown,ArrowLeft"":8,""ArrowDown,ArrowRight"":30}",1,,22.4,Female,3,rest,586.0,,ArrowRight,,,,,Adults,1
1788,52,221,7505,revaluation,False,./assets/img/ocean/animals/seahorse.jpg,ocean,30.0,,True,original,1.0,"{""ArrowUp,ArrowLeft"":23,""ArrowUp,ArrowRight"":10,""ArrowDown,ArrowLeft"":8,""ArrowDown,ArrowRight"":30}",2,,22.4,Female,3,rest,581.0,,ArrowRight,,,,,Adults,2
1789,53,223,7505,revaluation,False,./assets/img/ocean/animals/octopus.jpg,ocean,23.0,,True,original,1.0,"{""ArrowUp,ArrowLeft"":23,""ArrowUp,ArrowRight"":10,""ArrowDown,ArrowLeft"":8,""ArrowDown,ArrowRight"":30}",3,,22.4,Female,3,rest,956.0,,ArrowLeft,,,,,Adults,0
1790,54,225,7505,revaluation,False,./assets/img/ocean/animals/seahorse.jpg,ocean,30.0,,True,original,1.0,"{""ArrowUp,ArrowLeft"":23,""ArrowUp,ArrowRight"":10,""ArrowDown,ArrowLeft"":8,""ArrowDown,ArrowRight"":30}",4,,22.4,Female,3,rest,680.0,,ArrowRight,,,,,Adults,3
1791,55,227,7505,revaluation,False,./assets/img/ocean/animals/seahorse.jpg,ocean,30.0,,True,original,1.0,"{""ArrowUp,ArrowLeft"":23,""ArrowUp,ArrowRight"":10,""ArrowDown,ArrowLeft"":8,""ArrowDown,ArrowRight"":30}",5,,22.4,Female,3,rest,611.0,,ArrowRight,,,,,Adults,4
1792,56,229,7505,revaluation,False,./assets/img/ocean/animals/seahorse.jpg,ocean,30.0,,True,original,1.0,"{""ArrowUp,ArrowLeft"":23,""ArrowUp,ArrowRight"":10,""ArrowDown,ArrowLeft"":8,""ArrowDown,ArrowRight"":30}",6,,22.4,Female,3,rest,696.0,,ArrowRight,,,,,Adults,5
1793,57,231,7505,revaluation,False,./assets/img/ocean/animals/octopus.jpg,ocean,23.0,,True,original,1.0,"{""ArrowUp,ArrowLeft"":23,""ArrowUp,ArrowRight"":10,""ArrowDown,ArrowLeft"":8,""ArrowDown,ArrowRight"":30}",7,,22.4,Female,3,rest,725.0,,ArrowLeft,,,,,Adults,1
1794,58,233,7505,revaluation,False,./assets/img/ocean/animals/octopus.jpg,ocean,23.0,,True,original,1.0,"{""ArrowUp,ArrowLeft"":23,""ArrowUp,ArrowRight"":10,""ArrowDown,ArrowLeft"":8,""ArrowDown,ArrowRight"":30}",8,,22.4,Female,3,rest,717.0,,ArrowLeft,,,,,Adults,2
1795,59,235,7505,revaluation,False,./assets/img/ocean/animals/seahorse.jpg,ocean,30.0,,True,original,1.0,"{""ArrowUp,ArrowLeft"":23,""ArrowUp,ArrowRight"":10,""ArrowDown,ArrowLeft"":8,""ArrowDown,ArrowRight"":30}",9,,22.4,Female,3,rest,630.0,,ArrowRight,,,,,Adults,6
1796,60,237,7505,revaluation,False,./assets/img/ocean/animals/seahorse.jpg,ocean,30.0,,True,original,1.0,"{""ArrowUp,ArrowLeft"":23,""ArrowUp,ArrowRight"":10,""ArrowDown,ArrowLeft"":8,""ArrowDown,ArrowRight"":30}",10,,22.4,Female,3,rest,596.0,,ArrowRight,,,,,Adults,7
1797,61,239,7505,revaluation,False,./assets/img/ocean/animals/octopus.jpg,ocean,23.0,,True,original,1.0,"{""ArrowUp,ArrowLeft"":23,""ArrowUp,ArrowRight"":10,""ArrowDown,ArrowLeft"":8,""ArrowDown,ArrowRight"":30}",11,,22.4,Female,3,rest,778.0,,ArrowLeft,,,,,Adults,3
1798,62,241,7505,revaluation,False,./assets/img/ocean/animals/octopus.jpg,ocean,23.0,,True,original,1.0,"{""ArrowUp,ArrowLeft"":23,""ArrowUp,ArrowRight"":10,""ArrowDown,ArrowLeft"":8,""ArrowDown,ArrowRight"":30}",12,,22.4,Female,3,rest,620.0,,ArrowLeft,,,,,Adults,4
1799,63,243,7505,revaluation,False,./assets/img/ocean/animals/seahorse.jpg,ocean,30.0,,True,original,1.0,"{""ArrowUp,ArrowLeft"":23,""ArrowUp,ArrowRight"":10,""ArrowDown,ArrowLeft"":8,""ArrowDown,ArrowRight"":30}",13,,22.4,Female,3,rest,495.0,,ArrowRight,,,,,Adults,8
1800,64,245,7505,revaluation,False,./assets/img/ocean/animals/octopus.jpg,ocean,23.0,,True,original,1.0,"{""ArrowUp,ArrowLeft"":23,""ArrowUp,ArrowRight"":10,""ArrowDown,ArrowLeft"":8,""ArrowDown,ArrowRight"":30}",14,,22.4,Female,3,rest,677.0,,ArrowLeft,,,,,Adults,5
1801,65,247,7505,revaluation,False,./assets/img/ocean/animals/octopus.jpg,ocean,23.0,,True,original,1.0,"{""ArrowUp,ArrowLeft"":23,""ArrowUp,ArrowRight"":10,""ArrowDown,ArrowLeft"":8,""ArrowDown,ArrowRight"":30}",15,,22.4,Female,3,rest,671.0,,ArrowLeft,,,,,Adults,6
1802,66,249,7505,revaluation,False,./assets/img/ocean/animals/octopus.jpg,ocean,23.0,,True,original,1.0,"{""ArrowUp,ArrowLeft"":23,""ArrowUp,ArrowRight"":10,""ArrowDown,ArrowLeft"":8,""ArrowDown,ArrowRight"":30}",16,,22.4,Female,3,rest,580.0,,ArrowLeft,,,,,Adults,7
1803,67,251,7505,revaluation,False,./assets/img/ocean/animals/octopus.jpg,ocean,23.0,,True,original,1.0,"{""ArrowUp,ArrowLeft"":23,""ArrowUp,ArrowRight"":10,""ArrowDown,ArrowLeft"":8,""ArrowDown,ArrowRight"":30}",17,,22.4,Female,3,rest,638.0,,ArrowLeft,,,,,Adults,8
1866,130,386,7505,revaluation,False,./assets/img/canyon/animals/giraffe.jpg,canyon,2.0,,False,revaluation,2.0,"{""ArrowUp,ArrowLeft"":2,""ArrowUp,ArrowRight"":11,""ArrowDown,ArrowLeft"":8,""ArrowDown,ArrowRight"":27}",0,,22.4,Female,3,rest,720.0,,ArrowLeft,,,,,Adults,0
1867,131,388,7505,revaluation,False,./assets/img/canyon/animals/giraffe.jpg,canyon,11.0,,True,revaluation,2.0,"{""ArrowUp,ArrowLeft"":2,""ArrowUp,ArrowRight"":11,""ArrowDown,ArrowLeft"":8,""ArrowDown,ArrowRight"":27}",1,,22.4,Female,3,rest,730.0,,ArrowRight,,,,,Adults,1
1868,132,390,7505,revaluation,False,./assets/img/canyon/animals/giraffe.jpg,canyon,11.0,,True,revaluation,2.0,"{""ArrowUp,ArrowLeft"":2,""ArrowUp,ArrowRight"":11,""ArrowDown,ArrowLeft"":8,""ArrowDown,ArrowRight"":27}",2,,22.4,Female,3,rest,1029.0,,ArrowRight,,,,,Adults,2
1869,133,392,7505,revaluation,False,./assets/img/canyon/animals/giraffe.jpg,canyon,11.0,,True,revaluation,2.0,"{""ArrowUp,ArrowLeft"":2,""ArrowUp,ArrowRight"":11,""ArrowDown,ArrowLeft"":8,""ArrowDown,ArrowRight"":27}",3,,22.4,Female,3,rest,609.0,,ArrowRight,,,,,Adults,3
1870,134,394,7505,revaluation,False,./assets/img/canyon/animals/lion.jpg,canyon,8.0,,False,revaluation,2.0,"{""ArrowUp,ArrowLeft"":2,""ArrowUp,ArrowRight"":11,""ArrowDown,ArrowLeft"":8,""ArrowDown,ArrowRight"":27}",4,,22.4,Female,3,rest,1288.0,,ArrowLeft,,,,,Adults,0
1871,135,396,7505,revaluation,False,./assets/img/canyon/animals/giraffe.jpg,canyon,11.0,,True,revaluation,2.0,"{""ArrowUp,ArrowLeft"":2,""ArrowUp,ArrowRight"":11,""ArrowDown,ArrowLeft"":8,""ArrowDown,ArrowRight"":27}",5,,22.4,Female,3,rest,404.0,,ArrowRight,,,,,Adults,4
1872,136,398,7505,revaluation,False,./assets/img/canyon/animals/giraffe.jpg,canyon,11.0,,True,revaluation,2.0,"{""ArrowUp,ArrowLeft"":2,""ArrowUp,ArrowRight"":11,""ArrowDown,ArrowLeft"":8,""ArrowDown,ArrowRight"":27}",6,,22.4,Female,3,rest,1001.0,,ArrowRight,,,,,Adults,5
1873,137,400,7505,revaluation,False,./assets/img/canyon/animals/lion.jpg,canyon,27.0,,True,revaluation,2.0,"{""ArrowUp,ArrowLeft"":2,""ArrowUp,ArrowRight"":11,""ArrowDown,ArrowLeft"":8,""ArrowDown,ArrowRight"":27}",7,,22.4,Female,3,rest,479.0,,ArrowRight,,,,,Adults,1
1874,138,402,7505,revaluation,False,./assets/img/canyon/animals/lion.jpg,canyon,27.0,,True,revaluation,2.0,"{""ArrowUp,ArrowLeft"":2,""ArrowUp,ArrowRight"":11,""ArrowDown,ArrowLeft"":8,""ArrowDown,ArrowRight"":27}",8,,22.4,Female,3,rest,703.0,,ArrowRight,,,,,Adults,2
1875,139,404,7505,revaluation,False,./assets/img/canyon/animals/giraffe.jpg,canyon,11.0,,True,revaluation,2.0,"{""ArrowUp,ArrowLeft"":2,""ArrowUp,ArrowRight"":11,""ArrowDown,ArrowLeft"":8,""ArrowDown,ArrowRight"":27}",9,,22.4,Female,3,rest,1131.0,,ArrowRight,,,,,Adults,6
1876,140,406,7505,revaluation,False,./assets/img/canyon/animals/lion.jpg,canyon,27.0,,True,revaluation,2.0,"{""ArrowUp,ArrowLeft"":2,""ArrowUp,ArrowRight"":11,""ArrowDown,ArrowLeft"":8,""ArrowDown,ArrowRight"":27}",10,,22.4,Female,3,rest,491.0,,ArrowRight,,,,,Adults,3
1877,141,408,7505,revaluation,False,./assets/img/canyon/animals/lion.jpg,canyon,27.0,,True,revaluation,2.0,"{""ArrowUp,ArrowLeft"":2,""ArrowUp,ArrowRight"":11,""ArrowDown,ArrowLeft"":8,""ArrowDown,ArrowRight"":27}",11,,22.4,Female,3,rest,683.0,,ArrowRight,,,,,Adults,4
1878,142,410,7505,revaluation,False,./assets/img/canyon/animals/lion.jpg,canyon,27.0,,True,revaluation,2.0,"{""ArrowUp,ArrowLeft"":2,""ArrowUp,ArrowRight"":11,""ArrowDown,ArrowLeft"":8,""ArrowDown,ArrowRight"":27}",12,,22.4,Female,3,rest,798.0,,ArrowRight,,,,,Adults,5
1879,143,412,7505,revaluation,False,./assets/img/canyon/animals/lion.jpg,canyon,27.0,,True,revaluation,2.0,"{""ArrowUp,ArrowLeft"":2,""ArrowUp,ArrowRight"":11,""ArrowDown,ArrowLeft"":8,""ArrowDown,ArrowRight"":27}",13,,22.4,Female,3,rest,578.0,,ArrowRight,,,,,Adults,6
1880,144,414,7505,revaluation,False,./assets/img/canyon/animals/lion.jpg,canyon,27.0,,True,revaluation,2.0,"{""ArrowUp,ArrowLeft"":2,""ArrowUp,ArrowRight"":11,""ArrowDown,ArrowLeft"":8,""ArrowDown,ArrowRight"":27}",14,,22.4,Female,3,rest,536.0,,ArrowRight,,,,,Adults,7
1881,145,416,7505,revaluation,False,./assets/img/canyon/animals/giraffe.jpg,canyon,11.0,,True,revaluation,2.0,"{""ArrowUp,ArrowLeft"":2,""ArrowUp,ArrowRight"":11,""ArrowDown,ArrowLeft"":8,""ArrowDown,ArrowRight"":27}",15,,22.4,Female,3,rest,1149.0,,ArrowRight,,,,,Adults,7
1882,146,418,7505,revaluation,False,./assets/img/canyon/animals/giraffe.jpg,canyon,2.0,,False,revaluation,2.0,"{""ArrowUp,ArrowLeft"":2,""ArrowUp,ArrowRight"":11,""ArrowDown,ArrowLeft"":8,""ArrowDown,ArrowRight"":27}",16,,22.4,Female,3,rest,531.0,,ArrowLeft,,,,,Adults,8
1883,147,420,7505,revaluation,False,./assets/img/canyon/animals/lion.jpg,canyon,27.0,,True,revaluation,2.0,"{""ArrowUp,ArrowLeft"":2,""ArrowUp,ArrowRight"":11,""ArrowDown,ArrowLeft"":8,""ArrowDown,ArrowRight"":27}",17,,22.4,Female,3,rest,593.0,,ArrowRight,,,,,Adults,8
2034,50,215,7277,revaluation,False,./assets/img/ocean/animals/seahorse.jpg,ocean,11.0,,True,revaluation,1.0,"{""ArrowUp,ArrowLeft"":2,""ArrowUp,ArrowRight"":11,""ArrowDown,ArrowLeft"":8,""ArrowDown,ArrowRight"":27}",0,,9.85,Female,4,rest,1593.5,,ArrowRight,,,,,Children,0
2035,51,217,7277,revaluation,False,./assets/img/ocean/animals/seahorse.jpg,ocean,2.0,,False,revaluation,1.0,"{""ArrowUp,ArrowLeft"":2,""ArrowUp,ArrowRight"":11,""ArrowDown,ArrowLeft"":8,""ArrowDown,ArrowRight"":27}",1,,9.85,Female,4,rest,686.2999999821186,,ArrowLeft,,,,,Children,1
2036,52,219,7277,revaluation,False,./assets/img/ocean/animals/octopus.jpg,ocean,27.0,,True,revaluation,1.0,"{""ArrowUp,ArrowLeft"":2,""ArrowUp,ArrowRight"":11,""ArrowDown,ArrowLeft"":8,""ArrowDown,ArrowRight"":27}",2,,9.85,Female,4,rest,730.0999999940395,,ArrowRight,,,,,Children,0
2037,53,221,7277,revaluation,False,./assets/img/ocean/animals/octopus.jpg,ocean,8.0,,False,revaluation,1.0,"{""ArrowUp,ArrowLeft"":2,""ArrowUp,ArrowRight"":11,""ArrowDown,ArrowLeft"":8,""ArrowDown,ArrowRight"":27}",3,,9.85,Female,4,rest,713.9000000059605,,ArrowLeft,,,,,Children,1
2038,54,223,7277,revaluation,False,./assets/img/ocean/animals/seahorse.jpg,ocean,11.0,,True,revaluation,1.0,"{""ArrowUp,ArrowLeft"":2,""ArrowUp,ArrowRight"":11,""ArrowDown,ArrowLeft"":8,""ArrowDown,ArrowRight"":27}",4,,9.85,Female,4,rest,613.4000000059605,,ArrowRight,,,,,Children,2
2039,55,225,7277,revaluation,False,./assets/img/ocean/animals/octopus.jpg,ocean,27.0,,True,revaluation,1.0,"{""ArrowUp,ArrowLeft"":2,""ArrowUp,ArrowRight"":11,""ArrowDown,ArrowLeft"":8,""ArrowDown,ArrowRight"":27}",5,,9.85,Female,4,rest,416.09999999403954,,ArrowRight,,,,,Children,2
2040,56,227,7277,revaluation,False,./assets/img/ocean/animals/octopus.jpg,ocean,27.0,,True,revaluation,1.0,"{""ArrowUp,ArrowLeft"":2,""ArrowUp,ArrowRight"":11,""ArrowDown,ArrowLeft"":8,""ArrowDown,ArrowRight"":27}",6,,9.85,Female,4,rest,341.90000000596046,,ArrowRight,,,,,Children,3
2041,57,229,7277,revaluation,False,./assets/img/ocean/animals/octopus.jpg,ocean,27.0,,True,revaluation,1.0,"{""ArrowUp,ArrowLeft"":2,""ArrowUp,ArrowRight"":11,""ArrowDown,ArrowLeft"":8,""ArrowDown,ArrowRight"":27}",7,,9.85,Female,4,rest,386.2000000178814,,ArrowRight,,,,,Children,4
2042,58,231,7277,revaluation,False,./assets/img/ocean/animals/seahorse.jpg,ocean,11.0,,True,revaluation,1.0,"{""ArrowUp,ArrowLeft"":2,""ArrowUp,ArrowRight"":11,""ArrowDown,ArrowLeft"":8,""ArrowDown,ArrowRight"":27}",8,,9.85,Female,4,rest,535.5,,ArrowRight,,,,,Children,3
2043,59,233,7277,revaluation,False,./assets/img/ocean/animals/seahorse.jpg,ocean,11.0,,True,revaluation,1.0,"{""ArrowUp,ArrowLeft"":2,""ArrowUp,ArrowRight"":11,""ArrowDown,ArrowLeft"":8,""ArrowDown,ArrowRight"":27}",9,,9.85,Female,4,rest,525.0999999940395,,ArrowRight,,,,,Children,4
2044,60,235,7277,revaluation,False,./assets/img/ocean/animals/seahorse.jpg,ocean,11.0,,True,revaluation,1.0,"{""ArrowUp,ArrowLeft"":2,""ArrowUp,ArrowRight"":11,""ArrowDown,ArrowLeft"":8,""ArrowDown,ArrowRight"":27}",10,,9.85,Female,4,rest,298.59999999403954,,ArrowRight,,,,,Children,5
2045,61,237,7277,revaluation,False,./assets/img/ocean/animals/seahorse.jpg,ocean,11.0,,True,revaluation,1.0,"{""ArrowUp,ArrowLeft"":2,""ArrowUp,ArrowRight"":11,""ArrowDown,ArrowLeft"":8,""ArrowDown,ArrowRight"":27}",11,,9.85,Female,4,rest,351.7999999821186,,ArrowRight,,,,,Children,6
2046,62,239,7277,revaluation,False,./assets/img/ocean/animals/seahorse.jpg,ocean,11.0,,True,revaluation,1.0,"{""ArrowUp,ArrowLeft"":2,""ArrowUp,ArrowRight"":11,""ArrowDown,ArrowLeft"":8,""ArrowDown,ArrowRight"":27}",12,,9.85,Female,4,rest,508.7999999821186,,ArrowRight,,,,,Children,7
2047,63,241,7277,revaluation,False,./assets/img/ocean/animals/octopus.jpg,ocean,27.0,,True,revaluation,1.0,"{""ArrowUp,ArrowLeft"":2,""ArrowUp,ArrowRight"":11,""ArrowDown,ArrowLeft"":8,""ArrowDown,ArrowRight"":27}",13,,9.85,Female,4,rest,457.90000000596046,,ArrowRight,,,,,Children,5
2048,64,243,7277,revaluation,False,./assets/img/ocean/animals/octopus.jpg,ocean,27.0,,True,revaluation,1.0,"{""ArrowUp,ArrowLeft"":2,""ArrowUp,ArrowRight"":11,""ArrowDown,ArrowLeft"":8,""ArrowDown,ArrowRight"":27}",14,,9.85,Female,4,rest,424.69999998807907,,ArrowRight,,,,,Children,6
2049,65,245,7277,revaluation,False,./assets/img/ocean/animals/seahorse.jpg,ocean,11.0,,True,revaluation,1.0,"{""ArrowUp,ArrowLeft"":2,""ArrowUp,ArrowRight"":11,""ArrowDown,ArrowLeft"":8,""ArrowDown,ArrowRight"":27}",15,,9.85,Female,4,rest,317.89999997615814,,ArrowRight,,,,,Children,8
2050,66,247,7277,revaluation,False,./assets/img/ocean/animals/octopus.jpg,ocean,27.0,,True,revaluation,1.0,"{""ArrowUp,ArrowLeft"":2,""ArrowUp,ArrowRight"":11,""ArrowDown,ArrowLeft"":8,""ArrowDown,ArrowRight"":27}",16,,9.85,Female,4,rest,412.0,,ArrowRight,,,,,Children,7
2051,67,249,7277,revaluation,False,./assets/img/ocean/animals/octopus.jpg,ocean,27.0,,True,revaluation,1.0,"{""ArrowUp,ArrowLeft"":2,""ArrowUp,ArrowRight"":11,""ArrowDown,ArrowLeft"":8,""ArrowDown,ArrowRight"":27}",17,,9.85,Female,4,rest,543.9000000059605,,ArrowRight,,,,,Children,8
2114,130,384,7277,revaluation,False,./assets/img/canyon/animals/giraffe.jpg,canyon,10.0,,False,original,2.0,"{""ArrowUp,ArrowLeft"":23,""ArrowUp,ArrowRight"":10,""ArrowDown,ArrowLeft"":8,""ArrowDown,ArrowRight"":30}",0,,9.85,Female,4,rest,1032.7000000178814,,ArrowRight,,,,,Children,0
2115,131,386,7277,revaluation,False,./assets/img/canyon/animals/lion.jpg,canyon,30.0,,True,original,2.0,"{""ArrowUp,ArrowLeft"":23,""ArrowUp,ArrowRight"":10,""ArrowDown,ArrowLeft"":8,""ArrowDown,ArrowRight"":30}",1,,9.85,Female,4,rest,393.40000000596046,,ArrowRight,,,,,Children,0
2116,132,388,7277,revaluation,False,./assets/img/canyon/animals/giraffe.jpg,canyon,10.0,,False,original,2.0,"{""ArrowUp,ArrowLeft"":23,""ArrowUp,ArrowRight"":10,""ArrowDown,ArrowLeft"":8,""ArrowDown,ArrowRight"":30}",2,,9.85,Female,4,rest,508.30000001192093,,ArrowRight,,,,,Children,1
2117,133,390,7277,revaluation,False,./assets/img/canyon/animals/lion.jpg,canyon,30.0,,True,original,2.0,"{""ArrowUp,ArrowLeft"":23,""ArrowUp,ArrowRight"":10,""ArrowDown,ArrowLeft"":8,""ArrowDown,ArrowRight"":30}",3,,9.85,Female,4,rest,508.90000000596046,,ArrowRight,,,,,Children,1
2118,134,392,7277,revaluation,False,./assets/img/canyon/animals/giraffe.jpg,canyon,10.0,,False,original,2.0,"{""ArrowUp,ArrowLeft"":23,""ArrowUp,ArrowRight"":10,""ArrowDown,ArrowLeft"":8,""ArrowDown,ArrowRight"":30}",4,,9.85,Female,4,rest,626.8999999761581,,ArrowRight,,,,,Children,2
2119,135,394,7277,revaluation,False,./assets/img/canyon/animals/giraffe.jpg,canyon,10.0,,False,original,2.0,"{""ArrowUp,ArrowLeft"":23,""ArrowUp,ArrowRight"":10,""ArrowDown,ArrowLeft"":8,""ArrowDown,ArrowRight"":30}",5,,9.85,Female,4,rest,530.2000000178814,,ArrowRight,,,,,Children,3
2120,136,396,7277,revaluation,False,./assets/img/canyon/animals/lion.jpg,canyon,30.0,,True,original,2.0,"{""ArrowUp,ArrowLeft"":23,""ArrowUp,ArrowRight"":10,""ArrowDown,ArrowLeft"":8,""ArrowDown,ArrowRight"":30}",6,,9.85,Female,4,rest,590.5999999940395,,ArrowRight,,,,,Children,2
2121,137,398,7277,revaluation,False,./assets/img/canyon/animals/giraffe.jpg,canyon,10.0,,False,original,2.0,"{""ArrowUp,ArrowLeft"":23,""ArrowUp,ArrowRight"":10,""ArrowDown,ArrowLeft"":8,""ArrowDown,ArrowRight"":30}",7,,9.85,Female,4,rest,587.6999999880791,,ArrowRight,,,,,Children,4
2122,138,400,7277,revaluation,False,./assets/img/canyon/animals/lion.jpg,canyon,30.0,,True,original,2.0,"{""ArrowUp,ArrowLeft"":23,""ArrowUp,ArrowRight"":10,""ArrowDown,ArrowLeft"":8,""ArrowDown,ArrowRight"":30}",8,,9.85,Female,4,rest,353.5,,ArrowRight,,,,,Children,3
2123,139,402,7277,revaluation,False,./assets/img/canyon/animals/giraffe.jpg,canyon,10.0,,False,original,2.0,"{""ArrowUp,ArrowLeft"":23,""ArrowUp,ArrowRight"":10,""ArrowDown,ArrowLeft"":8,""ArrowDown,ArrowRight"":30}",9,,9.85,Female,4,rest,866.8000000119209,,ArrowRight,,,,,Children,5
2124,140,404,7277,revaluation,False,./assets/img/canyon/animals/lion.jpg,canyon,30.0,,True,original,2.0,"{""ArrowUp,ArrowLeft"":23,""ArrowUp,ArrowRight"":10,""ArrowDown,ArrowLeft"":8,""ArrowDown,ArrowRight"":30}",10,,9.85,Female,4,rest,512.0,,ArrowRight,,,,,Children,4
2125,141,406,7277,revaluation,False,./assets/img/canyon/animals/lion.jpg,canyon,30.0,,True,original,2.0,"{""ArrowUp,ArrowLeft"":23,""ArrowUp,ArrowRight"":10,""ArrowDown,ArrowLeft"":8,""ArrowDown,ArrowRight"":30}",11,,9.85,Female,4,rest,301.59999999403954,,ArrowRight,,,,,Children,5
2126,142,408,7277,revaluation,False,./assets/img/canyon/animals/lion.jpg,canyon,30.0,,True,original,2.0,"{""ArrowUp,ArrowLeft"":23,""ArrowUp,ArrowRight"":10,""ArrowDown,ArrowLeft"":8,""ArrowDown,ArrowRight"":30}",12,,9.85,Female,4,rest,417.90000000596046,,ArrowRight,,,,,Children,6
2127,143,410,7277,revaluation,False,./assets/img/canyon/animals/lion.jpg,canyon,30.0,,True,original,2.0,"{""ArrowUp,ArrowLeft"":23,""ArrowUp,ArrowRight"":10,""ArrowDown,ArrowLeft"":8,""ArrowDown,ArrowRight"":30}",13,,9.85,Female,4,rest,503.09999999403954,,ArrowRight,,,,,Children,7
2128,144,412,7277,revaluation,False,./assets/img/canyon/animals/giraffe.jpg,canyon,10.0,,False,original,2.0,"{""ArrowUp,ArrowLeft"":23,""ArrowUp,ArrowRight"":10,""ArrowDown,ArrowLeft"":8,""ArrowDown,ArrowRight"":30}",14,,9.85,Female,4,rest,439.7999999821186,,ArrowRight,,,,,Children,6
2129,145,414,7277,revaluation,False,./assets/img/canyon/animals/giraffe.jpg,canyon,10.0,,False,original,2.0,"{""ArrowUp,ArrowLeft"":23,""ArrowUp,ArrowRight"":10,""ArrowDown,ArrowLeft"":8,""ArrowDown,ArrowRight"":30}",15,,9.85,Female,4,rest,945.5999999940395,,ArrowRight,,,,,Children,7
2130,146,416,7277,revaluation,False,./assets/img/canyon/animals/giraffe.jpg,canyon,10.0,,False,original,2.0,"{""ArrowUp,ArrowLeft"":23,""ArrowUp,ArrowRight"":10,""ArrowDown,ArrowLeft"":8,""ArrowDown,ArrowRight"":30}",16,,9.85,Female,4,rest,551.9000000059605,,ArrowRight,,,,,Children,8
2131,147,418,7277,revaluation,False,./assets/img/canyon/animals/lion.jpg,canyon,30.0,,True,original,2.0,"{""ArrowUp,ArrowLeft"":23,""ArrowUp,ArrowRight"":10,""ArrowDown,ArrowLeft"":8,""ArrowDown,ArrowRight"":30}",17,,9.85,Female,4,rest,598.6999999880791,,ArrowRight,,,,,Children,8
2282,50,216,7289,revaluation,True,./assets/img/ocean/animals/seahorse.jpg,ocean,-5.0,,False,revaluation,1.0,"{""ArrowUp,ArrowLeft"":2,""ArrowUp,ArrowRight"":11,""ArrowDown,ArrowLeft"":8,""ArrowDown,ArrowRight"":27}",0,,10.91,Female,4,rest,,,,,,,,Children,0
2283,51,218,7289,revaluation,False,./assets/img/ocean/animals/seahorse.jpg,ocean,8.0,,False,revaluation,1.0,"{""ArrowUp,ArrowLeft"":2,""ArrowUp,ArrowRight"":11,""ArrowDown,ArrowLeft"":8,""ArrowDown,ArrowRight"":27}",1,,10.91,Female,4,rest,508.0,,ArrowLeft,,,,,Children,1
2284,52,220,7289,revaluation,False,./assets/img/ocean/animals/seahorse.jpg,ocean,27.0,,True,revaluation,1.0,"{""ArrowUp,ArrowLeft"":2,""ArrowUp,ArrowRight"":11,""ArrowDown,ArrowLeft"":8,""ArrowDown,ArrowRight"":27}",2,,10.91,Female,4,rest,276.0,,ArrowRight,,,,,Children,2
2285,53,222,7289,revaluation,False,./assets/img/ocean/animals/octopus.jpg,ocean,11.0,,True,revaluation,1.0,"{""ArrowUp,ArrowLeft"":2,""ArrowUp,ArrowRight"":11,""ArrowDown,ArrowLeft"":8,""ArrowDown,ArrowRight"":27}",3,,10.91,Female,4,rest,122.0,,ArrowRight,,,,,Children,0
2286,54,224,7289,revaluation,False,./assets/img/ocean/animals/octopus.jpg,ocean,2.0,,False,revaluation,1.0,"{""ArrowUp,ArrowLeft"":2,""ArrowUp,ArrowRight"":11,""ArrowDown,ArrowLeft"":8,""ArrowDown,ArrowRight"":27}",4,,10.91,Female,4,rest,957.0,,ArrowLeft,,,,,Children,1
2287,55,226,7289,revaluation,False,./assets/img/ocean/animals/octopus.jpg,ocean,11.0,,True,revaluation,1.0,"{""ArrowUp,ArrowLeft"":2,""ArrowUp,ArrowRight"":11,""ArrowDown,ArrowLeft"":8,""ArrowDown,ArrowRight"":27}",5,,10.91,Female,4,rest,1343.0000000001164,,ArrowRight,,,,,Children,2
2288,56,228,7289,revaluation,False,./assets/img/ocean/animals/octopus.jpg,ocean,11.0,,True,revaluation,1.0,"{""ArrowUp,ArrowLeft"":2,""ArrowUp,ArrowRight"":11,""ArrowDown,ArrowLeft"":8,""ArrowDown,ArrowRight"":27}",6,,10.91,Female,4,rest,1502.0,,ArrowRight,,,,,Children,3
2289,57,230,7289,revaluation,False,./assets/img/ocean/animals/octopus.jpg,ocean,11.0,,True,revaluation,1.0,"{""ArrowUp,ArrowLeft"":2,""ArrowUp,ArrowRight"":11,""ArrowDown,ArrowLeft"":8,""ArrowDown,ArrowRight"":27}",7,,10.91,Female,4,rest,508.0,,ArrowRight,,,,,Children,4
2290,58,232,7289,revaluation,False,./assets/img/ocean/animals/octopus.jpg,ocean,11.0,,True,revaluation,1.0,"{""ArrowUp,ArrowLeft"":2,""ArrowUp,ArrowRight"":11,""ArrowDown,ArrowLeft"":8,""ArrowDown,ArrowRight"":27}",8,,10.91,Female,4,rest,549.0,,ArrowRight,,,,,Children,5
2291,59,234,7289,revaluation,False,./assets/img/ocean/animals/seahorse.jpg,ocean,27.0,,True,revaluation,1.0,"{""ArrowUp,ArrowLeft"":2,""ArrowUp,ArrowRight"":11,""ArrowDown,ArrowLeft"":8,""ArrowDown,ArrowRight"":27}",9,,10.91,Female,4,rest,467.9999999998836,,ArrowRight,,,,,Children,3
2292,60,236,7289,revaluation,False,./assets/img/ocean/animals/octopus.jpg,ocean,11.0,,True,revaluation,1.0,"{""ArrowUp,ArrowLeft"":2,""ArrowUp,ArrowRight"":11,""ArrowDown,ArrowLeft"":8,""ArrowDown,ArrowRight"":27}",10,,10.91,Female,4,rest,464.9999999998836,,ArrowRight,,,,,Children,6
2293,61,238,7289,revaluation,False,./assets/img/ocean/animals/seahorse.jpg,ocean,27.0,,True,revaluation,1.0,"{""ArrowUp,ArrowLeft"":2,""ArrowUp,ArrowRight"":11,""ArrowDown,ArrowLeft"":8,""ArrowDown,ArrowRight"":27}",11,,10.91,Female,4,rest,399.9999999998836,,ArrowRight,,,,,Children,4
2294,62,240,7289,revaluation,False,./assets/img/ocean/animals/seahorse.jpg,ocean,27.0,,True,revaluation,1.0,"{""ArrowUp,ArrowLeft"":2,""ArrowUp,ArrowRight"":11,""ArrowDown,ArrowLeft"":8,""ArrowDown,ArrowRight"":27}",12,,10.91,Female,4,rest,545.0000000001164,,ArrowRight,,,,,Children,5
2295,63,242,7289,revaluation,False,./assets/img/ocean/animals/octopus.jpg,ocean,11.0,,True,revaluation,1.0,"{""ArrowUp,ArrowLeft"":2,""ArrowUp,ArrowRight"":11,""ArrowDown,ArrowLeft"":8,""ArrowDown,ArrowRight"":27}",13,,10.91,Female,4,rest,300.0,,ArrowRight,,,,,Children,7
2296,64,244,7289,revaluation,False,./assets/img/ocean/animals/seahorse.jpg,ocean,27.0,,True,revaluation,1.0,"{""ArrowUp,ArrowLeft"":2,""ArrowUp,ArrowRight"":11,""ArrowDown,ArrowLeft"":8,""ArrowDown,ArrowRight"":27}",14,,10.91,Female,4,rest,371.00000000023283,,ArrowRight,,,,,Children,6
2297,65,246,7289,revaluation,False,./assets/img/ocean/animals/seahorse.jpg,ocean,27.0,,True,revaluation,1.0,"{""ArrowUp,ArrowLeft"":2,""ArrowUp,ArrowRight"":11,""ArrowDown,ArrowLeft"":8,""ArrowDown,ArrowRight"":27}",15,,10.91,Female,4,rest,335.99999999976717,,ArrowRight,,,,,Children,7
2298,66,248,7289,revaluation,False,./assets/img/ocean/animals/seahorse.jpg,ocean,27.0,,True,revaluation,1.0,"{""ArrowUp,ArrowLeft"":2,""ArrowUp,ArrowRight"":11,""ArrowDown,ArrowLeft"":8,""ArrowDown,ArrowRight"":27}",16,,10.91,Female,4,rest,301.0,,ArrowRight,,,,,Children,8
2299,67,250,7289,revaluation,False,./assets/img/ocean/animals/octopus.jpg,ocean,11.0,,True,revaluation,1.0,"{""ArrowUp,ArrowLeft"":2,""ArrowUp,ArrowRight"":11,""ArrowDown,ArrowLeft"":8,""ArrowDown,ArrowRight"":27}",17,,10.91,Female,4,rest,492.0,,ArrowRight,,,,,Children,8
2362,130,385,7289,revaluation,False,./assets/img/canyon/animals/lion.jpg,canyon,30.0,,True,original,2.0,"{""ArrowUp,ArrowLeft"":23,""ArrowUp,ArrowRight"":10,""ArrowDown,ArrowLeft"":8,""ArrowDown,ArrowRight"":30}",0,,10.91,Female,4,rest,1268.0,,ArrowRight,,,,,Children,0
2363,131,387,7289,revaluation,False,./assets/img/canyon/animals/giraffe.jpg,canyon,23.0,,True,original,2.0,"{""ArrowUp,ArrowLeft"":23,""ArrowUp,ArrowRight"":10,""ArrowDown,ArrowLeft"":8,""ArrowDown,ArrowRight"":30}",1,,10.91,Female,4,rest,994.0,,ArrowLeft,,,,,Children,0
2364,132,389,7289,revaluation,False,./assets/img/canyon/animals/lion.jpg,canyon,30.0,,True,original,2.0,"{""ArrowUp,ArrowLeft"":23,""ArrowUp,ArrowRight"":10,""ArrowDown,ArrowLeft"":8,""ArrowDown,ArrowRight"":30}",2,,10.91,Female,4,rest,871.0,,ArrowRight,,,,,Children,1
2365,133,391,7289,revaluation,False,./assets/img/canyon/animals/lion.jpg,canyon,30.0,,True,original,2.0,"{""ArrowUp,ArrowLeft"":23,""ArrowUp,ArrowRight"":10,""ArrowDown,ArrowLeft"":8,""ArrowDown,ArrowRight"":30}",3,,10.91,Female,4,rest,1286.0,,ArrowRight,,,,,Children,2
2366,134,393,7289,revaluation,False,./assets/img/canyon/animals/lion.jpg,canyon,30.0,,True,original,2.0,"{""ArrowUp,ArrowLeft"":23,""ArrowUp,ArrowRight"":10,""ArrowDown,ArrowLeft"":8,""ArrowDown,ArrowRight"":30}",4,,10.91,Female,4,rest,1012.0,,ArrowRight,,,,,Children,3
2367,135,395,7289,revaluation,False,./assets/img/canyon/animals/lion.jpg,canyon,30.0,,True,original,2.0,"{""ArrowUp,ArrowLeft"":23,""ArrowUp,ArrowRight"":10,""ArrowDown,ArrowLeft"":8,""ArrowDown,ArrowRight"":30}",5,,10.91,Female,4,rest,724.0,,ArrowRight,,,,,Children,4
2368,136,397,7289,revaluation,False,./assets/img/canyon/animals/giraffe.jpg,canyon,10.0,,False,original,2.0,"{""ArrowUp,ArrowLeft"":23,""ArrowUp,ArrowRight"":10,""ArrowDown,ArrowLeft"":8,""ArrowDown,ArrowRight"":30}",6,,10.91,Female,4,rest,704.9999999997672,,ArrowRight,,,,,Children,1
2369,137,399,7289,revaluation,False,./assets/img/canyon/animals/giraffe.jpg,canyon,23.0,,True,original,2.0,"{""ArrowUp,ArrowLeft"":23,""ArrowUp,ArrowRight"":10,""ArrowDown,ArrowLeft"":8,""ArrowDown,ArrowRight"":30}",7,,10.91,Female,4,rest,1345.0,,ArrowLeft,,,,,Children,2
2370,138,401,7289,revaluation,False,./assets/img/canyon/animals/lion.jpg,canyon,8.0,,False,original,2.0,"{""ArrowUp,ArrowLeft"":23,""ArrowUp,ArrowRight"":10,""ArrowDown,ArrowLeft"":8,""ArrowDown,ArrowRight"":30}",8,,10.91,Female,4,rest,576.0,,ArrowLeft,,,,,Children,5
2371,139,403,7289,revaluation,False,./assets/img/canyon/animals/giraffe.jpg,canyon,23.0,,True,original,2.0,"{""ArrowUp,ArrowLeft"":23,""ArrowUp,ArrowRight"":10,""ArrowDown,ArrowLeft"":8,""ArrowDown,ArrowRight"":30}",9,,10.91,Female,4,rest,930.0,,ArrowLeft,,,,,Children,3
2372,140,405,7289,revaluation,False,./assets/img/canyon/animals/giraffe.jpg,canyon,23.0,,True,original,2.0,"{""ArrowUp,ArrowLeft"":23,""ArrowUp,ArrowRight"":10,""ArrowDown,ArrowLeft"":8,""ArrowDown,ArrowRight"":30}",10,,10.91,Female,4,rest,1063.0,,ArrowLeft,,,,,Children,4
2373,141,407,7289,revaluation,False,./assets/img/canyon/animals/lion.jpg,canyon,30.0,,True,original,2.0,"{""ArrowUp,ArrowLeft"":23,""ArrowUp,ArrowRight"":10,""ArrowDown,ArrowLeft"":8,""ArrowDown,ArrowRight"":30}",11,,10.91,Female,4,rest,429.99999999976717,,ArrowRight,,,,,Children,6
2374,142,409,7289,revaluation,False,./assets/img/canyon/animals/giraffe.jpg,canyon,23.0,,True,original,2.0,"{""ArrowUp,ArrowLeft"":23,""ArrowUp,ArrowRight"":10,""ArrowDown,ArrowLeft"":8,""ArrowDown,ArrowRight"":30}",12,,10.91,Female,4,rest,817.0,,ArrowLeft,,,,,Children,5
2375,143,411,7289,revaluation,False,./assets/img/canyon/animals/giraffe.jpg,canyon,23.0,,True,original,2.0,"{""ArrowUp,ArrowLeft"":23,""ArrowUp,ArrowRight"":10,""ArrowDown,ArrowLeft"":8,""ArrowDown,ArrowRight"":30}",13,,10.91,Female,4,rest,1277.0,,ArrowLeft,,,,,Children,6
2376,144,413,7289,revaluation,False,./assets/img/canyon/animals/lion.jpg,canyon,30.0,,True,original,2.0,"{""ArrowUp,ArrowLeft"":23,""ArrowUp,ArrowRight"":10,""ArrowDown,ArrowLeft"":8,""ArrowDown,ArrowRight"":30}",14,,10.91,Female,4,rest,492.0,,ArrowRight,,,,,Children,7
2377,145,415,7289,revaluation,False,./assets/img/canyon/animals/giraffe.jpg,canyon,23.0,,True,original,2.0,"{""ArrowUp,ArrowLeft"":23,""ArrowUp,ArrowRight"":10,""ArrowDown,ArrowLeft"":8,""ArrowDown,ArrowRight"":30}",15,,10.91,Female,4,rest,623.0,,ArrowLeft,,,,,Children,7
2378,146,417,7289,revaluation,False,./assets/img/canyon/animals/giraffe.jpg,canyon,23.0,,True,original,2.0,"{""ArrowUp,ArrowLeft"":23,""ArrowUp,ArrowRight"":10,""ArrowDown,ArrowLeft"":8,""ArrowDown,ArrowRight"":30}",16,,10.91,Female,4,rest,468.00000000023283,,ArrowLeft,,,,,Children,8
2379,147,419,7289,revaluation,False,./assets/img/canyon/animals/lion.jpg,canyon,30.0,,True,original,2.0,"{""ArrowUp,ArrowLeft"":23,""ArrowUp,ArrowRight"":10,""ArrowDown,ArrowLeft"":8,""ArrowDown,ArrowRight"":30}",17,,10.91,Female,4,rest,1059.0,,ArrowRight,,,,,Children,8
