"trial_type","trial_index","time_elapsed","internal_node_id","task_version","subject_id","assigned_condition","age","gender","success","timeout","failed_images","failed_audio","failed_video","browser_interaction","rt","stimulus","response","task_part","environment","score","rewardMap","correct","fullState","isCatch","numberMissed","duration","condition","order","trial_num","key_press","ground_truth","bonus"
"pavlovia","0","1306","0.0-0.0","spark_pilot_2","7292","3","10","Female","","","","","","","","","","","","","","","","","","","","","","","",""
"preload","1","21912","0.0-1.0","spark_pilot_2","7292","3","10","Female","true","false","[]","[]","[]","[{""event"":""fullscreenenter"",""trial"":2,""time"":56595}]","","","","","","","","","","","","","","","","","",""
"fullscreen","2","57585","0.0-2.0","spark_pilot_2","7292","3","10","Female","true","","","","","","","","","","","","","","","","","","","","","","",""
"audio-button-response","3","58778","0.0-3.0-0.0-0.0","spark_pilot_2","7292","3","10","Female","","","","","","","1074","./assets/audio/audiotest/turtle.mp3","2","audio_test","","","","","","","","","","","","","",""
"learning-instructions","4","68151","0.0-3.0-1.0-0.0","spark_pilot_2","7292","3","10","Female","","","","","","","2351.7000000001863","<p> Welcome! Please remember to stay in fullscreen mode and don't click away from the experiment. </p>","","instructions","","","","","","","","","","","","","",""
"learning-instructions","5","77446","0.0-3.0-1.0-0.1","spark_pilot_2","7292","3","10","Female","","","","","","","853.6999999999534","<p> Today you will be playing a game to earn treasure. </p>
            <p> At the end of the experiment, you will earn a bonus based on how much treasure you find. </p>
            <img src='./assets/img/instructions/treasure.jpg' class='instructions-image'>","","instructions","","","","","","","","","","","","","",""
"learning-instructions","6","86513","0.0-3.0-1.0-0.2","spark_pilot_2","7292","3","10","Female","","","","","","","779","<p> Animals have hidden treasure in treasure chests. </p>
            <p> You need to first find an animal and then choose which of their treasure chests to search. </p>
            <img src='./assets/img/space/animals/cat.jpg' class='instructions-image'>","","instructions","","","","","","","","","","","","","",""
"learning-instructions","7","100530","0.0-3.0-1.0-0.3","spark_pilot_2","7292","3","10","Female","","","","","","","823.8999999999069","<p> In each round, you will search for treasure in a different place. In the real game, there will be two rounds. </p>
            <p> You will begin with a separate, practice round where you will search for treasure in outer space. </p>
            <img src='./assets/img/space/0.jpg' class='instructions-image'>","","instructions","","","","","","","","","","","","","",""
"learning-instructions","8","113414","0.0-3.0-1.0-0.4","spark_pilot_2","7292","3","10","Female","","","","","","","1430.1999999999534","<p> On every turn, you will see a picture of the place that you are in, but the specific image may be different each time. </p>
            <p> For example, both of these images mean you are in outer space. </p>
            <img src='./assets/img/instructions/outerspace.jpg' class='instructions-image'>","","instructions","","","","","","","","","","","","","",""
"learning-instructions","9","122899","0.0-3.0-1.0-0.5","spark_pilot_2","7292","3","10","Female","","","","","","","1626.5","<p> You need to decide which direction to travel in. </p>
            <p> You can choose between going <b>up or down</b> by using the arrow keys. </p>
            <img src='./assets/img/instructions/updown.jpg' class='instructions-image'>","","instructions","","","","","","","","","","","","","",""
"learning-instructions","10","132499","0.0-3.0-1.0-0.6","spark_pilot_2","7292","3","10","Female","","","","","","","754.8999999999069","<p> You will have <b>2 seconds</b> to make your choice. </p>
            <p> If you do not make a choice within 2 seconds, you will not find an animal or earn treasure. </p>
            <img src='./assets/img/instructions/2seconds.jpg' class='instructions-image'>","","instructions","","","","","","","","","","","","","",""
"learning-instructions","11","140516","0.0-3.0-1.0-0.7","spark_pilot_2","7292","3","10","Female","","","","","","","952.8000000000466","<p> Let’s try practicing that now! </p>
            <p> When you see a picture of the place you are in, press the <b>up</b> key to travel up. </p>
            <img src='./assets/img/instructions/pressUp.jpg' class='instructions-image'>","","instructions","","","","","","","","","","","","","",""
"revaluation","12","144538","0.0-3.0-2.0-0.0","spark_pilot_2","7292","3","10","Female","","false","","","","","[1131.6999999999534]","./assets/img/space/0.jpg","[""ArrowUp""]","first stage practice","space","0","null","null","ArrowUp","false","","","","","","","",""
"html-keyboard-response","13","145044","0.0-3.0-2.0-1.0","spark_pilot_2","7292","3","10","Female","","","","","","","null","<div style=""font-size:60px;"">+</div>","null","fixation","","","","","","","","","","","","","",""
"revaluation","14","149065","0.0-3.0-2.0-0.1","spark_pilot_2","7292","3","10","Female","","false","","","","","[1866.3999999999069]","./assets/img/space/1.jpg","[""ArrowUp""]","first stage practice","space","0","null","null","ArrowUp","false","","","","","","","",""
"html-keyboard-response","15","149570","0.0-3.0-2.0-1.1","spark_pilot_2","7292","3","10","Female","","","","","","","null","<div style=""font-size:60px;"">+</div>","null","fixation","","","","","","","","","","","","","",""
"revaluation","16","153586","0.0-3.0-2.0-0.2","spark_pilot_2","7292","3","10","Female","","false","","","","","[689.1000000000931]","./assets/img/space/2.jpg","[""ArrowUp""]","first stage practice","space","0","null","null","ArrowUp","false","","","","","","","",""
"html-keyboard-response","17","154092","0.0-3.0-2.0-1.2","spark_pilot_2","7292","3","10","Female","","","","","","","null","<div style=""font-size:60px;"">+</div>","null","fixation","","","","","","","","","","","","","",""
"learning-instructions","18","159950","0.0-3.0-3.0-0.0","spark_pilot_2","7292","3","10","Female","","","","","","","1137.6000000000931","<p> Great job! Now try pressing the <b>down</b> key to travel down. </p>
            <img src='./assets/img/instructions/pressDown.jpg' class='instructions-image'>","","instructions","","","","","","","","","","","","","",""
"revaluation","19","163962","0.0-3.0-4.0-0.0","spark_pilot_2","7292","3","10","Female","","false","","","","","[957.6000000000931]","./assets/img/space/3.jpg","[""ArrowDown""]","first stage practice","space","0","null","null","ArrowDown","false","","","","","","","",""
"html-keyboard-response","20","164465","0.0-3.0-4.0-1.0","spark_pilot_2","7292","3","10","Female","","","","","","","null","<div style=""font-size:60px;"">+</div>","null","fixation","","","","","","","","","","","","","",""
"revaluation","21","168482","0.0-3.0-4.0-0.1","spark_pilot_2","7292","3","10","Female","","false","","","","","[616.1999999999534]","./assets/img/space/4.jpg","[""ArrowDown""]","first stage practice","space","0","null","null","ArrowDown","false","","","","","","","",""
"html-keyboard-response","22","168987","0.0-3.0-4.0-1.1","spark_pilot_2","7292","3","10","Female","","","","","","","null","<div style=""font-size:60px;"">+</div>","null","fixation","","","","","","","","","","","","","",""
"revaluation","23","173004","0.0-3.0-4.0-0.2","spark_pilot_2","7292","3","10","Female","","true","","","","","[]","./assets/img/space/5.jpg","[]","first stage practice","space","-5","null","null","","false","","","","","","","",""
"html-keyboard-response","24","173515","0.0-3.0-4.0-1.2","spark_pilot_2","7292","3","10","Female","","","","","","","null","<div style=""font-size:60px;"">+</div>","null","fixation","","","","","","","","","","","","","",""
"learning-instructions","25","185104","0.0-3.0-5.0-0.0","spark_pilot_2","7292","3","10","Female","","","","","","","1702.2000000001863","<p> The animals don’t move, so the animal in the upper part of a place will stay in the upper part of a place, and the animal in the lower part of a place will stay in the lower part of a place. </p>","","instructions","","","","","","","","","","","","","",""
"learning-instructions","26","195404","0.0-3.0-5.0-0.1","spark_pilot_2","7292","3","10","Female","","","","","","","1135.2999999998137","<p> Each animal has two treasure chests for you to choose from. </p>
            <p> The amount of treasure in each chest can range from <b> 0 to 40 pieces.</b></p>","","instructions","","","","","","","","","","","","","",""
"learning-instructions","27","207687","0.0-3.0-5.0-0.2","spark_pilot_2","7292","3","10","Female","","","","","","","1054","<p> You should decide which chest to search for treasure by using the <b>left</b> and <b>right</b> arrow keys. </p>
            <p><b> Pay attention to which animal is on the screen, as the animals have different treasure chests. </b></p>
            <img src='./assets/img/instructions/leftright.jpg' class='instructions-image'>","","instructions","","","","","","","","","","","","","",""
"learning-instructions","28","216054","0.0-3.0-5.0-0.3","spark_pilot_2","7292","3","10","Female","","","","","","","1972.8999999999069","<p> Let’s try practicing that now. </p>
            <p> When you see an animal, choose which chest to search for treasure. </p>
            <img src='./assets/img/instructions/chooseChest.jpg' class='instructions-image'>","","instructions","","","","","","","","","","","","","",""
"revaluation","29","220081","0.0-3.0-6.0-0.0","spark_pilot_2","7292","3","10","Female","","false","","","","","[1050.5]","./assets/img/space/animals/cat.jpg","[""ArrowRight""]","second stage practice","space","36","{""ArrowUp,ArrowLeft"":3,""ArrowUp,ArrowRight"":36,""ArrowDown,ArrowLeft"":15,""ArrowDown,ArrowRight"":23}","true","ArrowUp,ArrowRight","","","","","","","","",""
"html-keyboard-response","30","220587","0.0-3.0-6.0-1.0","spark_pilot_2","7292","3","10","Female","","","","","","","null","<div style=""font-size:60px;"">+</div>","null","fixation","","","","","","","","","","","","","",""
"revaluation","31","224601","0.0-3.0-6.0-0.1","spark_pilot_2","7292","3","10","Female","","false","","","","","[749.4000000001397]","./assets/img/space/animals/rabbit.jpg","[""ArrowLeft""]","second stage practice","space","15","{""ArrowUp,ArrowLeft"":3,""ArrowUp,ArrowRight"":36,""ArrowDown,ArrowLeft"":15,""ArrowDown,ArrowRight"":23}","false","ArrowDown,ArrowLeft","","","","","","","","",""
"html-keyboard-response","32","225105","0.0-3.0-6.0-1.1","spark_pilot_2","7292","3","10","Female","","","","","","","null","<div style=""font-size:60px;"">+</div>","null","fixation","","","","","","","","","","","","","",""
"revaluation","33","229125","0.0-3.0-6.0-0.2","spark_pilot_2","7292","3","10","Female","","false","","","","","[368.39999999990687]","./assets/img/space/animals/rabbit.jpg","[""ArrowRight""]","second stage practice","space","23","{""ArrowUp,ArrowLeft"":3,""ArrowUp,ArrowRight"":36,""ArrowDown,ArrowLeft"":15,""ArrowDown,ArrowRight"":23}","true","ArrowDown,ArrowRight","","","","","","","","",""
"html-keyboard-response","34","229637","0.0-3.0-6.0-1.2","spark_pilot_2","7292","3","10","Female","","","","","","","null","<div style=""font-size:60px;"">+</div>","null","fixation","","","","","","","","","","","","","",""
"revaluation","35","233660","0.0-3.0-6.0-0.3","spark_pilot_2","7292","3","10","Female","","false","","","","","[577.8000000000466]","./assets/img/space/animals/cat.jpg","[""ArrowRight""]","second stage practice","space","36","{""ArrowUp,ArrowLeft"":3,""ArrowUp,ArrowRight"":36,""ArrowDown,ArrowLeft"":15,""ArrowDown,ArrowRight"":23}","true","ArrowUp,ArrowRight","","","","","","","","",""
"html-keyboard-response","36","234171","0.0-3.0-6.0-1.3","spark_pilot_2","7292","3","10","Female","","","","","","","null","<div style=""font-size:60px;"">+</div>","null","fixation","","","","","","","","","","","","","",""
"learning-instructions","37","253556","0.0-3.0-7.0-0.0","spark_pilot_2","7292","3","10","Female","","","","","","","2492.6999999999534","<p> Great job. Now let’s try putting it together. </p>
            <p> On each turn, you will first see a picture to remind you of the place you are in, and you need to choose whether to go up or down. </p>
            <p> Then you will see an animal and choose which of its chests to search for treasure. </p>","","instructions","","","","","","","","","","","","","",""
"learning-instructions","38","263257","0.0-3.0-7.0-0.1","spark_pilot_2","7292","3","10","Female","","","","","","","1413.3000000000466","<p> When you choose whether to go up or down, try to go to the animal with the chest with the most treasure. </p>
            <p> Try practicing that now! </p>","","instructions","","","","","","","","","","","","","",""
"revaluation","39","269279","0.0-3.0-8.0-0.0","spark_pilot_2","7292","3","10","Female","","false","","","","","[1183.8999999999069,802.5]","./assets/img/space/6.jpg","[""ArrowUp"",""ArrowRight""]","full practice","space","36","{""ArrowUp,ArrowLeft"":3,""ArrowUp,ArrowRight"":36,""ArrowDown,ArrowLeft"":15,""ArrowDown,ArrowRight"":23}","true","ArrowUp,ArrowRight","false","","","","","","","",""
"html-keyboard-response","40","269784","0.0-3.0-8.0-1.0","spark_pilot_2","7292","3","10","Female","","","","","","","null","<div style=""font-size:60px;"">+</div>","null","fixation","","","","","","","","","","","","","",""
"revaluation","41","275810","0.0-3.0-8.0-0.1","spark_pilot_2","7292","3","10","Female","","false","","","","","[821,865.3000000000466]","./assets/img/space/7.jpg","[""ArrowDown"",""ArrowLeft""]","full practice","space","15","{""ArrowUp,ArrowLeft"":3,""ArrowUp,ArrowRight"":36,""ArrowDown,ArrowLeft"":15,""ArrowDown,ArrowRight"":23}","false","ArrowDown,ArrowLeft","false","","","","","","","",""
"html-keyboard-response","42","276314","0.0-3.0-8.0-1.1","spark_pilot_2","7292","3","10","Female","","","","","","","null","<div style=""font-size:60px;"">+</div>","null","fixation","","","","","","","","","","","","","",""
"revaluation","43","282340","0.0-3.0-8.0-0.2","spark_pilot_2","7292","3","10","Female","","false","","","","","[1373.8999999999069,1287.0999999998603]","./assets/img/space/8.jpg","[""ArrowDown"",""ArrowRight""]","full practice","space","23","{""ArrowUp,ArrowLeft"":3,""ArrowUp,ArrowRight"":36,""ArrowDown,ArrowLeft"":15,""ArrowDown,ArrowRight"":23}","false","ArrowDown,ArrowRight","false","","","","","","","",""
"html-keyboard-response","44","282848","0.0-3.0-8.0-1.2","spark_pilot_2","7292","3","10","Female","","","","","","","null","<div style=""font-size:60px;"">+</div>","null","fixation","","","","","","","","","","","","","",""
"revaluation","45","288876","0.0-3.0-8.0-0.3","spark_pilot_2","7292","3","10","Female","","false","","","","","[1279.3999999999069,900.8999999999069]","./assets/img/space/9.jpg","[""ArrowDown"",""ArrowRight""]","full practice","space","23","{""ArrowUp,ArrowLeft"":3,""ArrowUp,ArrowRight"":36,""ArrowDown,ArrowLeft"":15,""ArrowDown,ArrowRight"":23}","false","ArrowDown,ArrowRight","false","","","","","","","",""
"html-keyboard-response","46","289387","0.0-3.0-8.0-1.3","spark_pilot_2","7292","3","10","Female","","","","","","","null","<div style=""font-size:60px;"">+</div>","null","fixation","","","","","","","","","","","","","",""
"revaluation","47","295408","0.0-3.0-8.0-0.4","spark_pilot_2","7292","3","10","Female","","false","","","","","[1013.5,681.3999999999069]","./assets/img/space/10.jpg","[""ArrowDown"",""ArrowRight""]","full practice","space","23","{""ArrowUp,ArrowLeft"":3,""ArrowUp,ArrowRight"":36,""ArrowDown,ArrowLeft"":15,""ArrowDown,ArrowRight"":23}","false","ArrowDown,ArrowRight","false","","","","","","","",""
"html-keyboard-response","48","295913","0.0-3.0-8.0-1.4","spark_pilot_2","7292","3","10","Female","","","","","","","null","<div style=""font-size:60px;"">+</div>","null","fixation","","","","","","","","","","","","","",""
"learning-instructions","49","308159","0.0-3.0-9.0-0.0","spark_pilot_2","7292","3","10","Female","","","","","","","1896.7000000001863","<p> One last thing: sometimes, you will see a robber. The robber can be anywhere in the picture. </p>
            <p> If you do not stop them, you will lose treasure. </p>
            <img src='./assets/img/instructions/robber.jpg' class='instructions-image'>","","instructions","","","","","","","","","","","","","",""
"learning-instructions","50","316143","0.0-3.0-9.0-0.1","spark_pilot_2","7292","3","10","Female","","","","","","","795.6999999999534","<p> If you see the robber, you should <b>press the space bar</b> rather than using the arrow keys. </p>
            <p> Try practicing that now! </p>","","instructions","","","","","","","","","","","","","",""
"revaluation","51","320159","0.0-3.0-10.0-0.0","spark_pilot_2","7292","3","10","Female","","false","","","","","[1169.0999999998603]","./assets/img/space/catch/0.jpg","[""spaceBar""]","catch practice","space","0","{""ArrowUp,ArrowLeft"":3,""ArrowUp,ArrowRight"":36,""ArrowDown,ArrowLeft"":15,""ArrowDown,ArrowRight"":23}","true","spaceBar","true","","","","","","","",""
"html-keyboard-response","52","320664","0.0-3.0-10.0-1.0","spark_pilot_2","7292","3","10","Female","","","","","","","null","<div style=""font-size:60px;"">+</div>","null","fixation","","","","","","","","","","","","","",""
"revaluation","53","324681","0.0-3.0-10.0-0.1","spark_pilot_2","7292","3","10","Female","","false","","","","","[479.80000000004657]","./assets/img/space/catch/1.jpg","[""spaceBar""]","catch practice","space","0","{""ArrowUp,ArrowLeft"":3,""ArrowUp,ArrowRight"":36,""ArrowDown,ArrowLeft"":15,""ArrowDown,ArrowRight"":23}","true","spaceBar","true","","","","","","","",""
"html-keyboard-response","54","325184","0.0-3.0-10.0-1.1","spark_pilot_2","7292","3","10","Female","","","","","","","null","<div style=""font-size:60px;"">+</div>","null","fixation","","","","","","","","","","","","","",""
"revaluation","55","329204","0.0-3.0-10.0-0.2","spark_pilot_2","7292","3","10","Female","","false","","","","","[377.4000000001397]","./assets/img/space/catch/2.jpg","[""spaceBar""]","catch practice","space","0","{""ArrowUp,ArrowLeft"":3,""ArrowUp,ArrowRight"":36,""ArrowDown,ArrowLeft"":15,""ArrowDown,ArrowRight"":23}","true","spaceBar","true","","","","","","","",""
"html-keyboard-response","56","329714","0.0-3.0-10.0-1.2","spark_pilot_2","7292","3","10","Female","","","","","","","null","<div style=""font-size:60px;"">+</div>","null","fixation","","","","","","","","","","","","","",""
"learning-instructions","57","345028","0.0-3.0-11.0-0.0","spark_pilot_2","7292","3","10","Female","","","","","","","1676.9000000001397","<p> After you explore a place to find treasure, it will be time to play a different game. </p>
            <p> During this game, red dots will appear on the screen and fall down slowly. </p>
            <p><b> You must click on them before they reach the bottom. </b></p>
            <img src='./assets/img/instructions/dotGame.jpg' class='instructions-image'>","","instructions","","","","","","","","","","","","","",""
"learning-instructions","58","351729","0.0-3.0-11.0-0.1","spark_pilot_2","7292","3","10","Female","","","","","","","1006","<p> For every dot you click, you will earn additional treasure. </p>
            <p> Let’s try practicing that now. </p>","","instructions","","","","","","","","","","","","","",""
"revaluation","59","366750","0.0-3.0-12.0-0.0","spark_pilot_2","7292","3","10","Female","","","","","","","[133]","","","rest practice","","10","","","","","0","15000","","","","","",""
"learning-instructions","60","373246","0.0-3.0-13.0-0.0-0.0","spark_pilot_2","7292","3","10","Female","","","","","","","1254","<p> Now, you will practice a shortened version of the game to get a sense of how it all fits together. </p>","","instructions","","","","","","","","","","","","","",""
"learning-instructions","61","377180","0.0-3.0-13.0-0.0-0.1","spark_pilot_2","7292","3","10","Female","","","","","","","729.3999999999069","<p>This time you are searching for treasure in outer space.</p>","","instructions","","","","","","","","","","","","","",""
"learning-instructions","62","393147","0.0-3.0-13.0-1.0-0.0","spark_pilot_2","7292","3","10","Female","","","","","","","1145.3000000000466","<p> Remember, when you see a picture of the place, use the up and down keys to <b>find an animal</b>.</p>
            <p> When you encounter an animal, you should use the left and right keys to <b>select a treasure chest</b>.</p>
            <p> Don't forget to look out for the robber! </p>","","instructions","","","","","","","","","","","","","",""
"revaluation","63","399170","0.0-3.0-13.0-2.0-0.0","spark_pilot_2","7292","3","10","Female","","false","","","","","[1250.3999999999069,685.5999999998603]","./assets/img/space/11.jpg","[""ArrowUp"",""ArrowRight""]","practice block","space","36","{""ArrowUp,ArrowLeft"":3,""ArrowUp,ArrowRight"":36,""ArrowDown,ArrowLeft"":15,""ArrowDown,ArrowRight"":23}","true","ArrowUp,ArrowRight","false","","","","","","","",""
"html-keyboard-response","64","399681","0.0-3.0-13.0-2.0-1.0","spark_pilot_2","7292","3","10","Female","","","","","","","null","<div style=""font-size:60px;"">+</div>","null","fixation","","","","","","","","","","","","","",""
"revaluation","65","405707","0.0-3.0-13.0-2.0-0.1","spark_pilot_2","7292","3","10","Female","","false","","","","","[1112.1999999999534,686.3000000000466]","./assets/img/space/12.jpg","[""ArrowDown"",""ArrowRight""]","practice block","space","23","{""ArrowUp,ArrowLeft"":3,""ArrowUp,ArrowRight"":36,""ArrowDown,ArrowLeft"":15,""ArrowDown,ArrowRight"":23}","false","ArrowDown,ArrowRight","false","","","","","","","",""
"html-keyboard-response","66","406215","0.0-3.0-13.0-2.0-1.1","spark_pilot_2","7292","3","10","Female","","","","","","","null","<div style=""font-size:60px;"">+</div>","null","fixation","","","","","","","","","","","","","",""
"revaluation","67","412243","0.0-3.0-13.0-2.0-0.2","spark_pilot_2","7292","3","10","Female","","false","","","","","[1081.8000000000466,426.10000000009313]","./assets/img/space/13.jpg","[""ArrowDown"",""ArrowRight""]","practice block","space","23","{""ArrowUp,ArrowLeft"":3,""ArrowUp,ArrowRight"":36,""ArrowDown,ArrowLeft"":15,""ArrowDown,ArrowRight"":23}","false","ArrowDown,ArrowRight","false","","","","","","","",""
"html-keyboard-response","68","412751","0.0-3.0-13.0-2.0-1.2","spark_pilot_2","7292","3","10","Female","","","","","","","null","<div style=""font-size:60px;"">+</div>","null","fixation","","","","","","","","","","","","","",""
"revaluation","69","418776","0.0-3.0-13.0-2.0-0.3","spark_pilot_2","7292","3","10","Female","","false","","","","","[587.3000000000466,462.69999999995343]","./assets/img/space/14.jpg","[""ArrowUp"",""ArrowRight""]","practice block","space","36","{""ArrowUp,ArrowLeft"":3,""ArrowUp,ArrowRight"":36,""ArrowDown,ArrowLeft"":15,""ArrowDown,ArrowRight"":23}","true","ArrowUp,ArrowRight","false","","","","","","","",""
"html-keyboard-response","70","419278","0.0-3.0-13.0-2.0-1.3","spark_pilot_2","7292","3","10","Female","","","","","","","null","<div style=""font-size:60px;"">+</div>","null","fixation","","","","","","","","","","","","","",""
"revaluation","71","425305","0.0-3.0-13.0-2.0-0.4","spark_pilot_2","7292","3","10","Female","","false","","","","","[827.4000000001397,475.60000000009313]","./assets/img/space/11.jpg","[""ArrowUp"",""ArrowRight""]","practice block","space","36","{""ArrowUp,ArrowLeft"":3,""ArrowUp,ArrowRight"":36,""ArrowDown,ArrowLeft"":15,""ArrowDown,ArrowRight"":23}","true","ArrowUp,ArrowRight","false","","","","","","","",""
"html-keyboard-response","72","425816","0.0-3.0-13.0-2.0-1.4","spark_pilot_2","7292","3","10","Female","","","","","","","null","<div style=""font-size:60px;"">+</div>","null","fixation","","","","","","","","","","","","","",""
"revaluation","73","431842","0.0-3.0-13.0-2.0-0.5","spark_pilot_2","7292","3","10","Female","","false","","","","","[848.6999999999534,398.29999999981374]","./assets/img/space/12.jpg","[""ArrowUp"",""ArrowRight""]","practice block","space","36","{""ArrowUp,ArrowLeft"":3,""ArrowUp,ArrowRight"":36,""ArrowDown,ArrowLeft"":15,""ArrowDown,ArrowRight"":23}","true","ArrowUp,ArrowRight","false","","","","","","","",""
"html-keyboard-response","74","432352","0.0-3.0-13.0-2.0-1.5","spark_pilot_2","7292","3","10","Female","","","","","","","null","<div style=""font-size:60px;"">+</div>","null","fixation","","","","","","","","","","","","","",""
"revaluation","75","438378","0.0-3.0-13.0-2.0-0.6","spark_pilot_2","7292","3","10","Female","","false","","","","","[628,424.4000000001397]","./assets/img/space/13.jpg","[""ArrowUp"",""ArrowRight""]","practice block","space","36","{""ArrowUp,ArrowLeft"":3,""ArrowUp,ArrowRight"":36,""ArrowDown,ArrowLeft"":15,""ArrowDown,ArrowRight"":23}","true","ArrowUp,ArrowRight","false","","","","","","","",""
"html-keyboard-response","76","438888","0.0-3.0-13.0-2.0-1.6","spark_pilot_2","7292","3","10","Female","","","","","","","null","<div style=""font-size:60px;"">+</div>","null","fixation","","","","","","","","","","","","","",""
"revaluation","77","444914","0.0-3.0-13.0-2.0-0.7","spark_pilot_2","7292","3","10","Female","","false","","","","","[662.7000000001863,436.70000000018626]","./assets/img/space/14.jpg","[""ArrowUp"",""ArrowRight""]","practice block","space","36","{""ArrowUp,ArrowLeft"":3,""ArrowUp,ArrowRight"":36,""ArrowDown,ArrowLeft"":15,""ArrowDown,ArrowRight"":23}","true","ArrowUp,ArrowRight","false","","","","","","","",""
"html-keyboard-response","78","445425","0.0-3.0-13.0-2.0-1.7","spark_pilot_2","7292","3","10","Female","","","","","","","null","<div style=""font-size:60px;"">+</div>","null","fixation","","","","","","","","","","","","","",""
"revaluation","79","449442","0.0-3.0-13.0-2.0-0.8","spark_pilot_2","7292","3","10","Female","","false","","","","","[587.3000000000466]","./assets/img/space/catch/3.jpg","[""spaceBar""]","practice block","space","0","{""ArrowUp,ArrowLeft"":3,""ArrowUp,ArrowRight"":36,""ArrowDown,ArrowLeft"":15,""ArrowDown,ArrowRight"":23}","true","spaceBar","true","","","","","","","",""
"html-keyboard-response","80","449953","0.0-3.0-13.0-2.0-1.8","spark_pilot_2","7292","3","10","Female","","","","","","","null","<div style=""font-size:60px;"">+</div>","null","fixation","","","","","","","","","","","","","",""
"learning-instructions","81","463603","0.0-3.0-13.0-3.0-0.0","spark_pilot_2","7292","3","10","Female","","","","","","","574.8999999999069","<p> Now, you will travel with a friend who will choose whether you go up or down first. </p>
            <p> On these turns, you will just see the animal that they found. You will still get to choose which chest to search for treasure.</p>","","instructions","","","","","","","","","","","","","",""
"revaluation","82","467625","0.0-3.0-13.0-4.0-0.0","spark_pilot_2","7292","3","10","Female","","false","","","","","[554.9000000001397]","./assets/img/space/animals/cat.jpg","[""ArrowRight""]","practice block","space","36","{""ArrowUp,ArrowLeft"":3,""ArrowUp,ArrowRight"":36,""ArrowDown,ArrowLeft"":15,""ArrowDown,ArrowRight"":23}","true","ArrowUp,ArrowRight","","","","","","","","",""
"html-keyboard-response","83","468135","0.0-3.0-13.0-4.0-1.0","spark_pilot_2","7292","3","10","Female","","","","","","","null","<div style=""font-size:60px;"">+</div>","null","fixation","","","","","","","","","","","","","",""
"revaluation","84","472153","0.0-3.0-13.0-4.0-0.1","spark_pilot_2","7292","3","10","Female","","false","","","","","[354.10000000009313]","./assets/img/space/animals/cat.jpg","[""ArrowRight""]","practice block","space","36","{""ArrowUp,ArrowLeft"":3,""ArrowUp,ArrowRight"":36,""ArrowDown,ArrowLeft"":15,""ArrowDown,ArrowRight"":23}","true","ArrowUp,ArrowRight","","","","","","","","",""
"html-keyboard-response","85","472662","0.0-3.0-13.0-4.0-1.1","spark_pilot_2","7292","3","10","Female","","","","","","","null","<div style=""font-size:60px;"">+</div>","null","fixation","","","","","","","","","","","","","",""
"revaluation","86","476681","0.0-3.0-13.0-4.0-0.2","spark_pilot_2","7292","3","10","Female","","false","","","","","[557.0999999998603]","./assets/img/space/animals/rabbit.jpg","[""ArrowRight""]","practice block","space","23","{""ArrowUp,ArrowLeft"":3,""ArrowUp,ArrowRight"":36,""ArrowDown,ArrowLeft"":15,""ArrowDown,ArrowRight"":23}","true","ArrowDown,ArrowRight","","","","","","","","",""
"html-keyboard-response","87","477191","0.0-3.0-13.0-4.0-1.2","spark_pilot_2","7292","3","10","Female","","","","","","","null","<div style=""font-size:60px;"">+</div>","null","fixation","","","","","","","","","","","","","",""
"revaluation","88","481208","0.0-3.0-13.0-4.0-0.3","spark_pilot_2","7292","3","10","Female","","false","","","","","[458.0999999998603]","./assets/img/space/animals/rabbit.jpg","[""ArrowRight""]","practice block","space","23","{""ArrowUp,ArrowLeft"":3,""ArrowUp,ArrowRight"":36,""ArrowDown,ArrowLeft"":15,""ArrowDown,ArrowRight"":23}","true","ArrowDown,ArrowRight","","","","","","","","",""
"html-keyboard-response","89","481719","0.0-3.0-13.0-4.0-1.3","spark_pilot_2","7292","3","10","Female","","","","","","","null","<div style=""font-size:60px;"">+</div>","null","fixation","","","","","","","","","","","","","",""
"learning-instructions","90","489953","0.0-3.0-13.0-5.0-0.0","spark_pilot_2","7292","3","10","Female","","","","","","","826.3000000000466","<p> Time to play the dot game! </p>
            <p> For 15 seconds, click the red dots on the following screen as they appear. </p>","","instructions","","","","","","","","","","","","","",""
"revaluation","91","504954","0.0-3.0-13.0-6.0-0.0","spark_pilot_2","7292","3","10","Female","","","","","","","[88]","","","rest practice","","10","","","","","0","15000","","","","","",""
"learning-instructions","92","512337","0.0-3.0-13.0-7.0-0.0","spark_pilot_2","7292","3","10","Female","","","","","","","1228.6999999999534","<p> You have almost finished this part of the game! </p>
            <p> We are going to ask you to make a few more choices. </p>","","instructions","","","","","","","","","","","","","",""
"learning-instructions","93","527706","0.0-3.0-13.0-7.0-0.1","spark_pilot_2","7292","3","10","Female","","","","","","","1299.1000000000931","<p> First, you need to decide whether to go up or down. When you see each picture, use the arrow keys to make your choice. </p>
            <p><b>You will not see which animal you found, but try to get to the one that will give you the most treasure.</b></p>","","instructions","","","","","","","","","","","","","",""
"revaluation","94","528997","0.0-3.0-13.0-8.0","spark_pilot_2","7292","3","10","Female","","false","","","","","[1287.8999999999069]","./assets/img/space/15.jpg","[""ArrowUp""]","practice block","space","0","{""ArrowUp,ArrowLeft"":3,""ArrowUp,ArrowRight"":36,""ArrowDown,ArrowLeft"":15,""ArrowDown,ArrowRight"":23}","true","ArrowUp","false","","","","","","","",""
"html-keyboard-response","95","529502","0.0-3.0-13.0-9.0","spark_pilot_2","7292","3","10","Female","","","","","","","null","<div style=""font-size:60px;"">+</div>","null","fixation","","","","","","","","","","","","","",""
"learning-instructions","96","542556","0.0-3.0-13.0-10.0-0.0","spark_pilot_2","7292","3","10","Female","","","","","","","1643.6999999999534","<p> Now you will see the animals again and can search their chests for treasure. </p>
            <p> This time, you will not see how much treasure you earned, but you will earn more bonus money for making better choices. </p>","","instructions","","","","","","","","","","","","","",""
"revaluation","97","543304","0.0-3.0-13.0-11.0-0.0","spark_pilot_2","7292","3","10","Female","","false","","","","","[745.2999999998137]","./assets/img/space/animals/cat.jpg","[""ArrowRight""]","practice block","space","0","{""ArrowUp,ArrowLeft"":3,""ArrowUp,ArrowRight"":36,""ArrowDown,ArrowLeft"":15,""ArrowDown,ArrowRight"":23}","true","ArrowUp,ArrowRight","","","","","","","","",""
"html-keyboard-response","98","543808","0.0-3.0-13.0-11.0-1.0","spark_pilot_2","7292","3","10","Female","","","","","","","null","<div style=""font-size:60px;"">+</div>","null","fixation","","","","","","","","","","","","","",""
"revaluation","99","544506","0.0-3.0-13.0-11.0-0.1","spark_pilot_2","7292","3","10","Female","","false","","","","","[694]","./assets/img/space/animals/rabbit.jpg","[""ArrowRight""]","practice block","space","0","{""ArrowUp,ArrowLeft"":3,""ArrowUp,ArrowRight"":36,""ArrowDown,ArrowLeft"":15,""ArrowDown,ArrowRight"":23}","true","ArrowDown,ArrowRight","","","","","","","","",""
"html-keyboard-response","100","545016","0.0-3.0-13.0-11.0-1.1","spark_pilot_2","7292","3","10","Female","","","","","","","null","<div style=""font-size:60px;"">+</div>","null","fixation","","","","","","","","","","","","","",""
"learning-instructions","101","550423","0.0-3.0-14.0-0.0","spark_pilot_2","7292","3","10","Female","","","","","","","809","<p> Before you start, we're going to ask you a few questions about how the game works. </p>","","instructions","","","","","","","","","","","","","",""
"comp-q","102","557308","0.0-3.0-15.0-0.0-0.0","spark_pilot_2","7292","3","10","Female","","","","","","","1275.1000000000931","<p> <b> True or False? </b> </p>
            <p> There can be 50 pieces of treasure in a given animal's chest. </p>","1","comp_question","","","","true","","","","","","","","","",""
"comp-q","103","565541","0.0-3.0-15.0-0.0-1.0","spark_pilot_2","7292","3","10","Female","","","","","","","1553.5","<p> <b> That's right! </b> The amount of treasure in each chest can range from 0 to 40 pieces. </p>","0","comp_answer","","","","","","","","","","","","","",""
"comp-q","104","573692","0.0-3.0-15.0-0.1-0.1","spark_pilot_2","7292","3","10","Female","","","","","","","1002.9000000001397","<p> <b> True or False? </b> </p><p> In this game, all animals have the same amount of treasure in their left and right chests. </p>","1","comp_question","","","","true","","","","","","","","","",""
"comp-q","105","580609","0.0-3.0-15.0-0.1-1.1","spark_pilot_2","7292","3","10","Female","","","","","","","1668.1999999999534","<p> <b> That's right! </b> Animals have different amounts of treasure in their treasure chests. </p>","0","comp_answer","","","","","","","","","","","","","",""
"comp-q","106","587442","0.0-3.0-15.0-0.2-0.2","spark_pilot_2","7292","3","10","Female","","","","","","","972.0999999998603","<p> <b> True or False? </b> </p><p> The same animal will always be there if you go up in the same place. </p>","0","comp_question","","","","true","","","","","","","","","",""
"comp-q","107","594875","0.0-3.0-15.0-0.2-1.2","spark_pilot_2","7292","3","10","Female","","","","","","","969.3000000000466","<p> <b> That's right! </b> One animal lives in the upper part and one lives in the lower part of every place. </p>","0","comp_answer","","","","","","","","","","","","","",""
"comp-q","108","601410","0.0-3.0-15.0-0.3-0.3","spark_pilot_2","7292","3","10","Female","","","","","","","990.5","<p> <b> True or False? </b> </p><p> If you see a different picture, it means you are in a new place. </p>","1","comp_question","","","","true","","","","","","","","","",""
"comp-q","109","613910","0.0-3.0-15.0-0.3-1.3","spark_pilot_2","7292","3","10","Female","","","","","","","1237","<p> <b> That's right! </b> Lots of different images may show the same place. For example,  you may see three different images that all remind you that you are in outer space. </p>","0","comp_answer","","","","","","","","","","","","","",""
"learning-instructions","110","625178","0.0-3.0-16.0-0.0","spark_pilot_2","7292","3","10","Female","","","","","","","1383.1999999999534","<p> Good job. Remember to do your best because the amount of treasure you earn will be converted into bonus money. </p>
            <p> It’s time to start the real game! </p>","","instructions","","","","","","","","","","","","","",""
"learning-instructions","111","629876","0.0-4.0-0.0-0.0","spark_pilot_2","7292","3","10","Female","","","","","","","1977.1000000000931","<p> This time you are searching for treasure in the <b>ocean</b>.</p>","","instructions","","","","","","","","","","","","","",""
"learning-instructions","112","647945","0.0-4.0-0.0-0.1","spark_pilot_2","7292","3","10","Female","","","","","","","692.2000000001863","<p><b>New</b> animals with <b>new</b> treasure chests live here. You need to explore to discover where the animal with the best treasure chest is.</p>
                    <p> Like before, once you figure out which animal has the chest with the most treasure, you should try to get to that animal and select that chest! </p>","","instructions","","","","","","","","","","","","","",""
"learning-instructions","113","663698","0.0-4.0-1.0-0.0","spark_pilot_2","7292","3","10","Female","","","","","","","1021.1999999999534","<p> Remember, when you see a picture of the place, use the up and down keys to <b>find an animal</b>.</p>
            <p> When you encounter an animal, you should use the left and right keys to <b>select a treasure chest</b>.</p>
            <p> Don't forget to look out for the robber! </p>","","instructions","","","","","","","","","","","","","",""
"revaluation","114","669724","0.0-4.0-2.0-0.0","spark_pilot_2","7292","3","10","Female","","false","","","","","[844.8000000000466,652.9000000001397]","./assets/img/ocean/memory/18.jpg","[""ArrowUp"",""ArrowRight""]","value training","ocean","10","{""ArrowUp,ArrowLeft"":23,""ArrowUp,ArrowRight"":10,""ArrowDown,ArrowLeft"":8,""ArrowDown,ArrowRight"":30}","false","ArrowUp,ArrowRight","false","","","original","1","0","","",""
"html-keyboard-response","115","670240","0.0-4.0-2.0-1.0","spark_pilot_2","7292","3","10","Female","","","","","","","null","<div style=""font-size:60px;"">+</div>","null","fixation","","","","","","","","","","","1","","",""
"revaluation","116","676268","0.0-4.0-2.0-0.1","spark_pilot_2","7292","3","10","Female","","false","","","","","[618.3000000000466,363.69999999995343]","./assets/img/ocean/memory/39.jpg","[""ArrowUp"",""ArrowLeft""]","value training","ocean","23","{""ArrowUp,ArrowLeft"":23,""ArrowUp,ArrowRight"":10,""ArrowDown,ArrowLeft"":8,""ArrowDown,ArrowRight"":30}","false","ArrowUp,ArrowLeft","false","","","original","1","2","","",""
"html-keyboard-response","117","676776","0.0-4.0-2.0-1.1","spark_pilot_2","7292","3","10","Female","","","","","","","null","<div style=""font-size:60px;"">+</div>","null","fixation","","","","","","","","","","","3","","",""
"revaluation","118","682808","0.0-4.0-2.0-0.2","spark_pilot_2","7292","3","10","Female","","false","","","","","[572,380.9000000001397]","./assets/img/ocean/memory/36.jpg","[""ArrowDown"",""ArrowRight""]","value training","ocean","30","{""ArrowUp,ArrowLeft"":23,""ArrowUp,ArrowRight"":10,""ArrowDown,ArrowLeft"":8,""ArrowDown,ArrowRight"":30}","true","ArrowDown,ArrowRight","false","","","original","1","4","","",""
"html-keyboard-response","119","683318","0.0-4.0-2.0-1.2","spark_pilot_2","7292","3","10","Female","","","","","","","null","<div style=""font-size:60px;"">+</div>","null","fixation","","","","","","","","","","","5","","",""
"revaluation","120","689340","0.0-4.0-2.0-0.3","spark_pilot_2","7292","3","10","Female","","false","","","","","[553.1000000000931,378.80000000004657]","./assets/img/ocean/memory/33.jpg","[""ArrowDown"",""ArrowLeft""]","value training","ocean","8","{""ArrowUp,ArrowLeft"":23,""ArrowUp,ArrowRight"":10,""ArrowDown,ArrowLeft"":8,""ArrowDown,ArrowRight"":30}","false","ArrowDown,ArrowLeft","false","","","original","1","6","","",""
"html-keyboard-response","121","689843","0.0-4.0-2.0-1.3","spark_pilot_2","7292","3","10","Female","","","","","","","null","<div style=""font-size:60px;"">+</div>","null","fixation","","","","","","","","","","","7","","",""
"revaluation","122","693861","0.0-4.0-2.0-0.4","spark_pilot_2","7292","3","10","Female","","false","","","","","[517.6999999999534]","./assets/img/ocean/catch/0.jpg","[""spaceBar""]","value training","ocean","0","{""ArrowUp,ArrowLeft"":23,""ArrowUp,ArrowRight"":10,""ArrowDown,ArrowLeft"":8,""ArrowDown,ArrowRight"":30}","true","spaceBar","true","","","original","1","8","","",""
"html-keyboard-response","123","694366","0.0-4.0-2.0-1.4","spark_pilot_2","7292","3","10","Female","","","","","","","null","<div style=""font-size:60px;"">+</div>","null","fixation","","","","","","","","","","","9","","",""
"revaluation","124","700388","0.0-4.0-2.0-0.5","spark_pilot_2","7292","3","10","Female","","false","","","","","[448.19999999995343,382]","./assets/img/ocean/memory/26.jpg","[""ArrowDown"",""ArrowRight""]","value training","ocean","30","{""ArrowUp,ArrowLeft"":23,""ArrowUp,ArrowRight"":10,""ArrowDown,ArrowLeft"":8,""ArrowDown,ArrowRight"":30}","true","ArrowDown,ArrowRight","false","","","original","1","10","","",""
"html-keyboard-response","125","700891","0.0-4.0-2.0-1.5","spark_pilot_2","7292","3","10","Female","","","","","","","null","<div style=""font-size:60px;"">+</div>","null","fixation","","","","","","","","","","","11","","",""
"revaluation","126","704908","0.0-4.0-2.0-0.6","spark_pilot_2","7292","3","10","Female","","false","","","","","[699.8000000000466]","./assets/img/ocean/catch/5.jpg","[""spaceBar""]","value training","ocean","0","{""ArrowUp,ArrowLeft"":23,""ArrowUp,ArrowRight"":10,""ArrowDown,ArrowLeft"":8,""ArrowDown,ArrowRight"":30}","true","spaceBar","true","","","original","1","12","","",""
"html-keyboard-response","127","705413","0.0-4.0-2.0-1.6","spark_pilot_2","7292","3","10","Female","","","","","","","null","<div style=""font-size:60px;"">+</div>","null","fixation","","","","","","","","","","","13","","",""
"revaluation","128","709430","0.0-4.0-2.0-0.7","spark_pilot_2","7292","3","10","Female","","true","","","","","[]","./assets/img/ocean/memory/20.jpg","[]","value training","ocean","-5","{""ArrowUp,ArrowLeft"":23,""ArrowUp,ArrowRight"":10,""ArrowDown,ArrowLeft"":8,""ArrowDown,ArrowRight"":30}","false","","false","","","original","1","14","","",""
"html-keyboard-response","129","709941","0.0-4.0-2.0-1.7","spark_pilot_2","7292","3","10","Female","","","","","","","null","<div style=""font-size:60px;"">+</div>","null","fixation","","","","","","","","","","","15","","",""
"revaluation","130","715966","0.0-4.0-2.0-0.8","spark_pilot_2","7292","3","10","Female","","false","","","","","[743.6000000000931,595.1000000000931]","./assets/img/ocean/memory/31.jpg","[""ArrowDown"",""ArrowRight""]","value training","ocean","30","{""ArrowUp,ArrowLeft"":23,""ArrowUp,ArrowRight"":10,""ArrowDown,ArrowLeft"":8,""ArrowDown,ArrowRight"":30}","true","ArrowDown,ArrowRight","false","","","original","1","16","","",""
"html-keyboard-response","131","716477","0.0-4.0-2.0-1.8","spark_pilot_2","7292","3","10","Female","","","","","","","null","<div style=""font-size:60px;"">+</div>","null","fixation","","","","","","","","","","","17","","",""
"revaluation","132","722503","0.0-4.0-2.0-0.9","spark_pilot_2","7292","3","10","Female","","false","","","","","[821.8999999999069,337.10000000009313]","./assets/img/ocean/memory/3.jpg","[""ArrowDown"",""ArrowRight""]","value training","ocean","30","{""ArrowUp,ArrowLeft"":23,""ArrowUp,ArrowRight"":10,""ArrowDown,ArrowLeft"":8,""ArrowDown,ArrowRight"":30}","true","ArrowDown,ArrowRight","false","","","original","1","18","","",""
"html-keyboard-response","133","723013","0.0-4.0-2.0-1.9","spark_pilot_2","7292","3","10","Female","","","","","","","null","<div style=""font-size:60px;"">+</div>","null","fixation","","","","","","","","","","","19","","",""
"revaluation","134","729039","0.0-4.0-2.0-0.10","spark_pilot_2","7292","3","10","Female","","false","","","","","[564.3000000000466,433.80000000004657]","./assets/img/ocean/memory/39.jpg","[""ArrowDown"",""ArrowRight""]","value training","ocean","30","{""ArrowUp,ArrowLeft"":23,""ArrowUp,ArrowRight"":10,""ArrowDown,ArrowLeft"":8,""ArrowDown,ArrowRight"":30}","true","ArrowDown,ArrowRight","false","","","original","1","20","","",""
"html-keyboard-response","135","729550","0.0-4.0-2.0-1.10","spark_pilot_2","7292","3","10","Female","","","","","","","null","<div style=""font-size:60px;"">+</div>","null","fixation","","","","","","","","","","","21","","",""
"revaluation","136","735576","0.0-4.0-2.0-0.11","spark_pilot_2","7292","3","10","Female","","false","","","","","[651,565.9000000001397]","./assets/img/ocean/memory/25.jpg","[""ArrowDown"",""ArrowRight""]","value training","ocean","30","{""ArrowUp,ArrowLeft"":23,""ArrowUp,ArrowRight"":10,""ArrowDown,ArrowLeft"":8,""ArrowDown,ArrowRight"":30}","true","ArrowDown,ArrowRight","false","","","original","1","22","","",""
"html-keyboard-response","137","736086","0.0-4.0-2.0-1.11","spark_pilot_2","7292","3","10","Female","","","","","","","null","<div style=""font-size:60px;"">+</div>","null","fixation","","","","","","","","","","","23","","",""
"revaluation","138","742106","0.0-4.0-2.0-0.12","spark_pilot_2","7292","3","10","Female","","false","","","","","[825.3999999999069,475.60000000009313]","./assets/img/ocean/memory/40.jpg","[""ArrowDown"",""ArrowRight""]","value training","ocean","30","{""ArrowUp,ArrowLeft"":23,""ArrowUp,ArrowRight"":10,""ArrowDown,ArrowLeft"":8,""ArrowDown,ArrowRight"":30}","true","ArrowDown,ArrowRight","false","","","original","1","24","","",""
"html-keyboard-response","139","742611","0.0-4.0-2.0-1.12","spark_pilot_2","7292","3","10","Female","","","","","","","null","<div style=""font-size:60px;"">+</div>","null","fixation","","","","","","","","","","","25","","",""
"revaluation","140","748637","0.0-4.0-2.0-0.13","spark_pilot_2","7292","3","10","Female","","false","","","","","[609.3000000000466,599.3999999999069]","./assets/img/ocean/memory/12.jpg","[""ArrowDown"",""ArrowRight""]","value training","ocean","30","{""ArrowUp,ArrowLeft"":23,""ArrowUp,ArrowRight"":10,""ArrowDown,ArrowLeft"":8,""ArrowDown,ArrowRight"":30}","true","ArrowDown,ArrowRight","false","","","original","1","26","","",""
"html-keyboard-response","141","749141","0.0-4.0-2.0-1.13","spark_pilot_2","7292","3","10","Female","","","","","","","null","<div style=""font-size:60px;"">+</div>","null","fixation","","","","","","","","","","","27","","",""
"revaluation","142","753159","0.0-4.0-2.0-0.14","spark_pilot_2","7292","3","10","Female","","false","","","","","[960.3999999999069]","./assets/img/ocean/catch/7.jpg","[""spaceBar""]","value training","ocean","0","{""ArrowUp,ArrowLeft"":23,""ArrowUp,ArrowRight"":10,""ArrowDown,ArrowLeft"":8,""ArrowDown,ArrowRight"":30}","true","spaceBar","true","","","original","1","28","","",""
"html-keyboard-response","143","753669","0.0-4.0-2.0-1.14","spark_pilot_2","7292","3","10","Female","","","","","","","null","<div style=""font-size:60px;"">+</div>","null","fixation","","","","","","","","","","","29","","",""
"revaluation","144","759695","0.0-4.0-2.0-0.15","spark_pilot_2","7292","3","10","Female","","false","","","","","[537.6999999999534,289.30000000004657]","./assets/img/ocean/memory/4.jpg","[""ArrowDown"",""ArrowRight""]","value training","ocean","30","{""ArrowUp,ArrowLeft"":23,""ArrowUp,ArrowRight"":10,""ArrowDown,ArrowLeft"":8,""ArrowDown,ArrowRight"":30}","true","ArrowDown,ArrowRight","false","","","original","1","30","","",""
"html-keyboard-response","145","760205","0.0-4.0-2.0-1.15","spark_pilot_2","7292","3","10","Female","","","","","","","null","<div style=""font-size:60px;"">+</div>","null","fixation","","","","","","","","","","","31","","",""
"revaluation","146","766226","0.0-4.0-2.0-0.16","spark_pilot_2","7292","3","10","Female","","false","","","","","[609,419.30000000004657]","./assets/img/ocean/memory/4.jpg","[""ArrowDown"",""ArrowRight""]","value training","ocean","30","{""ArrowUp,ArrowLeft"":23,""ArrowUp,ArrowRight"":10,""ArrowDown,ArrowLeft"":8,""ArrowDown,ArrowRight"":30}","true","ArrowDown,ArrowRight","false","","","original","1","32","","",""
"html-keyboard-response","147","766730","0.0-4.0-2.0-1.16","spark_pilot_2","7292","3","10","Female","","","","","","","null","<div style=""font-size:60px;"">+</div>","null","fixation","","","","","","","","","","","33","","",""
"revaluation","148","772756","0.0-4.0-2.0-0.17","spark_pilot_2","7292","3","10","Female","","false","","","","","[503.39999999990687,432]","./assets/img/ocean/memory/17.jpg","[""ArrowDown"",""ArrowRight""]","value training","ocean","30","{""ArrowUp,ArrowLeft"":23,""ArrowUp,ArrowRight"":10,""ArrowDown,ArrowLeft"":8,""ArrowDown,ArrowRight"":30}","true","ArrowDown,ArrowRight","false","","","original","1","34","","",""
"html-keyboard-response","149","773261","0.0-4.0-2.0-1.17","spark_pilot_2","7292","3","10","Female","","","","","","","null","<div style=""font-size:60px;"">+</div>","null","fixation","","","","","","","","","","","35","","",""
"revaluation","150","779287","0.0-4.0-2.0-0.18","spark_pilot_2","7292","3","10","Female","","false","","","","","[727.5,810.1999999999534]","./assets/img/ocean/memory/10.jpg","[""ArrowDown"",""ArrowRight""]","value training","ocean","30","{""ArrowUp,ArrowLeft"":23,""ArrowUp,ArrowRight"":10,""ArrowDown,ArrowLeft"":8,""ArrowDown,ArrowRight"":30}","true","ArrowDown,ArrowRight","false","","","original","1","36","","",""
"html-keyboard-response","151","779797","0.0-4.0-2.0-1.18","spark_pilot_2","7292","3","10","Female","","","","","","","null","<div style=""font-size:60px;"">+</div>","null","fixation","","","","","","","","","","","37","","",""
"revaluation","152","785823","0.0-4.0-2.0-0.19","spark_pilot_2","7292","3","10","Female","","false","","","","","[573.3999999999069,422.80000000004657]","./assets/img/ocean/memory/3.jpg","[""ArrowDown"",""ArrowRight""]","value training","ocean","30","{""ArrowUp,ArrowLeft"":23,""ArrowUp,ArrowRight"":10,""ArrowDown,ArrowLeft"":8,""ArrowDown,ArrowRight"":30}","true","ArrowDown,ArrowRight","false","","","original","1","38","","",""
"html-keyboard-response","153","786334","0.0-4.0-2.0-1.19","spark_pilot_2","7292","3","10","Female","","","","","","","null","<div style=""font-size:60px;"">+</div>","null","fixation","","","","","","","","","","","39","","",""
"revaluation","154","792359","0.0-4.0-2.0-0.20","spark_pilot_2","7292","3","10","Female","","false","","","","","[581.6999999999534,339.19999999995343]","./assets/img/ocean/memory/10.jpg","[""ArrowDown"",""ArrowRight""]","value training","ocean","30","{""ArrowUp,ArrowLeft"":23,""ArrowUp,ArrowRight"":10,""ArrowDown,ArrowLeft"":8,""ArrowDown,ArrowRight"":30}","true","ArrowDown,ArrowRight","false","","","original","1","40","","",""
"html-keyboard-response","155","792870","0.0-4.0-2.0-1.20","spark_pilot_2","7292","3","10","Female","","","","","","","null","<div style=""font-size:60px;"">+</div>","null","fixation","","","","","","","","","","","41","","",""
"revaluation","156","798890","0.0-4.0-2.0-0.21","spark_pilot_2","7292","3","10","Female","","false","","","","","[613.1000000000931,422.5999999998603]","./assets/img/ocean/memory/40.jpg","[""ArrowDown"",""ArrowRight""]","value training","ocean","30","{""ArrowUp,ArrowLeft"":23,""ArrowUp,ArrowRight"":10,""ArrowDown,ArrowLeft"":8,""ArrowDown,ArrowRight"":30}","true","ArrowDown,ArrowRight","false","","","original","1","42","","",""
"html-keyboard-response","157","799395","0.0-4.0-2.0-1.21","spark_pilot_2","7292","3","10","Female","","","","","","","null","<div style=""font-size:60px;"">+</div>","null","fixation","","","","","","","","","","","43","","",""
"revaluation","158","805420","0.0-4.0-2.0-0.22","spark_pilot_2","7292","3","10","Female","","false","","","","","[662.1999999999534,455.30000000004657]","./assets/img/ocean/memory/7.jpg","[""ArrowDown"",""ArrowRight""]","value training","ocean","30","{""ArrowUp,ArrowLeft"":23,""ArrowUp,ArrowRight"":10,""ArrowDown,ArrowLeft"":8,""ArrowDown,ArrowRight"":30}","true","ArrowDown,ArrowRight","false","","","original","1","44","","",""
"html-keyboard-response","159","805931","0.0-4.0-2.0-1.22","spark_pilot_2","7292","3","10","Female","","","","","","","null","<div style=""font-size:60px;"">+</div>","null","fixation","","","","","","","","","","","45","","",""
"revaluation","160","811956","0.0-4.0-2.0-0.23","spark_pilot_2","7292","3","10","Female","","false","","","","","[529.6999999999534,362.30000000004657]","./assets/img/ocean/memory/11.jpg","[""ArrowDown"",""ArrowRight""]","value training","ocean","30","{""ArrowUp,ArrowLeft"":23,""ArrowUp,ArrowRight"":10,""ArrowDown,ArrowLeft"":8,""ArrowDown,ArrowRight"":30}","true","ArrowDown,ArrowRight","false","","","original","1","46","","",""
"html-keyboard-response","161","812462","0.0-4.0-2.0-1.23","spark_pilot_2","7292","3","10","Female","","","","","","","null","<div style=""font-size:60px;"">+</div>","null","fixation","","","","","","","","","","","47","","",""
"revaluation","162","818493","0.0-4.0-2.0-0.24","spark_pilot_2","7292","3","10","Female","","false","","","","","[505.19999999995343,766.3000000000466]","./assets/img/ocean/memory/17.jpg","[""ArrowDown"",""ArrowRight""]","value training","ocean","30","{""ArrowUp,ArrowLeft"":23,""ArrowUp,ArrowRight"":10,""ArrowDown,ArrowLeft"":8,""ArrowDown,ArrowRight"":30}","true","ArrowDown,ArrowRight","false","","","original","1","48","","",""
"html-keyboard-response","163","819004","0.0-4.0-2.0-1.24","spark_pilot_2","7292","3","10","Female","","","","","","","null","<div style=""font-size:60px;"">+</div>","null","fixation","","","","","","","","","","","49","","",""
"revaluation","164","825029","0.0-4.0-2.0-0.25","spark_pilot_2","7292","3","10","Female","","false","","","","","[776.7000000001863,375.39999999990687]","./assets/img/ocean/memory/11.jpg","[""ArrowDown"",""ArrowRight""]","value training","ocean","30","{""ArrowUp,ArrowLeft"":23,""ArrowUp,ArrowRight"":10,""ArrowDown,ArrowLeft"":8,""ArrowDown,ArrowRight"":30}","true","ArrowDown,ArrowRight","false","","","original","1","50","","",""
"html-keyboard-response","165","825543","0.0-4.0-2.0-1.25","spark_pilot_2","7292","3","10","Female","","","","","","","null","<div style=""font-size:60px;"">+</div>","null","fixation","","","","","","","","","","","51","","",""
"revaluation","166","831566","0.0-4.0-2.0-0.26","spark_pilot_2","7292","3","10","Female","","false","","","","","[609.3000000000466,526.5999999998603]","./assets/img/ocean/memory/26.jpg","[""ArrowDown"",""ArrowRight""]","value training","ocean","30","{""ArrowUp,ArrowLeft"":23,""ArrowUp,ArrowRight"":10,""ArrowDown,ArrowLeft"":8,""ArrowDown,ArrowRight"":30}","true","ArrowDown,ArrowRight","false","","","original","1","52","","",""
"html-keyboard-response","167","832076","0.0-4.0-2.0-1.26","spark_pilot_2","7292","3","10","Female","","","","","","","null","<div style=""font-size:60px;"">+</div>","null","fixation","","","","","","","","","","","53","","",""
"revaluation","168","838102","0.0-4.0-2.0-0.27","spark_pilot_2","7292","3","10","Female","","false","","","","","[572,412.10000000009313]","./assets/img/ocean/memory/33.jpg","[""ArrowDown"",""ArrowRight""]","value training","ocean","30","{""ArrowUp,ArrowLeft"":23,""ArrowUp,ArrowRight"":10,""ArrowDown,ArrowLeft"":8,""ArrowDown,ArrowRight"":30}","true","ArrowDown,ArrowRight","false","","","original","1","54","","",""
"html-keyboard-response","169","838613","0.0-4.0-2.0-1.27","spark_pilot_2","7292","3","10","Female","","","","","","","null","<div style=""font-size:60px;"">+</div>","null","fixation","","","","","","","","","","","55","","",""
"revaluation","170","844638","0.0-4.0-2.0-0.28","spark_pilot_2","7292","3","10","Female","","false","","","","","[665.6999999999534,290.80000000004657]","./assets/img/ocean/memory/31.jpg","[""ArrowDown"",""ArrowRight""]","value training","ocean","30","{""ArrowUp,ArrowLeft"":23,""ArrowUp,ArrowRight"":10,""ArrowDown,ArrowLeft"":8,""ArrowDown,ArrowRight"":30}","true","ArrowDown,ArrowRight","false","","","original","1","56","","",""
"html-keyboard-response","171","845149","0.0-4.0-2.0-1.28","spark_pilot_2","7292","3","10","Female","","","","","","","null","<div style=""font-size:60px;"">+</div>","null","fixation","","","","","","","","","","","57","","",""
"revaluation","172","851169","0.0-4.0-2.0-0.29","spark_pilot_2","7292","3","10","Female","","false","","","","","[402.5,319.19999999995343]","./assets/img/ocean/memory/12.jpg","[""ArrowDown"",""ArrowRight""]","value training","ocean","30","{""ArrowUp,ArrowLeft"":23,""ArrowUp,ArrowRight"":10,""ArrowDown,ArrowLeft"":8,""ArrowDown,ArrowRight"":30}","true","ArrowDown,ArrowRight","false","","","original","1","58","","",""
"html-keyboard-response","173","851674","0.0-4.0-2.0-1.29","spark_pilot_2","7292","3","10","Female","","","","","","","null","<div style=""font-size:60px;"">+</div>","null","fixation","","","","","","","","","","","59","","",""
"revaluation","174","855693","0.0-4.0-2.0-0.30","spark_pilot_2","7292","3","10","Female","","false","","","","","[692.5]","./assets/img/ocean/catch/3.jpg","[""spaceBar""]","value training","ocean","0","{""ArrowUp,ArrowLeft"":23,""ArrowUp,ArrowRight"":10,""ArrowDown,ArrowLeft"":8,""ArrowDown,ArrowRight"":30}","true","spaceBar","true","","","original","1","60","","",""
"html-keyboard-response","175","856202","0.0-4.0-2.0-1.30","spark_pilot_2","7292","3","10","Female","","","","","","","null","<div style=""font-size:60px;"">+</div>","null","fixation","","","","","","","","","","","61","","",""
"revaluation","176","862227","0.0-4.0-2.0-0.31","spark_pilot_2","7292","3","10","Female","","false","","","","","[624.0999999996275,387.70000000018626]","./assets/img/ocean/memory/14.jpg","[""ArrowDown"",""ArrowRight""]","value training","ocean","30","{""ArrowUp,ArrowLeft"":23,""ArrowUp,ArrowRight"":10,""ArrowDown,ArrowLeft"":8,""ArrowDown,ArrowRight"":30}","true","ArrowDown,ArrowRight","false","","","original","1","62","","",""
"html-keyboard-response","177","862732","0.0-4.0-2.0-1.31","spark_pilot_2","7292","3","10","Female","","","","","","","null","<div style=""font-size:60px;"">+</div>","null","fixation","","","","","","","","","","","63","","",""
"revaluation","178","868758","0.0-4.0-2.0-0.32","spark_pilot_2","7292","3","10","Female","","false","","","","","[959.4000000003725,373.59999999962747]","./assets/img/ocean/memory/14.jpg","[""ArrowDown"",""ArrowRight""]","value training","ocean","30","{""ArrowUp,ArrowLeft"":23,""ArrowUp,ArrowRight"":10,""ArrowDown,ArrowLeft"":8,""ArrowDown,ArrowRight"":30}","true","ArrowDown,ArrowRight","false","","","original","1","64","","",""
"html-keyboard-response","179","869269","0.0-4.0-2.0-1.32","spark_pilot_2","7292","3","10","Female","","","","","","","null","<div style=""font-size:60px;"">+</div>","null","fixation","","","","","","","","","","","65","","",""
"revaluation","180","873286","0.0-4.0-2.0-0.33","spark_pilot_2","7292","3","10","Female","","false","","","","","[633.7000000001863]","./assets/img/ocean/catch/4.jpg","[""spaceBar""]","value training","ocean","0","{""ArrowUp,ArrowLeft"":23,""ArrowUp,ArrowRight"":10,""ArrowDown,ArrowLeft"":8,""ArrowDown,ArrowRight"":30}","true","spaceBar","true","","","original","1","66","","",""
"html-keyboard-response","181","873796","0.0-4.0-2.0-1.33","spark_pilot_2","7292","3","10","Female","","","","","","","null","<div style=""font-size:60px;"">+</div>","null","fixation","","","","","","","","","","","67","","",""
"revaluation","182","879818","0.0-4.0-2.0-0.34","spark_pilot_2","7292","3","10","Female","","false","","","","","[585.5,309.5]","./assets/img/ocean/memory/18.jpg","[""ArrowDown"",""ArrowRight""]","value training","ocean","30","{""ArrowUp,ArrowLeft"":23,""ArrowUp,ArrowRight"":10,""ArrowDown,ArrowLeft"":8,""ArrowDown,ArrowRight"":30}","true","ArrowDown,ArrowRight","false","","","original","1","68","","",""
"html-keyboard-response","183","880321","0.0-4.0-2.0-1.34","spark_pilot_2","7292","3","10","Female","","","","","","","null","<div style=""font-size:60px;"">+</div>","null","fixation","","","","","","","","","","","69","","",""
"revaluation","184","886347","0.0-4.0-2.0-0.35","spark_pilot_2","7292","3","10","Female","","false","","","","","[717.8000000002794,403]","./assets/img/ocean/memory/0.jpg","[""ArrowDown"",""ArrowRight""]","value training","ocean","30","{""ArrowUp,ArrowLeft"":23,""ArrowUp,ArrowRight"":10,""ArrowDown,ArrowLeft"":8,""ArrowDown,ArrowRight"":30}","true","ArrowDown,ArrowRight","false","","","original","1","70","","",""
"html-keyboard-response","185","886852","0.0-4.0-2.0-1.35","spark_pilot_2","7292","3","10","Female","","","","","","","null","<div style=""font-size:60px;"">+</div>","null","fixation","","","","","","","","","","","71","","",""
"revaluation","186","892877","0.0-4.0-2.0-0.36","spark_pilot_2","7292","3","10","Female","","false","","","","","[526.5999999996275,627.6000000000931]","./assets/img/ocean/memory/25.jpg","[""ArrowDown"",""ArrowRight""]","value training","ocean","30","{""ArrowUp,ArrowLeft"":23,""ArrowUp,ArrowRight"":10,""ArrowDown,ArrowLeft"":8,""ArrowDown,ArrowRight"":30}","true","ArrowDown,ArrowRight","false","","","original","1","72","","",""
"html-keyboard-response","187","893388","0.0-4.0-2.0-1.36","spark_pilot_2","7292","3","10","Female","","","","","","","null","<div style=""font-size:60px;"">+</div>","null","fixation","","","","","","","","","","","73","","",""
"revaluation","188","899414","0.0-4.0-2.0-0.37","spark_pilot_2","7292","3","10","Female","","false","","","","","[561.5999999996275,709.6000000000931]","./assets/img/ocean/memory/38.jpg","[""ArrowDown"",""ArrowRight""]","value training","ocean","30","{""ArrowUp,ArrowLeft"":23,""ArrowUp,ArrowRight"":10,""ArrowDown,ArrowLeft"":8,""ArrowDown,ArrowRight"":30}","true","ArrowDown,ArrowRight","false","","","original","1","74","","",""
"html-keyboard-response","189","899924","0.0-4.0-2.0-1.37","spark_pilot_2","7292","3","10","Female","","","","","","","null","<div style=""font-size:60px;"">+</div>","null","fixation","","","","","","","","","","","75","","",""
"revaluation","190","903942","0.0-4.0-2.0-0.38","spark_pilot_2","7292","3","10","Female","","false","","","","","[877.6000000000931]","./assets/img/ocean/catch/1.jpg","[""spaceBar""]","value training","ocean","0","{""ArrowUp,ArrowLeft"":23,""ArrowUp,ArrowRight"":10,""ArrowDown,ArrowLeft"":8,""ArrowDown,ArrowRight"":30}","true","spaceBar","true","","","original","1","76","","",""
"html-keyboard-response","191","904452","0.0-4.0-2.0-1.38","spark_pilot_2","7292","3","10","Female","","","","","","","null","<div style=""font-size:60px;"">+</div>","null","fixation","","","","","","","","","","","77","","",""
"revaluation","192","910478","0.0-4.0-2.0-0.39","spark_pilot_2","7292","3","10","Female","","false","","","","","[949,695.3999999999069]","./assets/img/ocean/memory/23.jpg","[""ArrowDown"",""ArrowRight""]","value training","ocean","30","{""ArrowUp,ArrowLeft"":23,""ArrowUp,ArrowRight"":10,""ArrowDown,ArrowLeft"":8,""ArrowDown,ArrowRight"":30}","true","ArrowDown,ArrowRight","false","","","original","1","78","","",""
"html-keyboard-response","193","910989","0.0-4.0-2.0-1.39","spark_pilot_2","7292","3","10","Female","","","","","","","null","<div style=""font-size:60px;"">+</div>","null","fixation","","","","","","","","","","","79","","",""
"revaluation","194","917009","0.0-4.0-2.0-0.40","spark_pilot_2","7292","3","10","Female","","false","","","","","[834,380.5]","./assets/img/ocean/memory/20.jpg","[""ArrowDown"",""ArrowRight""]","value training","ocean","30","{""ArrowUp,ArrowLeft"":23,""ArrowUp,ArrowRight"":10,""ArrowDown,ArrowLeft"":8,""ArrowDown,ArrowRight"":30}","true","ArrowDown,ArrowRight","false","","","original","1","80","","",""
"html-keyboard-response","195","917513","0.0-4.0-2.0-1.40","spark_pilot_2","7292","3","10","Female","","","","","","","null","<div style=""font-size:60px;"">+</div>","null","fixation","","","","","","","","","","","81","","",""
"revaluation","196","923539","0.0-4.0-2.0-0.41","spark_pilot_2","7292","3","10","Female","","false","","","","","[464.89999999990687,319]","./assets/img/ocean/memory/0.jpg","[""ArrowDown"",""ArrowRight""]","value training","ocean","30","{""ArrowUp,ArrowLeft"":23,""ArrowUp,ArrowRight"":10,""ArrowDown,ArrowLeft"":8,""ArrowDown,ArrowRight"":30}","true","ArrowDown,ArrowRight","false","","","original","1","82","","",""
"html-keyboard-response","197","924044","0.0-4.0-2.0-1.41","spark_pilot_2","7292","3","10","Female","","","","","","","null","<div style=""font-size:60px;"">+</div>","null","fixation","","","","","","","","","","","83","","",""
"revaluation","198","930065","0.0-4.0-2.0-0.42","spark_pilot_2","7292","3","10","Female","","false","","","","","[530.6999999997206,405]","./assets/img/ocean/memory/23.jpg","[""ArrowDown"",""ArrowRight""]","value training","ocean","30","{""ArrowUp,ArrowLeft"":23,""ArrowUp,ArrowRight"":10,""ArrowDown,ArrowLeft"":8,""ArrowDown,ArrowRight"":30}","true","ArrowDown,ArrowRight","false","","","original","1","84","","",""
"html-keyboard-response","199","930569","0.0-4.0-2.0-1.42","spark_pilot_2","7292","3","10","Female","","","","","","","null","<div style=""font-size:60px;"">+</div>","null","fixation","","","","","","","","","","","85","","",""
"revaluation","200","936594","0.0-4.0-2.0-0.43","spark_pilot_2","7292","3","10","Female","","false","","","","","[546.6999999997206,441.59999999962747]","./assets/img/ocean/memory/36.jpg","[""ArrowDown"",""ArrowRight""]","value training","ocean","30","{""ArrowUp,ArrowLeft"":23,""ArrowUp,ArrowRight"":10,""ArrowDown,ArrowLeft"":8,""ArrowDown,ArrowRight"":30}","true","ArrowDown,ArrowRight","false","","","original","1","86","","",""
"html-keyboard-response","201","937099","0.0-4.0-2.0-1.43","spark_pilot_2","7292","3","10","Female","","","","","","","null","<div style=""font-size:60px;"">+</div>","null","fixation","","","","","","","","","","","87","","",""
"revaluation","202","943125","0.0-4.0-2.0-0.44","spark_pilot_2","7292","3","10","Female","","false","","","","","[569.5,526.2999999998137]","./assets/img/ocean/memory/7.jpg","[""ArrowDown"",""ArrowRight""]","value training","ocean","30","{""ArrowUp,ArrowLeft"":23,""ArrowUp,ArrowRight"":10,""ArrowDown,ArrowLeft"":8,""ArrowDown,ArrowRight"":30}","true","ArrowDown,ArrowRight","false","","","original","1","88","","",""
"html-keyboard-response","203","943636","0.0-4.0-2.0-1.44","spark_pilot_2","7292","3","10","Female","","","","","","","null","<div style=""font-size:60px;"">+</div>","null","fixation","","","","","","","","","","","89","","",""
"revaluation","204","947653","0.0-4.0-2.0-0.45","spark_pilot_2","7292","3","10","Female","","false","","","","","[650.2999999998137]","./assets/img/ocean/catch/2.jpg","[""spaceBar""]","value training","ocean","0","{""ArrowUp,ArrowLeft"":23,""ArrowUp,ArrowRight"":10,""ArrowDown,ArrowLeft"":8,""ArrowDown,ArrowRight"":30}","true","spaceBar","true","","","original","1","90","","",""
"html-keyboard-response","205","948163","0.0-4.0-2.0-1.45","spark_pilot_2","7292","3","10","Female","","","","","","","null","<div style=""font-size:60px;"">+</div>","null","fixation","","","","","","","","","","","91","","",""
"revaluation","206","954189","0.0-4.0-2.0-0.46","spark_pilot_2","7292","3","10","Female","","false","","","","","[503.6999999997206,932.6999999997206]","./assets/img/ocean/memory/38.jpg","[""ArrowDown"",""ArrowRight""]","value training","ocean","30","{""ArrowUp,ArrowLeft"":23,""ArrowUp,ArrowRight"":10,""ArrowDown,ArrowLeft"":8,""ArrowDown,ArrowRight"":30}","true","ArrowDown,ArrowRight","false","","","original","1","92","","",""
"html-keyboard-response","207","954700","0.0-4.0-2.0-1.46","spark_pilot_2","7292","3","10","Female","","","","","","","null","<div style=""font-size:60px;"">+</div>","null","fixation","","","","","","","","","","","93","","",""
"revaluation","208","960722","0.0-4.0-2.0-0.47","spark_pilot_2","7292","3","10","Female","","false","","","","","[546.7000000001863,406.5]","./assets/img/ocean/memory/37.jpg","[""ArrowDown"",""ArrowRight""]","value training","ocean","30","{""ArrowUp,ArrowLeft"":23,""ArrowUp,ArrowRight"":10,""ArrowDown,ArrowLeft"":8,""ArrowDown,ArrowRight"":30}","true","ArrowDown,ArrowRight","false","","","original","1","94","","",""
"html-keyboard-response","209","961224","0.0-4.0-2.0-1.47","spark_pilot_2","7292","3","10","Female","","","","","","","null","<div style=""font-size:60px;"">+</div>","null","fixation","","","","","","","","","","","95","","",""
"revaluation","210","967250","0.0-4.0-2.0-0.48","spark_pilot_2","7292","3","10","Female","","false","","","","","[573,1323.1000000000931]","./assets/img/ocean/memory/37.jpg","[""ArrowDown"",""ArrowRight""]","value training","ocean","30","{""ArrowUp,ArrowLeft"":23,""ArrowUp,ArrowRight"":10,""ArrowDown,ArrowLeft"":8,""ArrowDown,ArrowRight"":30}","true","ArrowDown,ArrowRight","false","","","original","1","96","","",""
"html-keyboard-response","211","967755","0.0-4.0-2.0-1.48","spark_pilot_2","7292","3","10","Female","","","","","","","null","<div style=""font-size:60px;"">+</div>","null","fixation","","","","","","","","","","","97","","",""
"revaluation","212","971772","0.0-4.0-2.0-0.49","spark_pilot_2","7292","3","10","Female","","false","","","","","[683.5999999996275]","./assets/img/ocean/catch/6.jpg","[""spaceBar""]","value training","ocean","0","{""ArrowUp,ArrowLeft"":23,""ArrowUp,ArrowRight"":10,""ArrowDown,ArrowLeft"":8,""ArrowDown,ArrowRight"":30}","true","spaceBar","true","","","original","1","98","","",""
"html-keyboard-response","213","972283","0.0-4.0-2.0-1.49","spark_pilot_2","7292","3","10","Female","","","","","","","null","<div style=""font-size:60px;"">+</div>","null","fixation","","","","","","","","","","","99","","",""
"learning-instructions","214","986599","0.0-4.0-3.0-0.0","spark_pilot_2","7292","3","10","Female","","","","","","","1317.6000000000931","<p> Now, you will travel with a friend who will choose whether you go up or down first. </p>
            <p> On these turns, you will just see the animal that they found. You will still get to choose which chest to search for treasure.</p>","","instructions","","","","","","","","","","","","","",""
"revaluation","215","990616","0.0-4.0-4.0-0.0","spark_pilot_2","7292","3","10","Female","","false","","","","","[653.8000000002794]","./assets/img/ocean/animals/seahorse.jpg","[""ArrowRight""]","revaluation","ocean","30","{""ArrowUp,ArrowLeft"":23,""ArrowUp,ArrowRight"":10,""ArrowDown,ArrowLeft"":8,""ArrowDown,ArrowRight"":30}","true","ArrowDown,ArrowRight","","","","original","1","0","","",""
"html-keyboard-response","216","991128","0.0-4.0-4.0-1.0","spark_pilot_2","7292","3","10","Female","","","","","","","null","<div style=""font-size:60px;"">+</div>","null","fixation","","","","","","","","","","","1","","",""
"revaluation","217","995144","0.0-4.0-4.0-0.1","spark_pilot_2","7292","3","10","Female","","false","","","","","[626.3999999999069]","./assets/img/ocean/animals/octopus.jpg","[""ArrowRight""]","revaluation","ocean","10","{""ArrowUp,ArrowLeft"":23,""ArrowUp,ArrowRight"":10,""ArrowDown,ArrowLeft"":8,""ArrowDown,ArrowRight"":30}","false","ArrowUp,ArrowRight","","","","original","1","2","","",""
"html-keyboard-response","218","995649","0.0-4.0-4.0-1.1","spark_pilot_2","7292","3","10","Female","","","","","","","null","<div style=""font-size:60px;"">+</div>","null","fixation","","","","","","","","","","","3","","",""
"revaluation","219","999666","0.0-4.0-4.0-0.2","spark_pilot_2","7292","3","10","Female","","false","","","","","[585.8000000002794]","./assets/img/ocean/animals/seahorse.jpg","[""ArrowRight""]","revaluation","ocean","30","{""ArrowUp,ArrowLeft"":23,""ArrowUp,ArrowRight"":10,""ArrowDown,ArrowLeft"":8,""ArrowDown,ArrowRight"":30}","true","ArrowDown,ArrowRight","","","","original","1","4","","",""
"html-keyboard-response","220","1000171","0.0-4.0-4.0-1.2","spark_pilot_2","7292","3","10","Female","","","","","","","null","<div style=""font-size:60px;"">+</div>","null","fixation","","","","","","","","","","","5","","",""
"revaluation","221","1004188","0.0-4.0-4.0-0.3","spark_pilot_2","7292","3","10","Female","","false","","","","","[529.6999999997206]","./assets/img/ocean/animals/seahorse.jpg","[""ArrowRight""]","revaluation","ocean","30","{""ArrowUp,ArrowLeft"":23,""ArrowUp,ArrowRight"":10,""ArrowDown,ArrowLeft"":8,""ArrowDown,ArrowRight"":30}","true","ArrowDown,ArrowRight","","","","original","1","6","","",""
"html-keyboard-response","222","1004696","0.0-4.0-4.0-1.3","spark_pilot_2","7292","3","10","Female","","","","","","","null","<div style=""font-size:60px;"">+</div>","null","fixation","","","","","","","","","","","7","","",""
"revaluation","223","1008716","0.0-4.0-4.0-0.4","spark_pilot_2","7292","3","10","Female","","false","","","","","[403.5]","./assets/img/ocean/animals/octopus.jpg","[""ArrowLeft""]","revaluation","ocean","23","{""ArrowUp,ArrowLeft"":23,""ArrowUp,ArrowRight"":10,""ArrowDown,ArrowLeft"":8,""ArrowDown,ArrowRight"":30}","true","ArrowUp,ArrowLeft","","","","original","1","8","","",""
"html-keyboard-response","224","1009226","0.0-4.0-4.0-1.4","spark_pilot_2","7292","3","10","Female","","","","","","","null","<div style=""font-size:60px;"">+</div>","null","fixation","","","","","","","","","","","9","","",""
"revaluation","225","1013244","0.0-4.0-4.0-0.5","spark_pilot_2","7292","3","10","Female","","false","","","","","[415]","./assets/img/ocean/animals/seahorse.jpg","[""ArrowRight""]","revaluation","ocean","30","{""ArrowUp,ArrowLeft"":23,""ArrowUp,ArrowRight"":10,""ArrowDown,ArrowLeft"":8,""ArrowDown,ArrowRight"":30}","true","ArrowDown,ArrowRight","","","","original","1","10","","",""
"html-keyboard-response","226","1013754","0.0-4.0-4.0-1.5","spark_pilot_2","7292","3","10","Female","","","","","","","null","<div style=""font-size:60px;"">+</div>","null","fixation","","","","","","","","","","","11","","",""
"revaluation","227","1017773","0.0-4.0-4.0-0.6","spark_pilot_2","7292","3","10","Female","","false","","","","","[632.3000000002794]","./assets/img/ocean/animals/octopus.jpg","[""ArrowLeft""]","revaluation","ocean","23","{""ArrowUp,ArrowLeft"":23,""ArrowUp,ArrowRight"":10,""ArrowDown,ArrowLeft"":8,""ArrowDown,ArrowRight"":30}","true","ArrowUp,ArrowLeft","","","","original","1","12","","",""
"html-keyboard-response","228","1018283","0.0-4.0-4.0-1.6","spark_pilot_2","7292","3","10","Female","","","","","","","null","<div style=""font-size:60px;"">+</div>","null","fixation","","","","","","","","","","","13","","",""
"revaluation","229","1022300","0.0-4.0-4.0-0.7","spark_pilot_2","7292","3","10","Female","","false","","","","","[607.8999999999069]","./assets/img/ocean/animals/octopus.jpg","[""ArrowLeft""]","revaluation","ocean","23","{""ArrowUp,ArrowLeft"":23,""ArrowUp,ArrowRight"":10,""ArrowDown,ArrowLeft"":8,""ArrowDown,ArrowRight"":30}","true","ArrowUp,ArrowLeft","","","","original","1","14","","",""
"html-keyboard-response","230","1022811","0.0-4.0-4.0-1.7","spark_pilot_2","7292","3","10","Female","","","","","","","null","<div style=""font-size:60px;"">+</div>","null","fixation","","","","","","","","","","","15","","",""
"revaluation","231","1026828","0.0-4.0-4.0-0.8","spark_pilot_2","7292","3","10","Female","","false","","","","","[619.5]","./assets/img/ocean/animals/seahorse.jpg","[""ArrowRight""]","revaluation","ocean","30","{""ArrowUp,ArrowLeft"":23,""ArrowUp,ArrowRight"":10,""ArrowDown,ArrowLeft"":8,""ArrowDown,ArrowRight"":30}","true","ArrowDown,ArrowRight","","","","original","1","16","","",""
"html-keyboard-response","232","1027339","0.0-4.0-4.0-1.8","spark_pilot_2","7292","3","10","Female","","","","","","","null","<div style=""font-size:60px;"">+</div>","null","fixation","","","","","","","","","","","17","","",""
"revaluation","233","1031356","0.0-4.0-4.0-0.9","spark_pilot_2","7292","3","10","Female","","false","","","","","[538.2000000001863]","./assets/img/ocean/animals/seahorse.jpg","[""ArrowRight""]","revaluation","ocean","30","{""ArrowUp,ArrowLeft"":23,""ArrowUp,ArrowRight"":10,""ArrowDown,ArrowLeft"":8,""ArrowDown,ArrowRight"":30}","true","ArrowDown,ArrowRight","","","","original","1","18","","",""
"html-keyboard-response","234","1031867","0.0-4.0-4.0-1.9","spark_pilot_2","7292","3","10","Female","","","","","","","null","<div style=""font-size:60px;"">+</div>","null","fixation","","","","","","","","","","","19","","",""
"revaluation","235","1035884","0.0-4.0-4.0-0.10","spark_pilot_2","7292","3","10","Female","","false","","","","","[548.7999999998137]","./assets/img/ocean/animals/octopus.jpg","[""ArrowLeft""]","revaluation","ocean","23","{""ArrowUp,ArrowLeft"":23,""ArrowUp,ArrowRight"":10,""ArrowDown,ArrowLeft"":8,""ArrowDown,ArrowRight"":30}","true","ArrowUp,ArrowLeft","","","","original","1","20","","",""
"html-keyboard-response","236","1036395","0.0-4.0-4.0-1.10","spark_pilot_2","7292","3","10","Female","","","","","","","null","<div style=""font-size:60px;"">+</div>","null","fixation","","","","","","","","","","","21","","",""
"revaluation","237","1040412","0.0-4.0-4.0-0.11","spark_pilot_2","7292","3","10","Female","","false","","","","","[556.3999999999069]","./assets/img/ocean/animals/octopus.jpg","[""ArrowLeft""]","revaluation","ocean","23","{""ArrowUp,ArrowLeft"":23,""ArrowUp,ArrowRight"":10,""ArrowDown,ArrowLeft"":8,""ArrowDown,ArrowRight"":30}","true","ArrowUp,ArrowLeft","","","","original","1","22","","",""
"html-keyboard-response","238","1040922","0.0-4.0-4.0-1.11","spark_pilot_2","7292","3","10","Female","","","","","","","null","<div style=""font-size:60px;"">+</div>","null","fixation","","","","","","","","","","","23","","",""
"revaluation","239","1044946","0.0-4.0-4.0-0.12","spark_pilot_2","7292","3","10","Female","","false","","","","","[586.5]","./assets/img/ocean/animals/octopus.jpg","[""ArrowLeft""]","revaluation","ocean","23","{""ArrowUp,ArrowLeft"":23,""ArrowUp,ArrowRight"":10,""ArrowDown,ArrowLeft"":8,""ArrowDown,ArrowRight"":30}","true","ArrowUp,ArrowLeft","","","","original","1","24","","",""
"html-keyboard-response","240","1045450","0.0-4.0-4.0-1.12","spark_pilot_2","7292","3","10","Female","","","","","","","null","<div style=""font-size:60px;"">+</div>","null","fixation","","","","","","","","","","","25","","",""
"revaluation","241","1049468","0.0-4.0-4.0-0.13","spark_pilot_2","7292","3","10","Female","","false","","","","","[465.8000000002794]","./assets/img/ocean/animals/seahorse.jpg","[""ArrowRight""]","revaluation","ocean","30","{""ArrowUp,ArrowLeft"":23,""ArrowUp,ArrowRight"":10,""ArrowDown,ArrowLeft"":8,""ArrowDown,ArrowRight"":30}","true","ArrowDown,ArrowRight","","","","original","1","26","","",""
"html-keyboard-response","242","1049978","0.0-4.0-4.0-1.13","spark_pilot_2","7292","3","10","Female","","","","","","","null","<div style=""font-size:60px;"">+</div>","null","fixation","","","","","","","","","","","27","","",""
"revaluation","243","1053995","0.0-4.0-4.0-0.14","spark_pilot_2","7292","3","10","Female","","false","","","","","[677.8000000002794]","./assets/img/ocean/animals/octopus.jpg","[""ArrowLeft""]","revaluation","ocean","23","{""ArrowUp,ArrowLeft"":23,""ArrowUp,ArrowRight"":10,""ArrowDown,ArrowLeft"":8,""ArrowDown,ArrowRight"":30}","true","ArrowUp,ArrowLeft","","","","original","1","28","","",""
"html-keyboard-response","244","1054506","0.0-4.0-4.0-1.14","spark_pilot_2","7292","3","10","Female","","","","","","","null","<div style=""font-size:60px;"">+</div>","null","fixation","","","","","","","","","","","29","","",""
"revaluation","245","1058523","0.0-4.0-4.0-0.15","spark_pilot_2","7292","3","10","Female","","false","","","","","[449.29999999981374]","./assets/img/ocean/animals/seahorse.jpg","[""ArrowRight""]","revaluation","ocean","30","{""ArrowUp,ArrowLeft"":23,""ArrowUp,ArrowRight"":10,""ArrowDown,ArrowLeft"":8,""ArrowDown,ArrowRight"":30}","true","ArrowDown,ArrowRight","","","","original","1","30","","",""
"html-keyboard-response","246","1059034","0.0-4.0-4.0-1.15","spark_pilot_2","7292","3","10","Female","","","","","","","null","<div style=""font-size:60px;"">+</div>","null","fixation","","","","","","","","","","","31","","",""
"revaluation","247","1063051","0.0-4.0-4.0-0.16","spark_pilot_2","7292","3","10","Female","","false","","","","","[771.6000000000931]","./assets/img/ocean/animals/seahorse.jpg","[""ArrowRight""]","revaluation","ocean","30","{""ArrowUp,ArrowLeft"":23,""ArrowUp,ArrowRight"":10,""ArrowDown,ArrowLeft"":8,""ArrowDown,ArrowRight"":30}","true","ArrowDown,ArrowRight","","","","original","1","32","","",""
"html-keyboard-response","248","1063562","0.0-4.0-4.0-1.16","spark_pilot_2","7292","3","10","Female","","","","","","","null","<div style=""font-size:60px;"">+</div>","null","fixation","","","","","","","","","","","33","","",""
"revaluation","249","1067579","0.0-4.0-4.0-0.17","spark_pilot_2","7292","3","10","Female","","false","","","","","[354.39999999990687]","./assets/img/ocean/animals/octopus.jpg","[""ArrowLeft""]","revaluation","ocean","23","{""ArrowUp,ArrowLeft"":23,""ArrowUp,ArrowRight"":10,""ArrowDown,ArrowLeft"":8,""ArrowDown,ArrowRight"":30}","true","ArrowUp,ArrowLeft","","","","original","1","34","","",""
"html-keyboard-response","250","1068090","0.0-4.0-4.0-1.17","spark_pilot_2","7292","3","10","Female","","","","","","","null","<div style=""font-size:60px;"">+</div>","null","fixation","","","","","","","","","","","35","","",""
"learning-instructions","251","1080205","0.0-4.0-5.0-0.0","spark_pilot_2","7292","3","10","Female","","","","","","","641","<p> Time to play the dot game! </p>
            <p> For one minute, click the red dots on the following screen as they appear. </p>
            <p><b> Don't look away, as you will earn bonus for clicking dots</b>. </p>","","instructions","","","","","","","","","","","","","",""
"revaluation","252","1140260","0.0-4.0-6.0-0.0","spark_pilot_2","7292","3","10","Female","","","","","","","[87,95,75,100,81,75,99]","","","rest","","70","","","","","0","60000","","","","","",""
"learning-instructions","253","1147578","0.0-4.0-7.0-0.0","spark_pilot_2","7292","3","10","Female","","","","","","","1104.5","<p> You have almost finished this part of the game! </p>
            <p> We are going to ask you to make a few more choices. </p>","","instructions","","","","","","","","","","","","","",""
"learning-instructions","254","1163763","0.0-4.0-7.0-0.1","spark_pilot_2","7292","3","10","Female","","","","","","","2212.9000000003725","<p> First, you need to decide whether to go up or down. When you see each picture, use the arrow keys to make your choice. </p>
            <p><b>You will not see which animal you found, but try to get to the one that will give you the most treasure.</b></p>","","instructions","","","","","","","","","","","","","",""
"revaluation","255","1164743","0.0-4.0-8.0-0.0","spark_pilot_2","7292","3","10","Female","","false","","","","","[977.7999999998137]","./assets/img/ocean/test/0.jpg","[""ArrowDown""]","first stage test","ocean","0","{""ArrowUp,ArrowLeft"":23,""ArrowUp,ArrowRight"":10,""ArrowDown,ArrowLeft"":8,""ArrowDown,ArrowRight"":30}","true","ArrowDown","false","","","original","1","","","",""
"html-keyboard-response","256","1165247","0.0-4.0-8.0-1.0","spark_pilot_2","7292","3","10","Female","","","","","","","null","<div style=""font-size:60px;"">+</div>","null","fixation","","","","","","","","","","","","","",""
"revaluation","257","1165680","0.0-4.0-8.0-0.1","spark_pilot_2","7292","3","10","Female","","false","","","","","[430.10000000009313]","./assets/img/ocean/test/3.jpg","[""ArrowDown""]","first stage test","ocean","0","{""ArrowUp,ArrowLeft"":23,""ArrowUp,ArrowRight"":10,""ArrowDown,ArrowLeft"":8,""ArrowDown,ArrowRight"":30}","true","ArrowDown","false","","","original","1","","","",""
"html-keyboard-response","258","1166182","0.0-4.0-8.0-1.1","spark_pilot_2","7292","3","10","Female","","","","","","","null","<div style=""font-size:60px;"">+</div>","null","fixation","","","","","","","","","","","","","",""
"revaluation","259","1166525","0.0-4.0-8.0-0.2","spark_pilot_2","7292","3","10","Female","","false","","","","","[340.1999999997206]","./assets/img/ocean/test/2.jpg","[""ArrowDown""]","first stage test","ocean","0","{""ArrowUp,ArrowLeft"":23,""ArrowUp,ArrowRight"":10,""ArrowDown,ArrowLeft"":8,""ArrowDown,ArrowRight"":30}","true","ArrowDown","false","","","original","1","","","",""
"html-keyboard-response","260","1167029","0.0-4.0-8.0-1.2","spark_pilot_2","7292","3","10","Female","","","","","","","null","<div style=""font-size:60px;"">+</div>","null","fixation","","","","","","","","","","","","","",""
"revaluation","261","1167328","0.0-4.0-8.0-0.3","spark_pilot_2","7292","3","10","Female","","false","","","","","[296]","./assets/img/ocean/test/1.jpg","[""ArrowDown""]","first stage test","ocean","0","{""ArrowUp,ArrowLeft"":23,""ArrowUp,ArrowRight"":10,""ArrowDown,ArrowLeft"":8,""ArrowDown,ArrowRight"":30}","true","ArrowDown","false","","","original","1","","","",""
"html-keyboard-response","262","1167836","0.0-4.0-8.0-1.3","spark_pilot_2","7292","3","10","Female","","","","","","","null","<div style=""font-size:60px;"">+</div>","null","fixation","","","","","","","","","","","","","",""
"learning-instructions","263","1180998","0.0-4.0-9.0-0.0","spark_pilot_2","7292","3","10","Female","","","","","","","1818.1000000000931","<p> Now you will see the animals again and can search their chests for treasure. </p>
            <p> This time, you will not see how much treasure you earned, but you will earn more bonus money for making better choices. </p>","","instructions","","","","","","","","","","","","","",""
"revaluation","264","1181689","0.0-4.0-10.0-0.0","spark_pilot_2","7292","3","10","Female","","false","","","","","[687.7999999998137]","./assets/img/ocean/animals/octopus.jpg","[""ArrowLeft""]","second stage test","ocean","0","{""ArrowUp,ArrowLeft"":23,""ArrowUp,ArrowRight"":10,""ArrowDown,ArrowLeft"":8,""ArrowDown,ArrowRight"":30}","true","ArrowUp,ArrowLeft","","","","original","1","","","",""
"html-keyboard-response","265","1182199","0.0-4.0-10.0-1.0","spark_pilot_2","7292","3","10","Female","","","","","","","null","<div style=""font-size:60px;"">+</div>","null","fixation","","","","","","","","","","","","","",""
"revaluation","266","1182676","0.0-4.0-10.0-0.1","spark_pilot_2","7292","3","10","Female","","false","","","","","[473.70000000018626]","./assets/img/ocean/animals/octopus.jpg","[""ArrowLeft""]","second stage test","ocean","0","{""ArrowUp,ArrowLeft"":23,""ArrowUp,ArrowRight"":10,""ArrowDown,ArrowLeft"":8,""ArrowDown,ArrowRight"":30}","true","ArrowUp,ArrowLeft","","","","original","1","","","",""
"html-keyboard-response","267","1183181","0.0-4.0-10.0-1.1","spark_pilot_2","7292","3","10","Female","","","","","","","null","<div style=""font-size:60px;"">+</div>","null","fixation","","","","","","","","","","","","","",""
"revaluation","268","1183589","0.0-4.0-10.0-0.2","spark_pilot_2","7292","3","10","Female","","false","","","","","[404.39999999990687]","./assets/img/ocean/animals/octopus.jpg","[""ArrowLeft""]","second stage test","ocean","0","{""ArrowUp,ArrowLeft"":23,""ArrowUp,ArrowRight"":10,""ArrowDown,ArrowLeft"":8,""ArrowDown,ArrowRight"":30}","true","ArrowUp,ArrowLeft","","","","original","1","","","",""
"html-keyboard-response","269","1184093","0.0-4.0-10.0-1.2","spark_pilot_2","7292","3","10","Female","","","","","","","null","<div style=""font-size:60px;"">+</div>","null","fixation","","","","","","","","","","","","","",""
"revaluation","270","1184486","0.0-4.0-10.0-0.3","spark_pilot_2","7292","3","10","Female","","false","","","","","[388.79999999981374]","./assets/img/ocean/animals/octopus.jpg","[""ArrowLeft""]","second stage test","ocean","0","{""ArrowUp,ArrowLeft"":23,""ArrowUp,ArrowRight"":10,""ArrowDown,ArrowLeft"":8,""ArrowDown,ArrowRight"":30}","true","ArrowUp,ArrowLeft","","","","original","1","","","",""
"html-keyboard-response","271","1184990","0.0-4.0-10.0-1.3","spark_pilot_2","7292","3","10","Female","","","","","","","null","<div style=""font-size:60px;"">+</div>","null","fixation","","","","","","","","","","","","","",""
"revaluation","272","1185521","0.0-4.0-10.0-0.4","spark_pilot_2","7292","3","10","Female","","false","","","","","[526.3999999999069]","./assets/img/ocean/animals/seahorse.jpg","[""ArrowRight""]","second stage test","ocean","0","{""ArrowUp,ArrowLeft"":23,""ArrowUp,ArrowRight"":10,""ArrowDown,ArrowLeft"":8,""ArrowDown,ArrowRight"":30}","true","ArrowDown,ArrowRight","","","","original","1","","","",""
"html-keyboard-response","273","1186024","0.0-4.0-10.0-1.4","spark_pilot_2","7292","3","10","Female","","","","","","","null","<div style=""font-size:60px;"">+</div>","null","fixation","","","","","","","","","","","","","",""
"revaluation","274","1186391","0.0-4.0-10.0-0.5","spark_pilot_2","7292","3","10","Female","","false","","","","","[364.10000000009313]","./assets/img/ocean/animals/seahorse.jpg","[""ArrowRight""]","second stage test","ocean","0","{""ArrowUp,ArrowLeft"":23,""ArrowUp,ArrowRight"":10,""ArrowDown,ArrowLeft"":8,""ArrowDown,ArrowRight"":30}","true","ArrowDown,ArrowRight","","","","original","1","","","",""
"html-keyboard-response","275","1186895","0.0-4.0-10.0-1.5","spark_pilot_2","7292","3","10","Female","","","","","","","null","<div style=""font-size:60px;"">+</div>","null","fixation","","","","","","","","","","","","","",""
"revaluation","276","1187349","0.0-4.0-10.0-0.6","spark_pilot_2","7292","3","10","Female","","false","","","","","[450.8000000002794]","./assets/img/ocean/animals/seahorse.jpg","[""ArrowRight""]","second stage test","ocean","0","{""ArrowUp,ArrowLeft"":23,""ArrowUp,ArrowRight"":10,""ArrowDown,ArrowLeft"":8,""ArrowDown,ArrowRight"":30}","true","ArrowDown,ArrowRight","","","","original","1","","","",""
"html-keyboard-response","277","1187852","0.0-4.0-10.0-1.6","spark_pilot_2","7292","3","10","Female","","","","","","","null","<div style=""font-size:60px;"">+</div>","null","fixation","","","","","","","","","","","","","",""
"revaluation","278","1188185","0.0-4.0-10.0-0.7","spark_pilot_2","7292","3","10","Female","","false","","","","","[328.79999999981374]","./assets/img/ocean/animals/seahorse.jpg","[""ArrowRight""]","second stage test","ocean","0","{""ArrowUp,ArrowLeft"":23,""ArrowUp,ArrowRight"":10,""ArrowDown,ArrowLeft"":8,""ArrowDown,ArrowRight"":30}","true","ArrowDown,ArrowRight","","","","original","1","","","",""
"html-keyboard-response","279","1188693","0.0-4.0-10.0-1.7","spark_pilot_2","7292","3","10","Female","","","","","","","null","<div style=""font-size:60px;"">+</div>","null","fixation","","","","","","","","","","","","","",""
"learning-instructions","280","1193466","0.0-4.0-0.1-0.2","spark_pilot_2","7292","3","10","Female","","","","","","","1989.8999999999069","<p> This time you are searching for treasure in the <b>canyon</b>.</p>","","instructions","","","","","","","","","","","","","",""
"learning-instructions","281","1214704","0.0-4.0-0.1-0.3","spark_pilot_2","7292","3","10","Female","","","","","","","3983.899999999907","<p><b>New</b> animals with <b>new</b> treasure chests live here. You need to explore to discover where the animal with the best treasure chest is.</p>
                    <p> Like before, once you figure out which animal has the chest with the most treasure, you should try to get to that animal and select that chest! </p>","","instructions","","","","","","","","","","","","","",""
"learning-instructions","282","1232503","0.0-4.0-1.1-0.1","spark_pilot_2","7292","3","10","Female","","","","","","","3067.4000000003725","<p> Remember, when you see a picture of the place, use the up and down keys to <b>find an animal</b>.</p>
            <p> When you encounter an animal, you should use the left and right keys to <b>select a treasure chest</b>.</p>
            <p> Don't forget to look out for the robber! </p>","","instructions","","","","","","","","","","","","","",""
"revaluation","283","1238526","0.0-4.0-2.1-0.50","spark_pilot_2","7292","3","10","Female","","false","","","","","[763,442.60000000009313]","./assets/img/canyon/memory/11.jpg","[""ArrowUp"",""ArrowRight""]","value training","canyon","10","{""ArrowUp,ArrowLeft"":26,""ArrowUp,ArrowRight"":10,""ArrowDown,ArrowLeft"":5,""ArrowDown,ArrowRight"":17}","false","ArrowUp,ArrowRight","false","","","revaluation","2","0","","",""
"html-keyboard-response","284","1239031","0.0-4.0-2.1-1.50","spark_pilot_2","7292","3","10","Female","","","","","","","null","<div style=""font-size:60px;"">+</div>","null","fixation","","","","","","","","","","","1","","",""
"revaluation","285","1245057","0.0-4.0-2.1-0.51","spark_pilot_2","7292","3","10","Female","","false","","","","","[665.8999999999069,471.89999999990687]","./assets/img/canyon/memory/33.jpg","[""ArrowUp"",""ArrowLeft""]","value training","canyon","26","{""ArrowUp,ArrowLeft"":26,""ArrowUp,ArrowRight"":10,""ArrowDown,ArrowLeft"":5,""ArrowDown,ArrowRight"":17}","true","ArrowUp,ArrowLeft","false","","","revaluation","2","2","","",""
"html-keyboard-response","286","1245559","0.0-4.0-2.1-1.51","spark_pilot_2","7292","3","10","Female","","","","","","","null","<div style=""font-size:60px;"">+</div>","null","fixation","","","","","","","","","","","3","","",""
"revaluation","287","1251585","0.0-4.0-2.1-0.52","spark_pilot_2","7292","3","10","Female","","false","","","","","[533.3999999999069,466.29999999981374]","./assets/img/canyon/memory/0.jpg","[""ArrowDown"",""ArrowRight""]","value training","canyon","17","{""ArrowUp,ArrowLeft"":26,""ArrowUp,ArrowRight"":10,""ArrowDown,ArrowLeft"":5,""ArrowDown,ArrowRight"":17}","false","ArrowDown,ArrowRight","false","","","revaluation","2","4","","",""
"html-keyboard-response","288","1252086","0.0-4.0-2.1-1.52","spark_pilot_2","7292","3","10","Female","","","","","","","null","<div style=""font-size:60px;"">+</div>","null","fixation","","","","","","","","","","","5","","",""
"revaluation","289","1258112","0.0-4.0-2.1-0.53","spark_pilot_2","7292","3","10","Female","","false","","","","","[561.8999999999069,268.89999999990687]","./assets/img/canyon/memory/25.jpg","[""ArrowDown"",""ArrowLeft""]","value training","canyon","5","{""ArrowUp,ArrowLeft"":26,""ArrowUp,ArrowRight"":10,""ArrowDown,ArrowLeft"":5,""ArrowDown,ArrowRight"":17}","false","ArrowDown,ArrowLeft","false","","","revaluation","2","6","","",""
"html-keyboard-response","290","1258615","0.0-4.0-2.1-1.53","spark_pilot_2","7292","3","10","Female","","","","","","","null","<div style=""font-size:60px;"">+</div>","null","fixation","","","","","","","","","","","7","","",""
"revaluation","291","1264639","0.0-4.0-2.1-0.54","spark_pilot_2","7292","3","10","Female","","false","","","","","[1037.5,431.39999999990687]","./assets/img/canyon/memory/7.jpg","[""ArrowUp"",""ArrowRight""]","value training","canyon","10","{""ArrowUp,ArrowLeft"":26,""ArrowUp,ArrowRight"":10,""ArrowDown,ArrowLeft"":5,""ArrowDown,ArrowRight"":17}","false","ArrowUp,ArrowRight","false","","","revaluation","2","8","","",""
"html-keyboard-response","292","1265143","0.0-4.0-2.1-1.54","spark_pilot_2","7292","3","10","Female","","","","","","","null","<div style=""font-size:60px;"">+</div>","null","fixation","","","","","","","","","","","9","","",""
"revaluation","293","1271170","0.0-4.0-2.1-0.55","spark_pilot_2","7292","3","10","Female","","false","","","","","[496.39999999990687,325.10000000009313]","./assets/img/canyon/memory/38.jpg","[""ArrowUp"",""ArrowLeft""]","value training","canyon","26","{""ArrowUp,ArrowLeft"":26,""ArrowUp,ArrowRight"":10,""ArrowDown,ArrowLeft"":5,""ArrowDown,ArrowRight"":17}","true","ArrowUp,ArrowLeft","false","","","revaluation","2","10","","",""
"html-keyboard-response","294","1271680","0.0-4.0-2.1-1.55","spark_pilot_2","7292","3","10","Female","","","","","","","null","<div style=""font-size:60px;"">+</div>","null","fixation","","","","","","","","","","","11","","",""
"revaluation","295","1277706","0.0-4.0-2.1-0.56","spark_pilot_2","7292","3","10","Female","","false","","","","","[501.3000000002794,392.89999999990687]","./assets/img/canyon/memory/40.jpg","[""ArrowUp"",""ArrowLeft""]","value training","canyon","26","{""ArrowUp,ArrowLeft"":26,""ArrowUp,ArrowRight"":10,""ArrowDown,ArrowLeft"":5,""ArrowDown,ArrowRight"":17}","true","ArrowUp,ArrowLeft","false","","","revaluation","2","12","","",""
"html-keyboard-response","296","1278211","0.0-4.0-2.1-1.56","spark_pilot_2","7292","3","10","Female","","","","","","","null","<div style=""font-size:60px;"">+</div>","null","fixation","","","","","","","","","","","13","","",""
"revaluation","297","1284236","0.0-4.0-2.1-0.57","spark_pilot_2","7292","3","10","Female","","false","","","","","[616.1000000000931,384.29999999981374]","./assets/img/canyon/memory/20.jpg","[""ArrowUp"",""ArrowLeft""]","value training","canyon","26","{""ArrowUp,ArrowLeft"":26,""ArrowUp,ArrowRight"":10,""ArrowDown,ArrowLeft"":5,""ArrowDown,ArrowRight"":17}","true","ArrowUp,ArrowLeft","false","","","revaluation","2","14","","",""
"html-keyboard-response","298","1284747","0.0-4.0-2.1-1.57","spark_pilot_2","7292","3","10","Female","","","","","","","null","<div style=""font-size:60px;"">+</div>","null","fixation","","","","","","","","","","","15","","",""
"revaluation","299","1290768","0.0-4.0-2.1-0.58","spark_pilot_2","7292","3","10","Female","","false","","","","","[717.1000000000931,408.60000000009313]","./assets/img/canyon/memory/18.jpg","[""ArrowUp"",""ArrowLeft""]","value training","canyon","26","{""ArrowUp,ArrowLeft"":26,""ArrowUp,ArrowRight"":10,""ArrowDown,ArrowLeft"":5,""ArrowDown,ArrowRight"":17}","true","ArrowUp,ArrowLeft","false","","","revaluation","2","16","","",""
"html-keyboard-response","300","1291272","0.0-4.0-2.1-1.58","spark_pilot_2","7292","3","10","Female","","","","","","","null","<div style=""font-size:60px;"">+</div>","null","fixation","","","","","","","","","","","17","","",""
"revaluation","301","1297298","0.0-4.0-2.1-0.59","spark_pilot_2","7292","3","10","Female","","false","","","","","[802.5,614.5]","./assets/img/canyon/memory/17.jpg","[""ArrowUp"",""ArrowLeft""]","value training","canyon","26","{""ArrowUp,ArrowLeft"":26,""ArrowUp,ArrowRight"":10,""ArrowDown,ArrowLeft"":5,""ArrowDown,ArrowRight"":17}","true","ArrowUp,ArrowLeft","false","","","revaluation","2","18","","",""
"html-keyboard-response","302","1297803","0.0-4.0-2.1-1.59","spark_pilot_2","7292","3","10","Female","","","","","","","null","<div style=""font-size:60px;"">+</div>","null","fixation","","","","","","","","","","","19","","",""
"revaluation","303","1303829","0.0-4.0-2.1-0.60","spark_pilot_2","7292","3","10","Female","","false","","","","","[716.8999999999069,292.70000000018626]","./assets/img/canyon/memory/23.jpg","[""ArrowUp"",""ArrowLeft""]","value training","canyon","26","{""ArrowUp,ArrowLeft"":26,""ArrowUp,ArrowRight"":10,""ArrowDown,ArrowLeft"":5,""ArrowDown,ArrowRight"":17}","true","ArrowUp,ArrowLeft","false","","","revaluation","2","20","","",""
"html-keyboard-response","304","1304340","0.0-4.0-2.1-1.60","spark_pilot_2","7292","3","10","Female","","","","","","","null","<div style=""font-size:60px;"">+</div>","null","fixation","","","","","","","","","","","21","","",""
"revaluation","305","1310360","0.0-4.0-2.1-0.61","spark_pilot_2","7292","3","10","Female","","false","","","","","[597.2999999998137,610.1000000000931]","./assets/img/canyon/memory/7.jpg","[""ArrowUp"",""ArrowLeft""]","value training","canyon","26","{""ArrowUp,ArrowLeft"":26,""ArrowUp,ArrowRight"":10,""ArrowDown,ArrowLeft"":5,""ArrowDown,ArrowRight"":17}","true","ArrowUp,ArrowLeft","false","","","revaluation","2","22","","",""
