"trial_type","trial_index","time_elapsed","internal_node_id","task_version","subject_id","assigned_condition","age","gender","success","timeout","failed_images","failed_audio","failed_video","browser_interaction","rt","stimulus","response","task_part","environment","score","rewardMap","correct","fullState","isCatch","numberMissed","duration","condition","order","trial_num","key_press","ground_truth","bonus"
"pavlovia","0","1180","0.0-0.0","spark_pilot_2","7293","2","10","Female","","","","","","","","","","","","","","","","","","","","","","","",""
"preload","1","18557","0.0-1.0","spark_pilot_2","7293","2","10","Female","true","false","[]","[]","[]","[{""event"":""fullscreenenter"",""trial"":2,""time"":25448}]","","","","","","","","","","","","","","","","","",""
"fullscreen","2","26439","0.0-2.0","spark_pilot_2","7293","2","10","Female","true","","","","","","","","","","","","","","","","","","","","","","",""
"audio-button-response","3","28092","0.0-3.0-0.0-0.0","spark_pilot_2","7293","2","10","Female","","","","","","","1571","./assets/audio/audiotest/turtle.mp3","2","audio_test","","","","","","","","","","","","","",""
"learning-instructions","4","37654","0.0-3.0-1.0-0.0","spark_pilot_2","7293","2","10","Female","","","","","","","2564.0999999940395","<p> Welcome! Please remember to stay in fullscreen mode and don't click away from the experiment. </p>","","instructions","","","","","","","","","","","","","",""
"learning-instructions","5","47115","0.0-3.0-1.0-0.1","spark_pilot_2","7293","2","10","Female","","","","","","","1055.199999988079","<p> Today you will be playing a game to earn treasure. </p>
            <p> At the end of the experiment, you will earn a bonus based on how much treasure you find. </p>
            <img src='./assets/img/instructions/treasure.jpg' class='instructions-image'>","","instructions","","","","","","","","","","","","","",""
"learning-instructions","6","56410","0.0-3.0-1.0-0.2","spark_pilot_2","7293","2","10","Female","","","","","","","1030","<p> Animals have hidden treasure in treasure chests. </p>
            <p> You need to first find an animal and then choose which of their treasure chests to search. </p>
            <img src='./assets/img/space/animals/cat.jpg' class='instructions-image'>","","instructions","","","","","","","","","","","","","",""
"learning-instructions","7","70506","0.0-3.0-1.0-0.3","spark_pilot_2","7293","2","10","Female","","","","","","","934.5999999940395","<p> In each round, you will search for treasure in a different place. In the real game, there will be two rounds. </p>
            <p> You will begin with a separate, practice round where you will search for treasure in outer space. </p>
            <img src='./assets/img/space/0.jpg' class='instructions-image'>","","instructions","","","","","","","","","","","","","",""
"learning-instructions","8","83016","0.0-3.0-1.0-0.4","spark_pilot_2","7293","2","10","Female","","","","","","","1076.1000000238419","<p> On every turn, you will see a picture of the place that you are in, but the specific image may be different each time. </p>
            <p> For example, both of these images mean you are in outer space. </p>
            <img src='./assets/img/instructions/outerspace.jpg' class='instructions-image'>","","instructions","","","","","","","","","","","","","",""
"learning-instructions","9","92972","0.0-3.0-1.0-0.5","spark_pilot_2","7293","2","10","Female","","","","","","","2120.199999988079","<p> You need to decide which direction to travel in. </p>
            <p> You can choose between going <b>up or down</b> by using the arrow keys. </p>
            <img src='./assets/img/instructions/updown.jpg' class='instructions-image'>","","instructions","","","","","","","","","","","","","",""
"learning-instructions","10","103380","0.0-3.0-1.0-0.6","spark_pilot_2","7293","2","10","Female","","","","","","","1577.800000011921","<p> You will have <b>2 seconds</b> to make your choice. </p>
            <p> If you do not make a choice within 2 seconds, you will not find an animal or earn treasure. </p>
            <img src='./assets/img/instructions/2seconds.jpg' class='instructions-image'>","","instructions","","","","","","","","","","","","","",""
"learning-instructions","11","111261","0.0-3.0-1.0-0.7","spark_pilot_2","7293","2","10","Female","","","","","","","820.0999999940395","<p> Let’s try practicing that now! </p>
            <p> When you see a picture of the place you are in, press the <b>up</b> key to travel up. </p>
            <img src='./assets/img/instructions/pressUp.jpg' class='instructions-image'>","","instructions","","","","","","","","","","","","","",""
"revaluation","12","115304","0.0-3.0-2.0-0.0","spark_pilot_2","7293","2","10","Female","","false","","","","","[1384.2999999821186]","./assets/img/space/0.jpg","[""ArrowUp""]","first stage practice","space","0","null","null","ArrowUp","false","","","","","","","",""
"html-keyboard-response","13","115810","0.0-3.0-2.0-1.0","spark_pilot_2","7293","2","10","Female","","","","","","","null","<div style=""font-size:60px;"">+</div>","null","fixation","","","","","","","","","","","","","",""
"revaluation","14","119845","0.0-3.0-2.0-0.1","spark_pilot_2","7293","2","10","Female","","false","","","","","[749]","./assets/img/space/1.jpg","[""ArrowUp""]","first stage practice","space","0","null","null","ArrowUp","false","","","","","","","",""
"html-keyboard-response","15","120354","0.0-3.0-2.0-1.1","spark_pilot_2","7293","2","10","Female","","","","","","","null","<div style=""font-size:60px;"">+</div>","null","fixation","","","","","","","","","","","","","",""
"revaluation","16","124383","0.0-3.0-2.0-0.2","spark_pilot_2","7293","2","10","Female","","false","","","","","[733.6999999880791]","./assets/img/space/2.jpg","[""ArrowUp""]","first stage practice","space","0","null","null","ArrowUp","false","","","","","","","",""
"html-keyboard-response","17","124894","0.0-3.0-2.0-1.2","spark_pilot_2","7293","2","10","Female","","","","","","","null","<div style=""font-size:60px;"">+</div>","null","fixation","","","","","","","","","","","","","",""
"learning-instructions","18","131368","0.0-3.0-3.0-0.0","spark_pilot_2","7293","2","10","Female","","","","","","","1775.5","<p> Great job! Now try pressing the <b>down</b> key to travel down. </p>
            <img src='./assets/img/instructions/pressDown.jpg' class='instructions-image'>","","instructions","","","","","","","","","","","","","",""
"revaluation","19","135390","0.0-3.0-4.0-0.0","spark_pilot_2","7293","2","10","Female","","false","","","","","[633]","./assets/img/space/3.jpg","[""ArrowDown""]","first stage practice","space","0","null","null","ArrowDown","false","","","","","","","",""
"html-keyboard-response","20","135903","0.0-3.0-4.0-1.0","spark_pilot_2","7293","2","10","Female","","","","","","","null","<div style=""font-size:60px;"">+</div>","null","fixation","","","","","","","","","","","","","",""
"revaluation","21","139938","0.0-3.0-4.0-0.1","spark_pilot_2","7293","2","10","Female","","false","","","","","[997.5]","./assets/img/space/4.jpg","[""ArrowDown""]","first stage practice","space","0","null","null","ArrowDown","false","","","","","","","",""
"html-keyboard-response","22","140453","0.0-3.0-4.0-1.1","spark_pilot_2","7293","2","10","Female","","","","","","","null","<div style=""font-size:60px;"">+</div>","null","fixation","","","","","","","","","","","","","",""
"revaluation","23","144489","0.0-3.0-4.0-0.2","spark_pilot_2","7293","2","10","Female","","false","","","","","[960.5]","./assets/img/space/5.jpg","[""ArrowDown""]","first stage practice","space","0","null","null","ArrowDown","false","","","","","","","",""
"html-keyboard-response","24","145003","0.0-3.0-4.0-1.2","spark_pilot_2","7293","2","10","Female","","","","","","","null","<div style=""font-size:60px;"">+</div>","null","fixation","","","","","","","","","","","","","",""
"learning-instructions","25","155839","0.0-3.0-5.0-0.0","spark_pilot_2","7293","2","10","Female","","","","","","","957.6999999880791","<p> The animals don’t move, so the animal in the upper part of a place will stay in the upper part of a place, and the animal in the lower part of a place will stay in the lower part of a place. </p>","","instructions","","","","","","","","","","","","","",""
"learning-instructions","26","165800","0.0-3.0-5.0-0.1","spark_pilot_2","7293","2","10","Female","","","","","","","818.7999999821186","<p> Each animal has two treasure chests for you to choose from. </p>
            <p> The amount of treasure in each chest can range from <b> 0 to 40 pieces.</b></p>","","instructions","","","","","","","","","","","","","",""
"learning-instructions","27","178116","0.0-3.0-5.0-0.2","spark_pilot_2","7293","2","10","Female","","","","","","","1104.4000000059605","<p> You should decide which chest to search for treasure by using the <b>left</b> and <b>right</b> arrow keys. </p>
            <p><b> Pay attention to which animal is on the screen, as the animals have different treasure chests. </b></p>
            <img src='./assets/img/instructions/leftright.jpg' class='instructions-image'>","","instructions","","","","","","","","","","","","","",""
"learning-instructions","28","186476","0.0-3.0-5.0-0.3","spark_pilot_2","7293","2","10","Female","","","","","","","1983.9000000059605","<p> Let’s try practicing that now. </p>
            <p> When you see an animal, choose which chest to search for treasure. </p>
            <img src='./assets/img/instructions/chooseChest.jpg' class='instructions-image'>","","instructions","","","","","","","","","","","","","",""
"revaluation","29","190502","0.0-3.0-6.0-0.0","spark_pilot_2","7293","2","10","Female","","false","","","","","[1184.4000000059605]","./assets/img/space/animals/rabbit.jpg","[""ArrowLeft""]","second stage practice","space","15","{""ArrowUp,ArrowLeft"":3,""ArrowUp,ArrowRight"":36,""ArrowDown,ArrowLeft"":15,""ArrowDown,ArrowRight"":23}","false","ArrowDown,ArrowLeft","","","","","","","","",""
"html-keyboard-response","30","191008","0.0-3.0-6.0-1.0","spark_pilot_2","7293","2","10","Female","","","","","","","null","<div style=""font-size:60px;"">+</div>","null","fixation","","","","","","","","","","","","","",""
"revaluation","31","195029","0.0-3.0-6.0-0.1","spark_pilot_2","7293","2","10","Female","","false","","","","","[479.69999998807907]","./assets/img/space/animals/cat.jpg","[""ArrowRight""]","second stage practice","space","36","{""ArrowUp,ArrowLeft"":3,""ArrowUp,ArrowRight"":36,""ArrowDown,ArrowLeft"":15,""ArrowDown,ArrowRight"":23}","true","ArrowUp,ArrowRight","","","","","","","","",""
"html-keyboard-response","32","195540","0.0-3.0-6.0-1.1","spark_pilot_2","7293","2","10","Female","","","","","","","null","<div style=""font-size:60px;"">+</div>","null","fixation","","","","","","","","","","","","","",""
"revaluation","33","199576","0.0-3.0-6.0-0.2","spark_pilot_2","7293","2","10","Female","","false","","","","","[840.0999999940395]","./assets/img/space/animals/cat.jpg","[""ArrowRight""]","second stage practice","space","36","{""ArrowUp,ArrowLeft"":3,""ArrowUp,ArrowRight"":36,""ArrowDown,ArrowLeft"":15,""ArrowDown,ArrowRight"":23}","true","ArrowUp,ArrowRight","","","","","","","","",""
"html-keyboard-response","34","200085","0.0-3.0-6.0-1.2","spark_pilot_2","7293","2","10","Female","","","","","","","null","<div style=""font-size:60px;"">+</div>","null","fixation","","","","","","","","","","","","","",""
"revaluation","35","204126","0.0-3.0-6.0-0.3","spark_pilot_2","7293","2","10","Female","","false","","","","","[1080.4000000059605]","./assets/img/space/animals/rabbit.jpg","[""ArrowRight""]","second stage practice","space","23","{""ArrowUp,ArrowLeft"":3,""ArrowUp,ArrowRight"":36,""ArrowDown,ArrowLeft"":15,""ArrowDown,ArrowRight"":23}","true","ArrowDown,ArrowRight","","","","","","","","",""
"html-keyboard-response","36","204637","0.0-3.0-6.0-1.3","spark_pilot_2","7293","2","10","Female","","","","","","","null","<div style=""font-size:60px;"">+</div>","null","fixation","","","","","","","","","","","","","",""
"learning-instructions","37","223415","0.0-3.0-7.0-0.0","spark_pilot_2","7293","2","10","Female","","","","","","","1933.800000011921","<p> Great job. Now let’s try putting it together. </p>
            <p> On each turn, you will first see a picture to remind you of the place you are in, and you need to choose whether to go up or down. </p>
            <p> Then you will see an animal and choose which of its chests to search for treasure. </p>","","instructions","","","","","","","","","","","","","",""
"learning-instructions","38","232518","0.0-3.0-7.0-0.1","spark_pilot_2","7293","2","10","Female","","","","","","","815.5","<p> When you choose whether to go up or down, try to go to the animal with the chest with the most treasure. </p>
            <p> Try practicing that now! </p>","","instructions","","","","","","","","","","","","","",""
"revaluation","39","238562","0.0-3.0-8.0-0.0","spark_pilot_2","7293","2","10","Female","","false","","","","","[1027,614.3000000119209]","./assets/img/space/6.jpg","[""ArrowUp"",""ArrowRight""]","full practice","space","36","{""ArrowUp,ArrowLeft"":3,""ArrowUp,ArrowRight"":36,""ArrowDown,ArrowLeft"":15,""ArrowDown,ArrowRight"":23}","true","ArrowUp,ArrowRight","false","","","","","","","",""
"html-keyboard-response","40","239071","0.0-3.0-8.0-1.0","spark_pilot_2","7293","2","10","Female","","","","","","","null","<div style=""font-size:60px;"">+</div>","null","fixation","","","","","","","","","","","","","",""
"revaluation","41","245097","0.0-3.0-8.0-0.1","spark_pilot_2","7293","2","10","Female","","false","","","","","[607.0999999940395,457.2999999821186]","./assets/img/space/7.jpg","[""ArrowDown"",""ArrowRight""]","full practice","space","23","{""ArrowUp,ArrowLeft"":3,""ArrowUp,ArrowRight"":36,""ArrowDown,ArrowLeft"":15,""ArrowDown,ArrowRight"":23}","false","ArrowDown,ArrowRight","false","","","","","","","",""
"html-keyboard-response","42","245614","0.0-3.0-8.0-1.1","spark_pilot_2","7293","2","10","Female","","","","","","","null","<div style=""font-size:60px;"">+</div>","null","fixation","","","","","","","","","","","","","",""
"revaluation","43","251661","0.0-3.0-8.0-0.2","spark_pilot_2","7293","2","10","Female","","false","","","","","[1060.699999988079,501.7000000178814]","./assets/img/space/8.jpg","[""ArrowUp"",""ArrowLeft""]","full practice","space","3","{""ArrowUp,ArrowLeft"":3,""ArrowUp,ArrowRight"":36,""ArrowDown,ArrowLeft"":15,""ArrowDown,ArrowRight"":23}","false","ArrowUp,ArrowLeft","false","","","","","","","",""
"html-keyboard-response","44","252174","0.0-3.0-8.0-1.2","spark_pilot_2","7293","2","10","Female","","","","","","","null","<div style=""font-size:60px;"">+</div>","null","fixation","","","","","","","","","","","","","",""
"revaluation","45","258206","0.0-3.0-8.0-0.3","spark_pilot_2","7293","2","10","Female","","false","","","","","[1882.5,571.9000000059605]","./assets/img/space/9.jpg","[""ArrowDown"",""ArrowRight""]","full practice","space","23","{""ArrowUp,ArrowLeft"":3,""ArrowUp,ArrowRight"":36,""ArrowDown,ArrowLeft"":15,""ArrowDown,ArrowRight"":23}","false","ArrowDown,ArrowRight","false","","","","","","","",""
"html-keyboard-response","46","258719","0.0-3.0-8.0-1.3","spark_pilot_2","7293","2","10","Female","","","","","","","null","<div style=""font-size:60px;"">+</div>","null","fixation","","","","","","","","","","","","","",""
"revaluation","47","264735","0.0-3.0-8.0-0.4","spark_pilot_2","7293","2","10","Female","","false","","","","","[594.9000000059605,388.40000000596046]","./assets/img/space/10.jpg","[""ArrowUp"",""ArrowRight""]","full practice","space","36","{""ArrowUp,ArrowLeft"":3,""ArrowUp,ArrowRight"":36,""ArrowDown,ArrowLeft"":15,""ArrowDown,ArrowRight"":23}","true","ArrowUp,ArrowRight","false","","","","","","","",""
"html-keyboard-response","48","265238","0.0-3.0-8.0-1.4","spark_pilot_2","7293","2","10","Female","","","","","","","null","<div style=""font-size:60px;"">+</div>","null","fixation","","","","","","","","","","","","","",""
"learning-instructions","49","277240","0.0-3.0-9.0-0.0","spark_pilot_2","7293","2","10","Female","","","","","","","1688.5999999940395","<p> One last thing: sometimes, you will see a robber. The robber can be anywhere in the picture. </p>
            <p> If you do not stop them, you will lose treasure. </p>
            <img src='./assets/img/instructions/robber.jpg' class='instructions-image'>","","instructions","","","","","","","","","","","","","",""
"learning-instructions","50","285686","0.0-3.0-9.0-0.1","spark_pilot_2","7293","2","10","Female","","","","","","","1266.300000011921","<p> If you see the robber, you should <b>press the space bar</b> rather than using the arrow keys. </p>
            <p> Try practicing that now! </p>","","instructions","","","","","","","","","","","","","",""
"revaluation","51","289713","0.0-3.0-10.0-0.0","spark_pilot_2","7293","2","10","Female","","false","","","","","[771.1000000238419]","./assets/img/space/catch/0.jpg","[""spaceBar""]","catch practice","space","0","{""ArrowUp,ArrowLeft"":3,""ArrowUp,ArrowRight"":36,""ArrowDown,ArrowLeft"":15,""ArrowDown,ArrowRight"":23}","true","spaceBar","true","","","","","","","",""
"html-keyboard-response","52","290225","0.0-3.0-10.0-1.0","spark_pilot_2","7293","2","10","Female","","","","","","","null","<div style=""font-size:60px;"">+</div>","null","fixation","","","","","","","","","","","","","",""
"revaluation","53","294244","0.0-3.0-10.0-0.1","spark_pilot_2","7293","2","10","Female","","false","","","","","[594.1999999880791]","./assets/img/space/catch/1.jpg","[""spaceBar""]","catch practice","space","0","{""ArrowUp,ArrowLeft"":3,""ArrowUp,ArrowRight"":36,""ArrowDown,ArrowLeft"":15,""ArrowDown,ArrowRight"":23}","true","spaceBar","true","","","","","","","",""
"html-keyboard-response","54","294760","0.0-3.0-10.0-1.1","spark_pilot_2","7293","2","10","Female","","","","","","","null","<div style=""font-size:60px;"">+</div>","null","fixation","","","","","","","","","","","","","",""
"revaluation","55","298786","0.0-3.0-10.0-0.2","spark_pilot_2","7293","2","10","Female","","false","","","","","[762]","./assets/img/space/catch/2.jpg","[""spaceBar""]","catch practice","space","0","{""ArrowUp,ArrowLeft"":3,""ArrowUp,ArrowRight"":36,""ArrowDown,ArrowLeft"":15,""ArrowDown,ArrowRight"":23}","true","spaceBar","true","","","","","","","",""
"html-keyboard-response","56","299297","0.0-3.0-10.0-1.2","spark_pilot_2","7293","2","10","Female","","","","","","","null","<div style=""font-size:60px;"">+</div>","null","fixation","","","","","","","","","","","","","",""
"learning-instructions","57","313972","0.0-3.0-11.0-0.0","spark_pilot_2","7293","2","10","Female","","","","","","","931.5999999940395","<p> After you explore a place to find treasure, it will be time to play a different game. </p>
            <p> During this game, red dots will appear on the screen and fall down slowly. </p>
            <p><b> You must click on them before they reach the bottom. </b></p>
            <img src='./assets/img/instructions/dotGame.jpg' class='instructions-image'>","","instructions","","","","","","","","","","","","","",""
"learning-instructions","58","320818","0.0-3.0-11.0-0.1","spark_pilot_2","7293","2","10","Female","","","","","","","1157.9000000059605","<p> For every dot you click, you will earn additional treasure. </p>
            <p> Let’s try practicing that now. </p>","","instructions","","","","","","","","","","","","","",""
"revaluation","59","335841","0.0-3.0-12.0-0.0","spark_pilot_2","7293","2","10","Female","","","","","","","[80]","","","rest practice","","10","","","","","0","15000","","","","","",""
"learning-instructions","60","342819","0.0-3.0-13.0-0.0-0.0","spark_pilot_2","7293","2","10","Female","","","","","","","1709.5","<p> Now, you will practice a shortened version of the game to get a sense of how it all fits together. </p>","","instructions","","","","","","","","","","","","","",""
"learning-instructions","61","346844","0.0-3.0-13.0-0.0-0.1","spark_pilot_2","7293","2","10","Female","","","","","","","825","<p>This time you are searching for treasure in outer space.</p>","","instructions","","","","","","","","","","","","","",""
"learning-instructions","62","362570","0.0-3.0-13.0-1.0-0.0","spark_pilot_2","7293","2","10","Female","","","","","","","938.4000000059605","<p> Remember, when you see a picture of the place, use the up and down keys to <b>find an animal</b>.</p>
            <p> When you encounter an animal, you should use the left and right keys to <b>select a treasure chest</b>.</p>
            <p> Don't forget to look out for the robber! </p>","","instructions","","","","","","","","","","","","","",""
"revaluation","63","368590","0.0-3.0-13.0-2.0-0.0","spark_pilot_2","7293","2","10","Female","","false","","","","","[1295.699999988079,639.5]","./assets/img/space/11.jpg","[""ArrowUp"",""ArrowRight""]","practice block","space","36","{""ArrowUp,ArrowLeft"":3,""ArrowUp,ArrowRight"":36,""ArrowDown,ArrowLeft"":15,""ArrowDown,ArrowRight"":23}","true","ArrowUp,ArrowRight","false","","","","","","","",""
"html-keyboard-response","64","369100","0.0-3.0-13.0-2.0-1.0","spark_pilot_2","7293","2","10","Female","","","","","","","null","<div style=""font-size:60px;"">+</div>","null","fixation","","","","","","","","","","","","","",""
"revaluation","65","375124","0.0-3.0-13.0-2.0-0.1","spark_pilot_2","7293","2","10","Female","","false","","","","","[1336.2000000178814,978.7999999821186]","./assets/img/space/12.jpg","[""ArrowDown"",""ArrowRight""]","practice block","space","23","{""ArrowUp,ArrowLeft"":3,""ArrowUp,ArrowRight"":36,""ArrowDown,ArrowLeft"":15,""ArrowDown,ArrowRight"":23}","false","ArrowDown,ArrowRight","false","","","","","","","",""
"html-keyboard-response","66","375635","0.0-3.0-13.0-2.0-1.1","spark_pilot_2","7293","2","10","Female","","","","","","","null","<div style=""font-size:60px;"">+</div>","null","fixation","","","","","","","","","","","","","",""
"revaluation","67","381670","0.0-3.0-13.0-2.0-0.2","spark_pilot_2","7293","2","10","Female","","false","","","","","[1697.800000011921,704]","./assets/img/space/13.jpg","[""ArrowUp"",""ArrowRight""]","practice block","space","36","{""ArrowUp,ArrowLeft"":3,""ArrowUp,ArrowRight"":36,""ArrowDown,ArrowLeft"":15,""ArrowDown,ArrowRight"":23}","true","ArrowUp,ArrowRight","false","","","","","","","",""
"html-keyboard-response","68","382184","0.0-3.0-13.0-2.0-1.2","spark_pilot_2","7293","2","10","Female","","","","","","","null","<div style=""font-size:60px;"">+</div>","null","fixation","","","","","","","","","","","","","",""
"revaluation","69","388210","0.0-3.0-13.0-2.0-0.3","spark_pilot_2","7293","2","10","Female","","false","","","","","[1282.9000000059605,514.5]","./assets/img/space/14.jpg","[""ArrowUp"",""ArrowRight""]","practice block","space","36","{""ArrowUp,ArrowLeft"":3,""ArrowUp,ArrowRight"":36,""ArrowDown,ArrowLeft"":15,""ArrowDown,ArrowRight"":23}","true","ArrowUp,ArrowRight","false","","","","","","","",""
"html-keyboard-response","70","388724","0.0-3.0-13.0-2.0-1.3","spark_pilot_2","7293","2","10","Female","","","","","","","null","<div style=""font-size:60px;"">+</div>","null","fixation","","","","","","","","","","","","","",""
"revaluation","71","394739","0.0-3.0-13.0-2.0-0.4","spark_pilot_2","7293","2","10","Female","","false","","","","","[1129.6000000238419,526.6000000238419]","./assets/img/space/11.jpg","[""ArrowUp"",""ArrowRight""]","practice block","space","36","{""ArrowUp,ArrowLeft"":3,""ArrowUp,ArrowRight"":36,""ArrowDown,ArrowLeft"":15,""ArrowDown,ArrowRight"":23}","true","ArrowUp,ArrowRight","false","","","","","","","",""
"html-keyboard-response","72","395242","0.0-3.0-13.0-2.0-1.4","spark_pilot_2","7293","2","10","Female","","","","","","","null","<div style=""font-size:60px;"">+</div>","null","fixation","","","","","","","","","","","","","",""
"revaluation","73","401250","0.0-3.0-13.0-2.0-0.5","spark_pilot_2","7293","2","10","Female","","false","","","","","[967.1999999880791,698.8000000119209]","./assets/img/space/12.jpg","[""ArrowUp"",""ArrowRight""]","practice block","space","36","{""ArrowUp,ArrowLeft"":3,""ArrowUp,ArrowRight"":36,""ArrowDown,ArrowLeft"":15,""ArrowDown,ArrowRight"":23}","true","ArrowUp,ArrowRight","false","","","","","","","",""
"html-keyboard-response","74","401753","0.0-3.0-13.0-2.0-1.5","spark_pilot_2","7293","2","10","Female","","","","","","","null","<div style=""font-size:60px;"">+</div>","null","fixation","","","","","","","","","","","","","",""
"revaluation","75","407771","0.0-3.0-13.0-2.0-0.6","spark_pilot_2","7293","2","10","Female","","false","","","","","[1266.5999999940395,531.7999999821186]","./assets/img/space/13.jpg","[""ArrowUp"",""ArrowRight""]","practice block","space","36","{""ArrowUp,ArrowLeft"":3,""ArrowUp,ArrowRight"":36,""ArrowDown,ArrowLeft"":15,""ArrowDown,ArrowRight"":23}","true","ArrowUp,ArrowRight","false","","","","","","","",""
"html-keyboard-response","76","408274","0.0-3.0-13.0-2.0-1.6","spark_pilot_2","7293","2","10","Female","","","","","","","null","<div style=""font-size:60px;"">+</div>","null","fixation","","","","","","","","","","","","","",""
"revaluation","77","414289","0.0-3.0-13.0-2.0-0.7","spark_pilot_2","7293","2","10","Female","","false","","","","","[1047.5999999940395,517.5]","./assets/img/space/14.jpg","[""ArrowUp"",""ArrowRight""]","practice block","space","36","{""ArrowUp,ArrowLeft"":3,""ArrowUp,ArrowRight"":36,""ArrowDown,ArrowLeft"":15,""ArrowDown,ArrowRight"":23}","true","ArrowUp,ArrowRight","false","","","","","","","",""
"html-keyboard-response","78","414792","0.0-3.0-13.0-2.0-1.7","spark_pilot_2","7293","2","10","Female","","","","","","","null","<div style=""font-size:60px;"">+</div>","null","fixation","","","","","","","","","","","","","",""
"revaluation","79","418797","0.0-3.0-13.0-2.0-0.8","spark_pilot_2","7293","2","10","Female","","false","","","","","[611.9000000059605]","./assets/img/space/catch/3.jpg","[""spaceBar""]","practice block","space","0","{""ArrowUp,ArrowLeft"":3,""ArrowUp,ArrowRight"":36,""ArrowDown,ArrowLeft"":15,""ArrowDown,ArrowRight"":23}","true","spaceBar","true","","","","","","","",""
"html-keyboard-response","80","419309","0.0-3.0-13.0-2.0-1.8","spark_pilot_2","7293","2","10","Female","","","","","","","null","<div style=""font-size:60px;"">+</div>","null","fixation","","","","","","","","","","","","","",""
"learning-instructions","81","434010","0.0-3.0-13.0-3.0-0.0","spark_pilot_2","7293","2","10","Female","","","","","","","1714","<p> Now, you will travel with a friend who will choose whether you go up or down first. </p>
            <p> On these turns, you will just see the animal that they found. You will still get to choose which chest to search for treasure.</p>","","instructions","","","","","","","","","","","","","",""
"revaluation","82","438020","0.0-3.0-13.0-4.0-0.0","spark_pilot_2","7293","2","10","Female","","false","","","","","[1195.5999999940395]","./assets/img/space/animals/cat.jpg","[""ArrowRight""]","practice block","space","36","{""ArrowUp,ArrowLeft"":3,""ArrowUp,ArrowRight"":36,""ArrowDown,ArrowLeft"":15,""ArrowDown,ArrowRight"":23}","true","ArrowUp,ArrowRight","","","","","","","","",""
"html-keyboard-response","83","438533","0.0-3.0-13.0-4.0-1.0","spark_pilot_2","7293","2","10","Female","","","","","","","null","<div style=""font-size:60px;"">+</div>","null","fixation","","","","","","","","","","","","","",""
"revaluation","84","442569","0.0-3.0-13.0-4.0-0.1","spark_pilot_2","7293","2","10","Female","","false","","","","","[720.5]","./assets/img/space/animals/cat.jpg","[""ArrowRight""]","practice block","space","36","{""ArrowUp,ArrowLeft"":3,""ArrowUp,ArrowRight"":36,""ArrowDown,ArrowLeft"":15,""ArrowDown,ArrowRight"":23}","true","ArrowUp,ArrowRight","","","","","","","","",""
"html-keyboard-response","85","443084","0.0-3.0-13.0-4.0-1.1","spark_pilot_2","7293","2","10","Female","","","","","","","null","<div style=""font-size:60px;"">+</div>","null","fixation","","","","","","","","","","","","","",""
"revaluation","86","447120","0.0-3.0-13.0-4.0-0.2","spark_pilot_2","7293","2","10","Female","","false","","","","","[944.0999999940395]","./assets/img/space/animals/rabbit.jpg","[""ArrowRight""]","practice block","space","23","{""ArrowUp,ArrowLeft"":3,""ArrowUp,ArrowRight"":36,""ArrowDown,ArrowLeft"":15,""ArrowDown,ArrowRight"":23}","true","ArrowDown,ArrowRight","","","","","","","","",""
"html-keyboard-response","87","447632","0.0-3.0-13.0-4.0-1.2","spark_pilot_2","7293","2","10","Female","","","","","","","null","<div style=""font-size:60px;"">+</div>","null","fixation","","","","","","","","","","","","","",""
"revaluation","88","451668","0.0-3.0-13.0-4.0-0.3","spark_pilot_2","7293","2","10","Female","","false","","","","","[1053.5]","./assets/img/space/animals/rabbit.jpg","[""ArrowRight""]","practice block","space","23","{""ArrowUp,ArrowLeft"":3,""ArrowUp,ArrowRight"":36,""ArrowDown,ArrowLeft"":15,""ArrowDown,ArrowRight"":23}","true","ArrowDown,ArrowRight","","","","","","","","",""
"html-keyboard-response","89","452181","0.0-3.0-13.0-4.0-1.3","spark_pilot_2","7293","2","10","Female","","","","","","","null","<div style=""font-size:60px;"">+</div>","null","fixation","","","","","","","","","","","","","",""
"learning-instructions","90","460431","0.0-3.0-13.0-5.0-0.0","spark_pilot_2","7293","2","10","Female","","","","","","","864.6999999880791","<p> Time to play the dot game! </p>
            <p> For 15 seconds, click the red dots on the following screen as they appear. </p>","","instructions","","","","","","","","","","","","","",""
"revaluation","91","475440","0.0-3.0-13.0-6.0-0.0","spark_pilot_2","7293","2","10","Female","","","","","","","[89,61]","","","rest practice","","20","","","","","0","15000","","","","","",""
"learning-instructions","92","482915","0.0-3.0-13.0-7.0-0.0","spark_pilot_2","7293","2","10","Female","","","","","","","1318.7999999821186","<p> You have almost finished this part of the game! </p>
            <p> We are going to ask you to make a few more choices. </p>","","instructions","","","","","","","","","","","","","",""
"learning-instructions","93","498279","0.0-3.0-13.0-7.0-0.1","spark_pilot_2","7293","2","10","Female","","","","","","","1323.2999999821186","<p> First, you need to decide whether to go up or down. When you see each picture, use the arrow keys to make your choice. </p>
            <p><b>You will not see which animal you found, but try to get to the one that will give you the most treasure.</b></p>","","instructions","","","","","","","","","","","","","",""
"revaluation","94","499451","0.0-3.0-13.0-8.0","spark_pilot_2","7293","2","10","Female","","false","","","","","[1167.800000011921]","./assets/img/space/15.jpg","[""ArrowUp""]","practice block","space","0","{""ArrowUp,ArrowLeft"":3,""ArrowUp,ArrowRight"":36,""ArrowDown,ArrowLeft"":15,""ArrowDown,ArrowRight"":23}","true","ArrowUp","false","","","","","","","",""
"html-keyboard-response","95","499958","0.0-3.0-13.0-9.0","spark_pilot_2","7293","2","10","Female","","","","","","","null","<div style=""font-size:60px;"">+</div>","null","fixation","","","","","","","","","","","","","",""
"learning-instructions","96","513162","0.0-3.0-13.0-10.0-0.0","spark_pilot_2","7293","2","10","Female","","","","","","","1795.300000011921","<p> Now you will see the animals again and can search their chests for treasure. </p>
            <p> This time, you will not see how much treasure you earned, but you will earn more bonus money for making better choices. </p>","","instructions","","","","","","","","","","","","","",""
"revaluation","97","513885","0.0-3.0-13.0-11.0-0.0","spark_pilot_2","7293","2","10","Female","","false","","","","","[719.0999999940395]","./assets/img/space/animals/cat.jpg","[""ArrowRight""]","practice block","space","0","{""ArrowUp,ArrowLeft"":3,""ArrowUp,ArrowRight"":36,""ArrowDown,ArrowLeft"":15,""ArrowDown,ArrowRight"":23}","true","ArrowUp,ArrowRight","","","","","","","","",""
"html-keyboard-response","98","514394","0.0-3.0-13.0-11.0-1.0","spark_pilot_2","7293","2","10","Female","","","","","","","null","<div style=""font-size:60px;"">+</div>","null","fixation","","","","","","","","","","","","","",""
"revaluation","99","515680","0.0-3.0-13.0-11.0-0.1","spark_pilot_2","7293","2","10","Female","","false","","","","","[1275.9000000059605]","./assets/img/space/animals/rabbit.jpg","[""ArrowRight""]","practice block","space","0","{""ArrowUp,ArrowLeft"":3,""ArrowUp,ArrowRight"":36,""ArrowDown,ArrowLeft"":15,""ArrowDown,ArrowRight"":23}","true","ArrowDown,ArrowRight","","","","","","","","",""
"html-keyboard-response","100","516187","0.0-3.0-13.0-11.0-1.1","spark_pilot_2","7293","2","10","Female","","","","","","","null","<div style=""font-size:60px;"">+</div>","null","fixation","","","","","","","","","","","","","",""
"learning-instructions","101","522010","0.0-3.0-14.0-0.0","spark_pilot_2","7293","2","10","Female","","","","","","","1223.7000000178814","<p> Before you start, we're going to ask you a few questions about how the game works. </p>","","instructions","","","","","","","","","","","","","",""
"comp-q","102","529019","0.0-3.0-15.0-0.0-0.0","spark_pilot_2","7293","2","10","Female","","","","","","","1404.4000000059605","<p> <b> True or False? </b> </p>
            <p> There can be 50 pieces of treasure in a given animal's chest. </p>","1","comp_question","","","","true","","","","","","","","","",""
"comp-q","103","536807","0.0-3.0-15.0-0.0-1.0","spark_pilot_2","7293","2","10","Female","","","","","","","1110.0999999940395","<p> <b> That's right! </b> The amount of treasure in each chest can range from 0 to 40 pieces. </p>","0","comp_answer","","","","","","","","","","","","","",""
"comp-q","104","545178","0.0-3.0-15.0-0.1-0.1","spark_pilot_2","7293","2","10","Female","","","","","","","1239.0999999940395","<p> <b> True or False? </b> </p><p> In this game, all animals have the same amount of treasure in their left and right chests. </p>","1","comp_question","","","","true","","","","","","","","","",""
"comp-q","105","551574","0.0-3.0-15.0-0.1-1.1","spark_pilot_2","7293","2","10","Female","","","","","","","1138.0999999940395","<p> <b> That's right! </b> Animals have different amounts of treasure in their treasure chests. </p>","0","comp_answer","","","","","","","","","","","","","",""
"comp-q","106","558759","0.0-3.0-15.0-0.2-0.2","spark_pilot_2","7293","2","10","Female","","","","","","","1322.199999988079","<p> <b> True or False? </b> </p><p> The same animal will always be there if you go up in the same place. </p>","0","comp_question","","","","true","","","","","","","","","",""
"comp-q","107","566651","0.0-3.0-15.0-0.2-1.2","spark_pilot_2","7293","2","10","Female","","","","","","","1432.5999999940395","<p> <b> That's right! </b> One animal lives in the upper part and one lives in the lower part of every place. </p>","0","comp_answer","","","","","","","","","","","","","",""
"comp-q","108","573059","0.0-3.0-15.0-0.3-0.3","spark_pilot_2","7293","2","10","Female","","","","","","","861.5","<p> <b> True or False? </b> </p><p> If you see a different picture, it means you are in a new place. </p>","0","comp_question","","","","false","","","","","","","","","",""
"comp-q","109","585891","0.0-3.0-15.0-0.3-1.3","spark_pilot_2","7293","2","10","Female","","","","","","","1723.199999988079","<p> <b>Incorrect.</b> Lots of different images may show the same place. For example,  you may see three different images that all remind you that you are in outer space. </p>","0","comp_answer","","","","","","","","","","","","","",""
"comp-q","110","593213","0.0-3.0-15.0-0.4-0.4","spark_pilot_2","7293","2","10","Female","","","","","","","1816","<p> <b> True or False? </b> </p><p> If you see a different picture, it means you are in a new place. </p>","1","comp_question","","","","true","","","","","","","","","",""
"comp-q","111","605592","0.0-3.0-15.0-0.4-1.4","spark_pilot_2","7293","2","10","Female","","","","","","","1133.9000000059605","<p> <b> That's right! </b> Lots of different images may show the same place. For example,  you may see three different images that all remind you that you are in outer space. </p>","0","comp_answer","","","","","","","","","","","","","",""
"learning-instructions","112","617098","0.0-3.0-16.0-0.0","spark_pilot_2","7293","2","10","Female","","","","","","","1559.5","<p> Good job. Remember to do your best because the amount of treasure you earn will be converted into bonus money. </p>
            <p> It’s time to start the real game! </p>","","instructions","","","","","","","","","","","","","",""
"learning-instructions","113","621265","0.0-4.0-0.0-0.0","spark_pilot_2","7293","2","10","Female","","","","","","","1435.5","<p> This time you are searching for treasure in the <b>ocean</b>.</p>","","instructions","","","","","","","","","","","","","",""
"learning-instructions","114","640195","0.0-4.0-0.0-0.1","spark_pilot_2","7293","2","10","Female","","","","","","","1614.5","<p><b>New</b> animals with <b>new</b> treasure chests live here. You need to explore to discover where the animal with the best treasure chest is.</p>
                    <p> Like before, once you figure out which animal has the chest with the most treasure, you should try to get to that animal and select that chest! </p>","","instructions","","","","","","","","","","","","","",""
"learning-instructions","115","657057","0.0-4.0-1.0-0.0","spark_pilot_2","7293","2","10","Female","","","","","","","2128.5","<p> Remember, when you see a picture of the place, use the up and down keys to <b>find an animal</b>.</p>
            <p> When you encounter an animal, you should use the left and right keys to <b>select a treasure chest</b>.</p>
            <p> Don't forget to look out for the robber! </p>","","instructions","","","","","","","","","","","","","",""
"revaluation","116","663088","0.0-4.0-2.0-0.0","spark_pilot_2","7293","2","10","Female","","false","","","","","[1141.9000000059605,814.2000000178814]","./assets/img/ocean/memory/7.jpg","[""ArrowUp"",""ArrowRight""]","value training","ocean","10","{""ArrowUp,ArrowLeft"":23,""ArrowUp,ArrowRight"":10,""ArrowDown,ArrowLeft"":8,""ArrowDown,ArrowRight"":30}","false","ArrowUp,ArrowRight","false","","","revaluation","1","0","","",""
"html-keyboard-response","117","663616","0.0-4.0-2.0-1.0","spark_pilot_2","7293","2","10","Female","","","","","","","null","<div style=""font-size:60px;"">+</div>","null","fixation","","","","","","","","","","","1","","",""
"revaluation","118","669650","0.0-4.0-2.0-0.1","spark_pilot_2","7293","2","10","Female","","false","","","","","[1187.8999999761581,613.8000000119209]","./assets/img/ocean/memory/10.jpg","[""ArrowDown"",""ArrowLeft""]","value training","ocean","8","{""ArrowUp,ArrowLeft"":23,""ArrowUp,ArrowRight"":10,""ArrowDown,ArrowLeft"":8,""ArrowDown,ArrowRight"":30}","false","ArrowDown,ArrowLeft","false","","","revaluation","1","2","","",""
"html-keyboard-response","119","670163","0.0-4.0-2.0-1.1","spark_pilot_2","7293","2","10","Female","","","","","","","null","<div style=""font-size:60px;"">+</div>","null","fixation","","","","","","","","","","","3","","",""
"revaluation","120","676198","0.0-4.0-2.0-0.2","spark_pilot_2","7293","2","10","Female","","false","","","","","[636,611.4000000059605]","./assets/img/ocean/memory/3.jpg","[""ArrowUp"",""ArrowLeft""]","value training","ocean","23","{""ArrowUp,ArrowLeft"":23,""ArrowUp,ArrowRight"":10,""ArrowDown,ArrowLeft"":8,""ArrowDown,ArrowRight"":30}","false","ArrowUp,ArrowLeft","false","","","revaluation","1","4","","",""
"html-keyboard-response","121","676712","0.0-4.0-2.0-1.2","spark_pilot_2","7293","2","10","Female","","","","","","","null","<div style=""font-size:60px;"">+</div>","null","fixation","","","","","","","","","","","5","","",""
"revaluation","122","682759","0.0-4.0-2.0-0.3","spark_pilot_2","7293","2","10","Female","","false","","","","","[1571.4000000059605,862.8999999761581]","./assets/img/ocean/memory/9.jpg","[""ArrowDown"",""ArrowRight""]","value training","ocean","30","{""ArrowUp,ArrowLeft"":23,""ArrowUp,ArrowRight"":10,""ArrowDown,ArrowLeft"":8,""ArrowDown,ArrowRight"":30}","true","ArrowDown,ArrowRight","false","","","revaluation","1","6","","",""
"html-keyboard-response","123","683268","0.0-4.0-2.0-1.3","spark_pilot_2","7293","2","10","Female","","","","","","","null","<div style=""font-size:60px;"">+</div>","null","fixation","","","","","","","","","","","7","","",""
"revaluation","124","689277","0.0-4.0-2.0-0.4","spark_pilot_2","7293","2","10","Female","","false","","","","","[1060.699999988079,464]","./assets/img/ocean/memory/26.jpg","[""ArrowDown"",""ArrowRight""]","value training","ocean","30","{""ArrowUp,ArrowLeft"":23,""ArrowUp,ArrowRight"":10,""ArrowDown,ArrowLeft"":8,""ArrowDown,ArrowRight"":30}","true","ArrowDown,ArrowRight","false","","","revaluation","1","8","","",""
"html-keyboard-response","125","689779","0.0-4.0-2.0-1.4","spark_pilot_2","7293","2","10","Female","","","","","","","null","<div style=""font-size:60px;"">+</div>","null","fixation","","","","","","","","","","","9","","",""
"revaluation","126","695788","0.0-4.0-2.0-0.5","spark_pilot_2","7293","2","10","Female","","false","","","","","[1174,765.0999999940395]","./assets/img/ocean/memory/38.jpg","[""ArrowDown"",""ArrowRight""]","value training","ocean","30","{""ArrowUp,ArrowLeft"":23,""ArrowUp,ArrowRight"":10,""ArrowDown,ArrowLeft"":8,""ArrowDown,ArrowRight"":30}","true","ArrowDown,ArrowRight","false","","","revaluation","1","10","","",""
"html-keyboard-response","127","696291","0.0-4.0-2.0-1.5","spark_pilot_2","7293","2","10","Female","","","","","","","null","<div style=""font-size:60px;"">+</div>","null","fixation","","","","","","","","","","","11","","",""
"revaluation","128","702311","0.0-4.0-2.0-0.6","spark_pilot_2","7293","2","10","Female","","false","","","","","[1143.300000011921,664.5999999940395]","./assets/img/ocean/memory/26.jpg","[""ArrowDown"",""ArrowRight""]","value training","ocean","30","{""ArrowUp,ArrowLeft"":23,""ArrowUp,ArrowRight"":10,""ArrowDown,ArrowLeft"":8,""ArrowDown,ArrowRight"":30}","true","ArrowDown,ArrowRight","false","","","revaluation","1","12","","",""
"html-keyboard-response","129","702815","0.0-4.0-2.0-1.6","spark_pilot_2","7293","2","10","Female","","","","","","","null","<div style=""font-size:60px;"">+</div>","null","fixation","","","","","","","","","","","13","","",""
"revaluation","130","708836","0.0-4.0-2.0-0.7","spark_pilot_2","7293","2","10","Female","","false","","","","","[1159.300000011921,565.7999999821186]","./assets/img/ocean/memory/35.jpg","[""ArrowDown"",""ArrowRight""]","value training","ocean","30","{""ArrowUp,ArrowLeft"":23,""ArrowUp,ArrowRight"":10,""ArrowDown,ArrowLeft"":8,""ArrowDown,ArrowRight"":30}","true","ArrowDown,ArrowRight","false","","","revaluation","1","14","","",""
"html-keyboard-response","131","709339","0.0-4.0-2.0-1.7","spark_pilot_2","7293","2","10","Female","","","","","","","null","<div style=""font-size:60px;"">+</div>","null","fixation","","","","","","","","","","","15","","",""
"revaluation","132","713351","0.0-4.0-2.0-0.8","spark_pilot_2","7293","2","10","Female","","true","","","","","[]","./assets/img/ocean/memory/30.jpg","[]","value training","ocean","-5","{""ArrowUp,ArrowLeft"":23,""ArrowUp,ArrowRight"":10,""ArrowDown,ArrowLeft"":8,""ArrowDown,ArrowRight"":30}","false","","false","","","revaluation","1","16","","",""
"html-keyboard-response","133","713854","0.0-4.0-2.0-1.8","spark_pilot_2","7293","2","10","Female","","","","","","","null","<div style=""font-size:60px;"">+</div>","null","fixation","","","","","","","","","","","17","","",""
"revaluation","134","719862","0.0-4.0-2.0-0.9","spark_pilot_2","7293","2","10","Female","","false","","","","","[1088.7000000178814,549.2999999821186]","./assets/img/ocean/memory/29.jpg","[""ArrowDown"",""ArrowRight""]","value training","ocean","30","{""ArrowUp,ArrowLeft"":23,""ArrowUp,ArrowRight"":10,""ArrowDown,ArrowLeft"":8,""ArrowDown,ArrowRight"":30}","true","ArrowDown,ArrowRight","false","","","revaluation","1","18","","",""
"html-keyboard-response","135","720365","0.0-4.0-2.0-1.9","spark_pilot_2","7293","2","10","Female","","","","","","","null","<div style=""font-size:60px;"">+</div>","null","fixation","","","","","","","","","","","19","","",""
"revaluation","136","726387","0.0-4.0-2.0-0.10","spark_pilot_2","7293","2","10","Female","","false","","","","","[977.1999999880791,433.39999997615814]","./assets/img/ocean/memory/20.jpg","[""ArrowDown"",""ArrowRight""]","value training","ocean","30","{""ArrowUp,ArrowLeft"":23,""ArrowUp,ArrowRight"":10,""ArrowDown,ArrowLeft"":8,""ArrowDown,ArrowRight"":30}","true","ArrowDown,ArrowRight","false","","","revaluation","1","20","","",""
"html-keyboard-response","137","726889","0.0-4.0-2.0-1.10","spark_pilot_2","7293","2","10","Female","","","","","","","null","<div style=""font-size:60px;"">+</div>","null","fixation","","","","","","","","","","","21","","",""
"revaluation","138","732905","0.0-4.0-2.0-0.11","spark_pilot_2","7293","2","10","Female","","false","","","","","[1071.3999999761581,390.39999997615814]","./assets/img/ocean/memory/36.jpg","[""ArrowDown"",""ArrowRight""]","value training","ocean","30","{""ArrowUp,ArrowLeft"":23,""ArrowUp,ArrowRight"":10,""ArrowDown,ArrowLeft"":8,""ArrowDown,ArrowRight"":30}","true","ArrowDown,ArrowRight","false","","","revaluation","1","22","","",""
"html-keyboard-response","139","733409","0.0-4.0-2.0-1.11","spark_pilot_2","7293","2","10","Female","","","","","","","null","<div style=""font-size:60px;"">+</div>","null","fixation","","","","","","","","","","","23","","",""
"revaluation","140","739424","0.0-4.0-2.0-0.12","spark_pilot_2","7293","2","10","Female","","false","","","","","[1119.2999999821186,520.7999999821186]","./assets/img/ocean/memory/17.jpg","[""ArrowDown"",""ArrowRight""]","value training","ocean","30","{""ArrowUp,ArrowLeft"":23,""ArrowUp,ArrowRight"":10,""ArrowDown,ArrowLeft"":8,""ArrowDown,ArrowRight"":30}","true","ArrowDown,ArrowRight","false","","","revaluation","1","24","","",""
"html-keyboard-response","141","739941","0.0-4.0-2.0-1.12","spark_pilot_2","7293","2","10","Female","","","","","","","null","<div style=""font-size:60px;"">+</div>","null","fixation","","","","","","","","","","","25","","",""
"revaluation","142","745961","0.0-4.0-2.0-0.13","spark_pilot_2","7293","2","10","Female","","false","","","","","[940.0999999940395,703.0999999940395]","./assets/img/ocean/memory/21.jpg","[""ArrowDown"",""ArrowRight""]","value training","ocean","30","{""ArrowUp,ArrowLeft"":23,""ArrowUp,ArrowRight"":10,""ArrowDown,ArrowLeft"":8,""ArrowDown,ArrowRight"":30}","true","ArrowDown,ArrowRight","false","","","revaluation","1","26","","",""
"html-keyboard-response","143","746463","0.0-4.0-2.0-1.13","spark_pilot_2","7293","2","10","Female","","","","","","","null","<div style=""font-size:60px;"">+</div>","null","fixation","","","","","","","","","","","27","","",""
"revaluation","144","752482","0.0-4.0-2.0-0.14","spark_pilot_2","7293","2","10","Female","","false","","","","","[1865.699999988079,569.7000000178814]","./assets/img/ocean/memory/27.jpg","[""ArrowDown"",""ArrowRight""]","value training","ocean","30","{""ArrowUp,ArrowLeft"":23,""ArrowUp,ArrowRight"":10,""ArrowDown,ArrowLeft"":8,""ArrowDown,ArrowRight"":30}","true","ArrowDown,ArrowRight","false","","","revaluation","1","28","","",""
"html-keyboard-response","145","752985","0.0-4.0-2.0-1.14","spark_pilot_2","7293","2","10","Female","","","","","","","null","<div style=""font-size:60px;"">+</div>","null","fixation","","","","","","","","","","","29","","",""
"revaluation","146","759001","0.0-4.0-2.0-0.15","spark_pilot_2","7293","2","10","Female","","false","","","","","[772.6999999880791,657.6000000238419]","./assets/img/ocean/memory/35.jpg","[""ArrowDown"",""ArrowRight""]","value training","ocean","30","{""ArrowUp,ArrowLeft"":23,""ArrowUp,ArrowRight"":10,""ArrowDown,ArrowLeft"":8,""ArrowDown,ArrowRight"":30}","true","ArrowDown,ArrowRight","false","","","revaluation","1","30","","",""
"html-keyboard-response","147","759505","0.0-4.0-2.0-1.15","spark_pilot_2","7293","2","10","Female","","","","","","","null","<div style=""font-size:60px;"">+</div>","null","fixation","","","","","","","","","","","31","","",""
"revaluation","148","763527","0.0-4.0-2.0-0.16","spark_pilot_2","7293","2","10","Female","","false","","","","","[810.2999999821186]","./assets/img/ocean/catch/0.jpg","[""spaceBar""]","value training","ocean","0","{""ArrowUp,ArrowLeft"":23,""ArrowUp,ArrowRight"":10,""ArrowDown,ArrowLeft"":8,""ArrowDown,ArrowRight"":30}","true","spaceBar","true","","","revaluation","1","32","","",""
"html-keyboard-response","149","764031","0.0-4.0-2.0-1.16","spark_pilot_2","7293","2","10","Female","","","","","","","null","<div style=""font-size:60px;"">+</div>","null","fixation","","","","","","","","","","","33","","",""
"revaluation","150","770046","0.0-4.0-2.0-0.17","spark_pilot_2","7293","2","10","Female","","false","","","","","[811.5,416.80000001192093]","./assets/img/ocean/memory/6.jpg","[""ArrowDown"",""ArrowRight""]","value training","ocean","30","{""ArrowUp,ArrowLeft"":23,""ArrowUp,ArrowRight"":10,""ArrowDown,ArrowLeft"":8,""ArrowDown,ArrowRight"":30}","true","ArrowDown,ArrowRight","false","","","revaluation","1","34","","",""
"html-keyboard-response","151","770549","0.0-4.0-2.0-1.17","spark_pilot_2","7293","2","10","Female","","","","","","","null","<div style=""font-size:60px;"">+</div>","null","fixation","","","","","","","","","","","35","","",""
"revaluation","152","776585","0.0-4.0-2.0-0.18","spark_pilot_2","7293","2","10","Female","","false","","","","","[863.0999999940395,770.7999999821186]","./assets/img/ocean/memory/10.jpg","[""ArrowDown"",""ArrowRight""]","value training","ocean","30","{""ArrowUp,ArrowLeft"":23,""ArrowUp,ArrowRight"":10,""ArrowDown,ArrowLeft"":8,""ArrowDown,ArrowRight"":30}","true","ArrowDown,ArrowRight","false","","","revaluation","1","36","","",""
"html-keyboard-response","153","777096","0.0-4.0-2.0-1.18","spark_pilot_2","7293","2","10","Female","","","","","","","null","<div style=""font-size:60px;"">+</div>","null","fixation","","","","","","","","","","","37","","",""
"revaluation","154","781118","0.0-4.0-2.0-0.19","spark_pilot_2","7293","2","10","Female","","false","","","","","[1011.9000000059605]","./assets/img/ocean/catch/5.jpg","[""ArrowDown""]","value training","ocean","-10","{""ArrowUp,ArrowLeft"":23,""ArrowUp,ArrowRight"":10,""ArrowDown,ArrowLeft"":8,""ArrowDown,ArrowRight"":30}","false","ArrowDown","true","","","revaluation","1","38","","",""
"html-keyboard-response","155","781622","0.0-4.0-2.0-1.19","spark_pilot_2","7293","2","10","Female","","","","","","","null","<div style=""font-size:60px;"">+</div>","null","fixation","","","","","","","","","","","39","","",""
"revaluation","156","787636","0.0-4.0-2.0-0.20","spark_pilot_2","7293","2","10","Female","","false","","","","","[1528.800000011921,1698.4000000059605]","./assets/img/ocean/memory/15.jpg","[""ArrowDown"",""ArrowRight""]","value training","ocean","30","{""ArrowUp,ArrowLeft"":23,""ArrowUp,ArrowRight"":10,""ArrowDown,ArrowLeft"":8,""ArrowDown,ArrowRight"":30}","true","ArrowDown,ArrowRight","false","","","revaluation","1","40","","",""
"html-keyboard-response","157","788139","0.0-4.0-2.0-1.20","spark_pilot_2","7293","2","10","Female","","","","","","","null","<div style=""font-size:60px;"">+</div>","null","fixation","","","","","","","","","","","41","","",""
"revaluation","158","794155","0.0-4.0-2.0-0.21","spark_pilot_2","7293","2","10","Female","","false","","","","","[842.5,384]","./assets/img/ocean/memory/34.jpg","[""ArrowDown"",""ArrowRight""]","value training","ocean","30","{""ArrowUp,ArrowLeft"":23,""ArrowUp,ArrowRight"":10,""ArrowDown,ArrowLeft"":8,""ArrowDown,ArrowRight"":30}","true","ArrowDown,ArrowRight","false","","","revaluation","1","42","","",""
"html-keyboard-response","159","794658","0.0-4.0-2.0-1.21","spark_pilot_2","7293","2","10","Female","","","","","","","null","<div style=""font-size:60px;"">+</div>","null","fixation","","","","","","","","","","","43","","",""
"revaluation","160","800675","0.0-4.0-2.0-0.22","spark_pilot_2","7293","2","10","Female","","false","","","","","[766.5,323]","./assets/img/ocean/memory/23.jpg","[""ArrowDown"",""ArrowRight""]","value training","ocean","30","{""ArrowUp,ArrowLeft"":23,""ArrowUp,ArrowRight"":10,""ArrowDown,ArrowLeft"":8,""ArrowDown,ArrowRight"":30}","true","ArrowDown,ArrowRight","false","","","revaluation","1","44","","",""
"html-keyboard-response","161","801189","0.0-4.0-2.0-1.22","spark_pilot_2","7293","2","10","Female","","","","","","","null","<div style=""font-size:60px;"">+</div>","null","fixation","","","","","","","","","","","45","","",""
"revaluation","162","807209","0.0-4.0-2.0-0.23","spark_pilot_2","7293","2","10","Female","","false","","","","","[990.6999999880791,550.1999999880791]","./assets/img/ocean/memory/3.jpg","[""ArrowDown"",""ArrowRight""]","value training","ocean","30","{""ArrowUp,ArrowLeft"":23,""ArrowUp,ArrowRight"":10,""ArrowDown,ArrowLeft"":8,""ArrowDown,ArrowRight"":30}","true","ArrowDown,ArrowRight","false","","","revaluation","1","46","","",""
"html-keyboard-response","163","807713","0.0-4.0-2.0-1.23","spark_pilot_2","7293","2","10","Female","","","","","","","null","<div style=""font-size:60px;"">+</div>","null","fixation","","","","","","","","","","","47","","",""
"revaluation","164","813729","0.0-4.0-2.0-0.24","spark_pilot_2","7293","2","10","Female","","false","","","","","[629.6999999880791,464.69999998807907]","./assets/img/ocean/memory/5.jpg","[""ArrowDown"",""ArrowRight""]","value training","ocean","30","{""ArrowUp,ArrowLeft"":23,""ArrowUp,ArrowRight"":10,""ArrowDown,ArrowLeft"":8,""ArrowDown,ArrowRight"":30}","true","ArrowDown,ArrowRight","false","","","revaluation","1","48","","",""
"html-keyboard-response","165","814233","0.0-4.0-2.0-1.24","spark_pilot_2","7293","2","10","Female","","","","","","","null","<div style=""font-size:60px;"">+</div>","null","fixation","","","","","","","","","","","49","","",""
"revaluation","166","820247","0.0-4.0-2.0-0.25","spark_pilot_2","7293","2","10","Female","","false","","","","","[1286.5,624.0999999940395]","./assets/img/ocean/memory/23.jpg","[""ArrowDown"",""ArrowRight""]","value training","ocean","30","{""ArrowUp,ArrowLeft"":23,""ArrowUp,ArrowRight"":10,""ArrowDown,ArrowLeft"":8,""ArrowDown,ArrowRight"":30}","true","ArrowDown,ArrowRight","false","","","revaluation","1","50","","",""
"html-keyboard-response","167","820750","0.0-4.0-2.0-1.25","spark_pilot_2","7293","2","10","Female","","","","","","","null","<div style=""font-size:60px;"">+</div>","null","fixation","","","","","","","","","","","51","","",""
"revaluation","168","824765","0.0-4.0-2.0-0.26","spark_pilot_2","7293","2","10","Female","","false","","","","","[667.8000000119209]","./assets/img/ocean/catch/7.jpg","[""spaceBar""]","value training","ocean","0","{""ArrowUp,ArrowLeft"":23,""ArrowUp,ArrowRight"":10,""ArrowDown,ArrowLeft"":8,""ArrowDown,ArrowRight"":30}","true","spaceBar","true","","","revaluation","1","52","","",""
"html-keyboard-response","169","825274","0.0-4.0-2.0-1.26","spark_pilot_2","7293","2","10","Female","","","","","","","null","<div style=""font-size:60px;"">+</div>","null","fixation","","","","","","","","","","","53","","",""
"revaluation","170","831292","0.0-4.0-2.0-0.27","spark_pilot_2","7293","2","10","Female","","false","","","","","[1259.5,409.80000001192093]","./assets/img/ocean/memory/21.jpg","[""ArrowDown"",""ArrowRight""]","value training","ocean","30","{""ArrowUp,ArrowLeft"":23,""ArrowUp,ArrowRight"":10,""ArrowDown,ArrowLeft"":8,""ArrowDown,ArrowRight"":30}","true","ArrowDown,ArrowRight","false","","","revaluation","1","54","","",""
"html-keyboard-response","171","831795","0.0-4.0-2.0-1.27","spark_pilot_2","7293","2","10","Female","","","","","","","null","<div style=""font-size:60px;"">+</div>","null","fixation","","","","","","","","","","","55","","",""
"revaluation","172","837811","0.0-4.0-2.0-0.28","spark_pilot_2","7293","2","10","Female","","false","","","","","[1368,445]","./assets/img/ocean/memory/7.jpg","[""ArrowDown"",""ArrowRight""]","value training","ocean","30","{""ArrowUp,ArrowLeft"":23,""ArrowUp,ArrowRight"":10,""ArrowDown,ArrowLeft"":8,""ArrowDown,ArrowRight"":30}","true","ArrowDown,ArrowRight","false","","","revaluation","1","56","","",""
"html-keyboard-response","173","838315","0.0-4.0-2.0-1.28","spark_pilot_2","7293","2","10","Female","","","","","","","null","<div style=""font-size:60px;"">+</div>","null","fixation","","","","","","","","","","","57","","",""
"revaluation","174","844326","0.0-4.0-2.0-0.29","spark_pilot_2","7293","2","10","Female","","false","","","","","[1469.800000011921,440.7999999821186]","./assets/img/ocean/memory/20.jpg","[""ArrowDown"",""ArrowRight""]","value training","ocean","30","{""ArrowUp,ArrowLeft"":23,""ArrowUp,ArrowRight"":10,""ArrowDown,ArrowLeft"":8,""ArrowDown,ArrowRight"":30}","true","ArrowDown,ArrowRight","false","","","revaluation","1","58","","",""
"html-keyboard-response","175","844829","0.0-4.0-2.0-1.29","spark_pilot_2","7293","2","10","Female","","","","","","","null","<div style=""font-size:60px;"">+</div>","null","fixation","","","","","","","","","","","59","","",""
"revaluation","176","850847","0.0-4.0-2.0-0.30","spark_pilot_2","7293","2","10","Female","","false","","","","","[720.0999999940395,366.69999998807907]","./assets/img/ocean/memory/41.jpg","[""ArrowDown"",""ArrowRight""]","value training","ocean","30","{""ArrowUp,ArrowLeft"":23,""ArrowUp,ArrowRight"":10,""ArrowDown,ArrowLeft"":8,""ArrowDown,ArrowRight"":30}","true","ArrowDown,ArrowRight","false","","","revaluation","1","60","","",""
"html-keyboard-response","177","851352","0.0-4.0-2.0-1.30","spark_pilot_2","7293","2","10","Female","","","","","","","null","<div style=""font-size:60px;"">+</div>","null","fixation","","","","","","","","","","","61","","",""
"revaluation","178","857373","0.0-4.0-2.0-0.31","spark_pilot_2","7293","2","10","Female","","false","","","","","[1045.5999999940395,481.10000002384186]","./assets/img/ocean/memory/9.jpg","[""ArrowDown"",""ArrowRight""]","value training","ocean","30","{""ArrowUp,ArrowLeft"":23,""ArrowUp,ArrowRight"":10,""ArrowDown,ArrowLeft"":8,""ArrowDown,ArrowRight"":30}","true","ArrowDown,ArrowRight","false","","","revaluation","1","62","","",""
"html-keyboard-response","179","857876","0.0-4.0-2.0-1.31","spark_pilot_2","7293","2","10","Female","","","","","","","null","<div style=""font-size:60px;"">+</div>","null","fixation","","","","","","","","","","","63","","",""
"revaluation","180","863907","0.0-4.0-2.0-0.32","spark_pilot_2","7293","2","10","Female","","false","","","","","[1627.800000011921,769.2999999821186]","./assets/img/ocean/memory/0.jpg","[""ArrowDown"",""ArrowRight""]","value training","ocean","30","{""ArrowUp,ArrowLeft"":23,""ArrowUp,ArrowRight"":10,""ArrowDown,ArrowLeft"":8,""ArrowDown,ArrowRight"":30}","true","ArrowDown,ArrowRight","false","","","revaluation","1","64","","",""
"html-keyboard-response","181","864410","0.0-4.0-2.0-1.32","spark_pilot_2","7293","2","10","Female","","","","","","","null","<div style=""font-size:60px;"">+</div>","null","fixation","","","","","","","","","","","65","","",""
"revaluation","182","870423","0.0-4.0-2.0-0.33","spark_pilot_2","7293","2","10","Female","","false","","","","","[914.5999999940395,507.2999999821186]","./assets/img/ocean/memory/6.jpg","[""ArrowDown"",""ArrowRight""]","value training","ocean","30","{""ArrowUp,ArrowLeft"":23,""ArrowUp,ArrowRight"":10,""ArrowDown,ArrowLeft"":8,""ArrowDown,ArrowRight"":30}","true","ArrowDown,ArrowRight","false","","","revaluation","1","66","","",""
"html-keyboard-response","183","870925","0.0-4.0-2.0-1.33","spark_pilot_2","7293","2","10","Female","","","","","","","null","<div style=""font-size:60px;"">+</div>","null","fixation","","","","","","","","","","","67","","",""
"revaluation","184","876940","0.0-4.0-2.0-0.34","spark_pilot_2","7293","2","10","Female","","false","","","","","[1417.699999988079,458.5]","./assets/img/ocean/memory/30.jpg","[""ArrowDown"",""ArrowRight""]","value training","ocean","30","{""ArrowUp,ArrowLeft"":23,""ArrowUp,ArrowRight"":10,""ArrowDown,ArrowLeft"":8,""ArrowDown,ArrowRight"":30}","true","ArrowDown,ArrowRight","false","","","revaluation","1","68","","",""
"html-keyboard-response","185","877443","0.0-4.0-2.0-1.34","spark_pilot_2","7293","2","10","Female","","","","","","","null","<div style=""font-size:60px;"">+</div>","null","fixation","","","","","","","","","","","69","","",""
"revaluation","186","883462","0.0-4.0-2.0-0.35","spark_pilot_2","7293","2","10","Female","","false","","","","","[1742.800000011921,635.5]","./assets/img/ocean/memory/38.jpg","[""ArrowDown"",""ArrowRight""]","value training","ocean","30","{""ArrowUp,ArrowLeft"":23,""ArrowUp,ArrowRight"":10,""ArrowDown,ArrowLeft"":8,""ArrowDown,ArrowRight"":30}","true","ArrowDown,ArrowRight","false","","","revaluation","1","70","","",""
"html-keyboard-response","187","883967","0.0-4.0-2.0-1.35","spark_pilot_2","7293","2","10","Female","","","","","","","null","<div style=""font-size:60px;"">+</div>","null","fixation","","","","","","","","","","","71","","",""
"revaluation","188","889983","0.0-4.0-2.0-0.36","spark_pilot_2","7293","2","10","Female","","false","","","","","[1222.800000011921,725.4000000059605]","./assets/img/ocean/memory/5.jpg","[""ArrowDown"",""ArrowRight""]","value training","ocean","30","{""ArrowUp,ArrowLeft"":23,""ArrowUp,ArrowRight"":10,""ArrowDown,ArrowLeft"":8,""ArrowDown,ArrowRight"":30}","true","ArrowDown,ArrowRight","false","","","revaluation","1","72","","",""
"html-keyboard-response","189","890486","0.0-4.0-2.0-1.36","spark_pilot_2","7293","2","10","Female","","","","","","","null","<div style=""font-size:60px;"">+</div>","null","fixation","","","","","","","","","","","73","","",""
"revaluation","190","896508","0.0-4.0-2.0-0.37","spark_pilot_2","7293","2","10","Female","","false","","","","","[1080.300000011921,466.09999999403954]","./assets/img/ocean/memory/36.jpg","[""ArrowDown"",""ArrowRight""]","value training","ocean","30","{""ArrowUp,ArrowLeft"":23,""ArrowUp,ArrowRight"":10,""ArrowDown,ArrowLeft"":8,""ArrowDown,ArrowRight"":30}","true","ArrowDown,ArrowRight","false","","","revaluation","1","74","","",""
"html-keyboard-response","191","897012","0.0-4.0-2.0-1.37","spark_pilot_2","7293","2","10","Female","","","","","","","null","<div style=""font-size:60px;"">+</div>","null","fixation","","","","","","","","","","","75","","",""
"revaluation","192","903026","0.0-4.0-2.0-0.38","spark_pilot_2","7293","2","10","Female","","false","","","","","[1301.699999988079,602.6999999880791]","./assets/img/ocean/memory/15.jpg","[""ArrowDown"",""ArrowRight""]","value training","ocean","30","{""ArrowUp,ArrowLeft"":23,""ArrowUp,ArrowRight"":10,""ArrowDown,ArrowLeft"":8,""ArrowDown,ArrowRight"":30}","true","ArrowDown,ArrowRight","false","","","revaluation","1","76","","",""
"html-keyboard-response","193","903529","0.0-4.0-2.0-1.38","spark_pilot_2","7293","2","10","Female","","","","","","","null","<div style=""font-size:60px;"">+</div>","null","fixation","","","","","","","","","","","77","","",""
"revaluation","194","907542","0.0-4.0-2.0-0.39","spark_pilot_2","7293","2","10","Female","","false","","","","","[787.7999999821186]","./assets/img/ocean/catch/4.jpg","[""spaceBar""]","value training","ocean","0","{""ArrowUp,ArrowLeft"":23,""ArrowUp,ArrowRight"":10,""ArrowDown,ArrowLeft"":8,""ArrowDown,ArrowRight"":30}","true","spaceBar","true","","","revaluation","1","78","","",""
"html-keyboard-response","195","908045","0.0-4.0-2.0-1.39","spark_pilot_2","7293","2","10","Female","","","","","","","null","<div style=""font-size:60px;"">+</div>","null","fixation","","","","","","","","","","","79","","",""
"revaluation","196","914059","0.0-4.0-2.0-0.40","spark_pilot_2","7293","2","10","Female","","false","","","","","[832.5999999940395,800]","./assets/img/ocean/memory/34.jpg","[""ArrowDown"",""ArrowRight""]","value training","ocean","30","{""ArrowUp,ArrowLeft"":23,""ArrowUp,ArrowRight"":10,""ArrowDown,ArrowLeft"":8,""ArrowDown,ArrowRight"":30}","true","ArrowDown,ArrowRight","false","","","revaluation","1","80","","",""
"html-keyboard-response","197","914561","0.0-4.0-2.0-1.40","spark_pilot_2","7293","2","10","Female","","","","","","","null","<div style=""font-size:60px;"">+</div>","null","fixation","","","","","","","","","","","81","","",""
"revaluation","198","918577","0.0-4.0-2.0-0.41","spark_pilot_2","7293","2","10","Female","","false","","","","","[770.2999999821186]","./assets/img/ocean/catch/3.jpg","[""spaceBar""]","value training","ocean","0","{""ArrowUp,ArrowLeft"":23,""ArrowUp,ArrowRight"":10,""ArrowDown,ArrowLeft"":8,""ArrowDown,ArrowRight"":30}","true","spaceBar","true","","","revaluation","1","82","","",""
"html-keyboard-response","199","919088","0.0-4.0-2.0-1.41","spark_pilot_2","7293","2","10","Female","","","","","","","null","<div style=""font-size:60px;"">+</div>","null","fixation","","","","","","","","","","","83","","",""
"revaluation","200","925118","0.0-4.0-2.0-0.42","spark_pilot_2","7293","2","10","Female","","false","","","","","[915.5,577.1999999880791]","./assets/img/ocean/memory/29.jpg","[""ArrowDown"",""ArrowRight""]","value training","ocean","30","{""ArrowUp,ArrowLeft"":23,""ArrowUp,ArrowRight"":10,""ArrowDown,ArrowLeft"":8,""ArrowDown,ArrowRight"":30}","true","ArrowDown,ArrowRight","false","","","revaluation","1","84","","",""
"html-keyboard-response","201","925622","0.0-4.0-2.0-1.42","spark_pilot_2","7293","2","10","Female","","","","","","","null","<div style=""font-size:60px;"">+</div>","null","fixation","","","","","","","","","","","85","","",""
"revaluation","202","931640","0.0-4.0-2.0-0.43","spark_pilot_2","7293","2","10","Female","","false","","","","","[742,419.80000001192093]","./assets/img/ocean/memory/41.jpg","[""ArrowDown"",""ArrowRight""]","value training","ocean","30","{""ArrowUp,ArrowLeft"":23,""ArrowUp,ArrowRight"":10,""ArrowDown,ArrowLeft"":8,""ArrowDown,ArrowRight"":30}","true","ArrowDown,ArrowRight","false","","","revaluation","1","86","","",""
"html-keyboard-response","203","932143","0.0-4.0-2.0-1.43","spark_pilot_2","7293","2","10","Female","","","","","","","null","<div style=""font-size:60px;"">+</div>","null","fixation","","","","","","","","","","","87","","",""
"revaluation","204","938153","0.0-4.0-2.0-0.44","spark_pilot_2","7293","2","10","Female","","false","","","","","[742.5999999940395,949.1999999880791]","./assets/img/ocean/memory/17.jpg","[""ArrowDown"",""ArrowRight""]","value training","ocean","30","{""ArrowUp,ArrowLeft"":23,""ArrowUp,ArrowRight"":10,""ArrowDown,ArrowLeft"":8,""ArrowDown,ArrowRight"":30}","true","ArrowDown,ArrowRight","false","","","revaluation","1","88","","",""
"html-keyboard-response","205","938656","0.0-4.0-2.0-1.44","spark_pilot_2","7293","2","10","Female","","","","","","","null","<div style=""font-size:60px;"">+</div>","null","fixation","","","","","","","","","","","89","","",""
"revaluation","206","942672","0.0-4.0-2.0-0.45","spark_pilot_2","7293","2","10","Female","","false","","","","","[779.5]","./assets/img/ocean/catch/1.jpg","[""spaceBar""]","value training","ocean","0","{""ArrowUp,ArrowLeft"":23,""ArrowUp,ArrowRight"":10,""ArrowDown,ArrowLeft"":8,""ArrowDown,ArrowRight"":30}","true","spaceBar","true","","","revaluation","1","90","","",""
"html-keyboard-response","207","943176","0.0-4.0-2.0-1.45","spark_pilot_2","7293","2","10","Female","","","","","","","null","<div style=""font-size:60px;"">+</div>","null","fixation","","","","","","","","","","","91","","",""
"revaluation","208","949193","0.0-4.0-2.0-0.46","spark_pilot_2","7293","2","10","Female","","false","","","","","[1778.5,597.7000000178814]","./assets/img/ocean/memory/0.jpg","[""ArrowDown"",""ArrowRight""]","value training","ocean","30","{""ArrowUp,ArrowLeft"":23,""ArrowUp,ArrowRight"":10,""ArrowDown,ArrowLeft"":8,""ArrowDown,ArrowRight"":30}","true","ArrowDown,ArrowRight","false","","","revaluation","1","92","","",""
"html-keyboard-response","209","949696","0.0-4.0-2.0-1.46","spark_pilot_2","7293","2","10","Female","","","","","","","null","<div style=""font-size:60px;"">+</div>","null","fixation","","","","","","","","","","","93","","",""
"revaluation","210","953710","0.0-4.0-2.0-0.47","spark_pilot_2","7293","2","10","Female","","false","","","","","[771.4000000059605]","./assets/img/ocean/catch/2.jpg","[""spaceBar""]","value training","ocean","0","{""ArrowUp,ArrowLeft"":23,""ArrowUp,ArrowRight"":10,""ArrowDown,ArrowLeft"":8,""ArrowDown,ArrowRight"":30}","true","spaceBar","true","","","revaluation","1","94","","",""
"html-keyboard-response","211","954214","0.0-4.0-2.0-1.47","spark_pilot_2","7293","2","10","Female","","","","","","","null","<div style=""font-size:60px;"">+</div>","null","fixation","","","","","","","","","","","95","","",""
"revaluation","212","960236","0.0-4.0-2.0-0.48","spark_pilot_2","7293","2","10","Female","","false","","","","","[908,427.30000001192093]","./assets/img/ocean/memory/27.jpg","[""ArrowDown"",""ArrowRight""]","value training","ocean","30","{""ArrowUp,ArrowLeft"":23,""ArrowUp,ArrowRight"":10,""ArrowDown,ArrowLeft"":8,""ArrowDown,ArrowRight"":30}","true","ArrowDown,ArrowRight","false","","","revaluation","1","96","","",""
"html-keyboard-response","213","960740","0.0-4.0-2.0-1.48","spark_pilot_2","7293","2","10","Female","","","","","","","null","<div style=""font-size:60px;"">+</div>","null","fixation","","","","","","","","","","","97","","",""
"revaluation","214","964756","0.0-4.0-2.0-0.49","spark_pilot_2","7293","2","10","Female","","false","","","","","[794.5]","./assets/img/ocean/catch/6.jpg","[""spaceBar""]","value training","ocean","0","{""ArrowUp,ArrowLeft"":23,""ArrowUp,ArrowRight"":10,""ArrowDown,ArrowLeft"":8,""ArrowDown,ArrowRight"":30}","true","spaceBar","true","","","revaluation","1","98","","",""
"html-keyboard-response","215","965259","0.0-4.0-2.0-1.49","spark_pilot_2","7293","2","10","Female","","","","","","","null","<div style=""font-size:60px;"">+</div>","null","fixation","","","","","","","","","","","99","","",""
"learning-instructions","216","979882","0.0-4.0-3.0-0.0","spark_pilot_2","7293","2","10","Female","","","","","","","1674.5999999940395","<p> Now, you will travel with a friend who will choose whether you go up or down first. </p>
            <p> On these turns, you will just see the animal that they found. You will still get to choose which chest to search for treasure.</p>","","instructions","","","","","","","","","","","","","",""
"revaluation","217","983918","0.0-4.0-4.0-0.0","spark_pilot_2","7293","2","10","Female","","false","","","","","[1727.2999999821186]","./assets/img/ocean/animals/seahorse.jpg","[""ArrowRight""]","revaluation","ocean","15","{""ArrowUp,ArrowLeft"":27,""ArrowUp,ArrowRight"":15,""ArrowDown,ArrowLeft"":21,""ArrowDown,ArrowRight"":7}","false","ArrowUp,ArrowRight","","","","revaluation","1","0","","",""
"html-keyboard-response","218","984434","0.0-4.0-4.0-1.0","spark_pilot_2","7293","2","10","Female","","","","","","","null","<div style=""font-size:60px;"">+</div>","null","fixation","","","","","","","","","","","1","","",""
"revaluation","219","988467","0.0-4.0-4.0-0.1","spark_pilot_2","7293","2","10","Female","","false","","","","","[898.3000000119209]","./assets/img/ocean/animals/octopus.jpg","[""ArrowRight""]","revaluation","ocean","7","{""ArrowUp,ArrowLeft"":27,""ArrowUp,ArrowRight"":15,""ArrowDown,ArrowLeft"":21,""ArrowDown,ArrowRight"":7}","false","ArrowDown,ArrowRight","","","","revaluation","1","2","","",""
"html-keyboard-response","220","988975","0.0-4.0-4.0-1.1","spark_pilot_2","7293","2","10","Female","","","","","","","null","<div style=""font-size:60px;"">+</div>","null","fixation","","","","","","","","","","","3","","",""
"revaluation","221","992998","0.0-4.0-4.0-0.2","spark_pilot_2","7293","2","10","Female","","false","","","","","[652.6999999880791]","./assets/img/ocean/animals/seahorse.jpg","[""ArrowLeft""]","revaluation","ocean","27","{""ArrowUp,ArrowLeft"":27,""ArrowUp,ArrowRight"":15,""ArrowDown,ArrowLeft"":21,""ArrowDown,ArrowRight"":7}","true","ArrowUp,ArrowLeft","","","","revaluation","1","4","","",""
"html-keyboard-response","222","993514","0.0-4.0-4.0-1.2","spark_pilot_2","7293","2","10","Female","","","","","","","null","<div style=""font-size:60px;"">+</div>","null","fixation","","","","","","","","","","","5","","",""
"revaluation","223","997543","0.0-4.0-4.0-0.3","spark_pilot_2","7293","2","10","Female","","false","","","","","[567.3000000119209]","./assets/img/ocean/animals/octopus.jpg","[""ArrowLeft""]","revaluation","ocean","21","{""ArrowUp,ArrowLeft"":27,""ArrowUp,ArrowRight"":15,""ArrowDown,ArrowLeft"":21,""ArrowDown,ArrowRight"":7}","true","ArrowDown,ArrowLeft","","","","revaluation","1","6","","",""
"html-keyboard-response","224","998056","0.0-4.0-4.0-1.3","spark_pilot_2","7293","2","10","Female","","","","","","","null","<div style=""font-size:60px;"">+</div>","null","fixation","","","","","","","","","","","7","","",""
"revaluation","225","1002080","0.0-4.0-4.0-0.4","spark_pilot_2","7293","2","10","Female","","false","","","","","[611.5]","./assets/img/ocean/animals/seahorse.jpg","[""ArrowLeft""]","revaluation","ocean","27","{""ArrowUp,ArrowLeft"":27,""ArrowUp,ArrowRight"":15,""ArrowDown,ArrowLeft"":21,""ArrowDown,ArrowRight"":7}","true","ArrowUp,ArrowLeft","","","","revaluation","1","8","","",""
"html-keyboard-response","226","1002590","0.0-4.0-4.0-1.4","spark_pilot_2","7293","2","10","Female","","","","","","","null","<div style=""font-size:60px;"">+</div>","null","fixation","","","","","","","","","","","9","","",""
"revaluation","227","1006616","0.0-4.0-4.0-0.5","spark_pilot_2","7293","2","10","Female","","false","","","","","[643.4000000059605]","./assets/img/ocean/animals/seahorse.jpg","[""ArrowLeft""]","revaluation","ocean","27","{""ArrowUp,ArrowLeft"":27,""ArrowUp,ArrowRight"":15,""ArrowDown,ArrowLeft"":21,""ArrowDown,ArrowRight"":7}","true","ArrowUp,ArrowLeft","","","","revaluation","1","10","","",""
"html-keyboard-response","228","1007127","0.0-4.0-4.0-1.5","spark_pilot_2","7293","2","10","Female","","","","","","","null","<div style=""font-size:60px;"">+</div>","null","fixation","","","","","","","","","","","11","","",""
"revaluation","229","1011146","0.0-4.0-4.0-0.6","spark_pilot_2","7293","2","10","Female","","false","","","","","[673.2000000178814]","./assets/img/ocean/animals/octopus.jpg","[""ArrowLeft""]","revaluation","ocean","21","{""ArrowUp,ArrowLeft"":27,""ArrowUp,ArrowRight"":15,""ArrowDown,ArrowLeft"":21,""ArrowDown,ArrowRight"":7}","true","ArrowDown,ArrowLeft","","","","revaluation","1","12","","",""
"html-keyboard-response","230","1011649","0.0-4.0-4.0-1.6","spark_pilot_2","7293","2","10","Female","","","","","","","null","<div style=""font-size:60px;"">+</div>","null","fixation","","","","","","","","","","","13","","",""
"revaluation","231","1015666","0.0-4.0-4.0-0.7","spark_pilot_2","7293","2","10","Female","","false","","","","","[570.8000000119209]","./assets/img/ocean/animals/octopus.jpg","[""ArrowLeft""]","revaluation","ocean","21","{""ArrowUp,ArrowLeft"":27,""ArrowUp,ArrowRight"":15,""ArrowDown,ArrowLeft"":21,""ArrowDown,ArrowRight"":7}","true","ArrowDown,ArrowLeft","","","","revaluation","1","14","","",""
"html-keyboard-response","232","1016171","0.0-4.0-4.0-1.7","spark_pilot_2","7293","2","10","Female","","","","","","","null","<div style=""font-size:60px;"">+</div>","null","fixation","","","","","","","","","","","15","","",""
"revaluation","233","1020186","0.0-4.0-4.0-0.8","spark_pilot_2","7293","2","10","Female","","false","","","","","[383.19999998807907]","./assets/img/ocean/animals/seahorse.jpg","[""ArrowLeft""]","revaluation","ocean","27","{""ArrowUp,ArrowLeft"":27,""ArrowUp,ArrowRight"":15,""ArrowDown,ArrowLeft"":21,""ArrowDown,ArrowRight"":7}","true","ArrowUp,ArrowLeft","","","","revaluation","1","16","","",""
"html-keyboard-response","234","1020688","0.0-4.0-4.0-1.8","spark_pilot_2","7293","2","10","Female","","","","","","","null","<div style=""font-size:60px;"">+</div>","null","fixation","","","","","","","","","","","17","","",""
"revaluation","235","1024697","0.0-4.0-4.0-0.9","spark_pilot_2","7293","2","10","Female","","false","","","","","[449.2999999821186]","./assets/img/ocean/animals/octopus.jpg","[""ArrowLeft""]","revaluation","ocean","21","{""ArrowUp,ArrowLeft"":27,""ArrowUp,ArrowRight"":15,""ArrowDown,ArrowLeft"":21,""ArrowDown,ArrowRight"":7}","true","ArrowDown,ArrowLeft","","","","revaluation","1","18","","",""
"html-keyboard-response","236","1025201","0.0-4.0-4.0-1.9","spark_pilot_2","7293","2","10","Female","","","","","","","null","<div style=""font-size:60px;"">+</div>","null","fixation","","","","","","","","","","","19","","",""
"revaluation","237","1029220","0.0-4.0-4.0-0.10","spark_pilot_2","7293","2","10","Female","","false","","","","","[685.8000000119209]","./assets/img/ocean/animals/seahorse.jpg","[""ArrowLeft""]","revaluation","ocean","27","{""ArrowUp,ArrowLeft"":27,""ArrowUp,ArrowRight"":15,""ArrowDown,ArrowLeft"":21,""ArrowDown,ArrowRight"":7}","true","ArrowUp,ArrowLeft","","","","revaluation","1","20","","",""
"html-keyboard-response","238","1029731","0.0-4.0-4.0-1.10","spark_pilot_2","7293","2","10","Female","","","","","","","null","<div style=""font-size:60px;"">+</div>","null","fixation","","","","","","","","","","","21","","",""
"revaluation","239","1033748","0.0-4.0-4.0-0.11","spark_pilot_2","7293","2","10","Female","","false","","","","","[780.9000000059605]","./assets/img/ocean/animals/octopus.jpg","[""ArrowLeft""]","revaluation","ocean","21","{""ArrowUp,ArrowLeft"":27,""ArrowUp,ArrowRight"":15,""ArrowDown,ArrowLeft"":21,""ArrowDown,ArrowRight"":7}","true","ArrowDown,ArrowLeft","","","","revaluation","1","22","","",""
"html-keyboard-response","240","1034252","0.0-4.0-4.0-1.11","spark_pilot_2","7293","2","10","Female","","","","","","","null","<div style=""font-size:60px;"">+</div>","null","fixation","","","","","","","","","","","23","","",""
"revaluation","241","1038269","0.0-4.0-4.0-0.12","spark_pilot_2","7293","2","10","Female","","false","","","","","[458.39999997615814]","./assets/img/ocean/animals/octopus.jpg","[""ArrowLeft""]","revaluation","ocean","21","{""ArrowUp,ArrowLeft"":27,""ArrowUp,ArrowRight"":15,""ArrowDown,ArrowLeft"":21,""ArrowDown,ArrowRight"":7}","true","ArrowDown,ArrowLeft","","","","revaluation","1","24","","",""
"html-keyboard-response","242","1038780","0.0-4.0-4.0-1.12","spark_pilot_2","7293","2","10","Female","","","","","","","null","<div style=""font-size:60px;"">+</div>","null","fixation","","","","","","","","","","","25","","",""
"revaluation","243","1042798","0.0-4.0-4.0-0.13","spark_pilot_2","7293","2","10","Female","","false","","","","","[452.09999999403954]","./assets/img/ocean/animals/seahorse.jpg","[""ArrowLeft""]","revaluation","ocean","27","{""ArrowUp,ArrowLeft"":27,""ArrowUp,ArrowRight"":15,""ArrowDown,ArrowLeft"":21,""ArrowDown,ArrowRight"":7}","true","ArrowUp,ArrowLeft","","","","revaluation","1","26","","",""
"html-keyboard-response","244","1043301","0.0-4.0-4.0-1.13","spark_pilot_2","7293","2","10","Female","","","","","","","null","<div style=""font-size:60px;"">+</div>","null","fixation","","","","","","","","","","","27","","",""
"revaluation","245","1047329","0.0-4.0-4.0-0.14","spark_pilot_2","7293","2","10","Female","","false","","","","","[447.5]","./assets/img/ocean/animals/seahorse.jpg","[""ArrowLeft""]","revaluation","ocean","27","{""ArrowUp,ArrowLeft"":27,""ArrowUp,ArrowRight"":15,""ArrowDown,ArrowLeft"":21,""ArrowDown,ArrowRight"":7}","true","ArrowUp,ArrowLeft","","","","revaluation","1","28","","",""
"html-keyboard-response","246","1047833","0.0-4.0-4.0-1.14","spark_pilot_2","7293","2","10","Female","","","","","","","null","<div style=""font-size:60px;"">+</div>","null","fixation","","","","","","","","","","","29","","",""
"revaluation","247","1051848","0.0-4.0-4.0-0.15","spark_pilot_2","7293","2","10","Female","","false","","","","","[498.59999999403954]","./assets/img/ocean/animals/seahorse.jpg","[""ArrowLeft""]","revaluation","ocean","27","{""ArrowUp,ArrowLeft"":27,""ArrowUp,ArrowRight"":15,""ArrowDown,ArrowLeft"":21,""ArrowDown,ArrowRight"":7}","true","ArrowUp,ArrowLeft","","","","revaluation","1","30","","",""
"html-keyboard-response","248","1052351","0.0-4.0-4.0-1.15","spark_pilot_2","7293","2","10","Female","","","","","","","null","<div style=""font-size:60px;"">+</div>","null","fixation","","","","","","","","","","","31","","",""
"revaluation","249","1056363","0.0-4.0-4.0-0.16","spark_pilot_2","7293","2","10","Female","","false","","","","","[522.4000000059605]","./assets/img/ocean/animals/octopus.jpg","[""ArrowLeft""]","revaluation","ocean","21","{""ArrowUp,ArrowLeft"":27,""ArrowUp,ArrowRight"":15,""ArrowDown,ArrowLeft"":21,""ArrowDown,ArrowRight"":7}","true","ArrowDown,ArrowLeft","","","","revaluation","1","32","","",""
"html-keyboard-response","250","1056868","0.0-4.0-4.0-1.16","spark_pilot_2","7293","2","10","Female","","","","","","","null","<div style=""font-size:60px;"">+</div>","null","fixation","","","","","","","","","","","33","","",""
"revaluation","251","1060883","0.0-4.0-4.0-0.17","spark_pilot_2","7293","2","10","Female","","false","","","","","[505.7999999821186]","./assets/img/ocean/animals/octopus.jpg","[""ArrowLeft""]","revaluation","ocean","21","{""ArrowUp,ArrowLeft"":27,""ArrowUp,ArrowRight"":15,""ArrowDown,ArrowLeft"":21,""ArrowDown,ArrowRight"":7}","true","ArrowDown,ArrowLeft","","","","revaluation","1","34","","",""
"html-keyboard-response","252","1061385","0.0-4.0-4.0-1.17","spark_pilot_2","7293","2","10","Female","","","","","","","null","<div style=""font-size:60px;"">+</div>","null","fixation","","","","","","","","","","","35","","",""
"learning-instructions","253","1073761","0.0-4.0-5.0-0.0","spark_pilot_2","7293","2","10","Female","","","","","","","908.5999999940395","<p> Time to play the dot game! </p>
            <p> For one minute, click the red dots on the following screen as they appear. </p>
            <p><b> Don't look away, as you will earn bonus for clicking dots</b>. </p>","","instructions","","","","","","","","","","","","","",""
"revaluation","254","1133775","0.0-4.0-6.0-0.0","spark_pilot_2","7293","2","10","Female","","","","","","","[80,72,57,65,72,71,96]","","","rest","","70","","","","","0","60000","","","","","",""
"learning-instructions","255","1141823","0.0-4.0-7.0-0.0","spark_pilot_2","7293","2","10","Female","","","","","","","1881.5","<p> You have almost finished this part of the game! </p>
            <p> We are going to ask you to make a few more choices. </p>","","instructions","","","","","","","","","","","","","",""
"learning-instructions","256","1156972","0.0-4.0-7.0-0.1","spark_pilot_2","7293","2","10","Female","","","","","","","1180.9000000059605","<p> First, you need to decide whether to go up or down. When you see each picture, use the arrow keys to make your choice. </p>
            <p><b>You will not see which animal you found, but try to get to the one that will give you the most treasure.</b></p>","","instructions","","","","","","","","","","","","","",""
"revaluation","257","1159002","0.0-4.0-8.0-0.0","spark_pilot_2","7293","2","10","Female","","false","","","","","[2026.0999999940395]","./assets/img/ocean/test/3.jpg","[""ArrowUp""]","first stage test","ocean","0","{""ArrowUp,ArrowLeft"":27,""ArrowUp,ArrowRight"":15,""ArrowDown,ArrowLeft"":21,""ArrowDown,ArrowRight"":7}","true","ArrowUp","false","","","revaluation","1","","","",""
"html-keyboard-response","258","1159507","0.0-4.0-8.0-1.0","spark_pilot_2","7293","2","10","Female","","","","","","","null","<div style=""font-size:60px;"">+</div>","null","fixation","","","","","","","","","","","","","",""
"revaluation","259","1161658","0.0-4.0-8.0-0.1","spark_pilot_2","7293","2","10","Female","","false","","","","","[2136.199999988079]","./assets/img/ocean/test/2.jpg","[""ArrowDown""]","first stage test","ocean","0","{""ArrowUp,ArrowLeft"":27,""ArrowUp,ArrowRight"":15,""ArrowDown,ArrowLeft"":21,""ArrowDown,ArrowRight"":7}","false","ArrowDown","false","","","revaluation","1","","","",""
"html-keyboard-response","260","1162173","0.0-4.0-8.0-1.1","spark_pilot_2","7293","2","10","Female","","","","","","","null","<div style=""font-size:60px;"">+</div>","null","fixation","","","","","","","","","","","","","",""
"revaluation","261","1163423","0.0-4.0-8.0-0.2","spark_pilot_2","7293","2","10","Female","","false","","","","","[1238.1000000238419]","./assets/img/ocean/test/0.jpg","[""ArrowUp""]","first stage test","ocean","0","{""ArrowUp,ArrowLeft"":27,""ArrowUp,ArrowRight"":15,""ArrowDown,ArrowLeft"":21,""ArrowDown,ArrowRight"":7}","true","ArrowUp","false","","","revaluation","1","","","",""
"html-keyboard-response","262","1163935","0.0-4.0-8.0-1.2","spark_pilot_2","7293","2","10","Female","","","","","","","null","<div style=""font-size:60px;"">+</div>","null","fixation","","","","","","","","","","","","","",""
"revaluation","263","1164984","0.0-4.0-8.0-0.3","spark_pilot_2","7293","2","10","Female","","false","","","","","[1036]","./assets/img/ocean/test/1.jpg","[""ArrowDown""]","first stage test","ocean","0","{""ArrowUp,ArrowLeft"":27,""ArrowUp,ArrowRight"":15,""ArrowDown,ArrowLeft"":21,""ArrowDown,ArrowRight"":7}","false","ArrowDown","false","","","revaluation","1","","","",""
"html-keyboard-response","264","1165503","0.0-4.0-8.0-1.3","spark_pilot_2","7293","2","10","Female","","","","","","","null","<div style=""font-size:60px;"">+</div>","null","fixation","","","","","","","","","","","","","",""
"learning-instructions","265","1178582","0.0-4.0-9.0-0.0","spark_pilot_2","7293","2","10","Female","","","","","","","1741.2999999821186","<p> Now you will see the animals again and can search their chests for treasure. </p>
            <p> This time, you will not see how much treasure you earned, but you will earn more bonus money for making better choices. </p>","","instructions","","","","","","","","","","","","","",""
"revaluation","266","1181445","0.0-4.0-10.0-0.0","spark_pilot_2","7293","2","10","Female","","false","","","","","[2857.4000000059605]","./assets/img/ocean/animals/seahorse.jpg","[""ArrowRight""]","second stage test","ocean","0","{""ArrowUp,ArrowLeft"":27,""ArrowUp,ArrowRight"":15,""ArrowDown,ArrowLeft"":21,""ArrowDown,ArrowRight"":7}","false","ArrowUp,ArrowRight","","","","revaluation","1","","","",""
"html-keyboard-response","267","1181950","0.0-4.0-10.0-1.0","spark_pilot_2","7293","2","10","Female","","","","","","","null","<div style=""font-size:60px;"">+</div>","null","fixation","","","","","","","","","","","","","",""
"revaluation","268","1182514","0.0-4.0-10.0-0.1","spark_pilot_2","7293","2","10","Female","","false","","","","","[556.0999999940395]","./assets/img/ocean/animals/seahorse.jpg","[""ArrowRight""]","second stage test","ocean","0","{""ArrowUp,ArrowLeft"":27,""ArrowUp,ArrowRight"":15,""ArrowDown,ArrowLeft"":21,""ArrowDown,ArrowRight"":7}","false","ArrowUp,ArrowRight","","","","revaluation","1","","","",""
"html-keyboard-response","269","1183024","0.0-4.0-10.0-1.1","spark_pilot_2","7293","2","10","Female","","","","","","","null","<div style=""font-size:60px;"">+</div>","null","fixation","","","","","","","","","","","","","",""
"revaluation","270","1184736","0.0-4.0-10.0-0.2","spark_pilot_2","7293","2","10","Female","","false","","","","","[1708.9000000059605]","./assets/img/ocean/animals/seahorse.jpg","[""ArrowLeft""]","second stage test","ocean","0","{""ArrowUp,ArrowLeft"":27,""ArrowUp,ArrowRight"":15,""ArrowDown,ArrowLeft"":21,""ArrowDown,ArrowRight"":7}","true","ArrowUp,ArrowLeft","","","","revaluation","1","","","",""
"html-keyboard-response","271","1185252","0.0-4.0-10.0-1.2","spark_pilot_2","7293","2","10","Female","","","","","","","null","<div style=""font-size:60px;"">+</div>","null","fixation","","","","","","","","","","","","","",""
"revaluation","272","1187786","0.0-4.0-10.0-0.3","spark_pilot_2","7293","2","10","Female","","false","","","","","[2520.7000000178814]","./assets/img/ocean/animals/seahorse.jpg","[""ArrowLeft""]","second stage test","ocean","0","{""ArrowUp,ArrowLeft"":27,""ArrowUp,ArrowRight"":15,""ArrowDown,ArrowLeft"":21,""ArrowDown,ArrowRight"":7}","true","ArrowUp,ArrowLeft","","","","revaluation","1","","","",""
"html-keyboard-response","273","1188301","0.0-4.0-10.0-1.3","spark_pilot_2","7293","2","10","Female","","","","","","","null","<div style=""font-size:60px;"">+</div>","null","fixation","","","","","","","","","","","","","",""
"revaluation","274","1189838","0.0-4.0-10.0-0.4","spark_pilot_2","7293","2","10","Female","","false","","","","","[1520.9000000059605]","./assets/img/ocean/animals/octopus.jpg","[""ArrowRight""]","second stage test","ocean","0","{""ArrowUp,ArrowLeft"":27,""ArrowUp,ArrowRight"":15,""ArrowDown,ArrowLeft"":21,""ArrowDown,ArrowRight"":7}","false","ArrowDown,ArrowRight","","","","revaluation","1","","","",""
"html-keyboard-response","275","1190354","0.0-4.0-10.0-1.4","spark_pilot_2","7293","2","10","Female","","","","","","","null","<div style=""font-size:60px;"">+</div>","null","fixation","","","","","","","","","","","","","",""
"revaluation","276","1192511","0.0-4.0-10.0-0.5","spark_pilot_2","7293","2","10","Female","","false","","","","","[2142]","./assets/img/ocean/animals/octopus.jpg","[""ArrowRight""]","second stage test","ocean","0","{""ArrowUp,ArrowLeft"":27,""ArrowUp,ArrowRight"":15,""ArrowDown,ArrowLeft"":21,""ArrowDown,ArrowRight"":7}","false","ArrowDown,ArrowRight","","","","revaluation","1","","","",""
"html-keyboard-response","277","1193016","0.0-4.0-10.0-1.5","spark_pilot_2","7293","2","10","Female","","","","","","","null","<div style=""font-size:60px;"">+</div>","null","fixation","","","","","","","","","","","","","",""
"revaluation","278","1193474","0.0-4.0-10.0-0.6","spark_pilot_2","7293","2","10","Female","","false","","","","","[450.39999997615814]","./assets/img/ocean/animals/octopus.jpg","[""ArrowRight""]","second stage test","ocean","0","{""ArrowUp,ArrowLeft"":27,""ArrowUp,ArrowRight"":15,""ArrowDown,ArrowLeft"":21,""ArrowDown,ArrowRight"":7}","false","ArrowDown,ArrowRight","","","","revaluation","1","","","",""
"html-keyboard-response","279","1193979","0.0-4.0-10.0-1.6","spark_pilot_2","7293","2","10","Female","","","","","","","null","<div style=""font-size:60px;"">+</div>","null","fixation","","","","","","","","","","","","","",""
"revaluation","280","1194497","0.0-4.0-10.0-0.7","spark_pilot_2","7293","2","10","Female","","false","","","","","[506.80000001192093]","./assets/img/ocean/animals/octopus.jpg","[""ArrowRight""]","second stage test","ocean","0","{""ArrowUp,ArrowLeft"":27,""ArrowUp,ArrowRight"":15,""ArrowDown,ArrowLeft"":21,""ArrowDown,ArrowRight"":7}","false","ArrowDown,ArrowRight","","","","revaluation","1","","","",""
"html-keyboard-response","281","1195003","0.0-4.0-10.0-1.7","spark_pilot_2","7293","2","10","Female","","","","","","","null","<div style=""font-size:60px;"">+</div>","null","fixation","","","","","","","","","","","","","",""
"learning-instructions","282","1198786","0.0-4.0-0.1-0.2","spark_pilot_2","7293","2","10","Female","","","","","","","995.2999999821186","<p> This time you are searching for treasure in the <b>canyon</b>.</p>","","instructions","","","","","","","","","","","","","",""
"learning-instructions","283","1216860","0.0-4.0-0.1-0.3","spark_pilot_2","7293","2","10","Female","","","","","","","818.4000000059605","<p><b>New</b> animals with <b>new</b> treasure chests live here. You need to explore to discover where the animal with the best treasure chest is.</p>
                    <p> Like before, once you figure out which animal has the chest with the most treasure, you should try to get to that animal and select that chest! </p>","","instructions","","","","","","","","","","","","","",""
"learning-instructions","284","1232625","0.0-4.0-1.1-0.1","spark_pilot_2","7293","2","10","Female","","","","","","","1024.800000011921","<p> Remember, when you see a picture of the place, use the up and down keys to <b>find an animal</b>.</p>
            <p> When you encounter an animal, you should use the left and right keys to <b>select a treasure chest</b>.</p>
            <p> Don't forget to look out for the robber! </p>","","instructions","","","","","","","","","","","","","",""
"revaluation","285","1238650","0.0-4.0-2.1-0.50","spark_pilot_2","7293","2","10","Female","","false","","","","","[1009.1999999880791,1036.7999999821186]","./assets/img/canyon/memory/38.jpg","[""ArrowUp"",""ArrowRight""]","value training","canyon","10","{""ArrowUp,ArrowLeft"":26,""ArrowUp,ArrowRight"":10,""ArrowDown,ArrowLeft"":5,""ArrowDown,ArrowRight"":17}","false","ArrowUp,ArrowRight","false","","","original","2","0","","",""
"html-keyboard-response","286","1239162","0.0-4.0-2.1-1.50","spark_pilot_2","7293","2","10","Female","","","","","","","null","<div style=""font-size:60px;"">+</div>","null","fixation","","","","","","","","","","","1","","",""
"revaluation","287","1245191","0.0-4.0-2.1-0.51","spark_pilot_2","7293","2","10","Female","","false","","","","","[1628.2000000178814,766.2999999821186]","./assets/img/canyon/memory/9.jpg","[""ArrowUp"",""ArrowLeft""]","value training","canyon","26","{""ArrowUp,ArrowLeft"":26,""ArrowUp,ArrowRight"":10,""ArrowDown,ArrowLeft"":5,""ArrowDown,ArrowRight"":17}","true","ArrowUp,ArrowLeft","false","","","original","2","2","","",""
"html-keyboard-response","288","1245705","0.0-4.0-2.1-1.51","spark_pilot_2","7293","2","10","Female","","","","","","","null","<div style=""font-size:60px;"">+</div>","null","fixation","","","","","","","","","","","3","","",""
"revaluation","289","1251741","0.0-4.0-2.1-0.52","spark_pilot_2","7293","2","10","Female","","false","","","","","[1099.9000000059605,699.7000000178814]","./assets/img/canyon/memory/41.jpg","[""ArrowDown"",""ArrowRight""]","value training","canyon","17","{""ArrowUp,ArrowLeft"":26,""ArrowUp,ArrowRight"":10,""ArrowDown,ArrowLeft"":5,""ArrowDown,ArrowRight"":17}","false","ArrowDown,ArrowRight","false","","","original","2","4","","",""
"html-keyboard-response","290","1252257","0.0-4.0-2.1-1.52","spark_pilot_2","7293","2","10","Female","","","","","","","null","<div style=""font-size:60px;"">+</div>","null","fixation","","","","","","","","","","","5","","",""
"revaluation","291","1258303","0.0-4.0-2.1-0.53","spark_pilot_2","7293","2","10","Female","","false","","","","","[1287.4000000059605,919.1999999880791]","./assets/img/canyon/memory/20.jpg","[""ArrowDown"",""ArrowLeft""]","value training","canyon","5","{""ArrowUp,ArrowLeft"":26,""ArrowUp,ArrowRight"":10,""ArrowDown,ArrowLeft"":5,""ArrowDown,ArrowRight"":17}","false","ArrowDown,ArrowLeft","false","","","original","2","6","","",""
"html-keyboard-response","292","1258816","0.0-4.0-2.1-1.53","spark_pilot_2","7293","2","10","Female","","","","","","","null","<div style=""font-size:60px;"">+</div>","null","fixation","","","","","","","","","","","7","","",""
"revaluation","293","1264838","0.0-4.0-2.1-0.54","spark_pilot_2","7293","2","10","Female","","false","","","","","[1003.0999999940395,694]","./assets/img/canyon/memory/3.jpg","[""ArrowUp"",""ArrowLeft""]","value training","canyon","26","{""ArrowUp,ArrowLeft"":26,""ArrowUp,ArrowRight"":10,""ArrowDown,ArrowLeft"":5,""ArrowDown,ArrowRight"":17}","true","ArrowUp,ArrowLeft","false","","","original","2","8","","",""
"html-keyboard-response","294","1265343","0.0-4.0-2.1-1.54","spark_pilot_2","7293","2","10","Female","","","","","","","null","<div style=""font-size:60px;"">+</div>","null","fixation","","","","","","","","","","","9","","",""
"revaluation","295","1271360","0.0-4.0-2.1-0.55","spark_pilot_2","7293","2","10","Female","","false","","","","","[979.7999999821186,416]","./assets/img/canyon/memory/6.jpg","[""ArrowUp"",""ArrowLeft""]","value training","canyon","26","{""ArrowUp,ArrowLeft"":26,""ArrowUp,ArrowRight"":10,""ArrowDown,ArrowLeft"":5,""ArrowDown,ArrowRight"":17}","true","ArrowUp,ArrowLeft","false","","","original","2","10","","",""
"html-keyboard-response","296","1271863","0.0-4.0-2.1-1.55","spark_pilot_2","7293","2","10","Female","","","","","","","null","<div style=""font-size:60px;"">+</div>","null","fixation","","","","","","","","","","","11","","",""
"revaluation","297","1275881","0.0-4.0-2.1-0.56","spark_pilot_2","7293","2","10","Female","","false","","","","","[1018.8000000119209]","./assets/img/canyon/catch/2.jpg","[""spaceBar""]","value training","canyon","0","{""ArrowUp,ArrowLeft"":26,""ArrowUp,ArrowRight"":10,""ArrowDown,ArrowLeft"":5,""ArrowDown,ArrowRight"":17}","true","spaceBar","true","","","original","2","12","","",""
"html-keyboard-response","298","1276386","0.0-4.0-2.1-1.56","spark_pilot_2","7293","2","10","Female","","","","","","","null","<div style=""font-size:60px;"">+</div>","null","fixation","","","","","","","","","","","13","","",""
"revaluation","299","1282405","0.0-4.0-2.1-0.57","spark_pilot_2","7293","2","10","Female","","false","","","","","[1155.699999988079,408.7999999821186]","./assets/img/canyon/memory/0.jpg","[""ArrowUp"",""ArrowLeft""]","value training","canyon","26","{""ArrowUp,ArrowLeft"":26,""ArrowUp,ArrowRight"":10,""ArrowDown,ArrowLeft"":5,""ArrowDown,ArrowRight"":17}","true","ArrowUp,ArrowLeft","false","","","original","2","14","","",""
"html-keyboard-response","300","1282908","0.0-4.0-2.1-1.57","spark_pilot_2","7293","2","10","Female","","","","","","","null","<div style=""font-size:60px;"">+</div>","null","fixation","","","","","","","","","","","15","","",""
"revaluation","301","1288936","0.0-4.0-2.1-0.58","spark_pilot_2","7293","2","10","Female","","false","","","","","[1798.5,430.5]","./assets/img/canyon/memory/15.jpg","[""ArrowUp"",""ArrowLeft""]","value training","canyon","26","{""ArrowUp,ArrowLeft"":26,""ArrowUp,ArrowRight"":10,""ArrowDown,ArrowLeft"":5,""ArrowDown,ArrowRight"":17}","true","ArrowUp,ArrowLeft","false","","","original","2","16","","",""
"html-keyboard-response","302","1289439","0.0-4.0-2.1-1.58","spark_pilot_2","7293","2","10","Female","","","","","","","null","<div style=""font-size:60px;"">+</div>","null","fixation","","","","","","","","","","","17","","",""
"revaluation","303","1293455","0.0-4.0-2.1-0.59","spark_pilot_2","7293","2","10","Female","","false","","","","","[789.6000000238419]","./assets/img/canyon/catch/7.jpg","[""spaceBar""]","value training","canyon","0","{""ArrowUp,ArrowLeft"":26,""ArrowUp,ArrowRight"":10,""ArrowDown,ArrowLeft"":5,""ArrowDown,ArrowRight"":17}","true","spaceBar","true","","","original","2","18","","",""
"html-keyboard-response","304","1293960","0.0-4.0-2.1-1.59","spark_pilot_2","7293","2","10","Female","","","","","","","null","<div style=""font-size:60px;"">+</div>","null","fixation","","","","","","","","","","","19","","",""
"revaluation","305","1299978","0.0-4.0-2.1-0.60","spark_pilot_2","7293","2","10","Female","","false","","","","","[618.4000000059605,501.2999999821186]","./assets/img/canyon/memory/5.jpg","[""ArrowUp"",""ArrowLeft""]","value training","canyon","26","{""ArrowUp,ArrowLeft"":26,""ArrowUp,ArrowRight"":10,""ArrowDown,ArrowLeft"":5,""ArrowDown,ArrowRight"":17}","true","ArrowUp,ArrowLeft","false","","","original","2","20","","",""
