"trial_type","trial_index","time_elapsed","internal_node_id","task_version","subject_id","assigned_condition","age","gender","success","timeout","failed_images","failed_audio","failed_video","browser_interaction","rt","stimulus","response","task_part","environment","score","rewardMap","correct","fullState","isCatch","numberMissed","duration","condition","order","trial_num","key_press","ground_truth","bonus"
"pavlovia","0","957","0.0-0.0","spark_pilot_2","7144","2","9","Female","","","","","","","","","","","","","","","","","","","","","","","",""
"preload","1","35024","0.0-1.0","spark_pilot_2","7144","2","9","Female","true","false","[]","[]","[]","[{""event"":""fullscreenenter"",""trial"":2,""time"":57616}]","","","","","","","","","","","","","","","","","",""
"fullscreen","2","58571","0.0-2.0","spark_pilot_2","7144","2","9","Female","true","","","","","","","","","","","","","","","","","","","","","","",""
"audio-button-response","3","63420","0.0-3.0-0.0-0.0","spark_pilot_2","7144","2","9","Female","","","","","","","4520","./assets/audio/audiotest/turtle.mp3","4","audio_test","","","","","","","","","","","","","",""
"audio-button-response","4","66116","0.0-3.0-0.1-0.1","spark_pilot_2","7144","2","9","Female","","","","","","","1680","./assets/audio/audiotest/turtle.mp3","2","audio_test","","","","","","","","","","","","","",""
"learning-instructions","5","77132","0.0-3.0-1.0-0.0","spark_pilot_2","7144","2","9","Female","","","","","","","4029.60000000149","<p> Welcome! Please remember to stay in fullscreen mode and don't click away from the experiment. </p>","","instructions","","","","","","","","","","","","","",""
"learning-instructions","6","89369","0.0-3.0-1.0-0.1","spark_pilot_2","7144","2","9","Female","","","","","","","3818.599999997765","<p> Today you will be playing a game to earn treasure. </p>
            <p> At the end of the experiment, you will earn a bonus based on how much treasure you find. </p>
            <img src='./assets/img/instructions/treasure.jpg' class='instructions-image'>","","instructions","","","","","","","","","","","","","",""
"learning-instructions","7","99527","0.0-3.0-1.0-0.2","spark_pilot_2","7144","2","9","Female","","","","","","","1885.699999999255","<p> Animals have hidden treasure in treasure chests. </p>
            <p> You need to first find an animal and then choose which of their treasure chests to search. </p>
            <img src='./assets/img/space/animals/cat.jpg' class='instructions-image'>","","instructions","","","","","","","","","","","","","",""
"learning-instructions","8","115739","0.0-3.0-1.0-0.3","spark_pilot_2","7144","2","9","Female","","","","","","","3038.60000000149","<p> In each round, you will search for treasure in a different place. In the real game, there will be two rounds. </p>
            <p> You will begin with a separate, practice round where you will search for treasure in outer space. </p>
            <img src='./assets/img/space/0.jpg' class='instructions-image'>","","instructions","","","","","","","","","","","","","",""
"learning-instructions","9","130172","0.0-3.0-1.0-0.4","spark_pilot_2","7144","2","9","Female","","","","","","","3013.599999997765","<p> On every turn, you will see a picture of the place that you are in, but the specific image may be different each time. </p>
            <p> For example, both of these images mean you are in outer space. </p>
            <img src='./assets/img/instructions/outerspace.jpg' class='instructions-image'>","","instructions","","","","","","","","","","","","","",""
"learning-instructions","10","141044","0.0-3.0-1.0-0.5","spark_pilot_2","7144","2","9","Female","","","","","","","3033.300000000745","<p> You need to decide which direction to travel in. </p>
            <p> You can choose between going <b>up or down</b> by using the arrow keys. </p>
            <img src='./assets/img/instructions/updown.jpg' class='instructions-image'>","","instructions","","","","","","","","","","","","","",""
"learning-instructions","11","151580","0.0-3.0-1.0-0.6","spark_pilot_2","7144","2","9","Female","","","","","","","1710.199999999255","<p> You will have <b>2 seconds</b> to make your choice. </p>
            <p> If you do not make a choice within 2 seconds, you will not find an animal or earn treasure. </p>
            <img src='./assets/img/instructions/2seconds.jpg' class='instructions-image'>","","instructions","","","","","","","","","","","","","",""
"learning-instructions","12","160220","0.0-3.0-1.0-0.7","spark_pilot_2","7144","2","9","Female","","","","","","","1600.800000000745","<p> Let’s try practicing that now! </p>
            <p> When you see a picture of the place you are in, press the <b>up</b> key to travel up. </p>
            <img src='./assets/img/instructions/pressUp.jpg' class='instructions-image'>","","instructions","","","","","","","","","","","","","",""
"revaluation","13","164258","0.0-3.0-2.0-0.0","spark_pilot_2","7144","2","9","Female","","false","","","","","[937.3999999985099]","./assets/img/space/0.jpg","[""ArrowUp""]","first stage practice","space","0","null","null","ArrowUp","false","","","","","","","",""
"html-keyboard-response","14","164777","0.0-3.0-2.0-1.0","spark_pilot_2","7144","2","9","Female","","","","","","","null","<div style=""font-size:60px;"">+</div>","null","fixation","","","","","","","","","","","","","",""
"revaluation","15","168817","0.0-3.0-2.0-0.1","spark_pilot_2","7144","2","9","Female","","false","","","","","[851.1999999992549]","./assets/img/space/1.jpg","[""ArrowUp""]","first stage practice","space","0","null","null","ArrowUp","false","","","","","","","",""
"html-keyboard-response","16","169336","0.0-3.0-2.0-1.1","spark_pilot_2","7144","2","9","Female","","","","","","","null","<div style=""font-size:60px;"">+</div>","null","fixation","","","","","","","","","","","","","",""
"revaluation","17","173378","0.0-3.0-2.0-0.2","spark_pilot_2","7144","2","9","Female","","true","","","","","[]","./assets/img/space/2.jpg","[]","first stage practice","space","-5","null","null","","false","","","","","","","",""
"html-keyboard-response","18","173887","0.0-3.0-2.0-1.2","spark_pilot_2","7144","2","9","Female","","","","","","","null","<div style=""font-size:60px;"">+</div>","null","fixation","","","","","","","","","","","","","",""
"learning-instructions","19","180144","0.0-3.0-3.0-0.0","spark_pilot_2","7144","2","9","Female","","","","","","","1532.2999999970198","<p> Great job! Now try pressing the <b>down</b> key to travel down. </p>
            <img src='./assets/img/instructions/pressDown.jpg' class='instructions-image'>","","instructions","","","","","","","","","","","","","",""
"revaluation","20","184167","0.0-3.0-4.0-0.0","spark_pilot_2","7144","2","9","Female","","false","","","","","[697.1000000014901]","./assets/img/space/3.jpg","[""ArrowDown""]","first stage practice","space","0","null","null","ArrowDown","false","","","","","","","",""
"html-keyboard-response","21","184677","0.0-3.0-4.0-1.0","spark_pilot_2","7144","2","9","Female","","","","","","","null","<div style=""font-size:60px;"">+</div>","null","fixation","","","","","","","","","","","","","",""
"revaluation","22","188707","0.0-3.0-4.0-0.1","spark_pilot_2","7144","2","9","Female","","false","","","","","[478.30000000074506]","./assets/img/space/4.jpg","[""ArrowDown""]","first stage practice","space","0","null","null","ArrowDown","false","","","","","","","",""
"html-keyboard-response","23","189228","0.0-3.0-4.0-1.1","spark_pilot_2","7144","2","9","Female","","","","","","","null","<div style=""font-size:60px;"">+</div>","null","fixation","","","","","","","","","","","","","",""
"revaluation","24","193253","0.0-3.0-4.0-0.2","spark_pilot_2","7144","2","9","Female","","false","","","","","[380.5]","./assets/img/space/5.jpg","[""ArrowDown""]","first stage practice","space","0","null","null","ArrowDown","false","","","","","","","",""
"html-keyboard-response","25","193778","0.0-3.0-4.0-1.2","spark_pilot_2","7144","2","9","Female","","","","","","","null","<div style=""font-size:60px;"">+</div>","null","fixation","","","","","","","","","","","","","",""
"learning-instructions","26","205139","0.0-3.0-5.0-0.0","spark_pilot_2","7144","2","9","Female","","","","","","","1500.300000000745","<p> The animals don’t move, so the animal in the upper part of a place will stay in the upper part of a place, and the animal in the lower part of a place will stay in the lower part of a place. </p>","","instructions","","","","","","","","","","","","","",""
"learning-instructions","27","216331","0.0-3.0-5.0-0.1","spark_pilot_2","7144","2","9","Female","","","","","","","2051.60000000149","<p> Each animal has two treasure chests for you to choose from. </p>
            <p> The amount of treasure in each chest can range from <b> 0 to 40 pieces.</b></p>","","instructions","","","","","","","","","","","","","",""
"learning-instructions","28","232012","0.0-3.0-5.0-0.2","spark_pilot_2","7144","2","9","Female","","","","","","","4471.699999999255","<p> You should decide which chest to search for treasure by using the <b>left</b> and <b>right</b> arrow keys. </p>
            <p><b> Pay attention to which animal is on the screen, as the animals have different treasure chests. </b></p>
            <img src='./assets/img/instructions/leftright.jpg' class='instructions-image'>","","instructions","","","","","","","","","","","","","",""
"learning-instructions","29","239462","0.0-3.0-5.0-0.3","spark_pilot_2","7144","2","9","Female","","","","","","","1073.300000000745","<p> Let’s try practicing that now. </p>
            <p> When you see an animal, choose which chest to search for treasure. </p>
            <img src='./assets/img/instructions/chooseChest.jpg' class='instructions-image'>","","instructions","","","","","","","","","","","","","",""
"revaluation","30","243489","0.0-3.0-6.0-0.0","spark_pilot_2","7144","2","9","Female","","false","","","","","[608.1999999992549]","./assets/img/space/animals/rabbit.jpg","[""ArrowRight""]","second stage practice","space","23","{""ArrowUp,ArrowLeft"":3,""ArrowUp,ArrowRight"":36,""ArrowDown,ArrowLeft"":15,""ArrowDown,ArrowRight"":23}","true","ArrowDown,ArrowRight","","","","","","","","",""
"html-keyboard-response","31","244006","0.0-3.0-6.0-1.0","spark_pilot_2","7144","2","9","Female","","","","","","","null","<div style=""font-size:60px;"">+</div>","null","fixation","","","","","","","","","","","","","",""
"revaluation","32","248038","0.0-3.0-6.0-0.1","spark_pilot_2","7144","2","9","Female","","false","","","","","[597.9000000022352]","./assets/img/space/animals/rabbit.jpg","[""ArrowRight""]","second stage practice","space","23","{""ArrowUp,ArrowLeft"":3,""ArrowUp,ArrowRight"":36,""ArrowDown,ArrowLeft"":15,""ArrowDown,ArrowRight"":23}","true","ArrowDown,ArrowRight","","","","","","","","",""
"html-keyboard-response","33","248557","0.0-3.0-6.0-1.1","spark_pilot_2","7144","2","9","Female","","","","","","","null","<div style=""font-size:60px;"">+</div>","null","fixation","","","","","","","","","","","","","",""
"revaluation","34","252588","0.0-3.0-6.0-0.2","spark_pilot_2","7144","2","9","Female","","false","","","","","[465.4000000022352]","./assets/img/space/animals/cat.jpg","[""ArrowLeft""]","second stage practice","space","3","{""ArrowUp,ArrowLeft"":3,""ArrowUp,ArrowRight"":36,""ArrowDown,ArrowLeft"":15,""ArrowDown,ArrowRight"":23}","false","ArrowUp,ArrowLeft","","","","","","","","",""
"html-keyboard-response","35","253097","0.0-3.0-6.0-1.2","spark_pilot_2","7144","2","9","Female","","","","","","","null","<div style=""font-size:60px;"">+</div>","null","fixation","","","","","","","","","","","","","",""
"revaluation","36","257127","0.0-3.0-6.0-0.3","spark_pilot_2","7144","2","9","Female","","false","","","","","[395.69999999925494]","./assets/img/space/animals/cat.jpg","[""ArrowRight""]","second stage practice","space","36","{""ArrowUp,ArrowLeft"":3,""ArrowUp,ArrowRight"":36,""ArrowDown,ArrowLeft"":15,""ArrowDown,ArrowRight"":23}","true","ArrowUp,ArrowRight","","","","","","","","",""
"html-keyboard-response","37","257647","0.0-3.0-6.0-1.3","spark_pilot_2","7144","2","9","Female","","","","","","","null","<div style=""font-size:60px;"">+</div>","null","fixation","","","","","","","","","","","","","",""
"learning-instructions","38","275626","0.0-3.0-7.0-0.0","spark_pilot_2","7144","2","9","Female","","","","","","","1146.699999999255","<p> Great job. Now let’s try putting it together. </p>
            <p> On each turn, you will first see a picture to remind you of the place you are in, and you need to choose whether to go up or down. </p>
            <p> Then you will see an animal and choose which of its chests to search for treasure. </p>","","instructions","","","","","","","","","","","","","",""
"learning-instructions","39","285072","0.0-3.0-7.0-0.1","spark_pilot_2","7144","2","9","Female","","","","","","","1173.0999999977648","<p> When you choose whether to go up or down, try to go to the animal with the chest with the most treasure. </p>
            <p> Try practicing that now! </p>","","instructions","","","","","","","","","","","","","",""
"revaluation","40","291117","0.0-3.0-8.0-0.0","spark_pilot_2","7144","2","9","Female","","false","","","","","[551.3999999985099,434.8999999985099]","./assets/img/space/6.jpg","[""ArrowDown"",""ArrowRight""]","full practice","space","23","{""ArrowUp,ArrowLeft"":3,""ArrowUp,ArrowRight"":36,""ArrowDown,ArrowLeft"":15,""ArrowDown,ArrowRight"":23}","false","ArrowDown,ArrowRight","false","","","","","","","",""
"html-keyboard-response","41","291637","0.0-3.0-8.0-1.0","spark_pilot_2","7144","2","9","Female","","","","","","","null","<div style=""font-size:60px;"">+</div>","null","fixation","","","","","","","","","","","","","",""
"revaluation","42","297678","0.0-3.0-8.0-0.1","spark_pilot_2","7144","2","9","Female","","false","","","","","[477.19999999925494,522.6999999992549]","./assets/img/space/7.jpg","[""ArrowUp"",""ArrowRight""]","full practice","space","36","{""ArrowUp,ArrowLeft"":3,""ArrowUp,ArrowRight"":36,""ArrowDown,ArrowLeft"":15,""ArrowDown,ArrowRight"":23}","true","ArrowUp,ArrowRight","false","","","","","","","",""
"html-keyboard-response","43","298186","0.0-3.0-8.0-1.1","spark_pilot_2","7144","2","9","Female","","","","","","","null","<div style=""font-size:60px;"">+</div>","null","fixation","","","","","","","","","","","","","",""
"revaluation","44","304218","0.0-3.0-8.0-0.2","spark_pilot_2","7144","2","9","Female","","false","","","","","[538.6999999992549,636.9000000022352]","./assets/img/space/8.jpg","[""ArrowUp"",""ArrowRight""]","full practice","space","36","{""ArrowUp,ArrowLeft"":3,""ArrowUp,ArrowRight"":36,""ArrowDown,ArrowLeft"":15,""ArrowDown,ArrowRight"":23}","true","ArrowUp,ArrowRight","false","","","","","","","",""
"html-keyboard-response","45","304727","0.0-3.0-8.0-1.2","spark_pilot_2","7144","2","9","Female","","","","","","","null","<div style=""font-size:60px;"">+</div>","null","fixation","","","","","","","","","","","","","",""
"revaluation","46","310748","0.0-3.0-8.0-0.3","spark_pilot_2","7144","2","9","Female","","false","","","","","[407.6000000014901,415]","./assets/img/space/9.jpg","[""ArrowUp"",""ArrowRight""]","full practice","space","36","{""ArrowUp,ArrowLeft"":3,""ArrowUp,ArrowRight"":36,""ArrowDown,ArrowLeft"":15,""ArrowDown,ArrowRight"":23}","true","ArrowUp,ArrowRight","false","","","","","","","",""
"html-keyboard-response","47","311256","0.0-3.0-8.0-1.3","spark_pilot_2","7144","2","9","Female","","","","","","","null","<div style=""font-size:60px;"">+</div>","null","fixation","","","","","","","","","","","","","",""
"revaluation","48","317273","0.0-3.0-8.0-0.4","spark_pilot_2","7144","2","9","Female","","false","","","","","[493.5999999977648,435.1000000014901]","./assets/img/space/10.jpg","[""ArrowUp"",""ArrowRight""]","full practice","space","36","{""ArrowUp,ArrowLeft"":3,""ArrowUp,ArrowRight"":36,""ArrowDown,ArrowLeft"":15,""ArrowDown,ArrowRight"":23}","true","ArrowUp,ArrowRight","false","","","","","","","",""
"html-keyboard-response","49","317775","0.0-3.0-8.0-1.4","spark_pilot_2","7144","2","9","Female","","","","","","","null","<div style=""font-size:60px;"">+</div>","null","fixation","","","","","","","","","","","","","",""
"learning-instructions","50","329100","0.0-3.0-9.0-0.0","spark_pilot_2","7144","2","9","Female","","","","","","","923.8000000007451","<p> One last thing: sometimes, you will see a robber. The robber can be anywhere in the picture. </p>
            <p> If you do not stop them, you will lose treasure. </p>
            <img src='./assets/img/instructions/robber.jpg' class='instructions-image'>","","instructions","","","","","","","","","","","","","",""
"learning-instructions","51","337568","0.0-3.0-9.0-0.1","spark_pilot_2","7144","2","9","Female","","","","","","","1282.8999999985099","<p> If you see the robber, you should <b>press the space bar</b> rather than using the arrow keys. </p>
            <p> Try practicing that now! </p>","","instructions","","","","","","","","","","","","","",""
"revaluation","52","341593","0.0-3.0-10.0-0.0","spark_pilot_2","7144","2","9","Female","","false","","","","","[458]","./assets/img/space/catch/0.jpg","[""spaceBar""]","catch practice","space","0","{""ArrowUp,ArrowLeft"":3,""ArrowUp,ArrowRight"":36,""ArrowDown,ArrowLeft"":15,""ArrowDown,ArrowRight"":23}","true","spaceBar","true","","","","","","","",""
"html-keyboard-response","53","342099","0.0-3.0-10.0-1.0","spark_pilot_2","7144","2","9","Female","","","","","","","null","<div style=""font-size:60px;"">+</div>","null","fixation","","","","","","","","","","","","","",""
"revaluation","54","346134","0.0-3.0-10.0-0.1","spark_pilot_2","7144","2","9","Female","","false","","","","","[609.3999999985099]","./assets/img/space/catch/1.jpg","[""spaceBar""]","catch practice","space","0","{""ArrowUp,ArrowLeft"":3,""ArrowUp,ArrowRight"":36,""ArrowDown,ArrowLeft"":15,""ArrowDown,ArrowRight"":23}","true","spaceBar","true","","","","","","","",""
"html-keyboard-response","55","346653","0.0-3.0-10.0-1.1","spark_pilot_2","7144","2","9","Female","","","","","","","null","<div style=""font-size:60px;"">+</div>","null","fixation","","","","","","","","","","","","","",""
"revaluation","56","350683","0.0-3.0-10.0-0.2","spark_pilot_2","7144","2","9","Female","","false","","","","","[418]","./assets/img/space/catch/2.jpg","[""spaceBar""]","catch practice","space","0","{""ArrowUp,ArrowLeft"":3,""ArrowUp,ArrowRight"":36,""ArrowDown,ArrowLeft"":15,""ArrowDown,ArrowRight"":23}","true","spaceBar","true","","","","","","","",""
"html-keyboard-response","57","351204","0.0-3.0-10.0-1.2","spark_pilot_2","7144","2","9","Female","","","","","","","null","<div style=""font-size:60px;"">+</div>","null","fixation","","","","","","","","","","","","","",""
"learning-instructions","58","367493","0.0-3.0-11.0-0.0","spark_pilot_2","7144","2","9","Female","","","","","","","2677.10000000149","<p> After you explore a place to find treasure, it will be time to play a different game. </p>
            <p> During this game, red dots will appear on the screen and fall down slowly. </p>
            <p><b> You must click on them before they reach the bottom. </b></p>
            <img src='./assets/img/instructions/dotGame.jpg' class='instructions-image'>","","instructions","","","","","","","","","","","","","",""
"learning-instructions","59","374478","0.0-3.0-11.0-0.1","spark_pilot_2","7144","2","9","Female","","","","","","","1310.2999999970198","<p> For every dot you click, you will earn additional treasure. </p>
            <p> Let’s try practicing that now. </p>","","instructions","","","","","","","","","","","","","",""
"revaluation","60","389485","0.0-3.0-12.0-0.0","spark_pilot_2","7144","2","9","Female","","","","","","","[87]","","","rest practice","","10","","","","","0","15000","","","","","",""
"learning-instructions","61","396445","0.0-3.0-13.0-0.0-0.0","spark_pilot_2","7144","2","9","Female","","","","","","","1678.5","<p> Now, you will practice a shortened version of the game to get a sense of how it all fits together. </p>","","instructions","","","","","","","","","","","","","",""
"learning-instructions","62","400458","0.0-3.0-13.0-0.0-0.1","spark_pilot_2","7144","2","9","Female","","","","","","","812.5999999977648","<p>This time you are searching for treasure in outer space.</p>","","instructions","","","","","","","","","","","","","",""
"learning-instructions","63","463328","0.0-3.0-13.0-1.0-0.0","spark_pilot_2","7144","2","9","Female","","","","","","","48082.300000000745","<p> Remember, when you see a picture of the place, use the up and down keys to <b>find an animal</b>.</p>
            <p> When you encounter an animal, you should use the left and right keys to <b>select a treasure chest</b>.</p>
            <p> Don't forget to look out for the robber! </p>","","instructions","","","","","","","","","","","","","",""
"revaluation","64","469333","0.0-3.0-13.0-2.0-0.0","spark_pilot_2","7144","2","9","Female","","false","","","","","[1765.4000000022352,752.5]","./assets/img/space/11.jpg","[""ArrowUp"",""ArrowRight""]","practice block","space","36","{""ArrowUp,ArrowLeft"":3,""ArrowUp,ArrowRight"":36,""ArrowDown,ArrowLeft"":15,""ArrowDown,ArrowRight"":23}","true","ArrowUp,ArrowRight","false","","","","","","","",""
"html-keyboard-response","65","469836","0.0-3.0-13.0-2.0-1.0","spark_pilot_2","7144","2","9","Female","","","","","","","null","<div style=""font-size:60px;"">+</div>","null","fixation","","","","","","","","","","","","","",""
"revaluation","66","475844","0.0-3.0-13.0-2.0-0.1","spark_pilot_2","7144","2","9","Female","","false","","","","","[983.3000000007451,377.19999999925494]","./assets/img/space/12.jpg","[""ArrowUp"",""ArrowRight""]","practice block","space","36","{""ArrowUp,ArrowLeft"":3,""ArrowUp,ArrowRight"":36,""ArrowDown,ArrowLeft"":15,""ArrowDown,ArrowRight"":23}","true","ArrowUp,ArrowRight","false","","","","","","","",""
"html-keyboard-response","67","476346","0.0-3.0-13.0-2.0-1.1","spark_pilot_2","7144","2","9","Female","","","","","","","null","<div style=""font-size:60px;"">+</div>","null","fixation","","","","","","","","","","","","","",""
"revaluation","68","482351","0.0-3.0-13.0-2.0-0.2","spark_pilot_2","7144","2","9","Female","","false","","","","","[651.7999999970198,365.6000000014901]","./assets/img/space/13.jpg","[""ArrowUp"",""ArrowRight""]","practice block","space","36","{""ArrowUp,ArrowLeft"":3,""ArrowUp,ArrowRight"":36,""ArrowDown,ArrowLeft"":15,""ArrowDown,ArrowRight"":23}","true","ArrowUp,ArrowRight","false","","","","","","","",""
"html-keyboard-response","69","482852","0.0-3.0-13.0-2.0-1.2","spark_pilot_2","7144","2","9","Female","","","","","","","null","<div style=""font-size:60px;"">+</div>","null","fixation","","","","","","","","","","","","","",""
"revaluation","70","488859","0.0-3.0-13.0-2.0-0.3","spark_pilot_2","7144","2","9","Female","","false","","","","","[767.8999999985099,424.9000000022352]","./assets/img/space/14.jpg","[""ArrowUp"",""ArrowRight""]","practice block","space","36","{""ArrowUp,ArrowLeft"":3,""ArrowUp,ArrowRight"":36,""ArrowDown,ArrowLeft"":15,""ArrowDown,ArrowRight"":23}","true","ArrowUp,ArrowRight","false","","","","","","","",""
"html-keyboard-response","71","489361","0.0-3.0-13.0-2.0-1.3","spark_pilot_2","7144","2","9","Female","","","","","","","null","<div style=""font-size:60px;"">+</div>","null","fixation","","","","","","","","","","","","","",""
"revaluation","72","495370","0.0-3.0-13.0-2.0-0.4","spark_pilot_2","7144","2","9","Female","","false","","","","","[858.5999999977648,386.29999999701977]","./assets/img/space/11.jpg","[""ArrowUp"",""ArrowLeft""]","practice block","space","3","{""ArrowUp,ArrowLeft"":3,""ArrowUp,ArrowRight"":36,""ArrowDown,ArrowLeft"":15,""ArrowDown,ArrowRight"":23}","false","ArrowUp,ArrowLeft","false","","","","","","","",""
"html-keyboard-response","73","495872","0.0-3.0-13.0-2.0-1.4","spark_pilot_2","7144","2","9","Female","","","","","","","null","<div style=""font-size:60px;"">+</div>","null","fixation","","","","","","","","","","","","","",""
"revaluation","74","501882","0.0-3.0-13.0-2.0-0.5","spark_pilot_2","7144","2","9","Female","","false","","","","","[450.0999999977648,648.7000000029802]","./assets/img/space/12.jpg","[""ArrowDown"",""ArrowRight""]","practice block","space","23","{""ArrowUp,ArrowLeft"":3,""ArrowUp,ArrowRight"":36,""ArrowDown,ArrowLeft"":15,""ArrowDown,ArrowRight"":23}","false","ArrowDown,ArrowRight","false","","","","","","","",""
"html-keyboard-response","75","502384","0.0-3.0-13.0-2.0-1.5","spark_pilot_2","7144","2","9","Female","","","","","","","null","<div style=""font-size:60px;"">+</div>","null","fixation","","","","","","","","","","","","","",""
"revaluation","76","508394","0.0-3.0-13.0-2.0-0.6","spark_pilot_2","7144","2","9","Female","","false","","","","","[1116.1000000014901,561.3000000007451]","./assets/img/space/13.jpg","[""ArrowDown"",""ArrowLeft""]","practice block","space","15","{""ArrowUp,ArrowLeft"":3,""ArrowUp,ArrowRight"":36,""ArrowDown,ArrowLeft"":15,""ArrowDown,ArrowRight"":23}","false","ArrowDown,ArrowLeft","false","","","","","","","",""
"html-keyboard-response","77","508895","0.0-3.0-13.0-2.0-1.6","spark_pilot_2","7144","2","9","Female","","","","","","","null","<div style=""font-size:60px;"">+</div>","null","fixation","","","","","","","","","","","","","",""
"revaluation","78","514903","0.0-3.0-13.0-2.0-0.7","spark_pilot_2","7144","2","9","Female","","false","","","","","[531.1000000014901,443.80000000074506]","./assets/img/space/14.jpg","[""ArrowUp"",""ArrowRight""]","practice block","space","36","{""ArrowUp,ArrowLeft"":3,""ArrowUp,ArrowRight"":36,""ArrowDown,ArrowLeft"":15,""ArrowDown,ArrowRight"":23}","true","ArrowUp,ArrowRight","false","","","","","","","",""
"html-keyboard-response","79","515405","0.0-3.0-13.0-2.0-1.7","spark_pilot_2","7144","2","9","Female","","","","","","","null","<div style=""font-size:60px;"">+</div>","null","fixation","","","","","","","","","","","","","",""
"revaluation","80","519410","0.0-3.0-13.0-2.0-0.8","spark_pilot_2","7144","2","9","Female","","false","","","","","[626.6999999992549]","./assets/img/space/catch/3.jpg","[""spaceBar""]","practice block","space","0","{""ArrowUp,ArrowLeft"":3,""ArrowUp,ArrowRight"":36,""ArrowDown,ArrowLeft"":15,""ArrowDown,ArrowRight"":23}","true","spaceBar","true","","","","","","","",""
"html-keyboard-response","81","519914","0.0-3.0-13.0-2.0-1.8","spark_pilot_2","7144","2","9","Female","","","","","","","null","<div style=""font-size:60px;"">+</div>","null","fixation","","","","","","","","","","","","","",""
"learning-instructions","82","537954","0.0-3.0-13.0-3.0-0.0","spark_pilot_2","7144","2","9","Female","","","","","","","5029.89999999851","<p> Now, you will travel with a friend who will choose whether you go up or down first. </p>
            <p> On these turns, you will just see the animal that they found. You will still get to choose which chest to search for treasure.</p>","","instructions","","","","","","","","","","","","","",""
"revaluation","83","541982","0.0-3.0-13.0-4.0-0.0","spark_pilot_2","7144","2","9","Female","","false","","","","","[677.2000000029802]","./assets/img/space/animals/rabbit.jpg","[""ArrowRight""]","practice block","space","23","{""ArrowUp,ArrowLeft"":3,""ArrowUp,ArrowRight"":36,""ArrowDown,ArrowLeft"":15,""ArrowDown,ArrowRight"":23}","true","ArrowDown,ArrowRight","","","","","","","","",""
"html-keyboard-response","84","542492","0.0-3.0-13.0-4.0-1.0","spark_pilot_2","7144","2","9","Female","","","","","","","null","<div style=""font-size:60px;"">+</div>","null","fixation","","","","","","","","","","","","","",""
"revaluation","85","546522","0.0-3.0-13.0-4.0-0.1","spark_pilot_2","7144","2","9","Female","","false","","","","","[392]","./assets/img/space/animals/cat.jpg","[""ArrowRight""]","practice block","space","36","{""ArrowUp,ArrowLeft"":3,""ArrowUp,ArrowRight"":36,""ArrowDown,ArrowLeft"":15,""ArrowDown,ArrowRight"":23}","true","ArrowUp,ArrowRight","","","","","","","","",""
"html-keyboard-response","86","547031","0.0-3.0-13.0-4.0-1.1","spark_pilot_2","7144","2","9","Female","","","","","","","null","<div style=""font-size:60px;"">+</div>","null","fixation","","","","","","","","","","","","","",""
"revaluation","87","551062","0.0-3.0-13.0-4.0-0.2","spark_pilot_2","7144","2","9","Female","","false","","","","","[455.69999999925494]","./assets/img/space/animals/cat.jpg","[""ArrowRight""]","practice block","space","36","{""ArrowUp,ArrowLeft"":3,""ArrowUp,ArrowRight"":36,""ArrowDown,ArrowLeft"":15,""ArrowDown,ArrowRight"":23}","true","ArrowUp,ArrowRight","","","","","","","","",""
"html-keyboard-response","88","551572","0.0-3.0-13.0-4.0-1.2","spark_pilot_2","7144","2","9","Female","","","","","","","null","<div style=""font-size:60px;"">+</div>","null","fixation","","","","","","","","","","","","","",""
"revaluation","89","555601","0.0-3.0-13.0-4.0-0.3","spark_pilot_2","7144","2","9","Female","","false","","","","","[531.8000000007451]","./assets/img/space/animals/rabbit.jpg","[""ArrowRight""]","practice block","space","23","{""ArrowUp,ArrowLeft"":3,""ArrowUp,ArrowRight"":36,""ArrowDown,ArrowLeft"":15,""ArrowDown,ArrowRight"":23}","true","ArrowDown,ArrowRight","","","","","","","","",""
"html-keyboard-response","90","556106","0.0-3.0-13.0-4.0-1.3","spark_pilot_2","7144","2","9","Female","","","","","","","null","<div style=""font-size:60px;"">+</div>","null","fixation","","","","","","","","","","","","","",""
"learning-instructions","91","565151","0.0-3.0-13.0-5.0-0.0","spark_pilot_2","7144","2","9","Female","","","","","","","1677","<p> Time to play the dot game! </p>
            <p> For 15 seconds, click the red dots on the following screen as they appear. </p>","","instructions","","","","","","","","","","","","","",""
"revaluation","92","580152","0.0-3.0-13.0-6.0-0.0","spark_pilot_2","7144","2","9","Female","","","","","","","[79]","","","rest practice","","10","","","","","0","15000","","","","","",""
"learning-instructions","93","587760","0.0-3.0-13.0-7.0-0.0","spark_pilot_2","7144","2","9","Female","","","","","","","1458","<p> You have almost finished this part of the game! </p>
            <p> We are going to ask you to make a few more choices. </p>","","instructions","","","","","","","","","","","","","",""
"learning-instructions","94","603228","0.0-3.0-13.0-7.0-0.1","spark_pilot_2","7144","2","9","Female","","","","","","","1445.300000000745","<p> First, you need to decide whether to go up or down. When you see each picture, use the arrow keys to make your choice. </p>
            <p><b>You will not see which animal you found, but try to get to the one that will give you the most treasure.</b></p>","","instructions","","","","","","","","","","","","","",""
"revaluation","95","604174","0.0-3.0-13.0-8.0","spark_pilot_2","7144","2","9","Female","","false","","","","","[941.6000000014901]","./assets/img/space/15.jpg","[""ArrowUp""]","practice block","space","0","{""ArrowUp,ArrowLeft"":3,""ArrowUp,ArrowRight"":36,""ArrowDown,ArrowLeft"":15,""ArrowDown,ArrowRight"":23}","true","ArrowUp","false","","","","","","","",""
"html-keyboard-response","96","604681","0.0-3.0-13.0-9.0","spark_pilot_2","7144","2","9","Female","","","","","","","null","<div style=""font-size:60px;"">+</div>","null","fixation","","","","","","","","","","","","","",""
"learning-instructions","97","617862","0.0-3.0-13.0-10.0-0.0","spark_pilot_2","7144","2","9","Female","","","","","","","1798.5","<p> Now you will see the animals again and can search their chests for treasure. </p>
            <p> This time, you will not see how much treasure you earned, but you will earn more bonus money for making better choices. </p>","","instructions","","","","","","","","","","","","","",""
"revaluation","98","618499","0.0-3.0-13.0-11.0-0.0","spark_pilot_2","7144","2","9","Female","","false","","","","","[633.3999999985099]","./assets/img/space/animals/cat.jpg","[""ArrowRight""]","practice block","space","0","{""ArrowUp,ArrowLeft"":3,""ArrowUp,ArrowRight"":36,""ArrowDown,ArrowLeft"":15,""ArrowDown,ArrowRight"":23}","true","ArrowUp,ArrowRight","","","","","","","","",""
"html-keyboard-response","99","619011","0.0-3.0-13.0-11.0-1.0","spark_pilot_2","7144","2","9","Female","","","","","","","null","<div style=""font-size:60px;"">+</div>","null","fixation","","","","","","","","","","","","","",""
"revaluation","100","619896","0.0-3.0-13.0-11.0-0.1","spark_pilot_2","7144","2","9","Female","","false","","","","","[881.6999999992549]","./assets/img/space/animals/rabbit.jpg","[""ArrowRight""]","practice block","space","0","{""ArrowUp,ArrowLeft"":3,""ArrowUp,ArrowRight"":36,""ArrowDown,ArrowLeft"":15,""ArrowDown,ArrowRight"":23}","true","ArrowDown,ArrowRight","","","","","","","","",""
"html-keyboard-response","101","620411","0.0-3.0-13.0-11.0-1.1","spark_pilot_2","7144","2","9","Female","","","","","","","null","<div style=""font-size:60px;"">+</div>","null","fixation","","","","","","","","","","","","","",""
"learning-instructions","102","626532","0.0-3.0-14.0-0.0","spark_pilot_2","7144","2","9","Female","","","","","","","1499.699999999255","<p> Before you start, we're going to ask you a few questions about how the game works. </p>","","instructions","","","","","","","","","","","","","",""
"comp-q","103","633461","0.0-3.0-15.0-0.0-0.0","spark_pilot_2","7144","2","9","Female","","","","","","","1327.800000000745","<p> <b> True or False? </b> </p>
            <p> There can be 50 pieces of treasure in a given animal's chest. </p>","0","comp_question","","","","false","","","","","","","","","",""
"comp-q","104","641504","0.0-3.0-15.0-0.0-1.0","spark_pilot_2","7144","2","9","Female","","","","","","","1521.9000000022352","<p> <b>Incorrect.</b> The amount of treasure in each chest can range from 0 to 40 pieces. </p>","0","comp_answer","","","","","","","","","","","","","",""
"comp-q","105","649034","0.0-3.0-15.0-0.1-0.1","spark_pilot_2","7144","2","9","Female","","","","","","","1971.199999999255","<p> <b> True or False? </b> </p>
            <p> There can be 50 pieces of treasure in a given animal's chest. </p>","1","comp_question","","","","true","","","","","","","","","",""
"comp-q","106","659484","0.0-3.0-15.0-0.1-1.1","spark_pilot_2","7144","2","9","Female","","","","","","","3780","<p> <b> That's right! </b> The amount of treasure in each chest can range from 0 to 40 pieces. </p>","0","comp_answer","","","","","","","","","","","","","",""
"comp-q","107","668404","0.0-3.0-15.0-0.2-0.2","spark_pilot_2","7144","2","9","Female","","","","","","","1789.4000000022352","<p> <b> True or False? </b> </p><p> In this game, all animals have the same amount of treasure in their left and right chests. </p>","1","comp_question","","","","true","","","","","","","","","",""
"comp-q","108","675002","0.0-3.0-15.0-0.2-1.2","spark_pilot_2","7144","2","9","Female","","","","","","","1347.699999999255","<p> <b> That's right! </b> Animals have different amounts of treasure in their treasure chests. </p>","0","comp_answer","","","","","","","","","","","","","",""
"comp-q","109","681860","0.0-3.0-15.0-0.3-0.3","spark_pilot_2","7144","2","9","Female","","","","","","","1007.6999999992549","<p> <b> True or False? </b> </p><p> The same animal will always be there if you go up in the same place. </p>","0","comp_question","","","","true","","","","","","","","","",""
"comp-q","110","689418","0.0-3.0-15.0-0.3-1.3","spark_pilot_2","7144","2","9","Female","","","","","","","1105.2999999970198","<p> <b> That's right! </b> One animal lives in the upper part and one lives in the lower part of every place. </p>","0","comp_answer","","","","","","","","","","","","","",""
"comp-q","111","696408","0.0-3.0-15.0-0.4-0.4","spark_pilot_2","7144","2","9","Female","","","","","","","1464.800000000745","<p> <b> True or False? </b> </p><p> If you see a different picture, it means you are in a new place. </p>","1","comp_question","","","","true","","","","","","","","","",""
"comp-q","112","709360","0.0-3.0-15.0-0.4-1.4","spark_pilot_2","7144","2","9","Female","","","","","","","1707.5999999977648","<p> <b> That's right! </b> Lots of different images may show the same place. For example,  you may see three different images that all remind you that you are in outer space. </p>","0","comp_answer","","","","","","","","","","","","","",""
"learning-instructions","113","720298","0.0-3.0-16.0-0.0","spark_pilot_2","7144","2","9","Female","","","","","","","1075.7999999970198","<p> Good job. Remember to do your best because the amount of treasure you earn will be converted into bonus money. </p>
            <p> It’s time to start the real game! </p>","","instructions","","","","","","","","","","","","","",""
"learning-instructions","114","724432","0.0-4.0-0.0-0.0","spark_pilot_2","7144","2","9","Female","","","","","","","1417.699999999255","<p> This time you are searching for treasure in the <b>ocean</b>.</p>","","instructions","","","","","","","","","","","","","",""
"learning-instructions","115","742773","0.0-4.0-0.0-0.1","spark_pilot_2","7144","2","9","Female","","","","","","","1029.800000000745","<p><b>New</b> animals with <b>new</b> treasure chests live here. You need to explore to discover where the animal with the best treasure chest is.</p>
                    <p> Like before, once you figure out which animal has the chest with the most treasure, you should try to get to that animal and select that chest! </p>","","instructions","","","","","","","","","","","","","",""
"learning-instructions","116","758964","0.0-4.0-1.0-0.0","spark_pilot_2","7144","2","9","Female","","","","","","","1460.199999999255","<p> Remember, when you see a picture of the place, use the up and down keys to <b>find an animal</b>.</p>
            <p> When you encounter an animal, you should use the left and right keys to <b>select a treasure chest</b>.</p>
            <p> Don't forget to look out for the robber! </p>","","instructions","","","","","","","","","","","","","",""
"revaluation","117","765013","0.0-4.0-2.0-0.0","spark_pilot_2","7144","2","9","Female","","false","","","","","[971.1999999992549,485]","./assets/img/ocean/memory/31.jpg","[""ArrowUp"",""ArrowRight""]","value training","ocean","10","{""ArrowUp,ArrowLeft"":23,""ArrowUp,ArrowRight"":10,""ArrowDown,ArrowLeft"":8,""ArrowDown,ArrowRight"":30}","false","ArrowUp,ArrowRight","false","","","revaluation","1","0","","",""
"html-keyboard-response","118","765536","0.0-4.0-2.0-1.0","spark_pilot_2","7144","2","9","Female","","","","","","","null","<div style=""font-size:60px;"">+</div>","null","fixation","","","","","","","","","","","1","","",""
"revaluation","119","771592","0.0-4.0-2.0-0.1","spark_pilot_2","7144","2","9","Female","","false","","","","","[372.5,586.5]","./assets/img/ocean/memory/35.jpg","[""ArrowUp"",""ArrowLeft""]","value training","ocean","23","{""ArrowUp,ArrowLeft"":23,""ArrowUp,ArrowRight"":10,""ArrowDown,ArrowLeft"":8,""ArrowDown,ArrowRight"":30}","false","ArrowUp,ArrowLeft","false","","","revaluation","1","2","","",""
"html-keyboard-response","120","772098","0.0-4.0-2.0-1.1","spark_pilot_2","7144","2","9","Female","","","","","","","null","<div style=""font-size:60px;"">+</div>","null","fixation","","","","","","","","","","","3","","",""
"revaluation","121","776121","0.0-4.0-2.0-0.2","spark_pilot_2","7144","2","9","Female","","false","","","","","[402.5]","./assets/img/ocean/catch/3.jpg","[""ArrowDown""]","value training","ocean","-10","{""ArrowUp,ArrowLeft"":23,""ArrowUp,ArrowRight"":10,""ArrowDown,ArrowLeft"":8,""ArrowDown,ArrowRight"":30}","false","ArrowDown","true","","","revaluation","1","4","","",""
"html-keyboard-response","122","776631","0.0-4.0-2.0-1.2","spark_pilot_2","7144","2","9","Female","","","","","","","null","<div style=""font-size:60px;"">+</div>","null","fixation","","","","","","","","","","","5","","",""
"revaluation","123","782672","0.0-4.0-2.0-0.3","spark_pilot_2","7144","2","9","Female","","false","","","","","[645.4000000022352,566.3999999985099]","./assets/img/ocean/memory/5.jpg","[""ArrowDown"",""ArrowRight""]","value training","ocean","30","{""ArrowUp,ArrowLeft"":23,""ArrowUp,ArrowRight"":10,""ArrowDown,ArrowLeft"":8,""ArrowDown,ArrowRight"":30}","true","ArrowDown,ArrowRight","false","","","revaluation","1","6","","",""
"html-keyboard-response","124","783181","0.0-4.0-2.0-1.3","spark_pilot_2","7144","2","9","Female","","","","","","","null","<div style=""font-size:60px;"">+</div>","null","fixation","","","","","","","","","","","7","","",""
"revaluation","125","789222","0.0-4.0-2.0-0.4","spark_pilot_2","7144","2","9","Female","","false","","","","","[1427.300000000745,480.80000000074506]","./assets/img/ocean/memory/14.jpg","[""ArrowDown"",""ArrowLeft""]","value training","ocean","8","{""ArrowUp,ArrowLeft"":23,""ArrowUp,ArrowRight"":10,""ArrowDown,ArrowLeft"":8,""ArrowDown,ArrowRight"":30}","false","ArrowDown,ArrowLeft","false","","","revaluation","1","8","","",""
"html-keyboard-response","126","789723","0.0-4.0-2.0-1.4","spark_pilot_2","7144","2","9","Female","","","","","","","null","<div style=""font-size:60px;"">+</div>","null","fixation","","","","","","","","","","","9","","",""
"revaluation","127","795739","0.0-4.0-2.0-0.5","spark_pilot_2","7144","2","9","Female","","false","","","","","[491.30000000074506,344.8999999985099]","./assets/img/ocean/memory/25.jpg","[""ArrowDown"",""ArrowRight""]","value training","ocean","30","{""ArrowUp,ArrowLeft"":23,""ArrowUp,ArrowRight"":10,""ArrowDown,ArrowLeft"":8,""ArrowDown,ArrowRight"":30}","true","ArrowDown,ArrowRight","false","","","revaluation","1","10","","",""
"html-keyboard-response","128","796240","0.0-4.0-2.0-1.5","spark_pilot_2","7144","2","9","Female","","","","","","","null","<div style=""font-size:60px;"">+</div>","null","fixation","","","","","","","","","","","11","","",""
"revaluation","129","802247","0.0-4.0-2.0-0.6","spark_pilot_2","7144","2","9","Female","","false","","","","","[596.3999999985099,467.3999999985099]","./assets/img/ocean/memory/23.jpg","[""ArrowDown"",""ArrowRight""]","value training","ocean","30","{""ArrowUp,ArrowLeft"":23,""ArrowUp,ArrowRight"":10,""ArrowDown,ArrowLeft"":8,""ArrowDown,ArrowRight"":30}","true","ArrowDown,ArrowRight","false","","","revaluation","1","12","","",""
"html-keyboard-response","130","802749","0.0-4.0-2.0-1.6","spark_pilot_2","7144","2","9","Female","","","","","","","null","<div style=""font-size:60px;"">+</div>","null","fixation","","","","","","","","","","","13","","",""
"revaluation","131","808761","0.0-4.0-2.0-0.7","spark_pilot_2","7144","2","9","Female","","false","","","","","[850.6999999992549,569.6999999992549]","./assets/img/ocean/memory/37.jpg","[""ArrowDown"",""ArrowRight""]","value training","ocean","30","{""ArrowUp,ArrowLeft"":23,""ArrowUp,ArrowRight"":10,""ArrowDown,ArrowLeft"":8,""ArrowDown,ArrowRight"":30}","true","ArrowDown,ArrowRight","false","","","revaluation","1","14","","",""
"html-keyboard-response","132","809264","0.0-4.0-2.0-1.7","spark_pilot_2","7144","2","9","Female","","","","","","","null","<div style=""font-size:60px;"">+</div>","null","fixation","","","","","","","","","","","15","","",""
"revaluation","133","815271","0.0-4.0-2.0-0.8","spark_pilot_2","7144","2","9","Female","","false","","","","","[711.7000000029802,453.5]","./assets/img/ocean/memory/27.jpg","[""ArrowDown"",""ArrowRight""]","value training","ocean","30","{""ArrowUp,ArrowLeft"":23,""ArrowUp,ArrowRight"":10,""ArrowDown,ArrowLeft"":8,""ArrowDown,ArrowRight"":30}","true","ArrowDown,ArrowRight","false","","","revaluation","1","16","","",""
"html-keyboard-response","134","815774","0.0-4.0-2.0-1.8","spark_pilot_2","7144","2","9","Female","","","","","","","null","<div style=""font-size:60px;"">+</div>","null","fixation","","","","","","","","","","","17","","",""
"revaluation","135","821781","0.0-4.0-2.0-0.9","spark_pilot_2","7144","2","9","Female","","false","","","","","[602.2000000029802,518.3000000007451]","./assets/img/ocean/memory/26.jpg","[""ArrowDown"",""ArrowRight""]","value training","ocean","30","{""ArrowUp,ArrowLeft"":23,""ArrowUp,ArrowRight"":10,""ArrowDown,ArrowLeft"":8,""ArrowDown,ArrowRight"":30}","true","ArrowDown,ArrowRight","false","","","revaluation","1","18","","",""
"html-keyboard-response","136","822283","0.0-4.0-2.0-1.9","spark_pilot_2","7144","2","9","Female","","","","","","","null","<div style=""font-size:60px;"">+</div>","null","fixation","","","","","","","","","","","19","","",""
"revaluation","137","828293","0.0-4.0-2.0-0.10","spark_pilot_2","7144","2","9","Female","","false","","","","","[585.2999999970198,557]","./assets/img/ocean/memory/0.jpg","[""ArrowDown"",""ArrowRight""]","value training","ocean","30","{""ArrowUp,ArrowLeft"":23,""ArrowUp,ArrowRight"":10,""ArrowDown,ArrowLeft"":8,""ArrowDown,ArrowRight"":30}","true","ArrowDown,ArrowRight","false","","","revaluation","1","20","","",""
"html-keyboard-response","138","828796","0.0-4.0-2.0-1.10","spark_pilot_2","7144","2","9","Female","","","","","","","null","<div style=""font-size:60px;"">+</div>","null","fixation","","","","","","","","","","","21","","",""
"revaluation","139","832806","0.0-4.0-2.0-0.11","spark_pilot_2","7144","2","9","Female","","false","","","","","[604.3999999985099]","./assets/img/ocean/catch/0.jpg","[""spaceBar""]","value training","ocean","0","{""ArrowUp,ArrowLeft"":23,""ArrowUp,ArrowRight"":10,""ArrowDown,ArrowLeft"":8,""ArrowDown,ArrowRight"":30}","true","spaceBar","true","","","revaluation","1","22","","",""
"html-keyboard-response","140","833308","0.0-4.0-2.0-1.11","spark_pilot_2","7144","2","9","Female","","","","","","","null","<div style=""font-size:60px;"">+</div>","null","fixation","","","","","","","","","","","23","","",""
"revaluation","141","837316","0.0-4.0-2.0-0.12","spark_pilot_2","7144","2","9","Female","","false","","","","","[912.5]","./assets/img/ocean/catch/2.jpg","[""spaceBar""]","value training","ocean","0","{""ArrowUp,ArrowLeft"":23,""ArrowUp,ArrowRight"":10,""ArrowDown,ArrowLeft"":8,""ArrowDown,ArrowRight"":30}","true","spaceBar","true","","","revaluation","1","24","","",""
"html-keyboard-response","142","837818","0.0-4.0-2.0-1.12","spark_pilot_2","7144","2","9","Female","","","","","","","null","<div style=""font-size:60px;"">+</div>","null","fixation","","","","","","","","","","","25","","",""
"revaluation","143","843826","0.0-4.0-2.0-0.13","spark_pilot_2","7144","2","9","Female","","false","","","","","[653.2000000029802,564.1999999992549]","./assets/img/ocean/memory/39.jpg","[""ArrowDown"",""ArrowRight""]","value training","ocean","30","{""ArrowUp,ArrowLeft"":23,""ArrowUp,ArrowRight"":10,""ArrowDown,ArrowLeft"":8,""ArrowDown,ArrowRight"":30}","true","ArrowDown,ArrowRight","false","","","revaluation","1","26","","",""
"html-keyboard-response","144","844329","0.0-4.0-2.0-1.13","spark_pilot_2","7144","2","9","Female","","","","","","","null","<div style=""font-size:60px;"">+</div>","null","fixation","","","","","","","","","","","27","","",""
"revaluation","145","850336","0.0-4.0-2.0-0.14","spark_pilot_2","7144","2","9","Female","","false","","","","","[575.9000000022352,461.69999999925494]","./assets/img/ocean/memory/0.jpg","[""ArrowDown"",""ArrowRight""]","value training","ocean","30","{""ArrowUp,ArrowLeft"":23,""ArrowUp,ArrowRight"":10,""ArrowDown,ArrowLeft"":8,""ArrowDown,ArrowRight"":30}","true","ArrowDown,ArrowRight","false","","","revaluation","1","28","","",""
"html-keyboard-response","146","850837","0.0-4.0-2.0-1.14","spark_pilot_2","7144","2","9","Female","","","","","","","null","<div style=""font-size:60px;"">+</div>","null","fixation","","","","","","","","","","","29","","",""
"revaluation","147","856858","0.0-4.0-2.0-0.15","spark_pilot_2","7144","2","9","Female","","false","","","","","[1269.7999999970198,483.1000000014901]","./assets/img/ocean/memory/26.jpg","[""ArrowDown"",""ArrowRight""]","value training","ocean","30","{""ArrowUp,ArrowLeft"":23,""ArrowUp,ArrowRight"":10,""ArrowDown,ArrowLeft"":8,""ArrowDown,ArrowRight"":30}","true","ArrowDown,ArrowRight","false","","","revaluation","1","30","","",""
"html-keyboard-response","148","857364","0.0-4.0-2.0-1.15","spark_pilot_2","7144","2","9","Female","","","","","","","null","<div style=""font-size:60px;"">+</div>","null","fixation","","","","","","","","","","","31","","",""
"revaluation","149","863374","0.0-4.0-2.0-0.16","spark_pilot_2","7144","2","9","Female","","false","","","","","[456.5,597.1000000014901]","./assets/img/ocean/memory/34.jpg","[""ArrowDown"",""ArrowRight""]","value training","ocean","30","{""ArrowUp,ArrowLeft"":23,""ArrowUp,ArrowRight"":10,""ArrowDown,ArrowLeft"":8,""ArrowDown,ArrowRight"":30}","true","ArrowDown,ArrowRight","false","","","revaluation","1","32","","",""
"html-keyboard-response","150","863876","0.0-4.0-2.0-1.16","spark_pilot_2","7144","2","9","Female","","","","","","","null","<div style=""font-size:60px;"">+</div>","null","fixation","","","","","","","","","","","33","","",""
"revaluation","151","867897","0.0-4.0-2.0-0.17","spark_pilot_2","7144","2","9","Female","","false","","","","","[686.8000000007451]","./assets/img/ocean/catch/4.jpg","[""spaceBar""]","value training","ocean","0","{""ArrowUp,ArrowLeft"":23,""ArrowUp,ArrowRight"":10,""ArrowDown,ArrowLeft"":8,""ArrowDown,ArrowRight"":30}","true","spaceBar","true","","","revaluation","1","34","","",""
"html-keyboard-response","152","868399","0.0-4.0-2.0-1.17","spark_pilot_2","7144","2","9","Female","","","","","","","null","<div style=""font-size:60px;"">+</div>","null","fixation","","","","","","","","","","","35","","",""
"revaluation","153","874408","0.0-4.0-2.0-0.18","spark_pilot_2","7144","2","9","Female","","false","","","","","[830.8000000007451,996]","./assets/img/ocean/memory/25.jpg","[""ArrowDown"",""ArrowRight""]","value training","ocean","30","{""ArrowUp,ArrowLeft"":23,""ArrowUp,ArrowRight"":10,""ArrowDown,ArrowLeft"":8,""ArrowDown,ArrowRight"":30}","true","ArrowDown,ArrowRight","false","","","revaluation","1","36","","",""
"html-keyboard-response","154","874910","0.0-4.0-2.0-1.18","spark_pilot_2","7144","2","9","Female","","","","","","","null","<div style=""font-size:60px;"">+</div>","null","fixation","","","","","","","","","","","37","","",""
"revaluation","155","880917","0.0-4.0-2.0-0.19","spark_pilot_2","7144","2","9","Female","","false","","","","","[551.1999999992549,513.5999999977648]","./assets/img/ocean/memory/35.jpg","[""ArrowDown"",""ArrowRight""]","value training","ocean","30","{""ArrowUp,ArrowLeft"":23,""ArrowUp,ArrowRight"":10,""ArrowDown,ArrowLeft"":8,""ArrowDown,ArrowRight"":30}","true","ArrowDown,ArrowRight","false","","","revaluation","1","38","","",""
"html-keyboard-response","156","881419","0.0-4.0-2.0-1.19","spark_pilot_2","7144","2","9","Female","","","","","","","null","<div style=""font-size:60px;"">+</div>","null","fixation","","","","","","","","","","","39","","",""
"revaluation","157","887424","0.0-4.0-2.0-0.20","spark_pilot_2","7144","2","9","Female","","false","","","","","[685.8000000007451,444.1000000014901]","./assets/img/ocean/memory/22.jpg","[""ArrowDown"",""ArrowRight""]","value training","ocean","30","{""ArrowUp,ArrowLeft"":23,""ArrowUp,ArrowRight"":10,""ArrowDown,ArrowLeft"":8,""ArrowDown,ArrowRight"":30}","true","ArrowDown,ArrowRight","false","","","revaluation","1","40","","",""
"html-keyboard-response","158","887927","0.0-4.0-2.0-1.20","spark_pilot_2","7144","2","9","Female","","","","","","","null","<div style=""font-size:60px;"">+</div>","null","fixation","","","","","","","","","","","41","","",""
"revaluation","159","893933","0.0-4.0-2.0-0.21","spark_pilot_2","7144","2","9","Female","","false","","","","","[510,670.5]","./assets/img/ocean/memory/34.jpg","[""ArrowDown"",""ArrowRight""]","value training","ocean","30","{""ArrowUp,ArrowLeft"":23,""ArrowUp,ArrowRight"":10,""ArrowDown,ArrowLeft"":8,""ArrowDown,ArrowRight"":30}","true","ArrowDown,ArrowRight","false","","","revaluation","1","42","","",""
"html-keyboard-response","160","894436","0.0-4.0-2.0-1.21","spark_pilot_2","7144","2","9","Female","","","","","","","null","<div style=""font-size:60px;"">+</div>","null","fixation","","","","","","","","","","","43","","",""
"revaluation","161","900446","0.0-4.0-2.0-0.22","spark_pilot_2","7144","2","9","Female","","false","","","","","[665.6999999992549,508.80000000074506]","./assets/img/ocean/memory/1.jpg","[""ArrowDown"",""ArrowRight""]","value training","ocean","30","{""ArrowUp,ArrowLeft"":23,""ArrowUp,ArrowRight"":10,""ArrowDown,ArrowLeft"":8,""ArrowDown,ArrowRight"":30}","true","ArrowDown,ArrowRight","false","","","revaluation","1","44","","",""
"html-keyboard-response","162","900949","0.0-4.0-2.0-1.22","spark_pilot_2","7144","2","9","Female","","","","","","","null","<div style=""font-size:60px;"">+</div>","null","fixation","","","","","","","","","","","45","","",""
"revaluation","163","906956","0.0-4.0-2.0-0.23","spark_pilot_2","7144","2","9","Female","","false","","","","","[474.5,617.5999999977648]","./assets/img/ocean/memory/31.jpg","[""ArrowDown"",""ArrowRight""]","value training","ocean","30","{""ArrowUp,ArrowLeft"":23,""ArrowUp,ArrowRight"":10,""ArrowDown,ArrowLeft"":8,""ArrowDown,ArrowRight"":30}","true","ArrowDown,ArrowRight","false","","","revaluation","1","46","","",""
"html-keyboard-response","164","907458","0.0-4.0-2.0-1.23","spark_pilot_2","7144","2","9","Female","","","","","","","null","<div style=""font-size:60px;"">+</div>","null","fixation","","","","","","","","","","","47","","",""
"revaluation","165","913468","0.0-4.0-2.0-0.24","spark_pilot_2","7144","2","9","Female","","false","","","","","[603.1999999992549,470.5999999977648]","./assets/img/ocean/memory/36.jpg","[""ArrowDown"",""ArrowRight""]","value training","ocean","30","{""ArrowUp,ArrowLeft"":23,""ArrowUp,ArrowRight"":10,""ArrowDown,ArrowLeft"":8,""ArrowDown,ArrowRight"":30}","true","ArrowDown,ArrowRight","false","","","revaluation","1","48","","",""
"html-keyboard-response","166","913970","0.0-4.0-2.0-1.24","spark_pilot_2","7144","2","9","Female","","","","","","","null","<div style=""font-size:60px;"">+</div>","null","fixation","","","","","","","","","","","49","","",""
"revaluation","167","917978","0.0-4.0-2.0-0.25","spark_pilot_2","7144","2","9","Female","","false","","","","","[767.6999999992549]","./assets/img/ocean/catch/1.jpg","[""spaceBar""]","value training","ocean","0","{""ArrowUp,ArrowLeft"":23,""ArrowUp,ArrowRight"":10,""ArrowDown,ArrowLeft"":8,""ArrowDown,ArrowRight"":30}","true","spaceBar","true","","","revaluation","1","50","","",""
"html-keyboard-response","168","918480","0.0-4.0-2.0-1.25","spark_pilot_2","7144","2","9","Female","","","","","","","null","<div style=""font-size:60px;"">+</div>","null","fixation","","","","","","","","","","","51","","",""
"revaluation","169","924486","0.0-4.0-2.0-0.26","spark_pilot_2","7144","2","9","Female","","false","","","","","[622.4000000022352,519.5999999977648]","./assets/img/ocean/memory/36.jpg","[""ArrowDown"",""ArrowRight""]","value training","ocean","30","{""ArrowUp,ArrowLeft"":23,""ArrowUp,ArrowRight"":10,""ArrowDown,ArrowLeft"":8,""ArrowDown,ArrowRight"":30}","true","ArrowDown,ArrowRight","false","","","revaluation","1","52","","",""
"html-keyboard-response","170","924987","0.0-4.0-2.0-1.26","spark_pilot_2","7144","2","9","Female","","","","","","","null","<div style=""font-size:60px;"">+</div>","null","fixation","","","","","","","","","","","53","","",""
"revaluation","171","930992","0.0-4.0-2.0-0.27","spark_pilot_2","7144","2","9","Female","","false","","","","","[465.80000000074506,851.5]","./assets/img/ocean/memory/1.jpg","[""ArrowDown"",""ArrowRight""]","value training","ocean","30","{""ArrowUp,ArrowLeft"":23,""ArrowUp,ArrowRight"":10,""ArrowDown,ArrowLeft"":8,""ArrowDown,ArrowRight"":30}","true","ArrowDown,ArrowRight","false","","","revaluation","1","54","","",""
"html-keyboard-response","172","931494","0.0-4.0-2.0-1.27","spark_pilot_2","7144","2","9","Female","","","","","","","null","<div style=""font-size:60px;"">+</div>","null","fixation","","","","","","","","","","","55","","",""
"revaluation","173","935498","0.0-4.0-2.0-0.28","spark_pilot_2","7144","2","9","Female","","false","","","","","[665.2000000029802]","./assets/img/ocean/catch/6.jpg","[""spaceBar""]","value training","ocean","0","{""ArrowUp,ArrowLeft"":23,""ArrowUp,ArrowRight"":10,""ArrowDown,ArrowLeft"":8,""ArrowDown,ArrowRight"":30}","true","spaceBar","true","","","revaluation","1","56","","",""
"html-keyboard-response","174","936001","0.0-4.0-2.0-1.28","spark_pilot_2","7144","2","9","Female","","","","","","","null","<div style=""font-size:60px;"">+</div>","null","fixation","","","","","","","","","","","57","","",""
"revaluation","175","942008","0.0-4.0-2.0-0.29","spark_pilot_2","7144","2","9","Female","","false","","","","","[605.7000000029802,563.5999999977648]","./assets/img/ocean/memory/27.jpg","[""ArrowDown"",""ArrowRight""]","value training","ocean","30","{""ArrowUp,ArrowLeft"":23,""ArrowUp,ArrowRight"":10,""ArrowDown,ArrowLeft"":8,""ArrowDown,ArrowRight"":30}","true","ArrowDown,ArrowRight","false","","","revaluation","1","58","","",""
"html-keyboard-response","176","942511","0.0-4.0-2.0-1.29","spark_pilot_2","7144","2","9","Female","","","","","","","null","<div style=""font-size:60px;"">+</div>","null","fixation","","","","","","","","","","","59","","",""
"revaluation","177","948518","0.0-4.0-2.0-0.30","spark_pilot_2","7144","2","9","Female","","false","","","","","[1251.4000000022352,482.8999999985099]","./assets/img/ocean/memory/10.jpg","[""ArrowDown"",""ArrowRight""]","value training","ocean","30","{""ArrowUp,ArrowLeft"":23,""ArrowUp,ArrowRight"":10,""ArrowDown,ArrowLeft"":8,""ArrowDown,ArrowRight"":30}","true","ArrowDown,ArrowRight","false","","","revaluation","1","60","","",""
"html-keyboard-response","178","949021","0.0-4.0-2.0-1.30","spark_pilot_2","7144","2","9","Female","","","","","","","null","<div style=""font-size:60px;"">+</div>","null","fixation","","","","","","","","","","","61","","",""
"revaluation","179","955032","0.0-4.0-2.0-0.31","spark_pilot_2","7144","2","9","Female","","false","","","","","[979.5999999977648,488.6000000014901]","./assets/img/ocean/memory/24.jpg","[""ArrowDown"",""ArrowRight""]","value training","ocean","30","{""ArrowUp,ArrowLeft"":23,""ArrowUp,ArrowRight"":10,""ArrowDown,ArrowLeft"":8,""ArrowDown,ArrowRight"":30}","true","ArrowDown,ArrowRight","false","","","revaluation","1","62","","",""
"html-keyboard-response","180","955536","0.0-4.0-2.0-1.31","spark_pilot_2","7144","2","9","Female","","","","","","","null","<div style=""font-size:60px;"">+</div>","null","fixation","","","","","","","","","","","63","","",""
"revaluation","181","961549","0.0-4.0-2.0-0.32","spark_pilot_2","7144","2","9","Female","","false","","","","","[864.8000000007451,469.4000000022352]","./assets/img/ocean/memory/13.jpg","[""ArrowDown"",""ArrowRight""]","value training","ocean","30","{""ArrowUp,ArrowLeft"":23,""ArrowUp,ArrowRight"":10,""ArrowDown,ArrowLeft"":8,""ArrowDown,ArrowRight"":30}","true","ArrowDown,ArrowRight","false","","","revaluation","1","64","","",""
"html-keyboard-response","182","962051","0.0-4.0-2.0-1.32","spark_pilot_2","7144","2","9","Female","","","","","","","null","<div style=""font-size:60px;"">+</div>","null","fixation","","","","","","","","","","","65","","",""
"revaluation","183","966058","0.0-4.0-2.0-0.33","spark_pilot_2","7144","2","9","Female","","false","","","","","[713.6000000014901]","./assets/img/ocean/catch/7.jpg","[""spaceBar""]","value training","ocean","0","{""ArrowUp,ArrowLeft"":23,""ArrowUp,ArrowRight"":10,""ArrowDown,ArrowLeft"":8,""ArrowDown,ArrowRight"":30}","true","spaceBar","true","","","revaluation","1","66","","",""
"html-keyboard-response","184","966559","0.0-4.0-2.0-1.33","spark_pilot_2","7144","2","9","Female","","","","","","","null","<div style=""font-size:60px;"">+</div>","null","fixation","","","","","","","","","","","67","","",""
"revaluation","185","972569","0.0-4.0-2.0-0.34","spark_pilot_2","7144","2","9","Female","","false","","","","","[563.6999999992549,427.4000000022352]","./assets/img/ocean/memory/37.jpg","[""ArrowDown"",""ArrowRight""]","value training","ocean","30","{""ArrowUp,ArrowLeft"":23,""ArrowUp,ArrowRight"":10,""ArrowDown,ArrowLeft"":8,""ArrowDown,ArrowRight"":30}","true","ArrowDown,ArrowRight","false","","","revaluation","1","68","","",""
"html-keyboard-response","186","973071","0.0-4.0-2.0-1.34","spark_pilot_2","7144","2","9","Female","","","","","","","null","<div style=""font-size:60px;"">+</div>","null","fixation","","","","","","","","","","","69","","",""
"revaluation","187","979078","0.0-4.0-2.0-0.35","spark_pilot_2","7144","2","9","Female","","false","","","","","[1014.4000000022352,772.6999999992549]","./assets/img/ocean/memory/24.jpg","[""ArrowDown"",""ArrowRight""]","value training","ocean","30","{""ArrowUp,ArrowLeft"":23,""ArrowUp,ArrowRight"":10,""ArrowDown,ArrowLeft"":8,""ArrowDown,ArrowRight"":30}","true","ArrowDown,ArrowRight","false","","","revaluation","1","70","","",""
"html-keyboard-response","188","979579","0.0-4.0-2.0-1.35","spark_pilot_2","7144","2","9","Female","","","","","","","null","<div style=""font-size:60px;"">+</div>","null","fixation","","","","","","","","","","","71","","",""
"revaluation","189","985590","0.0-4.0-2.0-0.36","spark_pilot_2","7144","2","9","Female","","false","","","","","[605.1000000014901,676.3999999985099]","./assets/img/ocean/memory/40.jpg","[""ArrowDown"",""ArrowRight""]","value training","ocean","30","{""ArrowUp,ArrowLeft"":23,""ArrowUp,ArrowRight"":10,""ArrowDown,ArrowLeft"":8,""ArrowDown,ArrowRight"":30}","true","ArrowDown,ArrowRight","false","","","revaluation","1","72","","",""
"html-keyboard-response","190","986094","0.0-4.0-2.0-1.36","spark_pilot_2","7144","2","9","Female","","","","","","","null","<div style=""font-size:60px;"">+</div>","null","fixation","","","","","","","","","","","73","","",""
"revaluation","191","992106","0.0-4.0-2.0-0.37","spark_pilot_2","7144","2","9","Female","","false","","","","","[563.3999999985099,648.7999999970198]","./assets/img/ocean/memory/14.jpg","[""ArrowDown"",""ArrowRight""]","value training","ocean","30","{""ArrowUp,ArrowLeft"":23,""ArrowUp,ArrowRight"":10,""ArrowDown,ArrowLeft"":8,""ArrowDown,ArrowRight"":30}","true","ArrowDown,ArrowRight","false","","","revaluation","1","74","","",""
"html-keyboard-response","192","992607","0.0-4.0-2.0-1.37","spark_pilot_2","7144","2","9","Female","","","","","","","null","<div style=""font-size:60px;"">+</div>","null","fixation","","","","","","","","","","","75","","",""
"revaluation","193","996616","0.0-4.0-2.0-0.38","spark_pilot_2","7144","2","9","Female","","false","","","","","[501.80000000074506]","./assets/img/ocean/catch/5.jpg","[""ArrowDown""]","value training","ocean","-10","{""ArrowUp,ArrowLeft"":23,""ArrowUp,ArrowRight"":10,""ArrowDown,ArrowLeft"":8,""ArrowDown,ArrowRight"":30}","false","ArrowDown","true","","","revaluation","1","76","","",""
"html-keyboard-response","194","997118","0.0-4.0-2.0-1.38","spark_pilot_2","7144","2","9","Female","","","","","","","null","<div style=""font-size:60px;"">+</div>","null","fixation","","","","","","","","","","","77","","",""
"revaluation","195","1003127","0.0-4.0-2.0-0.39","spark_pilot_2","7144","2","9","Female","","false","","","","","[679.8000000007451,556.3000000007451]","./assets/img/ocean/memory/17.jpg","[""ArrowDown"",""ArrowRight""]","value training","ocean","30","{""ArrowUp,ArrowLeft"":23,""ArrowUp,ArrowRight"":10,""ArrowDown,ArrowLeft"":8,""ArrowDown,ArrowRight"":30}","true","ArrowDown,ArrowRight","false","","","revaluation","1","78","","",""
"html-keyboard-response","196","1003629","0.0-4.0-2.0-1.39","spark_pilot_2","7144","2","9","Female","","","","","","","null","<div style=""font-size:60px;"">+</div>","null","fixation","","","","","","","","","","","79","","",""
"revaluation","197","1009641","0.0-4.0-2.0-0.40","spark_pilot_2","7144","2","9","Female","","false","","","","","[637.1999999992549,1433.2999999970198]","./assets/img/ocean/memory/32.jpg","[""ArrowDown"",""ArrowRight""]","value training","ocean","30","{""ArrowUp,ArrowLeft"":23,""ArrowUp,ArrowRight"":10,""ArrowDown,ArrowLeft"":8,""ArrowDown,ArrowRight"":30}","true","ArrowDown,ArrowRight","false","","","revaluation","1","80","","",""
"html-keyboard-response","198","1010144","0.0-4.0-2.0-1.40","spark_pilot_2","7144","2","9","Female","","","","","","","null","<div style=""font-size:60px;"">+</div>","null","fixation","","","","","","","","","","","81","","",""
"revaluation","199","1016153","0.0-4.0-2.0-0.41","spark_pilot_2","7144","2","9","Female","","false","","","","","[652.0999999977648,894]","./assets/img/ocean/memory/13.jpg","[""ArrowDown"",""ArrowRight""]","value training","ocean","30","{""ArrowUp,ArrowLeft"":23,""ArrowUp,ArrowRight"":10,""ArrowDown,ArrowLeft"":8,""ArrowDown,ArrowRight"":30}","true","ArrowDown,ArrowRight","false","","","revaluation","1","82","","",""
"html-keyboard-response","200","1016656","0.0-4.0-2.0-1.41","spark_pilot_2","7144","2","9","Female","","","","","","","null","<div style=""font-size:60px;"">+</div>","null","fixation","","","","","","","","","","","83","","",""
"revaluation","201","1022668","0.0-4.0-2.0-0.42","spark_pilot_2","7144","2","9","Female","","false","","","","","[1002.8999999985099,640.1000000014901]","./assets/img/ocean/memory/40.jpg","[""ArrowDown"",""ArrowRight""]","value training","ocean","30","{""ArrowUp,ArrowLeft"":23,""ArrowUp,ArrowRight"":10,""ArrowDown,ArrowLeft"":8,""ArrowDown,ArrowRight"":30}","true","ArrowDown,ArrowRight","false","","","revaluation","1","84","","",""
"html-keyboard-response","202","1023170","0.0-4.0-2.0-1.42","spark_pilot_2","7144","2","9","Female","","","","","","","null","<div style=""font-size:60px;"">+</div>","null","fixation","","","","","","","","","","","85","","",""
"revaluation","203","1029176","0.0-4.0-2.0-0.43","spark_pilot_2","7144","2","9","Female","","false","","","","","[525,745.8999999985099]","./assets/img/ocean/memory/5.jpg","[""ArrowDown"",""ArrowRight""]","value training","ocean","30","{""ArrowUp,ArrowLeft"":23,""ArrowUp,ArrowRight"":10,""ArrowDown,ArrowLeft"":8,""ArrowDown,ArrowRight"":30}","true","ArrowDown,ArrowRight","false","","","revaluation","1","86","","",""
"html-keyboard-response","204","1029677","0.0-4.0-2.0-1.43","spark_pilot_2","7144","2","9","Female","","","","","","","null","<div style=""font-size:60px;"">+</div>","null","fixation","","","","","","","","","","","87","","",""
"revaluation","205","1035683","0.0-4.0-2.0-0.44","spark_pilot_2","7144","2","9","Female","","false","","","","","[919.5999999977648,622.4000000022352]","./assets/img/ocean/memory/32.jpg","[""ArrowDown"",""ArrowRight""]","value training","ocean","30","{""ArrowUp,ArrowLeft"":23,""ArrowUp,ArrowRight"":10,""ArrowDown,ArrowLeft"":8,""ArrowDown,ArrowRight"":30}","true","ArrowDown,ArrowRight","false","","","revaluation","1","88","","",""
"html-keyboard-response","206","1036185","0.0-4.0-2.0-1.44","spark_pilot_2","7144","2","9","Female","","","","","","","null","<div style=""font-size:60px;"">+</div>","null","fixation","","","","","","","","","","","89","","",""
"revaluation","207","1042192","0.0-4.0-2.0-0.45","spark_pilot_2","7144","2","9","Female","","false","","","","","[586.3999999985099,669]","./assets/img/ocean/memory/23.jpg","[""ArrowDown"",""ArrowRight""]","value training","ocean","30","{""ArrowUp,ArrowLeft"":23,""ArrowUp,ArrowRight"":10,""ArrowDown,ArrowLeft"":8,""ArrowDown,ArrowRight"":30}","true","ArrowDown,ArrowRight","false","","","revaluation","1","90","","",""
"html-keyboard-response","208","1042693","0.0-4.0-2.0-1.45","spark_pilot_2","7144","2","9","Female","","","","","","","null","<div style=""font-size:60px;"">+</div>","null","fixation","","","","","","","","","","","91","","",""
"revaluation","209","1048707","0.0-4.0-2.0-0.46","spark_pilot_2","7144","2","9","Female","","false","","","","","[795.8000000007451,641.5]","./assets/img/ocean/memory/10.jpg","[""ArrowDown"",""ArrowRight""]","value training","ocean","30","{""ArrowUp,ArrowLeft"":23,""ArrowUp,ArrowRight"":10,""ArrowDown,ArrowLeft"":8,""ArrowDown,ArrowRight"":30}","true","ArrowDown,ArrowRight","false","","","revaluation","1","92","","",""
"html-keyboard-response","210","1049209","0.0-4.0-2.0-1.46","spark_pilot_2","7144","2","9","Female","","","","","","","null","<div style=""font-size:60px;"">+</div>","null","fixation","","","","","","","","","","","93","","",""
"revaluation","211","1055223","0.0-4.0-2.0-0.47","spark_pilot_2","7144","2","9","Female","","false","","","","","[641.8999999985099,581.6999999992549]","./assets/img/ocean/memory/17.jpg","[""ArrowDown"",""ArrowRight""]","value training","ocean","30","{""ArrowUp,ArrowLeft"":23,""ArrowUp,ArrowRight"":10,""ArrowDown,ArrowLeft"":8,""ArrowDown,ArrowRight"":30}","true","ArrowDown,ArrowRight","false","","","revaluation","1","94","","",""
"html-keyboard-response","212","1055724","0.0-4.0-2.0-1.47","spark_pilot_2","7144","2","9","Female","","","","","","","null","<div style=""font-size:60px;"">+</div>","null","fixation","","","","","","","","","","","95","","",""
"revaluation","213","1061731","0.0-4.0-2.0-0.48","spark_pilot_2","7144","2","9","Female","","false","","","","","[603.1000000014901,687.4000000022352]","./assets/img/ocean/memory/39.jpg","[""ArrowDown"",""ArrowRight""]","value training","ocean","30","{""ArrowUp,ArrowLeft"":23,""ArrowUp,ArrowRight"":10,""ArrowDown,ArrowLeft"":8,""ArrowDown,ArrowRight"":30}","true","ArrowDown,ArrowRight","false","","","revaluation","1","96","","",""
"html-keyboard-response","214","1062234","0.0-4.0-2.0-1.48","spark_pilot_2","7144","2","9","Female","","","","","","","null","<div style=""font-size:60px;"">+</div>","null","fixation","","","","","","","","","","","97","","",""
"revaluation","215","1068238","0.0-4.0-2.0-0.49","spark_pilot_2","7144","2","9","Female","","false","","","","","[699,699.3000000007451]","./assets/img/ocean/memory/22.jpg","[""ArrowDown"",""ArrowRight""]","value training","ocean","30","{""ArrowUp,ArrowLeft"":23,""ArrowUp,ArrowRight"":10,""ArrowDown,ArrowLeft"":8,""ArrowDown,ArrowRight"":30}","true","ArrowDown,ArrowRight","false","","","revaluation","1","98","","",""
"html-keyboard-response","216","1068742","0.0-4.0-2.0-1.49","spark_pilot_2","7144","2","9","Female","","","","","","","null","<div style=""font-size:60px;"">+</div>","null","fixation","","","","","","","","","","","99","","",""
"learning-instructions","217","1084758","0.0-4.0-3.0-0.0","spark_pilot_2","7144","2","9","Female","","","","","","","3048.5","<p> Now, you will travel with a friend who will choose whether you go up or down first. </p>
            <p> On these turns, you will just see the animal that they found. You will still get to choose which chest to search for treasure.</p>","","instructions","","","","","","","","","","","","","",""
"revaluation","218","1088789","0.0-4.0-4.0-0.0","spark_pilot_2","7144","2","9","Female","","false","","","","","[1263.0999999977648]","./assets/img/ocean/animals/seahorse.jpg","[""ArrowRight""]","revaluation","ocean","15","{""ArrowUp,ArrowLeft"":27,""ArrowUp,ArrowRight"":15,""ArrowDown,ArrowLeft"":21,""ArrowDown,ArrowRight"":7}","false","ArrowUp,ArrowRight","","","","revaluation","1","0","","",""
"html-keyboard-response","219","1089317","0.0-4.0-4.0-1.0","spark_pilot_2","7144","2","9","Female","","","","","","","null","<div style=""font-size:60px;"">+</div>","null","fixation","","","","","","","","","","","1","","",""
"revaluation","220","1093339","0.0-4.0-4.0-0.1","spark_pilot_2","7144","2","9","Female","","false","","","","","[398.9000000022352]","./assets/img/ocean/animals/octopus.jpg","[""ArrowRight""]","revaluation","ocean","7","{""ArrowUp,ArrowLeft"":27,""ArrowUp,ArrowRight"":15,""ArrowDown,ArrowLeft"":21,""ArrowDown,ArrowRight"":7}","false","ArrowDown,ArrowRight","","","","revaluation","1","2","","",""
"html-keyboard-response","221","1093857","0.0-4.0-4.0-1.1","spark_pilot_2","7144","2","9","Female","","","","","","","null","<div style=""font-size:60px;"">+</div>","null","fixation","","","","","","","","","","","3","","",""
"revaluation","222","1097887","0.0-4.0-4.0-0.2","spark_pilot_2","7144","2","9","Female","","false","","","","","[843.3000000007451]","./assets/img/ocean/animals/octopus.jpg","[""ArrowLeft""]","revaluation","ocean","21","{""ArrowUp,ArrowLeft"":27,""ArrowUp,ArrowRight"":15,""ArrowDown,ArrowLeft"":21,""ArrowDown,ArrowRight"":7}","true","ArrowDown,ArrowLeft","","","","revaluation","1","4","","",""
"html-keyboard-response","223","1098407","0.0-4.0-4.0-1.2","spark_pilot_2","7144","2","9","Female","","","","","","","null","<div style=""font-size:60px;"">+</div>","null","fixation","","","","","","","","","","","5","","",""
"revaluation","224","1102457","0.0-4.0-4.0-0.3","spark_pilot_2","7144","2","9","Female","","false","","","","","[531]","./assets/img/ocean/animals/seahorse.jpg","[""ArrowLeft""]","revaluation","ocean","27","{""ArrowUp,ArrowLeft"":27,""ArrowUp,ArrowRight"":15,""ArrowDown,ArrowLeft"":21,""ArrowDown,ArrowRight"":7}","true","ArrowUp,ArrowLeft","","","","revaluation","1","6","","",""
"html-keyboard-response","225","1102977","0.0-4.0-4.0-1.3","spark_pilot_2","7144","2","9","Female","","","","","","","null","<div style=""font-size:60px;"">+</div>","null","fixation","","","","","","","","","","","7","","",""
"revaluation","226","1107008","0.0-4.0-4.0-0.4","spark_pilot_2","7144","2","9","Female","","false","","","","","[467.30000000074506]","./assets/img/ocean/animals/octopus.jpg","[""ArrowLeft""]","revaluation","ocean","21","{""ArrowUp,ArrowLeft"":27,""ArrowUp,ArrowRight"":15,""ArrowDown,ArrowLeft"":21,""ArrowDown,ArrowRight"":7}","true","ArrowDown,ArrowLeft","","","","revaluation","1","8","","",""
"html-keyboard-response","227","1107527","0.0-4.0-4.0-1.4","spark_pilot_2","7144","2","9","Female","","","","","","","null","<div style=""font-size:60px;"">+</div>","null","fixation","","","","","","","","","","","9","","",""
"revaluation","228","1111569","0.0-4.0-4.0-0.5","spark_pilot_2","7144","2","9","Female","","false","","","","","[449.0999999977648]","./assets/img/ocean/animals/seahorse.jpg","[""ArrowLeft""]","revaluation","ocean","27","{""ArrowUp,ArrowLeft"":27,""ArrowUp,ArrowRight"":15,""ArrowDown,ArrowLeft"":21,""ArrowDown,ArrowRight"":7}","true","ArrowUp,ArrowLeft","","","","revaluation","1","10","","",""
"html-keyboard-response","229","1112071","0.0-4.0-4.0-1.5","spark_pilot_2","7144","2","9","Female","","","","","","","null","<div style=""font-size:60px;"">+</div>","null","fixation","","","","","","","","","","","11","","",""
"revaluation","230","1116080","0.0-4.0-4.0-0.6","spark_pilot_2","7144","2","9","Female","","false","","","","","[491.5]","./assets/img/ocean/animals/seahorse.jpg","[""ArrowLeft""]","revaluation","ocean","27","{""ArrowUp,ArrowLeft"":27,""ArrowUp,ArrowRight"":15,""ArrowDown,ArrowLeft"":21,""ArrowDown,ArrowRight"":7}","true","ArrowUp,ArrowLeft","","","","revaluation","1","12","","",""
"html-keyboard-response","231","1116581","0.0-4.0-4.0-1.6","spark_pilot_2","7144","2","9","Female","","","","","","","null","<div style=""font-size:60px;"">+</div>","null","fixation","","","","","","","","","","","13","","",""
"revaluation","232","1120589","0.0-4.0-4.0-0.7","spark_pilot_2","7144","2","9","Female","","false","","","","","[438.4000000022352]","./assets/img/ocean/animals/seahorse.jpg","[""ArrowLeft""]","revaluation","ocean","27","{""ArrowUp,ArrowLeft"":27,""ArrowUp,ArrowRight"":15,""ArrowDown,ArrowLeft"":21,""ArrowDown,ArrowRight"":7}","true","ArrowUp,ArrowLeft","","","","revaluation","1","14","","",""
"html-keyboard-response","233","1121090","0.0-4.0-4.0-1.7","spark_pilot_2","7144","2","9","Female","","","","","","","null","<div style=""font-size:60px;"">+</div>","null","fixation","","","","","","","","","","","15","","",""
"revaluation","234","1125099","0.0-4.0-4.0-0.8","spark_pilot_2","7144","2","9","Female","","false","","","","","[817.3999999985099]","./assets/img/ocean/animals/octopus.jpg","[""ArrowLeft""]","revaluation","ocean","21","{""ArrowUp,ArrowLeft"":27,""ArrowUp,ArrowRight"":15,""ArrowDown,ArrowLeft"":21,""ArrowDown,ArrowRight"":7}","true","ArrowDown,ArrowLeft","","","","revaluation","1","16","","",""
"html-keyboard-response","235","1125602","0.0-4.0-4.0-1.8","spark_pilot_2","7144","2","9","Female","","","","","","","null","<div style=""font-size:60px;"">+</div>","null","fixation","","","","","","","","","","","17","","",""
"revaluation","236","1129608","0.0-4.0-4.0-0.9","spark_pilot_2","7144","2","9","Female","","false","","","","","[621.0999999977648]","./assets/img/ocean/animals/seahorse.jpg","[""ArrowLeft""]","revaluation","ocean","27","{""ArrowUp,ArrowLeft"":27,""ArrowUp,ArrowRight"":15,""ArrowDown,ArrowLeft"":21,""ArrowDown,ArrowRight"":7}","true","ArrowUp,ArrowLeft","","","","revaluation","1","18","","",""
"html-keyboard-response","237","1130111","0.0-4.0-4.0-1.9","spark_pilot_2","7144","2","9","Female","","","","","","","null","<div style=""font-size:60px;"">+</div>","null","fixation","","","","","","","","","","","19","","",""
"revaluation","238","1134120","0.0-4.0-4.0-0.10","spark_pilot_2","7144","2","9","Female","","false","","","","","[540]","./assets/img/ocean/animals/octopus.jpg","[""ArrowLeft""]","revaluation","ocean","21","{""ArrowUp,ArrowLeft"":27,""ArrowUp,ArrowRight"":15,""ArrowDown,ArrowLeft"":21,""ArrowDown,ArrowRight"":7}","true","ArrowDown,ArrowLeft","","","","revaluation","1","20","","",""
"html-keyboard-response","239","1134622","0.0-4.0-4.0-1.10","spark_pilot_2","7144","2","9","Female","","","","","","","null","<div style=""font-size:60px;"">+</div>","null","fixation","","","","","","","","","","","21","","",""
"revaluation","240","1138630","0.0-4.0-4.0-0.11","spark_pilot_2","7144","2","9","Female","","false","","","","","[743]","./assets/img/ocean/animals/octopus.jpg","[""ArrowLeft""]","revaluation","ocean","21","{""ArrowUp,ArrowLeft"":27,""ArrowUp,ArrowRight"":15,""ArrowDown,ArrowLeft"":21,""ArrowDown,ArrowRight"":7}","true","ArrowDown,ArrowLeft","","","","revaluation","1","22","","",""
"html-keyboard-response","241","1139134","0.0-4.0-4.0-1.11","spark_pilot_2","7144","2","9","Female","","","","","","","null","<div style=""font-size:60px;"">+</div>","null","fixation","","","","","","","","","","","23","","",""
"revaluation","242","1143144","0.0-4.0-4.0-0.12","spark_pilot_2","7144","2","9","Female","","false","","","","","[628.4000000022352]","./assets/img/ocean/animals/octopus.jpg","[""ArrowRight""]","revaluation","ocean","7","{""ArrowUp,ArrowLeft"":27,""ArrowUp,ArrowRight"":15,""ArrowDown,ArrowLeft"":21,""ArrowDown,ArrowRight"":7}","false","ArrowDown,ArrowRight","","","","revaluation","1","24","","",""
"html-keyboard-response","243","1143645","0.0-4.0-4.0-1.12","spark_pilot_2","7144","2","9","Female","","","","","","","null","<div style=""font-size:60px;"">+</div>","null","fixation","","","","","","","","","","","25","","",""
"revaluation","244","1147650","0.0-4.0-4.0-0.13","spark_pilot_2","7144","2","9","Female","","false","","","","","[377.9000000022352]","./assets/img/ocean/animals/seahorse.jpg","[""ArrowLeft""]","revaluation","ocean","27","{""ArrowUp,ArrowLeft"":27,""ArrowUp,ArrowRight"":15,""ArrowDown,ArrowLeft"":21,""ArrowDown,ArrowRight"":7}","true","ArrowUp,ArrowLeft","","","","revaluation","1","26","","",""
"html-keyboard-response","245","1148153","0.0-4.0-4.0-1.13","spark_pilot_2","7144","2","9","Female","","","","","","","null","<div style=""font-size:60px;"">+</div>","null","fixation","","","","","","","","","","","27","","",""
"revaluation","246","1152164","0.0-4.0-4.0-0.14","spark_pilot_2","7144","2","9","Female","","false","","","","","[401.5]","./assets/img/ocean/animals/octopus.jpg","[""ArrowLeft""]","revaluation","ocean","21","{""ArrowUp,ArrowLeft"":27,""ArrowUp,ArrowRight"":15,""ArrowDown,ArrowLeft"":21,""ArrowDown,ArrowRight"":7}","true","ArrowDown,ArrowLeft","","","","revaluation","1","28","","",""
"html-keyboard-response","247","1152666","0.0-4.0-4.0-1.14","spark_pilot_2","7144","2","9","Female","","","","","","","null","<div style=""font-size:60px;"">+</div>","null","fixation","","","","","","","","","","","29","","",""
"revaluation","248","1156674","0.0-4.0-4.0-0.15","spark_pilot_2","7144","2","9","Female","","false","","","","","[451.80000000074506]","./assets/img/ocean/animals/seahorse.jpg","[""ArrowLeft""]","revaluation","ocean","27","{""ArrowUp,ArrowLeft"":27,""ArrowUp,ArrowRight"":15,""ArrowDown,ArrowLeft"":21,""ArrowDown,ArrowRight"":7}","true","ArrowUp,ArrowLeft","","","","revaluation","1","30","","",""
"html-keyboard-response","249","1157176","0.0-4.0-4.0-1.15","spark_pilot_2","7144","2","9","Female","","","","","","","null","<div style=""font-size:60px;"">+</div>","null","fixation","","","","","","","","","","","31","","",""
"revaluation","250","1161185","0.0-4.0-4.0-0.16","spark_pilot_2","7144","2","9","Female","","false","","","","","[5.199999999254942]","./assets/img/ocean/animals/octopus.jpg","[""ArrowLeft""]","revaluation","ocean","21","{""ArrowUp,ArrowLeft"":27,""ArrowUp,ArrowRight"":15,""ArrowDown,ArrowLeft"":21,""ArrowDown,ArrowRight"":7}","true","ArrowDown,ArrowLeft","","","","revaluation","1","32","","",""
"html-keyboard-response","251","1161688","0.0-4.0-4.0-1.16","spark_pilot_2","7144","2","9","Female","","","","","","","null","<div style=""font-size:60px;"">+</div>","null","fixation","","","","","","","","","","","33","","",""
"revaluation","252","1165694","0.0-4.0-4.0-0.17","spark_pilot_2","7144","2","9","Female","","false","","","","","[695.8000000007451]","./assets/img/ocean/animals/seahorse.jpg","[""ArrowLeft""]","revaluation","ocean","27","{""ArrowUp,ArrowLeft"":27,""ArrowUp,ArrowRight"":15,""ArrowDown,ArrowLeft"":21,""ArrowDown,ArrowRight"":7}","true","ArrowUp,ArrowLeft","","","","revaluation","1","34","","",""
"html-keyboard-response","253","1166196","0.0-4.0-4.0-1.17","spark_pilot_2","7144","2","9","Female","","","","","","","null","<div style=""font-size:60px;"">+</div>","null","fixation","","","","","","","","","","","35","","",""
"learning-instructions","254","1179978","0.0-4.0-5.0-0.0","spark_pilot_2","7144","2","9","Female","","","","","","","2251.5","<p> Time to play the dot game! </p>
            <p> For one minute, click the red dots on the following screen as they appear. </p>
            <p><b> Don't look away, as you will earn bonus for clicking dots</b>. </p>","","instructions","","","","","","","","","","","","","",""
"revaluation","255","1239991","0.0-4.0-6.0-0.0","spark_pilot_2","7144","2","9","Female","","","","","","","[104,88,93,89,71,115]","","","rest","","60","","","","","0","60000","","","","","",""
"learning-instructions","256","1247351","0.0-4.0-7.0-0.0","spark_pilot_2","7144","2","9","Female","","","","","","","1184.3999999985099","<p> You have almost finished this part of the game! </p>
            <p> We are going to ask you to make a few more choices. </p>","","instructions","","","","","","","","","","","","","",""
"learning-instructions","257","1262502","0.0-4.0-7.0-0.1","spark_pilot_2","7144","2","9","Female","","","","","","","1184.2999999970198","<p> First, you need to decide whether to go up or down. When you see each picture, use the arrow keys to make your choice. </p>
            <p><b>You will not see which animal you found, but try to get to the one that will give you the most treasure.</b></p>","","instructions","","","","","","","","","","","","","",""
"revaluation","258","1263360","0.0-4.0-8.0-0.0","spark_pilot_2","7144","2","9","Female","","false","","","","","[856.6000000014901]","./assets/img/ocean/test/0.jpg","[""ArrowDown""]","first stage test","ocean","0","{""ArrowUp,ArrowLeft"":27,""ArrowUp,ArrowRight"":15,""ArrowDown,ArrowLeft"":21,""ArrowDown,ArrowRight"":7}","false","ArrowDown","false","","","revaluation","1","","","",""
"html-keyboard-response","259","1263866","0.0-4.0-8.0-1.0","spark_pilot_2","7144","2","9","Female","","","","","","","null","<div style=""font-size:60px;"">+</div>","null","fixation","","","","","","","","","","","","","",""
"revaluation","260","1264744","0.0-4.0-8.0-0.1","spark_pilot_2","7144","2","9","Female","","false","","","","","[873]","./assets/img/ocean/test/2.jpg","[""ArrowUp""]","first stage test","ocean","0","{""ArrowUp,ArrowLeft"":27,""ArrowUp,ArrowRight"":15,""ArrowDown,ArrowLeft"":21,""ArrowDown,ArrowRight"":7}","true","ArrowUp","false","","","revaluation","1","","","",""
"html-keyboard-response","261","1265247","0.0-4.0-8.0-1.1","spark_pilot_2","7144","2","9","Female","","","","","","","null","<div style=""font-size:60px;"">+</div>","null","fixation","","","","","","","","","","","","","",""
"revaluation","262","1265793","0.0-4.0-8.0-0.2","spark_pilot_2","7144","2","9","Female","","false","","","","","[540]","./assets/img/ocean/test/1.jpg","[""ArrowDown""]","first stage test","ocean","0","{""ArrowUp,ArrowLeft"":27,""ArrowUp,ArrowRight"":15,""ArrowDown,ArrowLeft"":21,""ArrowDown,ArrowRight"":7}","false","ArrowDown","false","","","revaluation","1","","","",""
"html-keyboard-response","263","1266307","0.0-4.0-8.0-1.2","spark_pilot_2","7144","2","9","Female","","","","","","","null","<div style=""font-size:60px;"">+</div>","null","fixation","","","","","","","","","","","","","",""
"revaluation","264","1266681","0.0-4.0-8.0-0.3","spark_pilot_2","7144","2","9","Female","","false","","","","","[369]","./assets/img/ocean/test/3.jpg","[""ArrowDown""]","first stage test","ocean","0","{""ArrowUp,ArrowLeft"":27,""ArrowUp,ArrowRight"":15,""ArrowDown,ArrowLeft"":21,""ArrowDown,ArrowRight"":7}","false","ArrowDown","false","","","revaluation","1","","","",""
"html-keyboard-response","265","1267196","0.0-4.0-8.0-1.3","spark_pilot_2","7144","2","9","Female","","","","","","","null","<div style=""font-size:60px;"">+</div>","null","fixation","","","","","","","","","","","","","",""
"learning-instructions","266","1280913","0.0-4.0-9.0-0.0","spark_pilot_2","7144","2","9","Female","","","","","","","2385.199999999255","<p> Now you will see the animals again and can search their chests for treasure. </p>
            <p> This time, you will not see how much treasure you earned, but you will earn more bonus money for making better choices. </p>","","instructions","","","","","","","","","","","","","",""
"revaluation","267","1281581","0.0-4.0-10.0-0.0","spark_pilot_2","7144","2","9","Female","","false","","","","","[665]","./assets/img/ocean/animals/seahorse.jpg","[""ArrowLeft""]","second stage test","ocean","0","{""ArrowUp,ArrowLeft"":27,""ArrowUp,ArrowRight"":15,""ArrowDown,ArrowLeft"":21,""ArrowDown,ArrowRight"":7}","true","ArrowUp,ArrowLeft","","","","revaluation","1","","","",""
"html-keyboard-response","268","1282096","0.0-4.0-10.0-1.0","spark_pilot_2","7144","2","9","Female","","","","","","","null","<div style=""font-size:60px;"">+</div>","null","fixation","","","","","","","","","","","","","",""
"revaluation","269","1282440","0.0-4.0-10.0-0.1","spark_pilot_2","7144","2","9","Female","","false","","","","","[341.5]","./assets/img/ocean/animals/seahorse.jpg","[""ArrowLeft""]","second stage test","ocean","0","{""ArrowUp,ArrowLeft"":27,""ArrowUp,ArrowRight"":15,""ArrowDown,ArrowLeft"":21,""ArrowDown,ArrowRight"":7}","true","ArrowUp,ArrowLeft","","","","revaluation","1","","","",""
"html-keyboard-response","270","1282943","0.0-4.0-10.0-1.1","spark_pilot_2","7144","2","9","Female","","","","","","","null","<div style=""font-size:60px;"">+</div>","null","fixation","","","","","","","","","","","","","",""
"revaluation","271","1283338","0.0-4.0-10.0-0.2","spark_pilot_2","7144","2","9","Female","","false","","","","","[391.6000000014901]","./assets/img/ocean/animals/seahorse.jpg","[""ArrowLeft""]","second stage test","ocean","0","{""ArrowUp,ArrowLeft"":27,""ArrowUp,ArrowRight"":15,""ArrowDown,ArrowLeft"":21,""ArrowDown,ArrowRight"":7}","true","ArrowUp,ArrowLeft","","","","revaluation","1","","","",""
"html-keyboard-response","272","1283856","0.0-4.0-10.0-1.2","spark_pilot_2","7144","2","9","Female","","","","","","","null","<div style=""font-size:60px;"">+</div>","null","fixation","","","","","","","","","","","","","",""
"revaluation","273","1284200","0.0-4.0-10.0-0.3","spark_pilot_2","7144","2","9","Female","","false","","","","","[338.19999999925494]","./assets/img/ocean/animals/seahorse.jpg","[""ArrowLeft""]","second stage test","ocean","0","{""ArrowUp,ArrowLeft"":27,""ArrowUp,ArrowRight"":15,""ArrowDown,ArrowLeft"":21,""ArrowDown,ArrowRight"":7}","true","ArrowUp,ArrowLeft","","","","revaluation","1","","","",""
"html-keyboard-response","274","1284702","0.0-4.0-10.0-1.3","spark_pilot_2","7144","2","9","Female","","","","","","","null","<div style=""font-size:60px;"">+</div>","null","fixation","","","","","","","","","","","","","",""
"revaluation","275","1285115","0.0-4.0-10.0-0.4","spark_pilot_2","7144","2","9","Female","","false","","","","","[408.69999999925494]","./assets/img/ocean/animals/octopus.jpg","[""ArrowLeft""]","second stage test","ocean","0","{""ArrowUp,ArrowLeft"":27,""ArrowUp,ArrowRight"":15,""ArrowDown,ArrowLeft"":21,""ArrowDown,ArrowRight"":7}","true","ArrowDown,ArrowLeft","","","","revaluation","1","","","",""
"html-keyboard-response","276","1285626","0.0-4.0-10.0-1.4","spark_pilot_2","7144","2","9","Female","","","","","","","null","<div style=""font-size:60px;"">+</div>","null","fixation","","","","","","","","","","","","","",""
"revaluation","277","1285954","0.0-4.0-10.0-0.5","spark_pilot_2","7144","2","9","Female","","false","","","","","[324.5]","./assets/img/ocean/animals/octopus.jpg","[""ArrowLeft""]","second stage test","ocean","0","{""ArrowUp,ArrowLeft"":27,""ArrowUp,ArrowRight"":15,""ArrowDown,ArrowLeft"":21,""ArrowDown,ArrowRight"":7}","true","ArrowDown,ArrowLeft","","","","revaluation","1","","","",""
"html-keyboard-response","278","1286456","0.0-4.0-10.0-1.5","spark_pilot_2","7144","2","9","Female","","","","","","","null","<div style=""font-size:60px;"">+</div>","null","fixation","","","","","","","","","","","","","",""
"revaluation","279","1286827","0.0-4.0-10.0-0.6","spark_pilot_2","7144","2","9","Female","","false","","","","","[362.6000000014901]","./assets/img/ocean/animals/octopus.jpg","[""ArrowLeft""]","second stage test","ocean","0","{""ArrowUp,ArrowLeft"":27,""ArrowUp,ArrowRight"":15,""ArrowDown,ArrowLeft"":21,""ArrowDown,ArrowRight"":7}","true","ArrowDown,ArrowLeft","","","","revaluation","1","","","",""
"html-keyboard-response","280","1287336","0.0-4.0-10.0-1.6","spark_pilot_2","7144","2","9","Female","","","","","","","null","<div style=""font-size:60px;"">+</div>","null","fixation","","","","","","","","","","","","","",""
"revaluation","281","1287729","0.0-4.0-10.0-0.7","spark_pilot_2","7144","2","9","Female","","false","","","","","[388.9000000022352]","./assets/img/ocean/animals/octopus.jpg","[""ArrowLeft""]","second stage test","ocean","0","{""ArrowUp,ArrowLeft"":27,""ArrowUp,ArrowRight"":15,""ArrowDown,ArrowLeft"":21,""ArrowDown,ArrowRight"":7}","true","ArrowDown,ArrowLeft","","","","revaluation","1","","","",""
"html-keyboard-response","282","1288236","0.0-4.0-10.0-1.7","spark_pilot_2","7144","2","9","Female","","","","","","","null","<div style=""font-size:60px;"">+</div>","null","fixation","","","","","","","","","","","","","",""
"learning-instructions","283","1292210","0.0-4.0-0.1-0.2","spark_pilot_2","7144","2","9","Female","","","","","","","1191.5","<p> This time you are searching for treasure in the <b>canyon</b>.</p>","","instructions","","","","","","","","","","","","","",""
"learning-instructions","284","1312133","0.0-4.0-0.1-0.3","spark_pilot_2","7144","2","9","Female","","","","","","","2674.5","<p><b>New</b> animals with <b>new</b> treasure chests live here. You need to explore to discover where the animal with the best treasure chest is.</p>
                    <p> Like before, once you figure out which animal has the chest with the most treasure, you should try to get to that animal and select that chest! </p>","","instructions","","","","","","","","","","","","","",""
"learning-instructions","285","1327797","0.0-4.0-1.1-0.1","spark_pilot_2","7144","2","9","Female","","","","","","","939.8000000007451","<p> Remember, when you see a picture of the place, use the up and down keys to <b>find an animal</b>.</p>
            <p> When you encounter an animal, you should use the left and right keys to <b>select a treasure chest</b>.</p>
            <p> Don't forget to look out for the robber! </p>","","instructions","","","","","","","","","","","","","",""
"revaluation","286","1333846","0.0-4.0-2.1-0.50","spark_pilot_2","7144","2","9","Female","","false","","","","","[1520.8999999985099,802]","./assets/img/canyon/memory/35.jpg","[""ArrowDown"",""ArrowRight""]","value training","canyon","17","{""ArrowUp,ArrowLeft"":26,""ArrowUp,ArrowRight"":10,""ArrowDown,ArrowLeft"":5,""ArrowDown,ArrowRight"":17}","false","ArrowDown,ArrowRight","false","","","original","2","0","","",""
"html-keyboard-response","287","1334355","0.0-4.0-2.1-1.50","spark_pilot_2","7144","2","9","Female","","","","","","","null","<div style=""font-size:60px;"">+</div>","null","fixation","","","","","","","","","","","1","","",""
"revaluation","288","1340397","0.0-4.0-2.1-0.51","spark_pilot_2","7144","2","9","Female","","false","","","","","[512.8000000007451,510.19999999925494]","./assets/img/canyon/memory/1.jpg","[""ArrowDown"",""ArrowLeft""]","value training","canyon","5","{""ArrowUp,ArrowLeft"":26,""ArrowUp,ArrowRight"":10,""ArrowDown,ArrowLeft"":5,""ArrowDown,ArrowRight"":17}","false","ArrowDown,ArrowLeft","false","","","original","2","2","","",""
"html-keyboard-response","289","1340906","0.0-4.0-2.1-1.51","spark_pilot_2","7144","2","9","Female","","","","","","","null","<div style=""font-size:60px;"">+</div>","null","fixation","","","","","","","","","","","3","","",""
"revaluation","290","1346947","0.0-4.0-2.1-0.52","spark_pilot_2","7144","2","9","Female","","false","","","","","[576.3000000007451,442.1000000014901]","./assets/img/canyon/memory/0.jpg","[""ArrowUp"",""ArrowRight""]","value training","canyon","10","{""ArrowUp,ArrowLeft"":26,""ArrowUp,ArrowRight"":10,""ArrowDown,ArrowLeft"":5,""ArrowDown,ArrowRight"":17}","false","ArrowUp,ArrowRight","false","","","original","2","4","","",""
"html-keyboard-response","291","1347455","0.0-4.0-2.1-1.52","spark_pilot_2","7144","2","9","Female","","","","","","","null","<div style=""font-size:60px;"">+</div>","null","fixation","","","","","","","","","","","5","","",""
"revaluation","292","1353506","0.0-4.0-2.1-0.53","spark_pilot_2","7144","2","9","Female","","false","","","","","[1139,495.1000000014901]","./assets/img/canyon/memory/23.jpg","[""ArrowUp"",""ArrowLeft""]","value training","canyon","26","{""ArrowUp,ArrowLeft"":26,""ArrowUp,ArrowRight"":10,""ArrowDown,ArrowLeft"":5,""ArrowDown,ArrowRight"":17}","true","ArrowUp,ArrowLeft","false","","","original","2","6","","",""
"html-keyboard-response","293","1354016","0.0-4.0-2.1-1.53","spark_pilot_2","7144","2","9","Female","","","","","","","null","<div style=""font-size:60px;"">+</div>","null","fixation","","","","","","","","","","","7","","",""
"revaluation","294","1358027","0.0-4.0-2.1-0.54","spark_pilot_2","7144","2","9","Female","","false","","","","","[778.3000000007451]","./assets/img/canyon/catch/3.jpg","[""spaceBar""]","value training","canyon","0","{""ArrowUp,ArrowLeft"":26,""ArrowUp,ArrowRight"":10,""ArrowDown,ArrowLeft"":5,""ArrowDown,ArrowRight"":17}","true","spaceBar","true","","","original","2","8","","",""
"html-keyboard-response","295","1358530","0.0-4.0-2.1-1.54","spark_pilot_2","7144","2","9","Female","","","","","","","null","<div style=""font-size:60px;"">+</div>","null","fixation","","","","","","","","","","","9","","",""
"revaluation","296","1364535","0.0-4.0-2.1-0.55","spark_pilot_2","7144","2","9","Female","","false","","","","","[517.3000000007451,417.5]","./assets/img/canyon/memory/26.jpg","[""ArrowUp"",""ArrowLeft""]","value training","canyon","26","{""ArrowUp,ArrowLeft"":26,""ArrowUp,ArrowRight"":10,""ArrowDown,ArrowLeft"":5,""ArrowDown,ArrowRight"":17}","true","ArrowUp,ArrowLeft","false","","","original","2","10","","",""
"html-keyboard-response","297","1365041","0.0-4.0-2.1-1.55","spark_pilot_2","7144","2","9","Female","","","","","","","null","<div style=""font-size:60px;"">+</div>","null","fixation","","","","","","","","","","","11","","",""
"revaluation","298","1371050","0.0-4.0-2.1-0.56","spark_pilot_2","7144","2","9","Female","","false","","","","","[731.4000000022352,632.3999999985099]","./assets/img/canyon/memory/17.jpg","[""ArrowUp"",""ArrowLeft""]","value training","canyon","26","{""ArrowUp,ArrowLeft"":26,""ArrowUp,ArrowRight"":10,""ArrowDown,ArrowLeft"":5,""ArrowDown,ArrowRight"":17}","true","ArrowUp,ArrowLeft","false","","","original","2","12","","",""
"html-keyboard-response","299","1371551","0.0-4.0-2.1-1.56","spark_pilot_2","7144","2","9","Female","","","","","","","null","<div style=""font-size:60px;"">+</div>","null","fixation","","","","","","","","","","","13","","",""
"revaluation","300","1377561","0.0-4.0-2.1-0.57","spark_pilot_2","7144","2","9","Female","","false","","","","","[849.8000000007451,512.3999999985099]","./assets/img/canyon/memory/13.jpg","[""ArrowUp"",""ArrowLeft""]","value training","canyon","26","{""ArrowUp,ArrowLeft"":26,""ArrowUp,ArrowRight"":10,""ArrowDown,ArrowLeft"":5,""ArrowDown,ArrowRight"":17}","true","ArrowUp,ArrowLeft","false","","","original","2","14","","",""
"html-keyboard-response","301","1378063","0.0-4.0-2.1-1.57","spark_pilot_2","7144","2","9","Female","","","","","","","null","<div style=""font-size:60px;"">+</div>","null","fixation","","","","","","","","","","","15","","",""
"revaluation","302","1384070","0.0-4.0-2.1-0.58","spark_pilot_2","7144","2","9","Female","","false","","","","","[559.3999999985099,702.3999999985099]","./assets/img/canyon/memory/10.jpg","[""ArrowUp"",""ArrowLeft""]","value training","canyon","26","{""ArrowUp,ArrowLeft"":26,""ArrowUp,ArrowRight"":10,""ArrowDown,ArrowLeft"":5,""ArrowDown,ArrowRight"":17}","true","ArrowUp,ArrowLeft","false","","","original","2","16","","",""
"html-keyboard-response","303","1384571","0.0-4.0-2.1-1.58","spark_pilot_2","7144","2","9","Female","","","","","","","null","<div style=""font-size:60px;"">+</div>","null","fixation","","","","","","","","","","","17","","",""
"revaluation","304","1390577","0.0-4.0-2.1-0.59","spark_pilot_2","7144","2","9","Female","","false","","","","","[634.9000000022352,627.3000000007451]","./assets/img/canyon/memory/39.jpg","[""ArrowUp"",""ArrowLeft""]","value training","canyon","26","{""ArrowUp,ArrowLeft"":26,""ArrowUp,ArrowRight"":10,""ArrowDown,ArrowLeft"":5,""ArrowDown,ArrowRight"":17}","true","ArrowUp,ArrowLeft","false","","","original","2","18","","",""
"html-keyboard-response","305","1391079","0.0-4.0-2.1-1.59","spark_pilot_2","7144","2","9","Female","","","","","","","null","<div style=""font-size:60px;"">+</div>","null","fixation","","","","","","","","","","","19","","",""
"revaluation","306","1397084","0.0-4.0-2.1-0.60","spark_pilot_2","7144","2","9","Female","","false","","","","","[656.7000000029802,596.3999999985099]","./assets/img/canyon/memory/39.jpg","[""ArrowUp"",""ArrowLeft""]","value training","canyon","26","{""ArrowUp,ArrowLeft"":26,""ArrowUp,ArrowRight"":10,""ArrowDown,ArrowLeft"":5,""ArrowDown,ArrowRight"":17}","true","ArrowUp,ArrowLeft","false","","","original","2","20","","",""
