"trial_type","trial_index","time_elapsed","internal_node_id","task_version","subject_id","assigned_condition","age","gender","success","timeout","failed_images","failed_audio","failed_video","browser_interaction","rt","stimulus","response","task_part","environment","score","rewardMap","correct","fullState","isCatch","numberMissed","duration","condition","order","trial_num","key_press","ground_truth","bonus"
"pavlovia","0","1360","0.0-0.0","spark_pilot_2","7345","4","13","Female","","","","","","","","","","","","","","","","","","","","","","","",""
"preload","1","2237","0.0-1.0","spark_pilot_2","7345","4","13","Female","true","false","[]","[]","[]","[{""event"":""fullscreenenter"",""trial"":2,""time"":3364}]","","","","","","","","","","","","","","","","","",""
"fullscreen","2","4350","0.0-2.0","spark_pilot_2","7345","4","13","Female","true","","","","","","","","","","","","","","","","","","","","","","",""
"audio-button-response","3","6788","0.0-3.0-0.0-0.0","spark_pilot_2","7345","4","13","Female","","","","","","","1989","./assets/audio/audiotest/turtle.mp3","2","audio_test","","","","","","","","","","","","","",""
"learning-instructions","4","16540","0.0-3.0-1.0-0.0","spark_pilot_2","7345","4","13","Female","","","","","","","2762.199999809265","<p> Welcome! Please remember to stay in fullscreen mode and don't click away from the experiment. </p>","","instructions","","","","","","","","","","","","","",""
"learning-instructions","5","29669","0.0-3.0-1.0-0.1","spark_pilot_2","7345","4","13","Female","","","","","","","4730.099999904633","<p> Today you will be playing a game to earn treasure. </p>
            <p> At the end of the experiment, you will earn a bonus based on how much treasure you find. </p>
            <img src='./assets/img/instructions/treasure.jpg' class='instructions-image'>","","instructions","","","","","","","","","","","","","",""
"learning-instructions","6","41093","0.0-3.0-1.0-0.2","spark_pilot_2","7345","4","13","Female","","","","","","","3163.899999856949","<p> Animals have hidden treasure in treasure chests. </p>
            <p> You need to first find an animal and then choose which of their treasure chests to search. </p>
            <img src='./assets/img/space/animals/cat.jpg' class='instructions-image'>","","instructions","","","","","","","","","","","","","",""
"learning-instructions","7","55061","0.0-3.0-1.0-0.3","spark_pilot_2","7345","4","13","Female","","","","","","","823.1999998092651","<p> In each round, you will search for treasure in a different place. In the real game, there will be two rounds. </p>
            <p> You will begin with a separate, practice round where you will search for treasure in outer space. </p>
            <img src='./assets/img/space/0.jpg' class='instructions-image'>","","instructions","","","","","","","","","","","","","",""
"learning-instructions","8","66989","0.0-3.0-1.0-0.4","spark_pilot_2","7345","4","13","Female","","","","","","","509.5","<p> On every turn, you will see a picture of the place that you are in, but the specific image may be different each time. </p>
            <p> For example, both of these images mean you are in outer space. </p>
            <img src='./assets/img/instructions/outerspace.jpg' class='instructions-image'>","","instructions","","","","","","","","","","","","","",""
"learning-instructions","9","75397","0.0-3.0-1.0-0.5","spark_pilot_2","7345","4","13","Female","","","","","","","587.6999998092651","<p> You need to decide which direction to travel in. </p>
            <p> You can choose between going <b>up or down</b> by using the arrow keys. </p>
            <img src='./assets/img/instructions/updown.jpg' class='instructions-image'>","","instructions","","","","","","","","","","","","","",""
"learning-instructions","10","84701","0.0-3.0-1.0-0.6","spark_pilot_2","7345","4","13","Female","","","","","","","491.89999985694885","<p> You will have <b>2 seconds</b> to make your choice. </p>
            <p> If you do not make a choice within 2 seconds, you will not find an animal or earn treasure. </p>
            <img src='./assets/img/instructions/2seconds.jpg' class='instructions-image'>","","instructions","","","","","","","","","","","","","",""
"learning-instructions","11","92876","0.0-3.0-1.0-0.7","spark_pilot_2","7345","4","13","Female","","","","","","","1147.3999998569489","<p> Let’s try practicing that now! </p>
            <p> When you see a picture of the place you are in, press the <b>up</b> key to travel up. </p>
            <img src='./assets/img/instructions/pressUp.jpg' class='instructions-image'>","","instructions","","","","","","","","","","","","","",""
"revaluation","12","96894","0.0-3.0-2.0-0.0","spark_pilot_2","7345","4","13","Female","","false","","","","","[1033.5]","./assets/img/space/0.jpg","[""ArrowUp""]","first stage practice","space","0","null","null","ArrowUp","false","","","","","","","",""
"html-keyboard-response","13","97400","0.0-3.0-2.0-1.0","spark_pilot_2","7345","4","13","Female","","","","","","","null","<div style=""font-size:60px;"">+</div>","null","fixation","","","","","","","","","","","","","",""
"revaluation","14","101421","0.0-3.0-2.0-0.1","spark_pilot_2","7345","4","13","Female","","false","","","","","[839.5999999046326]","./assets/img/space/1.jpg","[""ArrowUp""]","first stage practice","space","0","null","null","ArrowUp","false","","","","","","","",""
"html-keyboard-response","15","101932","0.0-3.0-2.0-1.1","spark_pilot_2","7345","4","13","Female","","","","","","","null","<div style=""font-size:60px;"">+</div>","null","fixation","","","","","","","","","","","","","",""
"revaluation","16","105958","0.0-3.0-2.0-0.2","spark_pilot_2","7345","4","13","Female","","false","","","","","[563.2000000476837]","./assets/img/space/2.jpg","[""ArrowUp""]","first stage practice","space","0","null","null","ArrowUp","false","","","","","","","",""
"html-keyboard-response","17","106467","0.0-3.0-2.0-1.2","spark_pilot_2","7345","4","13","Female","","","","","","","null","<div style=""font-size:60px;"">+</div>","null","fixation","","","","","","","","","","","","","",""
"learning-instructions","18","112981","0.0-3.0-3.0-0.0","spark_pilot_2","7345","4","13","Female","","","","","","","1782.2000000476837","<p> Great job! Now try pressing the <b>down</b> key to travel down. </p>
            <img src='./assets/img/instructions/pressDown.jpg' class='instructions-image'>","","instructions","","","","","","","","","","","","","",""
"revaluation","19","116995","0.0-3.0-4.0-0.0","spark_pilot_2","7345","4","13","Female","","false","","","","","[927.0999999046326]","./assets/img/space/3.jpg","[""ArrowDown""]","first stage practice","space","0","null","null","ArrowDown","false","","","","","","","",""
"html-keyboard-response","20","117504","0.0-3.0-4.0-1.0","spark_pilot_2","7345","4","13","Female","","","","","","","null","<div style=""font-size:60px;"">+</div>","null","fixation","","","","","","","","","","","","","",""
"revaluation","21","121529","0.0-3.0-4.0-0.1","spark_pilot_2","7345","4","13","Female","","false","","","","","[360.2999999523163]","./assets/img/space/4.jpg","[""ArrowDown""]","first stage practice","space","0","null","null","ArrowDown","false","","","","","","","",""
"html-keyboard-response","22","122041","0.0-3.0-4.0-1.1","spark_pilot_2","7345","4","13","Female","","","","","","","null","<div style=""font-size:60px;"">+</div>","null","fixation","","","","","","","","","","","","","",""
"revaluation","23","126070","0.0-3.0-4.0-0.2","spark_pilot_2","7345","4","13","Female","","false","","","","","[367.2999999523163]","./assets/img/space/5.jpg","[""ArrowDown""]","first stage practice","space","0","null","null","ArrowDown","false","","","","","","","",""
"html-keyboard-response","24","126580","0.0-3.0-4.0-1.2","spark_pilot_2","7345","4","13","Female","","","","","","","null","<div style=""font-size:60px;"">+</div>","null","fixation","","","","","","","","","","","","","",""
"learning-instructions","25","140492","0.0-3.0-5.0-0.0","spark_pilot_2","7345","4","13","Female","","","","","","","4013.9000000953674","<p> The animals don’t move, so the animal in the upper part of a place will stay in the upper part of a place, and the animal in the lower part of a place will stay in the lower part of a place. </p>","","instructions","","","","","","","","","","","","","",""
"learning-instructions","26","153685","0.0-3.0-5.0-0.1","spark_pilot_2","7345","4","13","Female","","","","","","","4076","<p> Each animal has two treasure chests for you to choose from. </p>
            <p> The amount of treasure in each chest can range from <b> 0 to 40 pieces.</b></p>","","instructions","","","","","","","","","","","","","",""
"learning-instructions","27","167997","0.0-3.0-5.0-0.2","spark_pilot_2","7345","4","13","Female","","","","","","","3137.7999999523163","<p> You should decide which chest to search for treasure by using the <b>left</b> and <b>right</b> arrow keys. </p>
            <p><b> Pay attention to which animal is on the screen, as the animals have different treasure chests. </b></p>
            <img src='./assets/img/instructions/leftright.jpg' class='instructions-image'>","","instructions","","","","","","","","","","","","","",""
"learning-instructions","28","175245","0.0-3.0-5.0-0.3","spark_pilot_2","7345","4","13","Female","","","","","","","886","<p> Let’s try practicing that now. </p>
            <p> When you see an animal, choose which chest to search for treasure. </p>
            <img src='./assets/img/instructions/chooseChest.jpg' class='instructions-image'>","","instructions","","","","","","","","","","","","","",""
"revaluation","29","179274","0.0-3.0-6.0-0.0","spark_pilot_2","7345","4","13","Female","","false","","","","","[1031.5]","./assets/img/space/animals/rabbit.jpg","[""ArrowLeft""]","second stage practice","space","15","{""ArrowUp,ArrowLeft"":3,""ArrowUp,ArrowRight"":36,""ArrowDown,ArrowLeft"":15,""ArrowDown,ArrowRight"":23}","false","ArrowDown,ArrowLeft","","","","","","","","",""
"html-keyboard-response","30","179787","0.0-3.0-6.0-1.0","spark_pilot_2","7345","4","13","Female","","","","","","","null","<div style=""font-size:60px;"">+</div>","null","fixation","","","","","","","","","","","","","",""
"revaluation","31","183817","0.0-3.0-6.0-0.1","spark_pilot_2","7345","4","13","Female","","false","","","","","[854.6999998092651]","./assets/img/space/animals/cat.jpg","[""ArrowLeft""]","second stage practice","space","3","{""ArrowUp,ArrowLeft"":3,""ArrowUp,ArrowRight"":36,""ArrowDown,ArrowLeft"":15,""ArrowDown,ArrowRight"":23}","false","ArrowUp,ArrowLeft","","","","","","","","",""
"html-keyboard-response","32","184327","0.0-3.0-6.0-1.1","spark_pilot_2","7345","4","13","Female","","","","","","","null","<div style=""font-size:60px;"">+</div>","null","fixation","","","","","","","","","","","","","",""
"revaluation","33","188343","0.0-3.0-6.0-0.2","spark_pilot_2","7345","4","13","Female","","false","","","","","[577.5999999046326]","./assets/img/space/animals/cat.jpg","[""ArrowRight""]","second stage practice","space","36","{""ArrowUp,ArrowLeft"":3,""ArrowUp,ArrowRight"":36,""ArrowDown,ArrowLeft"":15,""ArrowDown,ArrowRight"":23}","true","ArrowUp,ArrowRight","","","","","","","","",""
"html-keyboard-response","34","188855","0.0-3.0-6.0-1.2","spark_pilot_2","7345","4","13","Female","","","","","","","null","<div style=""font-size:60px;"">+</div>","null","fixation","","","","","","","","","","","","","",""
"revaluation","35","192879","0.0-3.0-6.0-0.3","spark_pilot_2","7345","4","13","Female","","false","","","","","[1166.3000001907349]","./assets/img/space/animals/rabbit.jpg","[""ArrowRight""]","second stage practice","space","23","{""ArrowUp,ArrowLeft"":3,""ArrowUp,ArrowRight"":36,""ArrowDown,ArrowLeft"":15,""ArrowDown,ArrowRight"":23}","true","ArrowDown,ArrowRight","","","","","","","","",""
"html-keyboard-response","36","193388","0.0-3.0-6.0-1.3","spark_pilot_2","7345","4","13","Female","","","","","","","null","<div style=""font-size:60px;"">+</div>","null","fixation","","","","","","","","","","","","","",""
"learning-instructions","37","212653","0.0-3.0-7.0-0.0","spark_pilot_2","7345","4","13","Female","","","","","","","2413.899999856949","<p> Great job. Now let’s try putting it together. </p>
            <p> On each turn, you will first see a picture to remind you of the place you are in, and you need to choose whether to go up or down. </p>
            <p> Then you will see an animal and choose which of its chests to search for treasure. </p>","","instructions","","","","","","","","","","","","","",""
"learning-instructions","38","221508","0.0-3.0-7.0-0.1","spark_pilot_2","7345","4","13","Female","","","","","","","610","<p> When you choose whether to go up or down, try to go to the animal with the chest with the most treasure. </p>
            <p> Try practicing that now! </p>","","instructions","","","","","","","","","","","","","",""
"revaluation","39","227544","0.0-3.0-8.0-0.0","spark_pilot_2","7345","4","13","Female","","false","","","","","[1112.2000000476837,519.5]","./assets/img/space/6.jpg","[""ArrowDown"",""ArrowRight""]","full practice","space","23","{""ArrowUp,ArrowLeft"":3,""ArrowUp,ArrowRight"":36,""ArrowDown,ArrowLeft"":15,""ArrowDown,ArrowRight"":23}","false","ArrowDown,ArrowRight","false","","","","","","","",""
"html-keyboard-response","40","228052","0.0-3.0-8.0-1.0","spark_pilot_2","7345","4","13","Female","","","","","","","null","<div style=""font-size:60px;"">+</div>","null","fixation","","","","","","","","","","","","","",""
"revaluation","41","234078","0.0-3.0-8.0-0.1","spark_pilot_2","7345","4","13","Female","","false","","","","","[724.3999998569489,358.7000000476837]","./assets/img/space/7.jpg","[""ArrowUp"",""ArrowRight""]","full practice","space","36","{""ArrowUp,ArrowLeft"":3,""ArrowUp,ArrowRight"":36,""ArrowDown,ArrowLeft"":15,""ArrowDown,ArrowRight"":23}","true","ArrowUp,ArrowRight","false","","","","","","","",""
"html-keyboard-response","42","234591","0.0-3.0-8.0-1.1","spark_pilot_2","7345","4","13","Female","","","","","","","null","<div style=""font-size:60px;"">+</div>","null","fixation","","","","","","","","","","","","","",""
"revaluation","43","240626","0.0-3.0-8.0-0.2","spark_pilot_2","7345","4","13","Female","","false","","","","","[674.0999999046326,432.40000009536743]","./assets/img/space/8.jpg","[""ArrowUp"",""ArrowRight""]","full practice","space","36","{""ArrowUp,ArrowLeft"":3,""ArrowUp,ArrowRight"":36,""ArrowDown,ArrowLeft"":15,""ArrowDown,ArrowRight"":23}","true","ArrowUp,ArrowRight","false","","","","","","","",""
"html-keyboard-response","44","241136","0.0-3.0-8.0-1.2","spark_pilot_2","7345","4","13","Female","","","","","","","null","<div style=""font-size:60px;"">+</div>","null","fixation","","","","","","","","","","","","","",""
"revaluation","45","247169","0.0-3.0-8.0-0.3","spark_pilot_2","7345","4","13","Female","","false","","","","","[687.5,509.60000014305115]","./assets/img/space/9.jpg","[""ArrowUp"",""ArrowRight""]","full practice","space","36","{""ArrowUp,ArrowLeft"":3,""ArrowUp,ArrowRight"":36,""ArrowDown,ArrowLeft"":15,""ArrowDown,ArrowRight"":23}","true","ArrowUp,ArrowRight","false","","","","","","","",""
"html-keyboard-response","46","247679","0.0-3.0-8.0-1.3","spark_pilot_2","7345","4","13","Female","","","","","","","null","<div style=""font-size:60px;"">+</div>","null","fixation","","","","","","","","","","","","","",""
"revaluation","47","253695","0.0-3.0-8.0-0.4","spark_pilot_2","7345","4","13","Female","","false","","","","","[650.8999998569489,616.1000001430511]","./assets/img/space/10.jpg","[""ArrowUp"",""ArrowRight""]","full practice","space","36","{""ArrowUp,ArrowLeft"":3,""ArrowUp,ArrowRight"":36,""ArrowDown,ArrowLeft"":15,""ArrowDown,ArrowRight"":23}","true","ArrowUp,ArrowRight","false","","","","","","","",""
"html-keyboard-response","48","254197","0.0-3.0-8.0-1.4","spark_pilot_2","7345","4","13","Female","","","","","","","null","<div style=""font-size:60px;"">+</div>","null","fixation","","","","","","","","","","","","","",""
"learning-instructions","49","265677","0.0-3.0-9.0-0.0","spark_pilot_2","7345","4","13","Female","","","","","","","1138","<p> One last thing: sometimes, you will see a robber. The robber can be anywhere in the picture. </p>
            <p> If you do not stop them, you will lose treasure. </p>
            <img src='./assets/img/instructions/robber.jpg' class='instructions-image'>","","instructions","","","","","","","","","","","","","",""
"learning-instructions","50","273389","0.0-3.0-9.0-0.1","spark_pilot_2","7345","4","13","Female","","","","","","","560.2999999523163","<p> If you see the robber, you should <b>press the space bar</b> rather than using the arrow keys. </p>
            <p> Try practicing that now! </p>","","instructions","","","","","","","","","","","","","",""
"revaluation","51","277409","0.0-3.0-10.0-0.0","spark_pilot_2","7345","4","13","Female","","false","","","","","[1511.7000000476837]","./assets/img/space/catch/0.jpg","[""spaceBar""]","catch practice","space","0","{""ArrowUp,ArrowLeft"":3,""ArrowUp,ArrowRight"":36,""ArrowDown,ArrowLeft"":15,""ArrowDown,ArrowRight"":23}","true","spaceBar","true","","","","","","","",""
"html-keyboard-response","52","277919","0.0-3.0-10.0-1.0","spark_pilot_2","7345","4","13","Female","","","","","","","null","<div style=""font-size:60px;"">+</div>","null","fixation","","","","","","","","","","","","","",""
"revaluation","53","281949","0.0-3.0-10.0-0.1","spark_pilot_2","7345","4","13","Female","","false","","","","","[1269.0999999046326]","./assets/img/space/catch/1.jpg","[""spaceBar""]","catch practice","space","0","{""ArrowUp,ArrowLeft"":3,""ArrowUp,ArrowRight"":36,""ArrowDown,ArrowLeft"":15,""ArrowDown,ArrowRight"":23}","true","spaceBar","true","","","","","","","",""
"html-keyboard-response","54","282459","0.0-3.0-10.0-1.1","spark_pilot_2","7345","4","13","Female","","","","","","","null","<div style=""font-size:60px;"">+</div>","null","fixation","","","","","","","","","","","","","",""
"revaluation","55","286486","0.0-3.0-10.0-0.2","spark_pilot_2","7345","4","13","Female","","false","","","","","[1111]","./assets/img/space/catch/2.jpg","[""spaceBar""]","catch practice","space","0","{""ArrowUp,ArrowLeft"":3,""ArrowUp,ArrowRight"":36,""ArrowDown,ArrowLeft"":15,""ArrowDown,ArrowRight"":23}","true","spaceBar","true","","","","","","","",""
"html-keyboard-response","56","286999","0.0-3.0-10.0-1.2","spark_pilot_2","7345","4","13","Female","","","","","","","null","<div style=""font-size:60px;"">+</div>","null","fixation","","","","","","","","","","","","","",""
"learning-instructions","57","302165","0.0-3.0-11.0-0.0","spark_pilot_2","7345","4","13","Female","","","","","","","1534.9000000953674","<p> After you explore a place to find treasure, it will be time to play a different game. </p>
            <p> During this game, red dots will appear on the screen and fall down slowly. </p>
            <p><b> You must click on them before they reach the bottom. </b></p>
            <img src='./assets/img/instructions/dotGame.jpg' class='instructions-image'>","","instructions","","","","","","","","","","","","","",""
"learning-instructions","58","308845","0.0-3.0-11.0-0.1","spark_pilot_2","7345","4","13","Female","","","","","","","825.5999999046326","<p> For every dot you click, you will earn additional treasure. </p>
            <p> Let’s try practicing that now. </p>","","instructions","","","","","","","","","","","","","",""
"revaluation","59","323853","0.0-3.0-12.0-0.0","spark_pilot_2","7345","4","13","Female","","","","","","","[72]","","","rest practice","","10","","","","","0","15000","","","","","",""
"learning-instructions","60","331941","0.0-3.0-13.0-0.0-0.0","spark_pilot_2","7345","4","13","Female","","","","","","","2802.199999809265","<p> Now, you will practice a shortened version of the game to get a sense of how it all fits together. </p>","","instructions","","","","","","","","","","","","","",""
"learning-instructions","61","336437","0.0-3.0-13.0-0.0-0.1","spark_pilot_2","7345","4","13","Female","","","","","","","1317.5999999046326","<p>This time you are searching for treasure in outer space.</p>","","instructions","","","","","","","","","","","","","",""
"learning-instructions","62","351757","0.0-3.0-13.0-1.0-0.0","spark_pilot_2","7345","4","13","Female","","","","","","","557.5","<p> Remember, when you see a picture of the place, use the up and down keys to <b>find an animal</b>.</p>
            <p> When you encounter an animal, you should use the left and right keys to <b>select a treasure chest</b>.</p>
            <p> Don't forget to look out for the robber! </p>","","instructions","","","","","","","","","","","","","",""
"revaluation","63","357785","0.0-3.0-13.0-2.0-0.0","spark_pilot_2","7345","4","13","Female","","false","","","","","[1495.2999999523163,470.09999990463257]","./assets/img/space/11.jpg","[""ArrowDown"",""ArrowRight""]","practice block","space","23","{""ArrowUp,ArrowLeft"":3,""ArrowUp,ArrowRight"":36,""ArrowDown,ArrowLeft"":15,""ArrowDown,ArrowRight"":23}","false","ArrowDown,ArrowRight","false","","","","","","","",""
"html-keyboard-response","64","358295","0.0-3.0-13.0-2.0-1.0","spark_pilot_2","7345","4","13","Female","","","","","","","null","<div style=""font-size:60px;"">+</div>","null","fixation","","","","","","","","","","","","","",""
"revaluation","65","364330","0.0-3.0-13.0-2.0-0.1","spark_pilot_2","7345","4","13","Female","","false","","","","","[1090.4000000953674,349.2000000476837]","./assets/img/space/12.jpg","[""ArrowUp"",""ArrowRight""]","practice block","space","36","{""ArrowUp,ArrowLeft"":3,""ArrowUp,ArrowRight"":36,""ArrowDown,ArrowLeft"":15,""ArrowDown,ArrowRight"":23}","true","ArrowUp,ArrowRight","false","","","","","","","",""
"html-keyboard-response","66","364843","0.0-3.0-13.0-2.0-1.1","spark_pilot_2","7345","4","13","Female","","","","","","","null","<div style=""font-size:60px;"">+</div>","null","fixation","","","","","","","","","","","","","",""
"revaluation","67","370870","0.0-3.0-13.0-2.0-0.2","spark_pilot_2","7345","4","13","Female","","false","","","","","[982.5,412.40000009536743]","./assets/img/space/13.jpg","[""ArrowUp"",""ArrowRight""]","practice block","space","36","{""ArrowUp,ArrowLeft"":3,""ArrowUp,ArrowRight"":36,""ArrowDown,ArrowLeft"":15,""ArrowDown,ArrowRight"":23}","true","ArrowUp,ArrowRight","false","","","","","","","",""
"html-keyboard-response","68","371381","0.0-3.0-13.0-2.0-1.2","spark_pilot_2","7345","4","13","Female","","","","","","","null","<div style=""font-size:60px;"">+</div>","null","fixation","","","","","","","","","","","","","",""
"revaluation","69","377415","0.0-3.0-13.0-2.0-0.3","spark_pilot_2","7345","4","13","Female","","false","","","","","[828.1999998092651,285.09999990463257]","./assets/img/space/14.jpg","[""ArrowUp"",""ArrowRight""]","practice block","space","36","{""ArrowUp,ArrowLeft"":3,""ArrowUp,ArrowRight"":36,""ArrowDown,ArrowLeft"":15,""ArrowDown,ArrowRight"":23}","true","ArrowUp,ArrowRight","false","","","","","","","",""
"html-keyboard-response","70","377926","0.0-3.0-13.0-2.0-1.3","spark_pilot_2","7345","4","13","Female","","","","","","","null","<div style=""font-size:60px;"">+</div>","null","fixation","","","","","","","","","","","","","",""
"revaluation","71","383942","0.0-3.0-13.0-2.0-0.4","spark_pilot_2","7345","4","13","Female","","false","","","","","[755.7000000476837,353.39999985694885]","./assets/img/space/11.jpg","[""ArrowUp"",""ArrowRight""]","practice block","space","36","{""ArrowUp,ArrowLeft"":3,""ArrowUp,ArrowRight"":36,""ArrowDown,ArrowLeft"":15,""ArrowDown,ArrowRight"":23}","true","ArrowUp,ArrowRight","false","","","","","","","",""
"html-keyboard-response","72","384445","0.0-3.0-13.0-2.0-1.4","spark_pilot_2","7345","4","13","Female","","","","","","","null","<div style=""font-size:60px;"">+</div>","null","fixation","","","","","","","","","","","","","",""
"revaluation","73","390454","0.0-3.0-13.0-2.0-0.5","spark_pilot_2","7345","4","13","Female","","false","","","","","[724.3999998569489,426.80000019073486]","./assets/img/space/12.jpg","[""ArrowUp"",""ArrowRight""]","practice block","space","36","{""ArrowUp,ArrowLeft"":3,""ArrowUp,ArrowRight"":36,""ArrowDown,ArrowLeft"":15,""ArrowDown,ArrowRight"":23}","true","ArrowUp,ArrowRight","false","","","","","","","",""
"html-keyboard-response","74","390956","0.0-3.0-13.0-2.0-1.5","spark_pilot_2","7345","4","13","Female","","","","","","","null","<div style=""font-size:60px;"">+</div>","null","fixation","","","","","","","","","","","","","",""
"revaluation","75","396963","0.0-3.0-13.0-2.0-0.6","spark_pilot_2","7345","4","13","Female","","false","","","","","[645.3999998569489,403.60000014305115]","./assets/img/space/13.jpg","[""ArrowUp"",""ArrowRight""]","practice block","space","36","{""ArrowUp,ArrowLeft"":3,""ArrowUp,ArrowRight"":36,""ArrowDown,ArrowLeft"":15,""ArrowDown,ArrowRight"":23}","true","ArrowUp,ArrowRight","false","","","","","","","",""
"html-keyboard-response","76","397465","0.0-3.0-13.0-2.0-1.6","spark_pilot_2","7345","4","13","Female","","","","","","","null","<div style=""font-size:60px;"">+</div>","null","fixation","","","","","","","","","","","","","",""
"revaluation","77","403473","0.0-3.0-13.0-2.0-0.7","spark_pilot_2","7345","4","13","Female","","false","","","","","[656.0999999046326,509.90000009536743]","./assets/img/space/14.jpg","[""ArrowUp"",""ArrowRight""]","practice block","space","36","{""ArrowUp,ArrowLeft"":3,""ArrowUp,ArrowRight"":36,""ArrowDown,ArrowLeft"":15,""ArrowDown,ArrowRight"":23}","true","ArrowUp,ArrowRight","false","","","","","","","",""
"html-keyboard-response","78","403974","0.0-3.0-13.0-2.0-1.7","spark_pilot_2","7345","4","13","Female","","","","","","","null","<div style=""font-size:60px;"">+</div>","null","fixation","","","","","","","","","","","","","",""
"revaluation","79","407981","0.0-3.0-13.0-2.0-0.8","spark_pilot_2","7345","4","13","Female","","false","","","","","[1419.0999999046326]","./assets/img/space/catch/3.jpg","[""spaceBar""]","practice block","space","0","{""ArrowUp,ArrowLeft"":3,""ArrowUp,ArrowRight"":36,""ArrowDown,ArrowLeft"":15,""ArrowDown,ArrowRight"":23}","true","spaceBar","true","","","","","","","",""
"html-keyboard-response","80","408483","0.0-3.0-13.0-2.0-1.8","spark_pilot_2","7345","4","13","Female","","","","","","","null","<div style=""font-size:60px;"">+</div>","null","fixation","","","","","","","","","","","","","",""
"learning-instructions","81","422620","0.0-3.0-13.0-3.0-0.0","spark_pilot_2","7345","4","13","Female","","","","","","","919.5999999046326","<p> Now, you will travel with a friend who will choose whether you go up or down first. </p>
            <p> On these turns, you will just see the animal that they found. You will still get to choose which chest to search for treasure.</p>","","instructions","","","","","","","","","","","","","",""
"revaluation","82","426635","0.0-3.0-13.0-4.0-0.0","spark_pilot_2","7345","4","13","Female","","false","","","","","[999.5]","./assets/img/space/animals/cat.jpg","[""ArrowRight""]","practice block","space","36","{""ArrowUp,ArrowLeft"":3,""ArrowUp,ArrowRight"":36,""ArrowDown,ArrowLeft"":15,""ArrowDown,ArrowRight"":23}","true","ArrowUp,ArrowRight","","","","","","","","",""
"html-keyboard-response","83","427146","0.0-3.0-13.0-4.0-1.0","spark_pilot_2","7345","4","13","Female","","","","","","","null","<div style=""font-size:60px;"">+</div>","null","fixation","","","","","","","","","","","","","",""
"revaluation","84","431178","0.0-3.0-13.0-4.0-0.1","spark_pilot_2","7345","4","13","Female","","false","","","","","[398.30000019073486]","./assets/img/space/animals/cat.jpg","[""ArrowRight""]","practice block","space","36","{""ArrowUp,ArrowLeft"":3,""ArrowUp,ArrowRight"":36,""ArrowDown,ArrowLeft"":15,""ArrowDown,ArrowRight"":23}","true","ArrowUp,ArrowRight","","","","","","","","",""
"html-keyboard-response","85","431687","0.0-3.0-13.0-4.0-1.1","spark_pilot_2","7345","4","13","Female","","","","","","","null","<div style=""font-size:60px;"">+</div>","null","fixation","","","","","","","","","","","","","",""
"revaluation","86","435721","0.0-3.0-13.0-4.0-0.2","spark_pilot_2","7345","4","13","Female","","false","","","","","[401.40000009536743]","./assets/img/space/animals/rabbit.jpg","[""ArrowRight""]","practice block","space","23","{""ArrowUp,ArrowLeft"":3,""ArrowUp,ArrowRight"":36,""ArrowDown,ArrowLeft"":15,""ArrowDown,ArrowRight"":23}","true","ArrowDown,ArrowRight","","","","","","","","",""
"html-keyboard-response","87","436233","0.0-3.0-13.0-4.0-1.2","spark_pilot_2","7345","4","13","Female","","","","","","","null","<div style=""font-size:60px;"">+</div>","null","fixation","","","","","","","","","","","","","",""
"revaluation","88","440258","0.0-3.0-13.0-4.0-0.3","spark_pilot_2","7345","4","13","Female","","false","","","","","[408.90000009536743]","./assets/img/space/animals/rabbit.jpg","[""ArrowRight""]","practice block","space","23","{""ArrowUp,ArrowLeft"":3,""ArrowUp,ArrowRight"":36,""ArrowDown,ArrowLeft"":15,""ArrowDown,ArrowRight"":23}","true","ArrowDown,ArrowRight","","","","","","","","",""
"html-keyboard-response","89","440770","0.0-3.0-13.0-4.0-1.3","spark_pilot_2","7345","4","13","Female","","","","","","","null","<div style=""font-size:60px;"">+</div>","null","fixation","","","","","","","","","","","","","",""
"learning-instructions","90","449524","0.0-3.0-13.0-5.0-0.0","spark_pilot_2","7345","4","13","Female","","","","","","","1353.7999999523163","<p> Time to play the dot game! </p>
            <p> For 15 seconds, click the red dots on the following screen as they appear. </p>","","instructions","","","","","","","","","","","","","",""
"revaluation","91","464526","0.0-3.0-13.0-6.0-0.0","spark_pilot_2","7345","4","13","Female","","","","","","","[61,55]","","","rest practice","","20","","","","","0","15000","","","","","",""
"learning-instructions","92","473069","0.0-3.0-13.0-7.0-0.0","spark_pilot_2","7345","4","13","Female","","","","","","","2368.100000143051","<p> You have almost finished this part of the game! </p>
            <p> We are going to ask you to make a few more choices. </p>","","instructions","","","","","","","","","","","","","",""
"learning-instructions","93","487989","0.0-3.0-13.0-7.0-0.1","spark_pilot_2","7345","4","13","Female","","","","","","","917.1000001430511","<p> First, you need to decide whether to go up or down. When you see each picture, use the arrow keys to make your choice. </p>
            <p><b>You will not see which animal you found, but try to get to the one that will give you the most treasure.</b></p>","","instructions","","","","","","","","","","","","","",""
"revaluation","94","489302","0.0-3.0-13.0-8.0","spark_pilot_2","7345","4","13","Female","","false","","","","","[1311.5]","./assets/img/space/15.jpg","[""ArrowUp""]","practice block","space","0","{""ArrowUp,ArrowLeft"":3,""ArrowUp,ArrowRight"":36,""ArrowDown,ArrowLeft"":15,""ArrowDown,ArrowRight"":23}","true","ArrowUp","false","","","","","","","",""
"html-keyboard-response","95","489808","0.0-3.0-13.0-9.0","spark_pilot_2","7345","4","13","Female","","","","","","","null","<div style=""font-size:60px;"">+</div>","null","fixation","","","","","","","","","","","","","",""
"learning-instructions","96","503285","0.0-3.0-13.0-10.0-0.0","spark_pilot_2","7345","4","13","Female","","","","","","","2053","<p> Now you will see the animals again and can search their chests for treasure. </p>
            <p> This time, you will not see how much treasure you earned, but you will earn more bonus money for making better choices. </p>","","instructions","","","","","","","","","","","","","",""
"revaluation","97","503998","0.0-3.0-13.0-11.0-0.0","spark_pilot_2","7345","4","13","Female","","false","","","","","[711.6999998092651]","./assets/img/space/animals/cat.jpg","[""ArrowRight""]","practice block","space","0","{""ArrowUp,ArrowLeft"":3,""ArrowUp,ArrowRight"":36,""ArrowDown,ArrowLeft"":15,""ArrowDown,ArrowRight"":23}","true","ArrowUp,ArrowRight","","","","","","","","",""
"html-keyboard-response","98","504504","0.0-3.0-13.0-11.0-1.0","spark_pilot_2","7345","4","13","Female","","","","","","","null","<div style=""font-size:60px;"">+</div>","null","fixation","","","","","","","","","","","","","",""
"revaluation","99","504934","0.0-3.0-13.0-11.0-0.1","spark_pilot_2","7345","4","13","Female","","false","","","","","[425.2000000476837]","./assets/img/space/animals/rabbit.jpg","[""ArrowRight""]","practice block","space","0","{""ArrowUp,ArrowLeft"":3,""ArrowUp,ArrowRight"":36,""ArrowDown,ArrowLeft"":15,""ArrowDown,ArrowRight"":23}","true","ArrowDown,ArrowRight","","","","","","","","",""
"html-keyboard-response","100","505436","0.0-3.0-13.0-11.0-1.1","spark_pilot_2","7345","4","13","Female","","","","","","","null","<div style=""font-size:60px;"">+</div>","null","fixation","","","","","","","","","","","","","",""
"learning-instructions","101","510853","0.0-3.0-14.0-0.0","spark_pilot_2","7345","4","13","Female","","","","","","","801.3999998569489","<p> Before you start, we're going to ask you a few questions about how the game works. </p>","","instructions","","","","","","","","","","","","","",""
"comp-q","102","517205","0.0-3.0-15.0-0.0-0.0","spark_pilot_2","7345","4","13","Female","","","","","","","766.0999999046326","<p> <b> True or False? </b> </p>
            <p> There can be 50 pieces of treasure in a given animal's chest. </p>","1","comp_question","","","","true","","","","","","","","","",""
"comp-q","103","524789","0.0-3.0-15.0-0.0-1.0","spark_pilot_2","7345","4","13","Female","","","","","","","927.2000000476837","<p> <b> That's right! </b> The amount of treasure in each chest can range from 0 to 40 pieces. </p>","0","comp_answer","","","","","","","","","","","","","",""
"comp-q","104","532685","0.0-3.0-15.0-0.1-0.1","spark_pilot_2","7345","4","13","Female","","","","","","","793.2999999523163","<p> <b> True or False? </b> </p><p> In this game, all animals have the same amount of treasure in their left and right chests. </p>","1","comp_question","","","","true","","","","","","","","","",""
"comp-q","105","539461","0.0-3.0-15.0-0.1-1.1","spark_pilot_2","7345","4","13","Female","","","","","","","1559.5","<p> <b> That's right! </b> Animals have different amounts of treasure in their treasure chests. </p>","0","comp_answer","","","","","","","","","","","","","",""
"comp-q","106","546645","0.0-3.0-15.0-0.2-0.2","spark_pilot_2","7345","4","13","Female","","","","","","","1343.3999998569489","<p> <b> True or False? </b> </p><p> The same animal will always be there if you go up in the same place. </p>","0","comp_question","","","","true","","","","","","","","","",""
"comp-q","107","554413","0.0-3.0-15.0-0.2-1.2","spark_pilot_2","7345","4","13","Female","","","","","","","1321.7000000476837","<p> <b> That's right! </b> One animal lives in the upper part and one lives in the lower part of every place. </p>","0","comp_answer","","","","","","","","","","","","","",""
"comp-q","108","560693","0.0-3.0-15.0-0.3-0.3","spark_pilot_2","7345","4","13","Female","","","","","","","761.4000000953674","<p> <b> True or False? </b> </p><p> If you see a different picture, it means you are in a new place. </p>","1","comp_question","","","","true","","","","","","","","","",""
"comp-q","109","573061","0.0-3.0-15.0-0.3-1.3","spark_pilot_2","7345","4","13","Female","","","","","","","1149.7999999523163","<p> <b> That's right! </b> Lots of different images may show the same place. For example,  you may see three different images that all remind you that you are in outer space. </p>","0","comp_answer","","","","","","","","","","","","","",""
"learning-instructions","110","583773","0.0-3.0-16.0-0.0","spark_pilot_2","7345","4","13","Female","","","","","","","871.9000000953674","<p> Good job. Remember to do your best because the amount of treasure you earn will be converted into bonus money. </p>
            <p> It’s time to start the real game! </p>","","instructions","","","","","","","","","","","","","",""
"learning-instructions","111","587365","0.0-4.0-0.0-0.0","spark_pilot_2","7345","4","13","Female","","","","","","","893.5","<p> This time you are searching for treasure in the <b>ocean</b>.</p>","","instructions","","","","","","","","","","","","","",""
"learning-instructions","112","605525","0.0-4.0-0.0-0.1","spark_pilot_2","7345","4","13","Female","","","","","","","873.4000000953674","<p><b>New</b> animals with <b>new</b> treasure chests live here. You need to explore to discover where the animal with the best treasure chest is.</p>
                    <p> Like before, once you figure out which animal has the chest with the most treasure, you should try to get to that animal and select that chest! </p>","","instructions","","","","","","","","","","","","","",""
"learning-instructions","113","621181","0.0-4.0-1.0-0.0","spark_pilot_2","7345","4","13","Female","","","","","","","929.3999998569489","<p> Remember, when you see a picture of the place, use the up and down keys to <b>find an animal</b>.</p>
            <p> When you encounter an animal, you should use the left and right keys to <b>select a treasure chest</b>.</p>
            <p> Don't forget to look out for the robber! </p>","","instructions","","","","","","","","","","","","","",""
"revaluation","114","627218","0.0-4.0-2.0-0.0","spark_pilot_2","7345","4","13","Female","","false","","","","","[1631.9000000953674,856.2999999523163]","./assets/img/ocean/memory/25.jpg","[""ArrowUp"",""ArrowLeft""]","value training","ocean","26","{""ArrowUp,ArrowLeft"":26,""ArrowUp,ArrowRight"":10,""ArrowDown,ArrowLeft"":5,""ArrowDown,ArrowRight"":17}","true","ArrowUp,ArrowLeft","false","","","revaluation","1","0","","",""
"html-keyboard-response","115","627728","0.0-4.0-2.0-1.0","spark_pilot_2","7345","4","13","Female","","","","","","","null","<div style=""font-size:60px;"">+</div>","null","fixation","","","","","","","","","","","1","","",""
"revaluation","116","631745","0.0-4.0-2.0-0.1","spark_pilot_2","7345","4","13","Female","","false","","","","","[1513.5]","./assets/img/ocean/catch/5.jpg","[""spaceBar""]","value training","ocean","0","{""ArrowUp,ArrowLeft"":26,""ArrowUp,ArrowRight"":10,""ArrowDown,ArrowLeft"":5,""ArrowDown,ArrowRight"":17}","true","spaceBar","true","","","revaluation","1","2","","",""
"html-keyboard-response","117","632256","0.0-4.0-2.0-1.1","spark_pilot_2","7345","4","13","Female","","","","","","","null","<div style=""font-size:60px;"">+</div>","null","fixation","","","","","","","","","","","3","","",""
"revaluation","118","638283","0.0-4.0-2.0-0.2","spark_pilot_2","7345","4","13","Female","","false","","","","","[666.2999999523163,481.69999980926514]","./assets/img/ocean/memory/5.jpg","[""ArrowUp"",""ArrowRight""]","value training","ocean","10","{""ArrowUp,ArrowLeft"":26,""ArrowUp,ArrowRight"":10,""ArrowDown,ArrowLeft"":5,""ArrowDown,ArrowRight"":17}","false","ArrowUp,ArrowRight","false","","","revaluation","1","4","","",""
"html-keyboard-response","119","638789","0.0-4.0-2.0-1.2","spark_pilot_2","7345","4","13","Female","","","","","","","null","<div style=""font-size:60px;"">+</div>","null","fixation","","","","","","","","","","","5","","",""
"revaluation","120","644822","0.0-4.0-2.0-0.3","spark_pilot_2","7345","4","13","Female","","false","","","","","[803.9000000953674,629.7000000476837]","./assets/img/ocean/memory/29.jpg","[""ArrowDown"",""ArrowLeft""]","value training","ocean","5","{""ArrowUp,ArrowLeft"":26,""ArrowUp,ArrowRight"":10,""ArrowDown,ArrowLeft"":5,""ArrowDown,ArrowRight"":17}","false","ArrowDown,ArrowLeft","false","","","revaluation","1","6","","",""
"html-keyboard-response","121","645329","0.0-4.0-2.0-1.3","spark_pilot_2","7345","4","13","Female","","","","","","","null","<div style=""font-size:60px;"">+</div>","null","fixation","","","","","","","","","","","7","","",""
"revaluation","122","651358","0.0-4.0-2.0-0.4","spark_pilot_2","7345","4","13","Female","","false","","","","","[1041.2000000476837,414.2999999523163]","./assets/img/ocean/memory/4.jpg","[""ArrowDown"",""ArrowRight""]","value training","ocean","17","{""ArrowUp,ArrowLeft"":26,""ArrowUp,ArrowRight"":10,""ArrowDown,ArrowLeft"":5,""ArrowDown,ArrowRight"":17}","false","ArrowDown,ArrowRight","false","","","revaluation","1","8","","",""
"html-keyboard-response","123","651861","0.0-4.0-2.0-1.4","spark_pilot_2","7345","4","13","Female","","","","","","","null","<div style=""font-size:60px;"">+</div>","null","fixation","","","","","","","","","","","9","","",""
"revaluation","124","657867","0.0-4.0-2.0-0.5","spark_pilot_2","7345","4","13","Female","","false","","","","","[1389.1999998092651,428.7999999523163]","./assets/img/ocean/memory/37.jpg","[""ArrowUp"",""ArrowLeft""]","value training","ocean","26","{""ArrowUp,ArrowLeft"":26,""ArrowUp,ArrowRight"":10,""ArrowDown,ArrowLeft"":5,""ArrowDown,ArrowRight"":17}","true","ArrowUp,ArrowLeft","false","","","revaluation","1","10","","",""
"html-keyboard-response","125","658369","0.0-4.0-2.0-1.5","spark_pilot_2","7345","4","13","Female","","","","","","","null","<div style=""font-size:60px;"">+</div>","null","fixation","","","","","","","","","","","11","","",""
"revaluation","126","664378","0.0-4.0-2.0-0.6","spark_pilot_2","7345","4","13","Female","","false","","","","","[944.4000000953674,334.40000009536743]","./assets/img/ocean/memory/3.jpg","[""ArrowUp"",""ArrowLeft""]","value training","ocean","26","{""ArrowUp,ArrowLeft"":26,""ArrowUp,ArrowRight"":10,""ArrowDown,ArrowLeft"":5,""ArrowDown,ArrowRight"":17}","true","ArrowUp,ArrowLeft","false","","","revaluation","1","12","","",""
"html-keyboard-response","127","664880","0.0-4.0-2.0-1.6","spark_pilot_2","7345","4","13","Female","","","","","","","null","<div style=""font-size:60px;"">+</div>","null","fixation","","","","","","","","","","","13","","",""
"revaluation","128","668887","0.0-4.0-2.0-0.7","spark_pilot_2","7345","4","13","Female","","false","","","","","[1329.5]","./assets/img/ocean/catch/1.jpg","[""spaceBar""]","value training","ocean","0","{""ArrowUp,ArrowLeft"":26,""ArrowUp,ArrowRight"":10,""ArrowDown,ArrowLeft"":5,""ArrowDown,ArrowRight"":17}","true","spaceBar","true","","","revaluation","1","14","","",""
"html-keyboard-response","129","669388","0.0-4.0-2.0-1.7","spark_pilot_2","7345","4","13","Female","","","","","","","null","<div style=""font-size:60px;"">+</div>","null","fixation","","","","","","","","","","","15","","",""
"revaluation","130","675396","0.0-4.0-2.0-0.8","spark_pilot_2","7345","4","13","Female","","false","","","","","[693.4000000953674,387.89999985694885]","./assets/img/ocean/memory/18.jpg","[""ArrowUp"",""ArrowLeft""]","value training","ocean","26","{""ArrowUp,ArrowLeft"":26,""ArrowUp,ArrowRight"":10,""ArrowDown,ArrowLeft"":5,""ArrowDown,ArrowRight"":17}","true","ArrowUp,ArrowLeft","false","","","revaluation","1","16","","",""
"html-keyboard-response","131","675899","0.0-4.0-2.0-1.8","spark_pilot_2","7345","4","13","Female","","","","","","","null","<div style=""font-size:60px;"">+</div>","null","fixation","","","","","","","","","","","17","","",""
"revaluation","132","679905","0.0-4.0-2.0-0.9","spark_pilot_2","7345","4","13","Female","","false","","","","","[1326.5999999046326]","./assets/img/ocean/catch/7.jpg","[""spaceBar""]","value training","ocean","0","{""ArrowUp,ArrowLeft"":26,""ArrowUp,ArrowRight"":10,""ArrowDown,ArrowLeft"":5,""ArrowDown,ArrowRight"":17}","true","spaceBar","true","","","revaluation","1","18","","",""
"html-keyboard-response","133","680407","0.0-4.0-2.0-1.9","spark_pilot_2","7345","4","13","Female","","","","","","","null","<div style=""font-size:60px;"">+</div>","null","fixation","","","","","","","","","","","19","","",""
"revaluation","134","686416","0.0-4.0-2.0-0.10","spark_pilot_2","7345","4","13","Female","","false","","","","","[841.2000000476837,271.5]","./assets/img/ocean/memory/30.jpg","[""ArrowUp"",""ArrowLeft""]","value training","ocean","26","{""ArrowUp,ArrowLeft"":26,""ArrowUp,ArrowRight"":10,""ArrowDown,ArrowLeft"":5,""ArrowDown,ArrowRight"":17}","true","ArrowUp,ArrowLeft","false","","","revaluation","1","20","","",""
"html-keyboard-response","135","686918","0.0-4.0-2.0-1.10","spark_pilot_2","7345","4","13","Female","","","","","","","null","<div style=""font-size:60px;"">+</div>","null","fixation","","","","","","","","","","","21","","",""
"revaluation","136","692926","0.0-4.0-2.0-0.11","spark_pilot_2","7345","4","13","Female","","false","","","","","[867,481.7000000476837]","./assets/img/ocean/memory/13.jpg","[""ArrowUp"",""ArrowLeft""]","value training","ocean","26","{""ArrowUp,ArrowLeft"":26,""ArrowUp,ArrowRight"":10,""ArrowDown,ArrowLeft"":5,""ArrowDown,ArrowRight"":17}","true","ArrowUp,ArrowLeft","false","","","revaluation","1","22","","",""
"html-keyboard-response","137","693428","0.0-4.0-2.0-1.11","spark_pilot_2","7345","4","13","Female","","","","","","","null","<div style=""font-size:60px;"">+</div>","null","fixation","","","","","","","","","","","23","","",""
"revaluation","138","699436","0.0-4.0-2.0-0.12","spark_pilot_2","7345","4","13","Female","","false","","","","","[917.7999999523163,276.7000000476837]","./assets/img/ocean/memory/39.jpg","[""ArrowUp"",""ArrowLeft""]","value training","ocean","26","{""ArrowUp,ArrowLeft"":26,""ArrowUp,ArrowRight"":10,""ArrowDown,ArrowLeft"":5,""ArrowDown,ArrowRight"":17}","true","ArrowUp,ArrowLeft","false","","","revaluation","1","24","","",""
"html-keyboard-response","139","699938","0.0-4.0-2.0-1.12","spark_pilot_2","7345","4","13","Female","","","","","","","null","<div style=""font-size:60px;"">+</div>","null","fixation","","","","","","","","","","","25","","",""
"revaluation","140","705945","0.0-4.0-2.0-0.13","spark_pilot_2","7345","4","13","Female","","false","","","","","[886.9000000953674,333.89999985694885]","./assets/img/ocean/memory/37.jpg","[""ArrowUp"",""ArrowLeft""]","value training","ocean","26","{""ArrowUp,ArrowLeft"":26,""ArrowUp,ArrowRight"":10,""ArrowDown,ArrowLeft"":5,""ArrowDown,ArrowRight"":17}","true","ArrowUp,ArrowLeft","false","","","revaluation","1","26","","",""
"html-keyboard-response","141","706448","0.0-4.0-2.0-1.13","spark_pilot_2","7345","4","13","Female","","","","","","","null","<div style=""font-size:60px;"">+</div>","null","fixation","","","","","","","","","","","27","","",""
"revaluation","142","712456","0.0-4.0-2.0-0.14","spark_pilot_2","7345","4","13","Female","","false","","","","","[754.2000000476837,224.5]","./assets/img/ocean/memory/16.jpg","[""ArrowUp"",""ArrowLeft""]","value training","ocean","26","{""ArrowUp,ArrowLeft"":26,""ArrowUp,ArrowRight"":10,""ArrowDown,ArrowLeft"":5,""ArrowDown,ArrowRight"":17}","true","ArrowUp,ArrowLeft","false","","","revaluation","1","28","","",""
"html-keyboard-response","143","712958","0.0-4.0-2.0-1.14","spark_pilot_2","7345","4","13","Female","","","","","","","null","<div style=""font-size:60px;"">+</div>","null","fixation","","","","","","","","","","","29","","",""
"revaluation","144","718976","0.0-4.0-2.0-0.15","spark_pilot_2","7345","4","13","Female","","false","","","","","[1826.7000000476837,562.4000000953674]","./assets/img/ocean/memory/24.jpg","[""ArrowUp"",""ArrowLeft""]","value training","ocean","26","{""ArrowUp,ArrowLeft"":26,""ArrowUp,ArrowRight"":10,""ArrowDown,ArrowLeft"":5,""ArrowDown,ArrowRight"":17}","true","ArrowUp,ArrowLeft","false","","","revaluation","1","30","","",""
"html-keyboard-response","145","719478","0.0-4.0-2.0-1.15","spark_pilot_2","7345","4","13","Female","","","","","","","null","<div style=""font-size:60px;"">+</div>","null","fixation","","","","","","","","","","","31","","",""
"revaluation","146","723485","0.0-4.0-2.0-0.16","spark_pilot_2","7345","4","13","Female","","false","","","","","[1019.6000001430511]","./assets/img/ocean/catch/6.jpg","[""spaceBar""]","value training","ocean","0","{""ArrowUp,ArrowLeft"":26,""ArrowUp,ArrowRight"":10,""ArrowDown,ArrowLeft"":5,""ArrowDown,ArrowRight"":17}","true","spaceBar","true","","","revaluation","1","32","","",""
"html-keyboard-response","147","723987","0.0-4.0-2.0-1.16","spark_pilot_2","7345","4","13","Female","","","","","","","null","<div style=""font-size:60px;"">+</div>","null","fixation","","","","","","","","","","","33","","",""
"revaluation","148","729994","0.0-4.0-2.0-0.17","spark_pilot_2","7345","4","13","Female","","false","","","","","[894.7000000476837,405.10000014305115]","./assets/img/ocean/memory/39.jpg","[""ArrowUp"",""ArrowLeft""]","value training","ocean","26","{""ArrowUp,ArrowLeft"":26,""ArrowUp,ArrowRight"":10,""ArrowDown,ArrowLeft"":5,""ArrowDown,ArrowRight"":17}","true","ArrowUp,ArrowLeft","false","","","revaluation","1","34","","",""
"html-keyboard-response","149","730495","0.0-4.0-2.0-1.17","spark_pilot_2","7345","4","13","Female","","","","","","","null","<div style=""font-size:60px;"">+</div>","null","fixation","","","","","","","","","","","35","","",""
"revaluation","150","736503","0.0-4.0-2.0-0.18","spark_pilot_2","7345","4","13","Female","","false","","","","","[746.7999999523163,337.2000000476837]","./assets/img/ocean/memory/33.jpg","[""ArrowUp"",""ArrowLeft""]","value training","ocean","26","{""ArrowUp,ArrowLeft"":26,""ArrowUp,ArrowRight"":10,""ArrowDown,ArrowLeft"":5,""ArrowDown,ArrowRight"":17}","true","ArrowUp,ArrowLeft","false","","","revaluation","1","36","","",""
"html-keyboard-response","151","737006","0.0-4.0-2.0-1.18","spark_pilot_2","7345","4","13","Female","","","","","","","null","<div style=""font-size:60px;"">+</div>","null","fixation","","","","","","","","","","","37","","",""
"revaluation","152","741012","0.0-4.0-2.0-0.19","spark_pilot_2","7345","4","13","Female","","false","","","","","[1227.5]","./assets/img/ocean/catch/0.jpg","[""spaceBar""]","value training","ocean","0","{""ArrowUp,ArrowLeft"":26,""ArrowUp,ArrowRight"":10,""ArrowDown,ArrowLeft"":5,""ArrowDown,ArrowRight"":17}","true","spaceBar","true","","","revaluation","1","38","","",""
"html-keyboard-response","153","741513","0.0-4.0-2.0-1.19","spark_pilot_2","7345","4","13","Female","","","","","","","null","<div style=""font-size:60px;"">+</div>","null","fixation","","","","","","","","","","","39","","",""
"revaluation","154","747520","0.0-4.0-2.0-0.20","spark_pilot_2","7345","4","13","Female","","false","","","","","[816.5999999046326,47.299999952316284]","./assets/img/ocean/memory/27.jpg","[""ArrowUp"",""ArrowLeft""]","value training","ocean","26","{""ArrowUp,ArrowLeft"":26,""ArrowUp,ArrowRight"":10,""ArrowDown,ArrowLeft"":5,""ArrowDown,ArrowRight"":17}","true","ArrowUp,ArrowLeft","false","","","revaluation","1","40","","",""
"html-keyboard-response","155","748036","0.0-4.0-2.0-1.20","spark_pilot_2","7345","4","13","Female","","","","","","","null","<div style=""font-size:60px;"">+</div>","null","fixation","","","","","","","","","","","41","","",""
"revaluation","156","754044","0.0-4.0-2.0-0.21","spark_pilot_2","7345","4","13","Female","","false","","","","","[1270,269.2000000476837]","./assets/img/ocean/memory/24.jpg","[""ArrowUp"",""ArrowLeft""]","value training","ocean","26","{""ArrowUp,ArrowLeft"":26,""ArrowUp,ArrowRight"":10,""ArrowDown,ArrowLeft"":5,""ArrowDown,ArrowRight"":17}","true","ArrowUp,ArrowLeft","false","","","revaluation","1","42","","",""
"html-keyboard-response","157","754546","0.0-4.0-2.0-1.21","spark_pilot_2","7345","4","13","Female","","","","","","","null","<div style=""font-size:60px;"">+</div>","null","fixation","","","","","","","","","","","43","","",""
"revaluation","158","760554","0.0-4.0-2.0-0.22","spark_pilot_2","7345","4","13","Female","","false","","","","","[686.7999999523163,263]","./assets/img/ocean/memory/34.jpg","[""ArrowUp"",""ArrowLeft""]","value training","ocean","26","{""ArrowUp,ArrowLeft"":26,""ArrowUp,ArrowRight"":10,""ArrowDown,ArrowLeft"":5,""ArrowDown,ArrowRight"":17}","true","ArrowUp,ArrowLeft","false","","","revaluation","1","44","","",""
"html-keyboard-response","159","761056","0.0-4.0-2.0-1.22","spark_pilot_2","7345","4","13","Female","","","","","","","null","<div style=""font-size:60px;"">+</div>","null","fixation","","","","","","","","","","","45","","",""
"revaluation","160","765061","0.0-4.0-2.0-0.23","spark_pilot_2","7345","4","13","Female","","false","","","","","[1354.3000001907349]","./assets/img/ocean/catch/4.jpg","[""spaceBar""]","value training","ocean","0","{""ArrowUp,ArrowLeft"":26,""ArrowUp,ArrowRight"":10,""ArrowDown,ArrowLeft"":5,""ArrowDown,ArrowRight"":17}","true","spaceBar","true","","","revaluation","1","46","","",""
"html-keyboard-response","161","765564","0.0-4.0-2.0-1.23","spark_pilot_2","7345","4","13","Female","","","","","","","null","<div style=""font-size:60px;"">+</div>","null","fixation","","","","","","","","","","","47","","",""
"revaluation","162","771572","0.0-4.0-2.0-0.24","spark_pilot_2","7345","4","13","Female","","false","","","","","[855.0999999046326,237.5]","./assets/img/ocean/memory/25.jpg","[""ArrowUp"",""ArrowLeft""]","value training","ocean","26","{""ArrowUp,ArrowLeft"":26,""ArrowUp,ArrowRight"":10,""ArrowDown,ArrowLeft"":5,""ArrowDown,ArrowRight"":17}","true","ArrowUp,ArrowLeft","false","","","revaluation","1","48","","",""
"html-keyboard-response","163","772074","0.0-4.0-2.0-1.24","spark_pilot_2","7345","4","13","Female","","","","","","","null","<div style=""font-size:60px;"">+</div>","null","fixation","","","","","","","","","","","49","","",""
"revaluation","164","778080","0.0-4.0-2.0-0.25","spark_pilot_2","7345","4","13","Female","","false","","","","","[913.5,511.89999985694885]","./assets/img/ocean/memory/5.jpg","[""ArrowUp"",""ArrowLeft""]","value training","ocean","26","{""ArrowUp,ArrowLeft"":26,""ArrowUp,ArrowRight"":10,""ArrowDown,ArrowLeft"":5,""ArrowDown,ArrowRight"":17}","true","ArrowUp,ArrowLeft","false","","","revaluation","1","50","","",""
"html-keyboard-response","165","778593","0.0-4.0-2.0-1.25","spark_pilot_2","7345","4","13","Female","","","","","","","null","<div style=""font-size:60px;"">+</div>","null","fixation","","","","","","","","","","","51","","",""
"revaluation","166","784600","0.0-4.0-2.0-0.26","spark_pilot_2","7345","4","13","Female","","false","","","","","[818,248.90000009536743]","./assets/img/ocean/memory/33.jpg","[""ArrowUp"",""ArrowLeft""]","value training","ocean","26","{""ArrowUp,ArrowLeft"":26,""ArrowUp,ArrowRight"":10,""ArrowDown,ArrowLeft"":5,""ArrowDown,ArrowRight"":17}","true","ArrowUp,ArrowLeft","false","","","revaluation","1","52","","",""
"html-keyboard-response","167","785102","0.0-4.0-2.0-1.26","spark_pilot_2","7345","4","13","Female","","","","","","","null","<div style=""font-size:60px;"">+</div>","null","fixation","","","","","","","","","","","53","","",""
"revaluation","168","791107","0.0-4.0-2.0-0.27","spark_pilot_2","7345","4","13","Female","","false","","","","","[686.1000001430511,518.2000000476837]","./assets/img/ocean/memory/18.jpg","[""ArrowUp"",""ArrowLeft""]","value training","ocean","26","{""ArrowUp,ArrowLeft"":26,""ArrowUp,ArrowRight"":10,""ArrowDown,ArrowLeft"":5,""ArrowDown,ArrowRight"":17}","true","ArrowUp,ArrowLeft","false","","","revaluation","1","54","","",""
"html-keyboard-response","169","791609","0.0-4.0-2.0-1.27","spark_pilot_2","7345","4","13","Female","","","","","","","null","<div style=""font-size:60px;"">+</div>","null","fixation","","","","","","","","","","","55","","",""
"revaluation","170","797617","0.0-4.0-2.0-0.28","spark_pilot_2","7345","4","13","Female","","false","","","","","[1137.8000001907349,335.90000009536743]","./assets/img/ocean/memory/20.jpg","[""ArrowUp"",""ArrowLeft""]","value training","ocean","26","{""ArrowUp,ArrowLeft"":26,""ArrowUp,ArrowRight"":10,""ArrowDown,ArrowLeft"":5,""ArrowDown,ArrowRight"":17}","true","ArrowUp,ArrowLeft","false","","","revaluation","1","56","","",""
"html-keyboard-response","171","798119","0.0-4.0-2.0-1.28","spark_pilot_2","7345","4","13","Female","","","","","","","null","<div style=""font-size:60px;"">+</div>","null","fixation","","","","","","","","","","","57","","",""
"revaluation","172","804126","0.0-4.0-2.0-0.29","spark_pilot_2","7345","4","13","Female","","false","","","","","[738.9000000953674,257.90000009536743]","./assets/img/ocean/memory/1.jpg","[""ArrowUp"",""ArrowLeft""]","value training","ocean","26","{""ArrowUp,ArrowLeft"":26,""ArrowUp,ArrowRight"":10,""ArrowDown,ArrowLeft"":5,""ArrowDown,ArrowRight"":17}","true","ArrowUp,ArrowLeft","false","","","revaluation","1","58","","",""
"html-keyboard-response","173","804627","0.0-4.0-2.0-1.29","spark_pilot_2","7345","4","13","Female","","","","","","","null","<div style=""font-size:60px;"">+</div>","null","fixation","","","","","","","","","","","59","","",""
"revaluation","174","810636","0.0-4.0-2.0-0.30","spark_pilot_2","7345","4","13","Female","","false","","","","","[991.2999999523163,325.30000019073486]","./assets/img/ocean/memory/20.jpg","[""ArrowUp"",""ArrowLeft""]","value training","ocean","26","{""ArrowUp,ArrowLeft"":26,""ArrowUp,ArrowRight"":10,""ArrowDown,ArrowLeft"":5,""ArrowDown,ArrowRight"":17}","true","ArrowUp,ArrowLeft","false","","","revaluation","1","60","","",""
"html-keyboard-response","175","811138","0.0-4.0-2.0-1.30","spark_pilot_2","7345","4","13","Female","","","","","","","null","<div style=""font-size:60px;"">+</div>","null","fixation","","","","","","","","","","","61","","",""
"revaluation","176","815144","0.0-4.0-2.0-0.31","spark_pilot_2","7345","4","13","Female","","false","","","","","[1216.4000000953674]","./assets/img/ocean/catch/2.jpg","[""spaceBar""]","value training","ocean","0","{""ArrowUp,ArrowLeft"":26,""ArrowUp,ArrowRight"":10,""ArrowDown,ArrowLeft"":5,""ArrowDown,ArrowRight"":17}","true","spaceBar","true","","","revaluation","1","62","","",""
"html-keyboard-response","177","815646","0.0-4.0-2.0-1.31","spark_pilot_2","7345","4","13","Female","","","","","","","null","<div style=""font-size:60px;"">+</div>","null","fixation","","","","","","","","","","","63","","",""
"revaluation","178","821654","0.0-4.0-2.0-0.32","spark_pilot_2","7345","4","13","Female","","false","","","","","[1043.7999999523163,370.59999990463257]","./assets/img/ocean/memory/2.jpg","[""ArrowUp"",""ArrowLeft""]","value training","ocean","26","{""ArrowUp,ArrowLeft"":26,""ArrowUp,ArrowRight"":10,""ArrowDown,ArrowLeft"":5,""ArrowDown,ArrowRight"":17}","true","ArrowUp,ArrowLeft","false","","","revaluation","1","64","","",""
"html-keyboard-response","179","822157","0.0-4.0-2.0-1.32","spark_pilot_2","7345","4","13","Female","","","","","","","null","<div style=""font-size:60px;"">+</div>","null","fixation","","","","","","","","","","","65","","",""
"revaluation","180","828163","0.0-4.0-2.0-0.33","spark_pilot_2","7345","4","13","Female","","false","","","","","[676.7999999523163,492.59999990463257]","./assets/img/ocean/memory/13.jpg","[""ArrowUp"",""ArrowLeft""]","value training","ocean","26","{""ArrowUp,ArrowLeft"":26,""ArrowUp,ArrowRight"":10,""ArrowDown,ArrowLeft"":5,""ArrowDown,ArrowRight"":17}","true","ArrowUp,ArrowLeft","false","","","revaluation","1","66","","",""
"html-keyboard-response","181","828664","0.0-4.0-2.0-1.33","spark_pilot_2","7345","4","13","Female","","","","","","","null","<div style=""font-size:60px;"">+</div>","null","fixation","","","","","","","","","","","67","","",""
"revaluation","182","834672","0.0-4.0-2.0-0.34","spark_pilot_2","7345","4","13","Female","","false","","","","","[930.1000001430511,344.7999999523163]","./assets/img/ocean/memory/35.jpg","[""ArrowUp"",""ArrowLeft""]","value training","ocean","26","{""ArrowUp,ArrowLeft"":26,""ArrowUp,ArrowRight"":10,""ArrowDown,ArrowLeft"":5,""ArrowDown,ArrowRight"":17}","true","ArrowUp,ArrowLeft","false","","","revaluation","1","68","","",""
"html-keyboard-response","183","835173","0.0-4.0-2.0-1.34","spark_pilot_2","7345","4","13","Female","","","","","","","null","<div style=""font-size:60px;"">+</div>","null","fixation","","","","","","","","","","","69","","",""
"revaluation","184","841180","0.0-4.0-2.0-0.35","spark_pilot_2","7345","4","13","Female","","false","","","","","[628.3000001907349,388.2000000476837]","./assets/img/ocean/memory/27.jpg","[""ArrowUp"",""ArrowLeft""]","value training","ocean","26","{""ArrowUp,ArrowLeft"":26,""ArrowUp,ArrowRight"":10,""ArrowDown,ArrowLeft"":5,""ArrowDown,ArrowRight"":17}","true","ArrowUp,ArrowLeft","false","","","revaluation","1","70","","",""
"html-keyboard-response","185","841683","0.0-4.0-2.0-1.35","spark_pilot_2","7345","4","13","Female","","","","","","","null","<div style=""font-size:60px;"">+</div>","null","fixation","","","","","","","","","","","71","","",""
"revaluation","186","847689","0.0-4.0-2.0-0.36","spark_pilot_2","7345","4","13","Female","","false","","","","","[758.7000000476837,334.40000009536743]","./assets/img/ocean/memory/3.jpg","[""ArrowUp"",""ArrowLeft""]","value training","ocean","26","{""ArrowUp,ArrowLeft"":26,""ArrowUp,ArrowRight"":10,""ArrowDown,ArrowLeft"":5,""ArrowDown,ArrowRight"":17}","true","ArrowUp,ArrowLeft","false","","","revaluation","1","72","","",""
"html-keyboard-response","187","848191","0.0-4.0-2.0-1.36","spark_pilot_2","7345","4","13","Female","","","","","","","null","<div style=""font-size:60px;"">+</div>","null","fixation","","","","","","","","","","","73","","",""
"revaluation","188","854199","0.0-4.0-2.0-0.37","spark_pilot_2","7345","4","13","Female","","false","","","","","[683.1999998092651,378.40000009536743]","./assets/img/ocean/memory/38.jpg","[""ArrowUp"",""ArrowLeft""]","value training","ocean","26","{""ArrowUp,ArrowLeft"":26,""ArrowUp,ArrowRight"":10,""ArrowDown,ArrowLeft"":5,""ArrowDown,ArrowRight"":17}","true","ArrowUp,ArrowLeft","false","","","revaluation","1","74","","",""
"html-keyboard-response","189","854700","0.0-4.0-2.0-1.37","spark_pilot_2","7345","4","13","Female","","","","","","","null","<div style=""font-size:60px;"">+</div>","null","fixation","","","","","","","","","","","75","","",""
"revaluation","190","860707","0.0-4.0-2.0-0.38","spark_pilot_2","7345","4","13","Female","","false","","","","","[741.9000000953674,252.20000004768372]","./assets/img/ocean/memory/30.jpg","[""ArrowUp"",""ArrowLeft""]","value training","ocean","26","{""ArrowUp,ArrowLeft"":26,""ArrowUp,ArrowRight"":10,""ArrowDown,ArrowLeft"":5,""ArrowDown,ArrowRight"":17}","true","ArrowUp,ArrowLeft","false","","","revaluation","1","76","","",""
"html-keyboard-response","191","861210","0.0-4.0-2.0-1.38","spark_pilot_2","7345","4","13","Female","","","","","","","null","<div style=""font-size:60px;"">+</div>","null","fixation","","","","","","","","","","","77","","",""
"revaluation","192","867217","0.0-4.0-2.0-0.39","spark_pilot_2","7345","4","13","Female","","false","","","","","[736.3000001907349,278.80000019073486]","./assets/img/ocean/memory/35.jpg","[""ArrowUp"",""ArrowLeft""]","value training","ocean","26","{""ArrowUp,ArrowLeft"":26,""ArrowUp,ArrowRight"":10,""ArrowDown,ArrowLeft"":5,""ArrowDown,ArrowRight"":17}","true","ArrowUp,ArrowLeft","false","","","revaluation","1","78","","",""
"html-keyboard-response","193","867719","0.0-4.0-2.0-1.39","spark_pilot_2","7345","4","13","Female","","","","","","","null","<div style=""font-size:60px;"">+</div>","null","fixation","","","","","","","","","","","79","","",""
"revaluation","194","873729","0.0-4.0-2.0-0.40","spark_pilot_2","7345","4","13","Female","","false","","","","","[698.0999999046326,272.40000009536743]","./assets/img/ocean/memory/29.jpg","[""ArrowUp"",""ArrowLeft""]","value training","ocean","26","{""ArrowUp,ArrowLeft"":26,""ArrowUp,ArrowRight"":10,""ArrowDown,ArrowLeft"":5,""ArrowDown,ArrowRight"":17}","true","ArrowUp,ArrowLeft","false","","","revaluation","1","80","","",""
"html-keyboard-response","195","874236","0.0-4.0-2.0-1.40","spark_pilot_2","7345","4","13","Female","","","","","","","null","<div style=""font-size:60px;"">+</div>","null","fixation","","","","","","","","","","","81","","",""
"revaluation","196","880244","0.0-4.0-2.0-0.41","spark_pilot_2","7345","4","13","Female","","false","","","","","[765.5,325.2000000476837]","./assets/img/ocean/memory/16.jpg","[""ArrowUp"",""ArrowLeft""]","value training","ocean","26","{""ArrowUp,ArrowLeft"":26,""ArrowUp,ArrowRight"":10,""ArrowDown,ArrowLeft"":5,""ArrowDown,ArrowRight"":17}","true","ArrowUp,ArrowLeft","false","","","revaluation","1","82","","",""
"html-keyboard-response","197","880746","0.0-4.0-2.0-1.41","spark_pilot_2","7345","4","13","Female","","","","","","","null","<div style=""font-size:60px;"">+</div>","null","fixation","","","","","","","","","","","83","","",""
"revaluation","198","886755","0.0-4.0-2.0-0.42","spark_pilot_2","7345","4","13","Female","","false","","","","","[1271.7000000476837,302.2999999523163]","./assets/img/ocean/memory/2.jpg","[""ArrowUp"",""ArrowLeft""]","value training","ocean","26","{""ArrowUp,ArrowLeft"":26,""ArrowUp,ArrowRight"":10,""ArrowDown,ArrowLeft"":5,""ArrowDown,ArrowRight"":17}","true","ArrowUp,ArrowLeft","false","","","revaluation","1","84","","",""
"html-keyboard-response","199","887256","0.0-4.0-2.0-1.42","spark_pilot_2","7345","4","13","Female","","","","","","","null","<div style=""font-size:60px;"">+</div>","null","fixation","","","","","","","","","","","85","","",""
"revaluation","200","891272","0.0-4.0-2.0-0.43","spark_pilot_2","7345","4","13","Female","","false","","","","","[1113.2000000476837]","./assets/img/ocean/catch/3.jpg","[""spaceBar""]","value training","ocean","0","{""ArrowUp,ArrowLeft"":26,""ArrowUp,ArrowRight"":10,""ArrowDown,ArrowLeft"":5,""ArrowDown,ArrowRight"":17}","true","spaceBar","true","","","revaluation","1","86","","",""
"html-keyboard-response","201","891774","0.0-4.0-2.0-1.43","spark_pilot_2","7345","4","13","Female","","","","","","","null","<div style=""font-size:60px;"">+</div>","null","fixation","","","","","","","","","","","87","","",""
"revaluation","202","897781","0.0-4.0-2.0-0.44","spark_pilot_2","7345","4","13","Female","","false","","","","","[852.3000001907349,722.7000000476837]","./assets/img/ocean/memory/34.jpg","[""ArrowUp"",""ArrowLeft""]","value training","ocean","26","{""ArrowUp,ArrowLeft"":26,""ArrowUp,ArrowRight"":10,""ArrowDown,ArrowLeft"":5,""ArrowDown,ArrowRight"":17}","true","ArrowUp,ArrowLeft","false","","","revaluation","1","88","","",""
"html-keyboard-response","203","898285","0.0-4.0-2.0-1.44","spark_pilot_2","7345","4","13","Female","","","","","","","null","<div style=""font-size:60px;"">+</div>","null","fixation","","","","","","","","","","","89","","",""
"revaluation","204","904292","0.0-4.0-2.0-0.45","spark_pilot_2","7345","4","13","Female","","false","","","","","[909.2000000476837,324.2000000476837]","./assets/img/ocean/memory/26.jpg","[""ArrowUp"",""ArrowLeft""]","value training","ocean","26","{""ArrowUp,ArrowLeft"":26,""ArrowUp,ArrowRight"":10,""ArrowDown,ArrowLeft"":5,""ArrowDown,ArrowRight"":17}","true","ArrowUp,ArrowLeft","false","","","revaluation","1","90","","",""
"html-keyboard-response","205","904794","0.0-4.0-2.0-1.45","spark_pilot_2","7345","4","13","Female","","","","","","","null","<div style=""font-size:60px;"">+</div>","null","fixation","","","","","","","","","","","91","","",""
"revaluation","206","910801","0.0-4.0-2.0-0.46","spark_pilot_2","7345","4","13","Female","","false","","","","","[935.7999999523163,263.09999990463257]","./assets/img/ocean/memory/4.jpg","[""ArrowUp"",""ArrowLeft""]","value training","ocean","26","{""ArrowUp,ArrowLeft"":26,""ArrowUp,ArrowRight"":10,""ArrowDown,ArrowLeft"":5,""ArrowDown,ArrowRight"":17}","true","ArrowUp,ArrowLeft","false","","","revaluation","1","92","","",""
"html-keyboard-response","207","911304","0.0-4.0-2.0-1.46","spark_pilot_2","7345","4","13","Female","","","","","","","null","<div style=""font-size:60px;"">+</div>","null","fixation","","","","","","","","","","","93","","",""
"revaluation","208","917310","0.0-4.0-2.0-0.47","spark_pilot_2","7345","4","13","Female","","false","","","","","[618.0999999046326,273.2999999523163]","./assets/img/ocean/memory/1.jpg","[""ArrowUp"",""ArrowLeft""]","value training","ocean","26","{""ArrowUp,ArrowLeft"":26,""ArrowUp,ArrowRight"":10,""ArrowDown,ArrowLeft"":5,""ArrowDown,ArrowRight"":17}","true","ArrowUp,ArrowLeft","false","","","revaluation","1","94","","",""
"html-keyboard-response","209","917813","0.0-4.0-2.0-1.47","spark_pilot_2","7345","4","13","Female","","","","","","","null","<div style=""font-size:60px;"">+</div>","null","fixation","","","","","","","","","","","95","","",""
"revaluation","210","923820","0.0-4.0-2.0-0.48","spark_pilot_2","7345","4","13","Female","","false","","","","","[661.5999999046326,283.5]","./assets/img/ocean/memory/26.jpg","[""ArrowUp"",""ArrowLeft""]","value training","ocean","26","{""ArrowUp,ArrowLeft"":26,""ArrowUp,ArrowRight"":10,""ArrowDown,ArrowLeft"":5,""ArrowDown,ArrowRight"":17}","true","ArrowUp,ArrowLeft","false","","","revaluation","1","96","","",""
"html-keyboard-response","211","924323","0.0-4.0-2.0-1.48","spark_pilot_2","7345","4","13","Female","","","","","","","null","<div style=""font-size:60px;"">+</div>","null","fixation","","","","","","","","","","","97","","",""
"revaluation","212","930331","0.0-4.0-2.0-0.49","spark_pilot_2","7345","4","13","Female","","false","","","","","[655.0999999046326,245.90000009536743]","./assets/img/ocean/memory/38.jpg","[""ArrowUp"",""ArrowLeft""]","value training","ocean","26","{""ArrowUp,ArrowLeft"":26,""ArrowUp,ArrowRight"":10,""ArrowDown,ArrowLeft"":5,""ArrowDown,ArrowRight"":17}","true","ArrowUp,ArrowLeft","false","","","revaluation","1","98","","",""
"html-keyboard-response","213","930833","0.0-4.0-2.0-1.49","spark_pilot_2","7345","4","13","Female","","","","","","","null","<div style=""font-size:60px;"">+</div>","null","fixation","","","","","","","","","","","99","","",""
"learning-instructions","214","945462","0.0-4.0-3.0-0.0","spark_pilot_2","7345","4","13","Female","","","","","","","1485.6000001430511","<p> Now, you will travel with a friend who will choose whether you go up or down first. </p>
            <p> On these turns, you will just see the animal that they found. You will still get to choose which chest to search for treasure.</p>","","instructions","","","","","","","","","","","","","",""
"revaluation","215","949489","0.0-4.0-4.0-0.0","spark_pilot_2","7345","4","13","Female","","false","","","","","[887.5999999046326]","./assets/img/ocean/animals/seahorse.jpg","[""ArrowRight""]","revaluation","ocean","27","{""ArrowUp,ArrowLeft"":2,""ArrowUp,ArrowRight"":11,""ArrowDown,ArrowLeft"":8,""ArrowDown,ArrowRight"":27}","true","ArrowDown,ArrowRight","","","","revaluation","1","0","","",""
"html-keyboard-response","216","949999","0.0-4.0-4.0-1.0","spark_pilot_2","7345","4","13","Female","","","","","","","null","<div style=""font-size:60px;"">+</div>","null","fixation","","","","","","","","","","","1","","",""
"revaluation","217","954022","0.0-4.0-4.0-0.1","spark_pilot_2","7345","4","13","Female","","false","","","","","[483]","./assets/img/ocean/animals/octopus.jpg","[""ArrowLeft""]","revaluation","ocean","2","{""ArrowUp,ArrowLeft"":2,""ArrowUp,ArrowRight"":11,""ArrowDown,ArrowLeft"":8,""ArrowDown,ArrowRight"":27}","false","ArrowUp,ArrowLeft","","","","revaluation","1","2","","",""
"html-keyboard-response","218","954533","0.0-4.0-4.0-1.1","spark_pilot_2","7345","4","13","Female","","","","","","","null","<div style=""font-size:60px;"">+</div>","null","fixation","","","","","","","","","","","3","","",""
"revaluation","219","958560","0.0-4.0-4.0-0.2","spark_pilot_2","7345","4","13","Female","","false","","","","","[677.2000000476837]","./assets/img/ocean/animals/seahorse.jpg","[""ArrowRight""]","revaluation","ocean","27","{""ArrowUp,ArrowLeft"":2,""ArrowUp,ArrowRight"":11,""ArrowDown,ArrowLeft"":8,""ArrowDown,ArrowRight"":27}","true","ArrowDown,ArrowRight","","","","revaluation","1","4","","",""
"html-keyboard-response","220","959071","0.0-4.0-4.0-1.2","spark_pilot_2","7345","4","13","Female","","","","","","","null","<div style=""font-size:60px;"">+</div>","null","fixation","","","","","","","","","","","5","","",""
"revaluation","221","963095","0.0-4.0-4.0-0.3","spark_pilot_2","7345","4","13","Female","","false","","","","","[755.9000000953674]","./assets/img/ocean/animals/seahorse.jpg","[""ArrowRight""]","revaluation","ocean","27","{""ArrowUp,ArrowLeft"":2,""ArrowUp,ArrowRight"":11,""ArrowDown,ArrowLeft"":8,""ArrowDown,ArrowRight"":27}","true","ArrowDown,ArrowRight","","","","revaluation","1","6","","",""
"html-keyboard-response","222","963605","0.0-4.0-4.0-1.3","spark_pilot_2","7345","4","13","Female","","","","","","","null","<div style=""font-size:60px;"">+</div>","null","fixation","","","","","","","","","","","7","","",""
"revaluation","223","967629","0.0-4.0-4.0-0.4","spark_pilot_2","7345","4","13","Female","","false","","","","","[557.5999999046326]","./assets/img/ocean/animals/octopus.jpg","[""ArrowRight""]","revaluation","ocean","11","{""ArrowUp,ArrowLeft"":2,""ArrowUp,ArrowRight"":11,""ArrowDown,ArrowLeft"":8,""ArrowDown,ArrowRight"":27}","true","ArrowUp,ArrowRight","","","","revaluation","1","8","","",""
"html-keyboard-response","224","968138","0.0-4.0-4.0-1.4","spark_pilot_2","7345","4","13","Female","","","","","","","null","<div style=""font-size:60px;"">+</div>","null","fixation","","","","","","","","","","","9","","",""
"revaluation","225","972158","0.0-4.0-4.0-0.5","spark_pilot_2","7345","4","13","Female","","false","","","","","[479.5]","./assets/img/ocean/animals/seahorse.jpg","[""ArrowRight""]","revaluation","ocean","27","{""ArrowUp,ArrowLeft"":2,""ArrowUp,ArrowRight"":11,""ArrowDown,ArrowLeft"":8,""ArrowDown,ArrowRight"":27}","true","ArrowDown,ArrowRight","","","","revaluation","1","10","","",""
"html-keyboard-response","226","972666","0.0-4.0-4.0-1.5","spark_pilot_2","7345","4","13","Female","","","","","","","null","<div style=""font-size:60px;"">+</div>","null","fixation","","","","","","","","","","","11","","",""
"revaluation","227","976673","0.0-4.0-4.0-0.6","spark_pilot_2","7345","4","13","Female","","false","","","","","[495.2999999523163]","./assets/img/ocean/animals/seahorse.jpg","[""ArrowRight""]","revaluation","ocean","27","{""ArrowUp,ArrowLeft"":2,""ArrowUp,ArrowRight"":11,""ArrowDown,ArrowLeft"":8,""ArrowDown,ArrowRight"":27}","true","ArrowDown,ArrowRight","","","","revaluation","1","12","","",""
"html-keyboard-response","228","977175","0.0-4.0-4.0-1.6","spark_pilot_2","7345","4","13","Female","","","","","","","null","<div style=""font-size:60px;"">+</div>","null","fixation","","","","","","","","","","","13","","",""
"revaluation","229","981182","0.0-4.0-4.0-0.7","spark_pilot_2","7345","4","13","Female","","false","","","","","[731]","./assets/img/ocean/animals/octopus.jpg","[""ArrowLeft""]","revaluation","ocean","2","{""ArrowUp,ArrowLeft"":2,""ArrowUp,ArrowRight"":11,""ArrowDown,ArrowLeft"":8,""ArrowDown,ArrowRight"":27}","false","ArrowUp,ArrowLeft","","","","revaluation","1","14","","",""
"html-keyboard-response","230","981683","0.0-4.0-4.0-1.7","spark_pilot_2","7345","4","13","Female","","","","","","","null","<div style=""font-size:60px;"">+</div>","null","fixation","","","","","","","","","","","15","","",""
"revaluation","231","985690","0.0-4.0-4.0-0.8","spark_pilot_2","7345","4","13","Female","","false","","","","","[446.90000009536743]","./assets/img/ocean/animals/octopus.jpg","[""ArrowRight""]","revaluation","ocean","11","{""ArrowUp,ArrowLeft"":2,""ArrowUp,ArrowRight"":11,""ArrowDown,ArrowLeft"":8,""ArrowDown,ArrowRight"":27}","true","ArrowUp,ArrowRight","","","","revaluation","1","16","","",""
"html-keyboard-response","232","986193","0.0-4.0-4.0-1.8","spark_pilot_2","7345","4","13","Female","","","","","","","null","<div style=""font-size:60px;"">+</div>","null","fixation","","","","","","","","","","","17","","",""
"revaluation","233","990200","0.0-4.0-4.0-0.9","spark_pilot_2","7345","4","13","Female","","false","","","","","[473.60000014305115]","./assets/img/ocean/animals/seahorse.jpg","[""ArrowLeft""]","revaluation","ocean","8","{""ArrowUp,ArrowLeft"":2,""ArrowUp,ArrowRight"":11,""ArrowDown,ArrowLeft"":8,""ArrowDown,ArrowRight"":27}","false","ArrowDown,ArrowLeft","","","","revaluation","1","18","","",""
"html-keyboard-response","234","990702","0.0-4.0-4.0-1.9","spark_pilot_2","7345","4","13","Female","","","","","","","null","<div style=""font-size:60px;"">+</div>","null","fixation","","","","","","","","","","","19","","",""
"revaluation","235","994709","0.0-4.0-4.0-0.10","spark_pilot_2","7345","4","13","Female","","false","","","","","[868.2999999523163]","./assets/img/ocean/animals/octopus.jpg","[""ArrowRight""]","revaluation","ocean","11","{""ArrowUp,ArrowLeft"":2,""ArrowUp,ArrowRight"":11,""ArrowDown,ArrowLeft"":8,""ArrowDown,ArrowRight"":27}","true","ArrowUp,ArrowRight","","","","revaluation","1","20","","",""
"html-keyboard-response","236","995210","0.0-4.0-4.0-1.10","spark_pilot_2","7345","4","13","Female","","","","","","","null","<div style=""font-size:60px;"">+</div>","null","fixation","","","","","","","","","","","21","","",""
"revaluation","237","999217","0.0-4.0-4.0-0.11","spark_pilot_2","7345","4","13","Female","","false","","","","","[439.7999999523163]","./assets/img/ocean/animals/seahorse.jpg","[""ArrowRight""]","revaluation","ocean","27","{""ArrowUp,ArrowLeft"":2,""ArrowUp,ArrowRight"":11,""ArrowDown,ArrowLeft"":8,""ArrowDown,ArrowRight"":27}","true","ArrowDown,ArrowRight","","","","revaluation","1","22","","",""
"html-keyboard-response","238","999719","0.0-4.0-4.0-1.11","spark_pilot_2","7345","4","13","Female","","","","","","","null","<div style=""font-size:60px;"">+</div>","null","fixation","","","","","","","","","","","23","","",""
"revaluation","239","1003726","0.0-4.0-4.0-0.12","spark_pilot_2","7345","4","13","Female","","false","","","","","[459.90000009536743]","./assets/img/ocean/animals/octopus.jpg","[""ArrowRight""]","revaluation","ocean","11","{""ArrowUp,ArrowLeft"":2,""ArrowUp,ArrowRight"":11,""ArrowDown,ArrowLeft"":8,""ArrowDown,ArrowRight"":27}","true","ArrowUp,ArrowRight","","","","revaluation","1","24","","",""
"html-keyboard-response","240","1004228","0.0-4.0-4.0-1.12","spark_pilot_2","7345","4","13","Female","","","","","","","null","<div style=""font-size:60px;"">+</div>","null","fixation","","","","","","","","","","","25","","",""
"revaluation","241","1008232","0.0-4.0-4.0-0.13","spark_pilot_2","7345","4","13","Female","","false","","","","","[456.90000009536743]","./assets/img/ocean/animals/seahorse.jpg","[""ArrowRight""]","revaluation","ocean","27","{""ArrowUp,ArrowLeft"":2,""ArrowUp,ArrowRight"":11,""ArrowDown,ArrowLeft"":8,""ArrowDown,ArrowRight"":27}","true","ArrowDown,ArrowRight","","","","revaluation","1","26","","",""
"html-keyboard-response","242","1008733","0.0-4.0-4.0-1.13","spark_pilot_2","7345","4","13","Female","","","","","","","null","<div style=""font-size:60px;"">+</div>","null","fixation","","","","","","","","","","","27","","",""
"revaluation","243","1012743","0.0-4.0-4.0-0.14","spark_pilot_2","7345","4","13","Female","","false","","","","","[441.5]","./assets/img/ocean/animals/octopus.jpg","[""ArrowRight""]","revaluation","ocean","11","{""ArrowUp,ArrowLeft"":2,""ArrowUp,ArrowRight"":11,""ArrowDown,ArrowLeft"":8,""ArrowDown,ArrowRight"":27}","true","ArrowUp,ArrowRight","","","","revaluation","1","28","","",""
"html-keyboard-response","244","1013244","0.0-4.0-4.0-1.14","spark_pilot_2","7345","4","13","Female","","","","","","","null","<div style=""font-size:60px;"">+</div>","null","fixation","","","","","","","","","","","29","","",""
"revaluation","245","1017251","0.0-4.0-4.0-0.15","spark_pilot_2","7345","4","13","Female","","false","","","","","[454.90000009536743]","./assets/img/ocean/animals/seahorse.jpg","[""ArrowRight""]","revaluation","ocean","27","{""ArrowUp,ArrowLeft"":2,""ArrowUp,ArrowRight"":11,""ArrowDown,ArrowLeft"":8,""ArrowDown,ArrowRight"":27}","true","ArrowDown,ArrowRight","","","","revaluation","1","30","","",""
"html-keyboard-response","246","1017753","0.0-4.0-4.0-1.15","spark_pilot_2","7345","4","13","Female","","","","","","","null","<div style=""font-size:60px;"">+</div>","null","fixation","","","","","","","","","","","31","","",""
"revaluation","247","1021763","0.0-4.0-4.0-0.16","spark_pilot_2","7345","4","13","Female","","false","","","","","[526.4000000953674]","./assets/img/ocean/animals/octopus.jpg","[""ArrowRight""]","revaluation","ocean","11","{""ArrowUp,ArrowLeft"":2,""ArrowUp,ArrowRight"":11,""ArrowDown,ArrowLeft"":8,""ArrowDown,ArrowRight"":27}","true","ArrowUp,ArrowRight","","","","revaluation","1","32","","",""
"html-keyboard-response","248","1022265","0.0-4.0-4.0-1.16","spark_pilot_2","7345","4","13","Female","","","","","","","null","<div style=""font-size:60px;"">+</div>","null","fixation","","","","","","","","","","","33","","",""
"revaluation","249","1026273","0.0-4.0-4.0-0.17","spark_pilot_2","7345","4","13","Female","","false","","","","","[449.59999990463257]","./assets/img/ocean/animals/octopus.jpg","[""ArrowRight""]","revaluation","ocean","11","{""ArrowUp,ArrowLeft"":2,""ArrowUp,ArrowRight"":11,""ArrowDown,ArrowLeft"":8,""ArrowDown,ArrowRight"":27}","true","ArrowUp,ArrowRight","","","","revaluation","1","34","","",""
"html-keyboard-response","250","1026774","0.0-4.0-4.0-1.17","spark_pilot_2","7345","4","13","Female","","","","","","","null","<div style=""font-size:60px;"">+</div>","null","fixation","","","","","","","","","","","35","","",""
"learning-instructions","251","1039270","0.0-4.0-5.0-0.0","spark_pilot_2","7345","4","13","Female","","","","","","","594.1000001430511","<p> Time to play the dot game! </p>
            <p> For one minute, click the red dots on the following screen as they appear. </p>
            <p><b> Don't look away, as you will earn bonus for clicking dots</b>. </p>","","instructions","","","","","","","","","","","","","",""
"revaluation","252","1099271","0.0-4.0-6.0-0.0","spark_pilot_2","7345","4","13","Female","","","","","","","[73,88,49,84,60,61,75,85]","","","rest","","80","","","","","0","60000","","","","","",""
"learning-instructions","253","1106998","0.0-4.0-7.0-0.0","spark_pilot_2","7345","4","13","Female","","","","","","","1367.5","<p> You have almost finished this part of the game! </p>
            <p> We are going to ask you to make a few more choices. </p>","","instructions","","","","","","","","","","","","","",""
"learning-instructions","254","1121846","0.0-4.0-7.0-0.1","spark_pilot_2","7345","4","13","Female","","","","","","","885.4000000953674","<p> First, you need to decide whether to go up or down. When you see each picture, use the arrow keys to make your choice. </p>
            <p><b>You will not see which animal you found, but try to get to the one that will give you the most treasure.</b></p>","","instructions","","","","","","","","","","","","","",""
"revaluation","255","1122711","0.0-4.0-8.0-0.0","spark_pilot_2","7345","4","13","Female","","false","","","","","[863.5]","./assets/img/ocean/test/1.jpg","[""ArrowUp""]","first stage test","ocean","0","{""ArrowUp,ArrowLeft"":2,""ArrowUp,ArrowRight"":11,""ArrowDown,ArrowLeft"":8,""ArrowDown,ArrowRight"":27}","false","ArrowUp","false","","","revaluation","1","","","",""
"html-keyboard-response","256","1123213","0.0-4.0-8.0-1.0","spark_pilot_2","7345","4","13","Female","","","","","","","null","<div style=""font-size:60px;"">+</div>","null","fixation","","","","","","","","","","","","","",""
"revaluation","257","1123559","0.0-4.0-8.0-0.1","spark_pilot_2","7345","4","13","Female","","false","","","","","[341.09999990463257]","./assets/img/ocean/test/2.jpg","[""ArrowUp""]","first stage test","ocean","0","{""ArrowUp,ArrowLeft"":2,""ArrowUp,ArrowRight"":11,""ArrowDown,ArrowLeft"":8,""ArrowDown,ArrowRight"":27}","false","ArrowUp","false","","","revaluation","1","","","",""
"html-keyboard-response","258","1124065","0.0-4.0-8.0-1.1","spark_pilot_2","7345","4","13","Female","","","","","","","null","<div style=""font-size:60px;"">+</div>","null","fixation","","","","","","","","","","","","","",""
"revaluation","259","1124367","0.0-4.0-8.0-0.2","spark_pilot_2","7345","4","13","Female","","false","","","","","[297.30000019073486]","./assets/img/ocean/test/0.jpg","[""ArrowUp""]","first stage test","ocean","0","{""ArrowUp,ArrowLeft"":2,""ArrowUp,ArrowRight"":11,""ArrowDown,ArrowLeft"":8,""ArrowDown,ArrowRight"":27}","false","ArrowUp","false","","","revaluation","1","","","",""
"html-keyboard-response","260","1124874","0.0-4.0-8.0-1.2","spark_pilot_2","7345","4","13","Female","","","","","","","null","<div style=""font-size:60px;"">+</div>","null","fixation","","","","","","","","","","","","","",""
"revaluation","261","1125175","0.0-4.0-8.0-0.3","spark_pilot_2","7345","4","13","Female","","false","","","","","[296.60000014305115]","./assets/img/ocean/test/3.jpg","[""ArrowUp""]","first stage test","ocean","0","{""ArrowUp,ArrowLeft"":2,""ArrowUp,ArrowRight"":11,""ArrowDown,ArrowLeft"":8,""ArrowDown,ArrowRight"":27}","false","ArrowUp","false","","","revaluation","1","","","",""
"html-keyboard-response","262","1125679","0.0-4.0-8.0-1.3","spark_pilot_2","7345","4","13","Female","","","","","","","null","<div style=""font-size:60px;"">+</div>","null","fixation","","","","","","","","","","","","","",""
"learning-instructions","263","1138102","0.0-4.0-9.0-0.0","spark_pilot_2","7345","4","13","Female","","","","","","","1081.5999999046326","<p> Now you will see the animals again and can search their chests for treasure. </p>
            <p> This time, you will not see how much treasure you earned, but you will earn more bonus money for making better choices. </p>","","instructions","","","","","","","","","","","","","",""
"revaluation","264","1138903","0.0-4.0-10.0-0.0","spark_pilot_2","7345","4","13","Female","","false","","","","","[799.7999999523163]","./assets/img/ocean/animals/octopus.jpg","[""ArrowLeft""]","second stage test","ocean","0","{""ArrowUp,ArrowLeft"":2,""ArrowUp,ArrowRight"":11,""ArrowDown,ArrowLeft"":8,""ArrowDown,ArrowRight"":27}","false","ArrowUp,ArrowLeft","","","","revaluation","1","","","",""
"html-keyboard-response","265","1139412","0.0-4.0-10.0-1.0","spark_pilot_2","7345","4","13","Female","","","","","","","null","<div style=""font-size:60px;"">+</div>","null","fixation","","","","","","","","","","","","","",""
"revaluation","266","1139959","0.0-4.0-10.0-0.1","spark_pilot_2","7345","4","13","Female","","false","","","","","[542.1999998092651]","./assets/img/ocean/animals/octopus.jpg","[""ArrowLeft""]","second stage test","ocean","0","{""ArrowUp,ArrowLeft"":2,""ArrowUp,ArrowRight"":11,""ArrowDown,ArrowLeft"":8,""ArrowDown,ArrowRight"":27}","false","ArrowUp,ArrowLeft","","","","revaluation","1","","","",""
"html-keyboard-response","267","1140467","0.0-4.0-10.0-1.1","spark_pilot_2","7345","4","13","Female","","","","","","","null","<div style=""font-size:60px;"">+</div>","null","fixation","","","","","","","","","","","","","",""
"revaluation","268","1140823","0.0-4.0-10.0-0.2","spark_pilot_2","7345","4","13","Female","","false","","","","","[350.89999985694885]","./assets/img/ocean/animals/octopus.jpg","[""ArrowLeft""]","second stage test","ocean","0","{""ArrowUp,ArrowLeft"":2,""ArrowUp,ArrowRight"":11,""ArrowDown,ArrowLeft"":8,""ArrowDown,ArrowRight"":27}","false","ArrowUp,ArrowLeft","","","","revaluation","1","","","",""
"html-keyboard-response","269","1141340","0.0-4.0-10.0-1.2","spark_pilot_2","7345","4","13","Female","","","","","","","null","<div style=""font-size:60px;"">+</div>","null","fixation","","","","","","","","","","","","","",""
"revaluation","270","1141727","0.0-4.0-10.0-0.3","spark_pilot_2","7345","4","13","Female","","false","","","","","[382.7000000476837]","./assets/img/ocean/animals/octopus.jpg","[""ArrowLeft""]","second stage test","ocean","0","{""ArrowUp,ArrowLeft"":2,""ArrowUp,ArrowRight"":11,""ArrowDown,ArrowLeft"":8,""ArrowDown,ArrowRight"":27}","false","ArrowUp,ArrowLeft","","","","revaluation","1","","","",""
"html-keyboard-response","271","1142240","0.0-4.0-10.0-1.3","spark_pilot_2","7345","4","13","Female","","","","","","","null","<div style=""font-size:60px;"">+</div>","null","fixation","","","","","","","","","","","","","",""
"revaluation","272","1142695","0.0-4.0-10.0-0.4","spark_pilot_2","7345","4","13","Female","","false","","","","","[451.2000000476837]","./assets/img/ocean/animals/seahorse.jpg","[""ArrowRight""]","second stage test","ocean","0","{""ArrowUp,ArrowLeft"":2,""ArrowUp,ArrowRight"":11,""ArrowDown,ArrowLeft"":8,""ArrowDown,ArrowRight"":27}","true","ArrowDown,ArrowRight","","","","revaluation","1","","","",""
"html-keyboard-response","273","1143199","0.0-4.0-10.0-1.4","spark_pilot_2","7345","4","13","Female","","","","","","","null","<div style=""font-size:60px;"">+</div>","null","fixation","","","","","","","","","","","","","",""
"revaluation","274","1143550","0.0-4.0-10.0-0.5","spark_pilot_2","7345","4","13","Female","","false","","","","","[347.2000000476837]","./assets/img/ocean/animals/seahorse.jpg","[""ArrowRight""]","second stage test","ocean","0","{""ArrowUp,ArrowLeft"":2,""ArrowUp,ArrowRight"":11,""ArrowDown,ArrowLeft"":8,""ArrowDown,ArrowRight"":27}","true","ArrowDown,ArrowRight","","","","revaluation","1","","","",""
"html-keyboard-response","275","1144065","0.0-4.0-10.0-1.5","spark_pilot_2","7345","4","13","Female","","","","","","","null","<div style=""font-size:60px;"">+</div>","null","fixation","","","","","","","","","","","","","",""
"revaluation","276","1144390","0.0-4.0-10.0-0.6","spark_pilot_2","7345","4","13","Female","","false","","","","","[321.90000009536743]","./assets/img/ocean/animals/seahorse.jpg","[""ArrowRight""]","second stage test","ocean","0","{""ArrowUp,ArrowLeft"":2,""ArrowUp,ArrowRight"":11,""ArrowDown,ArrowLeft"":8,""ArrowDown,ArrowRight"":27}","true","ArrowDown,ArrowRight","","","","revaluation","1","","","",""
"html-keyboard-response","277","1144900","0.0-4.0-10.0-1.6","spark_pilot_2","7345","4","13","Female","","","","","","","null","<div style=""font-size:60px;"">+</div>","null","fixation","","","","","","","","","","","","","",""
"revaluation","278","1145231","0.0-4.0-10.0-0.7","spark_pilot_2","7345","4","13","Female","","false","","","","","[325.7999999523163]","./assets/img/ocean/animals/seahorse.jpg","[""ArrowRight""]","second stage test","ocean","0","{""ArrowUp,ArrowLeft"":2,""ArrowUp,ArrowRight"":11,""ArrowDown,ArrowLeft"":8,""ArrowDown,ArrowRight"":27}","true","ArrowDown,ArrowRight","","","","revaluation","1","","","",""
"html-keyboard-response","279","1145741","0.0-4.0-10.0-1.7","spark_pilot_2","7345","4","13","Female","","","","","","","null","<div style=""font-size:60px;"">+</div>","null","fixation","","","","","","","","","","","","","",""
"learning-instructions","280","1151230","0.0-4.0-0.1-0.2","spark_pilot_2","7345","4","13","Female","","","","","","","2689.7999999523163","<p> This time you are searching for treasure in the <b>canyon</b>.</p>","","instructions","","","","","","","","","","","","","",""
"learning-instructions","281","1168958","0.0-4.0-0.1-0.3","spark_pilot_2","7345","4","13","Female","","","","","","","477","<p><b>New</b> animals with <b>new</b> treasure chests live here. You need to explore to discover where the animal with the best treasure chest is.</p>
                    <p> Like before, once you figure out which animal has the chest with the most treasure, you should try to get to that animal and select that chest! </p>","","instructions","","","","","","","","","","","","","",""
"learning-instructions","282","1185006","0.0-4.0-1.1-0.1","spark_pilot_2","7345","4","13","Female","","","","","","","1304.7999999523163","<p> Remember, when you see a picture of the place, use the up and down keys to <b>find an animal</b>.</p>
            <p> When you encounter an animal, you should use the left and right keys to <b>select a treasure chest</b>.</p>
            <p> Don't forget to look out for the robber! </p>","","instructions","","","","","","","","","","","","","",""
"revaluation","283","1189028","0.0-4.0-2.1-0.50","spark_pilot_2","7345","4","13","Female","","false","","","","","[1599.7000000476837]","./assets/img/canyon/catch/5.jpg","[""spaceBar""]","value training","canyon","0","{""ArrowUp,ArrowLeft"":23,""ArrowUp,ArrowRight"":10,""ArrowDown,ArrowLeft"":8,""ArrowDown,ArrowRight"":30}","true","spaceBar","true","","","original","2","0","","",""
"html-keyboard-response","284","1189542","0.0-4.0-2.1-1.50","spark_pilot_2","7345","4","13","Female","","","","","","","null","<div style=""font-size:60px;"">+</div>","null","fixation","","","","","","","","","","","1","","",""
"revaluation","285","1195577","0.0-4.0-2.1-0.51","spark_pilot_2","7345","4","13","Female","","false","","","","","[1212.7000000476837,519.5]","./assets/img/canyon/memory/35.jpg","[""ArrowDown"",""ArrowRight""]","value training","canyon","30","{""ArrowUp,ArrowLeft"":23,""ArrowUp,ArrowRight"":10,""ArrowDown,ArrowLeft"":8,""ArrowDown,ArrowRight"":30}","true","ArrowDown,ArrowRight","false","","","original","2","2","","",""
"html-keyboard-response","286","1196089","0.0-4.0-2.1-1.51","spark_pilot_2","7345","4","13","Female","","","","","","","null","<div style=""font-size:60px;"">+</div>","null","fixation","","","","","","","","","","","3","","",""
"revaluation","287","1202124","0.0-4.0-2.1-0.52","spark_pilot_2","7345","4","13","Female","","false","","","","","[1169.6000001430511,276.09999990463257]","./assets/img/canyon/memory/27.jpg","[""ArrowDown"",""ArrowLeft""]","value training","canyon","8","{""ArrowUp,ArrowLeft"":23,""ArrowUp,ArrowRight"":10,""ArrowDown,ArrowLeft"":8,""ArrowDown,ArrowRight"":30}","false","ArrowDown,ArrowLeft","false","","","original","2","4","","",""
"html-keyboard-response","288","1202637","0.0-4.0-2.1-1.52","spark_pilot_2","7345","4","13","Female","","","","","","","null","<div style=""font-size:60px;"">+</div>","null","fixation","","","","","","","","","","","5","","",""
"revaluation","289","1208679","0.0-4.0-2.1-0.53","spark_pilot_2","7345","4","13","Female","","false","","","","","[813,315.2999999523163]","./assets/img/canyon/memory/1.jpg","[""ArrowUp"",""ArrowRight""]","value training","canyon","10","{""ArrowUp,ArrowLeft"":23,""ArrowUp,ArrowRight"":10,""ArrowDown,ArrowLeft"":8,""ArrowDown,ArrowRight"":30}","false","ArrowUp,ArrowRight","false","","","original","2","6","","",""
"html-keyboard-response","290","1209190","0.0-4.0-2.1-1.53","spark_pilot_2","7345","4","13","Female","","","","","","","null","<div style=""font-size:60px;"">+</div>","null","fixation","","","","","","","","","","","7","","",""
"revaluation","291","1215202","0.0-4.0-2.1-0.54","spark_pilot_2","7345","4","13","Female","","false","","","","","[805.2999999523163,273]","./assets/img/canyon/memory/34.jpg","[""ArrowUp"",""ArrowLeft""]","value training","canyon","23","{""ArrowUp,ArrowLeft"":23,""ArrowUp,ArrowRight"":10,""ArrowDown,ArrowLeft"":8,""ArrowDown,ArrowRight"":30}","false","ArrowUp,ArrowLeft","false","","","original","2","8","","",""
"html-keyboard-response","292","1215703","0.0-4.0-2.1-1.54","spark_pilot_2","7345","4","13","Female","","","","","","","null","<div style=""font-size:60px;"">+</div>","null","fixation","","","","","","","","","","","9","","",""
"revaluation","293","1221712","0.0-4.0-2.1-0.55","spark_pilot_2","7345","4","13","Female","","false","","","","","[843.1999998092651,307.2000000476837]","./assets/img/canyon/memory/38.jpg","[""ArrowDown"",""ArrowRight""]","value training","canyon","30","{""ArrowUp,ArrowLeft"":23,""ArrowUp,ArrowRight"":10,""ArrowDown,ArrowLeft"":8,""ArrowDown,ArrowRight"":30}","true","ArrowDown,ArrowRight","false","","","original","2","10","","",""
"html-keyboard-response","294","1222214","0.0-4.0-2.1-1.55","spark_pilot_2","7345","4","13","Female","","","","","","","null","<div style=""font-size:60px;"">+</div>","null","fixation","","","","","","","","","","","11","","",""
"revaluation","295","1228221","0.0-4.0-2.1-0.56","spark_pilot_2","7345","4","13","Female","","false","","","","","[1885,628]","./assets/img/canyon/memory/24.jpg","[""ArrowDown"",""ArrowRight""]","value training","canyon","30","{""ArrowUp,ArrowLeft"":23,""ArrowUp,ArrowRight"":10,""ArrowDown,ArrowLeft"":8,""ArrowDown,ArrowRight"":30}","true","ArrowDown,ArrowRight","false","","","original","2","12","","",""
"html-keyboard-response","296","1228724","0.0-4.0-2.1-1.56","spark_pilot_2","7345","4","13","Female","","","","","","","null","<div style=""font-size:60px;"">+</div>","null","fixation","","","","","","","","","","","13","","",""
"revaluation","297","1232730","0.0-4.0-2.1-0.57","spark_pilot_2","7345","4","13","Female","","false","","","","","[1327.0999999046326]","./assets/img/canyon/catch/1.jpg","[""spaceBar""]","value training","canyon","0","{""ArrowUp,ArrowLeft"":23,""ArrowUp,ArrowRight"":10,""ArrowDown,ArrowLeft"":8,""ArrowDown,ArrowRight"":30}","true","spaceBar","true","","","original","2","14","","",""
"html-keyboard-response","298","1233232","0.0-4.0-2.1-1.57","spark_pilot_2","7345","4","13","Female","","","","","","","null","<div style=""font-size:60px;"">+</div>","null","fixation","","","","","","","","","","","15","","",""
"revaluation","299","1239239","0.0-4.0-2.1-0.58","spark_pilot_2","7345","4","13","Female","","false","","","","","[1107.2999999523163,338]","./assets/img/canyon/memory/20.jpg","[""ArrowDown"",""ArrowRight""]","value training","canyon","30","{""ArrowUp,ArrowLeft"":23,""ArrowUp,ArrowRight"":10,""ArrowDown,ArrowLeft"":8,""ArrowDown,ArrowRight"":30}","true","ArrowDown,ArrowRight","false","","","original","2","16","","",""
"html-keyboard-response","300","1239741","0.0-4.0-2.1-1.58","spark_pilot_2","7345","4","13","Female","","","","","","","null","<div style=""font-size:60px;"">+</div>","null","fixation","","","","","","","","","","","17","","",""
"revaluation","301","1245748","0.0-4.0-2.1-0.59","spark_pilot_2","7345","4","13","Female","","false","","","","","[702.1000001430511,317]","./assets/img/canyon/memory/27.jpg","[""ArrowDown"",""ArrowRight""]","value training","canyon","30","{""ArrowUp,ArrowLeft"":23,""ArrowUp,ArrowRight"":10,""ArrowDown,ArrowLeft"":8,""ArrowDown,ArrowRight"":30}","true","ArrowDown,ArrowRight","false","","","original","2","18","","",""
"html-keyboard-response","302","1246258","0.0-4.0-2.1-1.59","spark_pilot_2","7345","4","13","Female","","","","","","","null","<div style=""font-size:60px;"">+</div>","null","fixation","","","","","","","","","","","19","","",""
"revaluation","303","1250264","0.0-4.0-2.1-0.60","spark_pilot_2","7345","4","13","Female","","false","","","","","[1039.4000000953674]","./assets/img/canyon/catch/3.jpg","[""spaceBar""]","value training","canyon","0","{""ArrowUp,ArrowLeft"":23,""ArrowUp,ArrowRight"":10,""ArrowDown,ArrowLeft"":8,""ArrowDown,ArrowRight"":30}","true","spaceBar","true","","","original","2","20","","",""
"html-keyboard-response","304","1250767","0.0-4.0-2.1-1.60","spark_pilot_2","7345","4","13","Female","","","","","","","null","<div style=""font-size:60px;"">+</div>","null","fixation","","","","","","","","","","","21","","",""
"revaluation","305","1256775","0.0-4.0-2.1-0.61","spark_pilot_2","7345","4","13","Female","","false","","","","","[475,290.60000014305115]","./assets/img/canyon/memory/25.jpg","[""ArrowDown"",""ArrowRight""]","value training","canyon","30","{""ArrowUp,ArrowLeft"":23,""ArrowUp,ArrowRight"":10,""ArrowDown,ArrowLeft"":8,""ArrowDown,ArrowRight"":30}","true","ArrowDown,ArrowRight","false","","","original","2","22","","",""
