"trial_type","trial_index","time_elapsed","internal_node_id","task_version","subject_id","assigned_condition","age","gender","success","timeout","failed_images","failed_audio","failed_video","browser_interaction","rt","stimulus","response","task_part","environment","score","rewardMap","correct","fullState","isCatch","numberMissed","duration","condition","order","trial_num","key_press","ground_truth","bonus"
"pavlovia","0","806","0.0-0.0","spark_pilot_2","7537","6","9","Male","","","","","","","","","","","","","","","","","","","","","","","",""
"preload","1","1991","0.0-1.0","spark_pilot_2","7537","6","9","Male","true","false","[]","[]","[]","[{""event"":""fullscreenenter"",""trial"":2,""time"":5357}]","","","","","","","","","","","","","","","","","",""
"fullscreen","2","6342","0.0-2.0","spark_pilot_2","7537","6","9","Male","true","","","","","","","","","","","","","","","","","","","","","","",""
"audio-button-response","3","8405","0.0-3.0-0.0-0.0","spark_pilot_2","7537","6","9","Male","","","","","","","2059","./assets/audio/audiotest/turtle.mp3","2","audio_test","","","","","","","","","","","","","",""
"learning-instructions","4","18021","0.0-3.0-1.0-0.0","spark_pilot_2","7537","6","9","Male","","","","","","","2638.89999999851","<p> Welcome! Please remember to stay in fullscreen mode and don't click away from the experiment. </p>","","instructions","","","","","","","","","","","","","",""
"learning-instructions","5","27333","0.0-3.0-1.0-0.1","spark_pilot_2","7537","6","9","Male","","","","","","","910.2999999970198","<p> Today you will be playing a game to earn treasure. </p>
            <p> At the end of the experiment, you will earn a bonus based on how much treasure you find. </p>
            <img src='./assets/img/instructions/treasure.jpg' class='instructions-image'>","","instructions","","","","","","","","","","","","","",""
"learning-instructions","6","36509","0.0-3.0-1.0-0.2","spark_pilot_2","7537","6","9","Male","","","","","","","926.6999999955297","<p> Animals have hidden treasure in treasure chests. </p>
            <p> You need to first find an animal and then choose which of their treasure chests to search. </p>
            <img src='./assets/img/space/animals/cat.jpg' class='instructions-image'>","","instructions","","","","","","","","","","","","","",""
"learning-instructions","7","50333","0.0-3.0-1.0-0.3","spark_pilot_2","7537","6","9","Male","","","","","","","670.6000000014901","<p> In each round, you will search for treasure in a different place. In the real game, there will be two rounds. </p>
            <p> You will begin with a separate, practice round where you will search for treasure in outer space. </p>
            <img src='./assets/img/space/0.jpg' class='instructions-image'>","","instructions","","","","","","","","","","","","","",""
"learning-instructions","8","62653","0.0-3.0-1.0-0.4","spark_pilot_2","7537","6","9","Male","","","","","","","910.6000000014901","<p> On every turn, you will see a picture of the place that you are in, but the specific image may be different each time. </p>
            <p> For example, both of these images mean you are in outer space. </p>
            <img src='./assets/img/instructions/outerspace.jpg' class='instructions-image'>","","instructions","","","","","","","","","","","","","",""
"learning-instructions","9","72877","0.0-3.0-1.0-0.5","spark_pilot_2","7537","6","9","Male","","","","","","","2404.60000000149","<p> You need to decide which direction to travel in. </p>
            <p> You can choose between going <b>up or down</b> by using the arrow keys. </p>
            <img src='./assets/img/instructions/updown.jpg' class='instructions-image'>","","instructions","","","","","","","","","","","","","",""
"learning-instructions","10","83309","0.0-3.0-1.0-0.6","spark_pilot_2","7537","6","9","Male","","","","","","","1616.2999999970198","<p> You will have <b>2 seconds</b> to make your choice. </p>
            <p> If you do not make a choice within 2 seconds, you will not find an animal or earn treasure. </p>
            <img src='./assets/img/instructions/2seconds.jpg' class='instructions-image'>","","instructions","","","","","","","","","","","","","",""
"learning-instructions","11","91860","0.0-3.0-1.0-0.7","spark_pilot_2","7537","6","9","Male","","","","","","","1518.6000000014901","<p> Let’s try practicing that now! </p>
            <p> When you see a picture of the place you are in, press the <b>up</b> key to travel up. </p>
            <img src='./assets/img/instructions/pressUp.jpg' class='instructions-image'>","","instructions","","","","","","","","","","","","","",""
"revaluation","12","95887","0.0-3.0-2.0-0.0","spark_pilot_2","7537","6","9","Male","","true","","","","","[]","./assets/img/space/0.jpg","[]","first stage practice","space","-5","null","null","","false","","","","","","","",""
"html-keyboard-response","13","96400","0.0-3.0-2.0-1.0","spark_pilot_2","7537","6","9","Male","","","","","","","null","<div style=""font-size:60px;"">+</div>","null","fixation","","","","","","","","","","","","","",""
"revaluation","14","100406","0.0-3.0-2.0-0.1","spark_pilot_2","7537","6","9","Male","","false","","","","","[1395]","./assets/img/space/1.jpg","[""ArrowUp""]","first stage practice","space","0","null","null","ArrowUp","false","","","","","","","",""
"html-keyboard-response","15","100908","0.0-3.0-2.0-1.1","spark_pilot_2","7537","6","9","Male","","","","","","","null","<div style=""font-size:60px;"">+</div>","null","fixation","","","","","","","","","","","","","",""
"revaluation","16","104921","0.0-3.0-2.0-0.2","spark_pilot_2","7537","6","9","Male","","false","","","","","[1663]","./assets/img/space/2.jpg","[""ArrowUp""]","first stage practice","space","0","null","null","ArrowUp","false","","","","","","","",""
"html-keyboard-response","17","105422","0.0-3.0-2.0-1.2","spark_pilot_2","7537","6","9","Male","","","","","","","null","<div style=""font-size:60px;"">+</div>","null","fixation","","","","","","","","","","","","","",""
"learning-instructions","18","111605","0.0-3.0-3.0-0.0","spark_pilot_2","7537","6","9","Male","","","","","","","1492.5","<p> Great job! Now try pressing the <b>down</b> key to travel down. </p>
            <img src='./assets/img/instructions/pressDown.jpg' class='instructions-image'>","","instructions","","","","","","","","","","","","","",""
"revaluation","19","115608","0.0-3.0-4.0-0.0","spark_pilot_2","7537","6","9","Male","","false","","","","","[446.70000000298023]","./assets/img/space/3.jpg","[""ArrowDown""]","first stage practice","space","0","null","null","ArrowDown","false","","","","","","","",""
"html-keyboard-response","20","116110","0.0-3.0-4.0-1.0","spark_pilot_2","7537","6","9","Male","","","","","","","null","<div style=""font-size:60px;"">+</div>","null","fixation","","","","","","","","","","","","","",""
"revaluation","21","120114","0.0-3.0-4.0-0.1","spark_pilot_2","7537","6","9","Male","","false","","","","","[389.20000000298023]","./assets/img/space/4.jpg","[""ArrowDown""]","first stage practice","space","0","null","null","ArrowDown","false","","","","","","","",""
"html-keyboard-response","22","120618","0.0-3.0-4.0-1.1","spark_pilot_2","7537","6","9","Male","","","","","","","null","<div style=""font-size:60px;"">+</div>","null","fixation","","","","","","","","","","","","","",""
"revaluation","23","124641","0.0-3.0-4.0-0.2","spark_pilot_2","7537","6","9","Male","","false","","","","","[1009.6999999955297]","./assets/img/space/5.jpg","[""ArrowDown""]","first stage practice","space","0","null","null","ArrowDown","false","","","","","","","",""
"html-keyboard-response","24","125142","0.0-3.0-4.0-1.2","spark_pilot_2","7537","6","9","Male","","","","","","","null","<div style=""font-size:60px;"">+</div>","null","fixation","","","","","","","","","","","","","",""
"learning-instructions","25","136428","0.0-3.0-5.0-0.0","spark_pilot_2","7537","6","9","Male","","","","","","","1377","<p> The animals don’t move, so the animal in the upper part of a place will stay in the upper part of a place, and the animal in the lower part of a place will stay in the lower part of a place. </p>","","instructions","","","","","","","","","","","","","",""
"learning-instructions","26","146285","0.0-3.0-5.0-0.1","spark_pilot_2","7537","6","9","Male","","","","","","","722.6000000014901","<p> Each animal has two treasure chests for you to choose from. </p>
            <p> The amount of treasure in each chest can range from <b> 0 to 40 pieces.</b></p>","","instructions","","","","","","","","","","","","","",""
"learning-instructions","27","159108","0.0-3.0-5.0-0.2","spark_pilot_2","7537","6","9","Male","","","","","","","1646.7999999970198","<p> You should decide which chest to search for treasure by using the <b>left</b> and <b>right</b> arrow keys. </p>
            <p><b> Pay attention to which animal is on the screen, as the animals have different treasure chests. </b></p>
            <img src='./assets/img/instructions/leftright.jpg' class='instructions-image'>","","instructions","","","","","","","","","","","","","",""
"learning-instructions","28","167805","0.0-3.0-5.0-0.3","spark_pilot_2","7537","6","9","Male","","","","","","","2322.89999999851","<p> Let’s try practicing that now. </p>
            <p> When you see an animal, choose which chest to search for treasure. </p>
            <img src='./assets/img/instructions/chooseChest.jpg' class='instructions-image'>","","instructions","","","","","","","","","","","","","",""
"revaluation","29","171810","0.0-3.0-6.0-0.0","spark_pilot_2","7537","6","9","Male","","false","","","","","[822.9000000059605]","./assets/img/space/animals/cat.jpg","[""ArrowRight""]","second stage practice","space","36","{""ArrowUp,ArrowLeft"":3,""ArrowUp,ArrowRight"":36,""ArrowDown,ArrowLeft"":15,""ArrowDown,ArrowRight"":23}","true","ArrowUp,ArrowRight","","","","","","","","",""
"html-keyboard-response","30","172311","0.0-3.0-6.0-1.0","spark_pilot_2","7537","6","9","Male","","","","","","","null","<div style=""font-size:60px;"">+</div>","null","fixation","","","","","","","","","","","","","",""
"revaluation","31","176326","0.0-3.0-6.0-0.1","spark_pilot_2","7537","6","9","Male","","false","","","","","[1292.3999999985099]","./assets/img/space/animals/rabbit.jpg","[""ArrowRight""]","second stage practice","space","23","{""ArrowUp,ArrowLeft"":3,""ArrowUp,ArrowRight"":36,""ArrowDown,ArrowLeft"":15,""ArrowDown,ArrowRight"":23}","true","ArrowDown,ArrowRight","","","","","","","","",""
"html-keyboard-response","32","176828","0.0-3.0-6.0-1.1","spark_pilot_2","7537","6","9","Male","","","","","","","null","<div style=""font-size:60px;"">+</div>","null","fixation","","","","","","","","","","","","","",""
"revaluation","33","180832","0.0-3.0-6.0-0.2","spark_pilot_2","7537","6","9","Male","","false","","","","","[391.6000000014901]","./assets/img/space/animals/rabbit.jpg","[""ArrowLeft""]","second stage practice","space","15","{""ArrowUp,ArrowLeft"":3,""ArrowUp,ArrowRight"":36,""ArrowDown,ArrowLeft"":15,""ArrowDown,ArrowRight"":23}","false","ArrowDown,ArrowLeft","","","","","","","","",""
"html-keyboard-response","34","181333","0.0-3.0-6.0-1.2","spark_pilot_2","7537","6","9","Male","","","","","","","null","<div style=""font-size:60px;"">+</div>","null","fixation","","","","","","","","","","","","","",""
"revaluation","35","185337","0.0-3.0-6.0-0.3","spark_pilot_2","7537","6","9","Male","","false","","","","","[742.5]","./assets/img/space/animals/cat.jpg","[""ArrowLeft""]","second stage practice","space","3","{""ArrowUp,ArrowLeft"":3,""ArrowUp,ArrowRight"":36,""ArrowDown,ArrowLeft"":15,""ArrowDown,ArrowRight"":23}","false","ArrowUp,ArrowLeft","","","","","","","","",""
"html-keyboard-response","36","185839","0.0-3.0-6.0-1.3","spark_pilot_2","7537","6","9","Male","","","","","","","null","<div style=""font-size:60px;"">+</div>","null","fixation","","","","","","","","","","","","","",""
"learning-instructions","37","203597","0.0-3.0-7.0-0.0","spark_pilot_2","7537","6","9","Male","","","","","","","945.4000000059605","<p> Great job. Now let’s try putting it together. </p>
            <p> On each turn, you will first see a picture to remind you of the place you are in, and you need to choose whether to go up or down. </p>
            <p> Then you will see an animal and choose which of its chests to search for treasure. </p>","","instructions","","","","","","","","","","","","","",""
"learning-instructions","38","212860","0.0-3.0-7.0-0.1","spark_pilot_2","7537","6","9","Male","","","","","","","998.7999999970198","<p> When you choose whether to go up or down, try to go to the animal with the chest with the most treasure. </p>
            <p> Try practicing that now! </p>","","instructions","","","","","","","","","","","","","",""
"revaluation","39","218864","0.0-3.0-8.0-0.0","spark_pilot_2","7537","6","9","Male","","false","","","","","[1335.6999999955297,470.29999999701977]","./assets/img/space/6.jpg","[""ArrowDown"",""ArrowLeft""]","full practice","space","15","{""ArrowUp,ArrowLeft"":3,""ArrowUp,ArrowRight"":36,""ArrowDown,ArrowLeft"":15,""ArrowDown,ArrowRight"":23}","false","ArrowDown,ArrowLeft","false","","","","","","","",""
"html-keyboard-response","40","219376","0.0-3.0-8.0-1.0","spark_pilot_2","7537","6","9","Male","","","","","","","null","<div style=""font-size:60px;"">+</div>","null","fixation","","","","","","","","","","","","","",""
"revaluation","41","225391","0.0-3.0-8.0-0.1","spark_pilot_2","7537","6","9","Male","","false","","","","","[451.30000000447035,590.2000000029802]","./assets/img/space/7.jpg","[""ArrowUp"",""ArrowLeft""]","full practice","space","3","{""ArrowUp,ArrowLeft"":3,""ArrowUp,ArrowRight"":36,""ArrowDown,ArrowLeft"":15,""ArrowDown,ArrowRight"":23}","false","ArrowUp,ArrowLeft","false","","","","","","","",""
"html-keyboard-response","42","225896","0.0-3.0-8.0-1.1","spark_pilot_2","7537","6","9","Male","","","","","","","null","<div style=""font-size:60px;"">+</div>","null","fixation","","","","","","","","","","","","","",""
"revaluation","43","231906","0.0-3.0-8.0-0.2","spark_pilot_2","7537","6","9","Male","","false","","","","","[706.5,600.5]","./assets/img/space/8.jpg","[""ArrowDown"",""ArrowRight""]","full practice","space","23","{""ArrowUp,ArrowLeft"":3,""ArrowUp,ArrowRight"":36,""ArrowDown,ArrowLeft"":15,""ArrowDown,ArrowRight"":23}","false","ArrowDown,ArrowRight","false","","","","","","","",""
"html-keyboard-response","44","232407","0.0-3.0-8.0-1.2","spark_pilot_2","7537","6","9","Male","","","","","","","null","<div style=""font-size:60px;"">+</div>","null","fixation","","","","","","","","","","","","","",""
"revaluation","45","238423","0.0-3.0-8.0-0.3","spark_pilot_2","7537","6","9","Male","","false","","","","","[987.3000000044703,1434.3000000044703]","./assets/img/space/9.jpg","[""ArrowDown"",""ArrowLeft""]","full practice","space","15","{""ArrowUp,ArrowLeft"":3,""ArrowUp,ArrowRight"":36,""ArrowDown,ArrowLeft"":15,""ArrowDown,ArrowRight"":23}","false","ArrowDown,ArrowLeft","false","","","","","","","",""
"html-keyboard-response","46","238924","0.0-3.0-8.0-1.3","spark_pilot_2","7537","6","9","Male","","","","","","","null","<div style=""font-size:60px;"">+</div>","null","fixation","","","","","","","","","","","","","",""
"revaluation","47","244927","0.0-3.0-8.0-0.4","spark_pilot_2","7537","6","9","Male","","false","","","","","[774.3999999985099,750.3999999985099]","./assets/img/space/10.jpg","[""ArrowDown"",""ArrowRight""]","full practice","space","23","{""ArrowUp,ArrowLeft"":3,""ArrowUp,ArrowRight"":36,""ArrowDown,ArrowLeft"":15,""ArrowDown,ArrowRight"":23}","false","ArrowDown,ArrowRight","false","","","","","","","",""
"html-keyboard-response","48","245429","0.0-3.0-8.0-1.4","spark_pilot_2","7537","6","9","Male","","","","","","","null","<div style=""font-size:60px;"">+</div>","null","fixation","","","","","","","","","","","","","",""
"learning-instructions","49","257732","0.0-3.0-9.0-0.0","spark_pilot_2","7537","6","9","Male","","","","","","","2000.2999999970198","<p> One last thing: sometimes, you will see a robber. The robber can be anywhere in the picture. </p>
            <p> If you do not stop them, you will lose treasure. </p>
            <img src='./assets/img/instructions/robber.jpg' class='instructions-image'>","","instructions","","","","","","","","","","","","","",""
"learning-instructions","50","266412","0.0-3.0-9.0-0.1","spark_pilot_2","7537","6","9","Male","","","","","","","1521.2000000029802","<p> If you see the robber, you should <b>press the space bar</b> rather than using the arrow keys. </p>
            <p> Try practicing that now! </p>","","instructions","","","","","","","","","","","","","",""
"revaluation","51","270416","0.0-3.0-10.0-0.0","spark_pilot_2","7537","6","9","Male","","false","","","","","[966.3999999985099]","./assets/img/space/catch/0.jpg","[""spaceBar""]","catch practice","space","0","{""ArrowUp,ArrowLeft"":3,""ArrowUp,ArrowRight"":36,""ArrowDown,ArrowLeft"":15,""ArrowDown,ArrowRight"":23}","true","spaceBar","true","","","","","","","",""
"html-keyboard-response","52","270916","0.0-3.0-10.0-1.0","spark_pilot_2","7537","6","9","Male","","","","","","","null","<div style=""font-size:60px;"">+</div>","null","fixation","","","","","","","","","","","","","",""
"revaluation","53","274929","0.0-3.0-10.0-0.1","spark_pilot_2","7537","6","9","Male","","false","","","","","[431.29999999701977]","./assets/img/space/catch/1.jpg","[""spaceBar""]","catch practice","space","0","{""ArrowUp,ArrowLeft"":3,""ArrowUp,ArrowRight"":36,""ArrowDown,ArrowLeft"":15,""ArrowDown,ArrowRight"":23}","true","spaceBar","true","","","","","","","",""
"html-keyboard-response","54","275431","0.0-3.0-10.0-1.1","spark_pilot_2","7537","6","9","Male","","","","","","","null","<div style=""font-size:60px;"">+</div>","null","fixation","","","","","","","","","","","","","",""
"revaluation","55","279434","0.0-3.0-10.0-0.2","spark_pilot_2","7537","6","9","Male","","false","","","","","[612.6999999955297]","./assets/img/space/catch/2.jpg","[""spaceBar""]","catch practice","space","0","{""ArrowUp,ArrowLeft"":3,""ArrowUp,ArrowRight"":36,""ArrowDown,ArrowLeft"":15,""ArrowDown,ArrowRight"":23}","true","spaceBar","true","","","","","","","",""
"html-keyboard-response","56","279935","0.0-3.0-10.0-1.2","spark_pilot_2","7537","6","9","Male","","","","","","","null","<div style=""font-size:60px;"">+</div>","null","fixation","","","","","","","","","","","","","",""
"learning-instructions","57","295124","0.0-3.0-11.0-0.0","spark_pilot_2","7537","6","9","Male","","","","","","","1592.7999999970198","<p> After you explore a place to find treasure, it will be time to play a different game. </p>
            <p> During this game, red dots will appear on the screen and fall down slowly. </p>
            <p><b> You must click on them before they reach the bottom. </b></p>
            <img src='./assets/img/instructions/dotGame.jpg' class='instructions-image'>","","instructions","","","","","","","","","","","","","",""
"learning-instructions","58","302404","0.0-3.0-11.0-0.1","spark_pilot_2","7537","6","9","Male","","","","","","","1612.6999999955297","<p> For every dot you click, you will earn additional treasure. </p>
            <p> Let’s try practicing that now. </p>","","instructions","","","","","","","","","","","","","",""
"revaluation","59","317410","0.0-3.0-12.0-0.0","spark_pilot_2","7537","6","9","Male","","","","","","","[77]","","","rest practice","","10","","","","","0","15000","","","","","",""
"learning-instructions","60","324148","0.0-3.0-13.0-0.0-0.0","spark_pilot_2","7537","6","9","Male","","","","","","","1476.7999999970198","<p> Now, you will practice a shortened version of the game to get a sense of how it all fits together. </p>","","instructions","","","","","","","","","","","","","",""
"learning-instructions","61","328333","0.0-3.0-13.0-0.0-0.1","spark_pilot_2","7537","6","9","Male","","","","","","","1001.1000000014901","<p>This time you are searching for treasure in outer space.</p>","","instructions","","","","","","","","","","","","","",""
"learning-instructions","62","344284","0.0-3.0-13.0-1.0-0.0","spark_pilot_2","7537","6","9","Male","","","","","","","1172.7999999970198","<p> Remember, when you see a picture of the place, use the up and down keys to <b>find an animal</b>.</p>
            <p> When you encounter an animal, you should use the left and right keys to <b>select a treasure chest</b>.</p>
            <p> Don't forget to look out for the robber! </p>","","instructions","","","","","","","","","","","","","",""
"revaluation","63","350326","0.0-3.0-13.0-2.0-0.0","spark_pilot_2","7537","6","9","Male","","false","","","","","[943,544]","./assets/img/space/11.jpg","[""ArrowDown"",""ArrowLeft""]","practice block","space","15","{""ArrowUp,ArrowLeft"":3,""ArrowUp,ArrowRight"":36,""ArrowDown,ArrowLeft"":15,""ArrowDown,ArrowRight"":23}","false","ArrowDown,ArrowLeft","false","","","","","","","",""
"html-keyboard-response","64","350839","0.0-3.0-13.0-2.0-1.0","spark_pilot_2","7537","6","9","Male","","","","","","","null","<div style=""font-size:60px;"">+</div>","null","fixation","","","","","","","","","","","","","",""
"revaluation","65","356844","0.0-3.0-13.0-2.0-0.1","spark_pilot_2","7537","6","9","Male","","true","","","","","[701.3000000044703]","./assets/img/space/12.jpg","[""ArrowUp""]","practice block","space","-5","{""ArrowUp,ArrowLeft"":3,""ArrowUp,ArrowRight"":36,""ArrowDown,ArrowLeft"":15,""ArrowDown,ArrowRight"":23}","false","ArrowUp","false","","","","","","","",""
"html-keyboard-response","66","357345","0.0-3.0-13.0-2.0-1.1","spark_pilot_2","7537","6","9","Male","","","","","","","null","<div style=""font-size:60px;"">+</div>","null","fixation","","","","","","","","","","","","","",""
"revaluation","67","363353","0.0-3.0-13.0-2.0-0.2","spark_pilot_2","7537","6","9","Male","","false","","","","","[771.1000000014901,817.6000000014901]","./assets/img/space/13.jpg","[""ArrowDown"",""ArrowRight""]","practice block","space","23","{""ArrowUp,ArrowLeft"":3,""ArrowUp,ArrowRight"":36,""ArrowDown,ArrowLeft"":15,""ArrowDown,ArrowRight"":23}","false","ArrowDown,ArrowRight","false","","","","","","","",""
"html-keyboard-response","68","363855","0.0-3.0-13.0-2.0-1.2","spark_pilot_2","7537","6","9","Male","","","","","","","null","<div style=""font-size:60px;"">+</div>","null","fixation","","","","","","","","","","","","","",""
"revaluation","69","369858","0.0-3.0-13.0-2.0-0.3","spark_pilot_2","7537","6","9","Male","","false","","","","","[340.8999999985099,1524.8000000044703]","./assets/img/space/14.jpg","[""ArrowUp"",""ArrowLeft""]","practice block","space","3","{""ArrowUp,ArrowLeft"":3,""ArrowUp,ArrowRight"":36,""ArrowDown,ArrowLeft"":15,""ArrowDown,ArrowRight"":23}","false","ArrowUp,ArrowLeft","false","","","","","","","",""
"html-keyboard-response","70","370367","0.0-3.0-13.0-2.0-1.3","spark_pilot_2","7537","6","9","Male","","","","","","","null","<div style=""font-size:60px;"">+</div>","null","fixation","","","","","","","","","","","","","",""
"revaluation","71","376382","0.0-3.0-13.0-2.0-0.4","spark_pilot_2","7537","6","9","Male","","false","","","","","[557,737]","./assets/img/space/11.jpg","[""ArrowUp"",""ArrowRight""]","practice block","space","36","{""ArrowUp,ArrowLeft"":3,""ArrowUp,ArrowRight"":36,""ArrowDown,ArrowLeft"":15,""ArrowDown,ArrowRight"":23}","true","ArrowUp,ArrowRight","false","","","","","","","",""
"html-keyboard-response","72","376883","0.0-3.0-13.0-2.0-1.4","spark_pilot_2","7537","6","9","Male","","","","","","","null","<div style=""font-size:60px;"">+</div>","null","fixation","","","","","","","","","","","","","",""
"revaluation","73","382887","0.0-3.0-13.0-2.0-0.5","spark_pilot_2","7537","6","9","Male","","false","","","","","[449.1000000014901,433.19999999552965]","./assets/img/space/12.jpg","[""ArrowDown"",""ArrowLeft""]","practice block","space","15","{""ArrowUp,ArrowLeft"":3,""ArrowUp,ArrowRight"":36,""ArrowDown,ArrowLeft"":15,""ArrowDown,ArrowRight"":23}","false","ArrowDown,ArrowLeft","false","","","","","","","",""
"html-keyboard-response","74","383389","0.0-3.0-13.0-2.0-1.5","spark_pilot_2","7537","6","9","Male","","","","","","","null","<div style=""font-size:60px;"">+</div>","null","fixation","","","","","","","","","","","","","",""
"revaluation","75","389393","0.0-3.0-13.0-2.0-0.6","spark_pilot_2","7537","6","9","Male","","false","","","","","[454.20000000298023,517.2999999970198]","./assets/img/space/13.jpg","[""ArrowDown"",""ArrowLeft""]","practice block","space","15","{""ArrowUp,ArrowLeft"":3,""ArrowUp,ArrowRight"":36,""ArrowDown,ArrowLeft"":15,""ArrowDown,ArrowRight"":23}","false","ArrowDown,ArrowLeft","false","","","","","","","",""
"html-keyboard-response","76","389894","0.0-3.0-13.0-2.0-1.6","spark_pilot_2","7537","6","9","Male","","","","","","","null","<div style=""font-size:60px;"">+</div>","null","fixation","","","","","","","","","","","","","",""
"revaluation","77","395898","0.0-3.0-13.0-2.0-0.7","spark_pilot_2","7537","6","9","Male","","false","","","","","[797.1999999955297,372]","./assets/img/space/14.jpg","[""ArrowDown"",""ArrowLeft""]","practice block","space","15","{""ArrowUp,ArrowLeft"":3,""ArrowUp,ArrowRight"":36,""ArrowDown,ArrowLeft"":15,""ArrowDown,ArrowRight"":23}","false","ArrowDown,ArrowLeft","false","","","","","","","",""
"html-keyboard-response","78","396400","0.0-3.0-13.0-2.0-1.7","spark_pilot_2","7537","6","9","Male","","","","","","","null","<div style=""font-size:60px;"">+</div>","null","fixation","","","","","","","","","","","","","",""
"revaluation","79","400403","0.0-3.0-13.0-2.0-0.8","spark_pilot_2","7537","6","9","Male","","false","","","","","[611.8999999985099]","./assets/img/space/catch/3.jpg","[""ArrowDown""]","practice block","space","-10","{""ArrowUp,ArrowLeft"":3,""ArrowUp,ArrowRight"":36,""ArrowDown,ArrowLeft"":15,""ArrowDown,ArrowRight"":23}","false","ArrowDown","true","","","","","","","",""
"html-keyboard-response","80","400904","0.0-3.0-13.0-2.0-1.8","spark_pilot_2","7537","6","9","Male","","","","","","","null","<div style=""font-size:60px;"">+</div>","null","fixation","","","","","","","","","","","","","",""
"learning-instructions","81","415116","0.0-3.0-13.0-3.0-0.0","spark_pilot_2","7537","6","9","Male","","","","","","","1285","<p> Now, you will travel with a friend who will choose whether you go up or down first. </p>
            <p> On these turns, you will just see the animal that they found. You will still get to choose which chest to search for treasure.</p>","","instructions","","","","","","","","","","","","","",""
"revaluation","82","419119","0.0-3.0-13.0-4.0-0.0","spark_pilot_2","7537","6","9","Male","","false","","","","","[551.1000000014901]","./assets/img/space/animals/cat.jpg","[""ArrowLeft""]","practice block","space","3","{""ArrowUp,ArrowLeft"":3,""ArrowUp,ArrowRight"":36,""ArrowDown,ArrowLeft"":15,""ArrowDown,ArrowRight"":23}","false","ArrowUp,ArrowLeft","","","","","","","","",""
"html-keyboard-response","83","419631","0.0-3.0-13.0-4.0-1.0","spark_pilot_2","7537","6","9","Male","","","","","","","null","<div style=""font-size:60px;"">+</div>","null","fixation","","","","","","","","","","","","","",""
"revaluation","84","423639","0.0-3.0-13.0-4.0-0.1","spark_pilot_2","7537","6","9","Male","","false","","","","","[436.6000000014901]","./assets/img/space/animals/rabbit.jpg","[""ArrowLeft""]","practice block","space","15","{""ArrowUp,ArrowLeft"":3,""ArrowUp,ArrowRight"":36,""ArrowDown,ArrowLeft"":15,""ArrowDown,ArrowRight"":23}","false","ArrowDown,ArrowLeft","","","","","","","","",""
"html-keyboard-response","85","424155","0.0-3.0-13.0-4.0-1.1","spark_pilot_2","7537","6","9","Male","","","","","","","null","<div style=""font-size:60px;"">+</div>","null","fixation","","","","","","","","","","","","","",""
"revaluation","86","428177","0.0-3.0-13.0-4.0-0.2","spark_pilot_2","7537","6","9","Male","","false","","","","","[360.5]","./assets/img/space/animals/cat.jpg","[""ArrowLeft""]","practice block","space","3","{""ArrowUp,ArrowLeft"":3,""ArrowUp,ArrowRight"":36,""ArrowDown,ArrowLeft"":15,""ArrowDown,ArrowRight"":23}","false","ArrowUp,ArrowLeft","","","","","","","","",""
"html-keyboard-response","87","428690","0.0-3.0-13.0-4.0-1.2","spark_pilot_2","7537","6","9","Male","","","","","","","null","<div style=""font-size:60px;"">+</div>","null","fixation","","","","","","","","","","","","","",""
"revaluation","88","432711","0.0-3.0-13.0-4.0-0.3","spark_pilot_2","7537","6","9","Male","","false","","","","","[384.1000000014901]","./assets/img/space/animals/rabbit.jpg","[""ArrowRight""]","practice block","space","23","{""ArrowUp,ArrowLeft"":3,""ArrowUp,ArrowRight"":36,""ArrowDown,ArrowLeft"":15,""ArrowDown,ArrowRight"":23}","true","ArrowDown,ArrowRight","","","","","","","","",""
"html-keyboard-response","89","433224","0.0-3.0-13.0-4.0-1.3","spark_pilot_2","7537","6","9","Male","","","","","","","null","<div style=""font-size:60px;"">+</div>","null","fixation","","","","","","","","","","","","","",""
"learning-instructions","90","445244","0.0-3.0-13.0-5.0-0.0","spark_pilot_2","7537","6","9","Male","","","","","","","4592.60000000149","<p> Time to play the dot game! </p>
            <p> For 15 seconds, click the red dots on the following screen as they appear. </p>","","instructions","","","","","","","","","","","","","",""
"revaluation","91","460247","0.0-3.0-13.0-6.0-0.0","spark_pilot_2","7537","6","9","Male","","","","","","","[68]","","","rest practice","","10","","","","","0","15000","","","","","",""
"learning-instructions","92","468381","0.0-3.0-13.0-7.0-0.0","spark_pilot_2","7537","6","9","Male","","","","","","","2008.7999999970198","<p> You have almost finished this part of the game! </p>
            <p> We are going to ask you to make a few more choices. </p>","","instructions","","","","","","","","","","","","","",""
"learning-instructions","93","483725","0.0-3.0-13.0-7.0-0.1","spark_pilot_2","7537","6","9","Male","","","","","","","1322.8000000044703","<p> First, you need to decide whether to go up or down. When you see each picture, use the arrow keys to make your choice. </p>
            <p><b>You will not see which animal you found, but try to get to the one that will give you the most treasure.</b></p>","","instructions","","","","","","","","","","","","","",""
"revaluation","94","484373","0.0-3.0-13.0-8.0","spark_pilot_2","7537","6","9","Male","","false","","","","","[647]","./assets/img/space/15.jpg","[""ArrowDown""]","practice block","space","0","{""ArrowUp,ArrowLeft"":3,""ArrowUp,ArrowRight"":36,""ArrowDown,ArrowLeft"":15,""ArrowDown,ArrowRight"":23}","false","ArrowDown","false","","","","","","","",""
"html-keyboard-response","95","484887","0.0-3.0-13.0-9.0","spark_pilot_2","7537","6","9","Male","","","","","","","null","<div style=""font-size:60px;"">+</div>","null","fixation","","","","","","","","","","","","","",""
"learning-instructions","96","497669","0.0-3.0-13.0-10.0-0.0","spark_pilot_2","7537","6","9","Male","","","","","","","1406.5","<p> Now you will see the animals again and can search their chests for treasure. </p>
            <p> This time, you will not see how much treasure you earned, but you will earn more bonus money for making better choices. </p>","","instructions","","","","","","","","","","","","","",""
"revaluation","97","499005","0.0-3.0-13.0-11.0-0.0","spark_pilot_2","7537","6","9","Male","","false","","","","","[1334.8999999985099]","./assets/img/space/animals/cat.jpg","[""ArrowLeft""]","practice block","space","0","{""ArrowUp,ArrowLeft"":3,""ArrowUp,ArrowRight"":36,""ArrowDown,ArrowLeft"":15,""ArrowDown,ArrowRight"":23}","false","ArrowUp,ArrowLeft","","","","","","","","",""
"html-keyboard-response","98","499517","0.0-3.0-13.0-11.0-1.0","spark_pilot_2","7537","6","9","Male","","","","","","","null","<div style=""font-size:60px;"">+</div>","null","fixation","","","","","","","","","","","","","",""
"revaluation","99","499973","0.0-3.0-13.0-11.0-0.1","spark_pilot_2","7537","6","9","Male","","false","","","","","[453.6000000014901]","./assets/img/space/animals/rabbit.jpg","[""ArrowRight""]","practice block","space","0","{""ArrowUp,ArrowLeft"":3,""ArrowUp,ArrowRight"":36,""ArrowDown,ArrowLeft"":15,""ArrowDown,ArrowRight"":23}","true","ArrowDown,ArrowRight","","","","","","","","",""
"html-keyboard-response","100","500474","0.0-3.0-13.0-11.0-1.1","spark_pilot_2","7537","6","9","Male","","","","","","","null","<div style=""font-size:60px;"">+</div>","null","fixation","","","","","","","","","","","","","",""
"learning-instructions","101","506581","0.0-3.0-14.0-0.0","spark_pilot_2","7537","6","9","Male","","","","","","","1528.6000000014901","<p> Before you start, we're going to ask you a few questions about how the game works. </p>","","instructions","","","","","","","","","","","","","",""
"comp-q","102","513277","0.0-3.0-15.0-0.0-0.0","spark_pilot_2","7537","6","9","Male","","","","","","","1113","<p> <b> True or False? </b> </p>
            <p> There can be 50 pieces of treasure in a given animal's chest. </p>","1","comp_question","","","","true","","","","","","","","","",""
"comp-q","103","521421","0.0-3.0-15.0-0.0-1.0","spark_pilot_2","7537","6","9","Male","","","","","","","1488.7000000029802","<p> <b> That's right! </b> The amount of treasure in each chest can range from 0 to 40 pieces. </p>","0","comp_answer","","","","","","","","","","","","","",""
"comp-q","104","529373","0.0-3.0-15.0-0.1-0.1","spark_pilot_2","7537","6","9","Male","","","","","","","841.2000000029802","<p> <b> True or False? </b> </p><p> In this game, all animals have the same amount of treasure in their left and right chests. </p>","1","comp_question","","","","true","","","","","","","","","",""
"comp-q","105","537429","0.0-3.0-15.0-0.1-1.1","spark_pilot_2","7537","6","9","Male","","","","","","","2826.89999999851","<p> <b> That's right! </b> Animals have different amounts of treasure in their treasure chests. </p>","0","comp_answer","","","","","","","","","","","","","",""
"comp-q","106","544085","0.0-3.0-15.0-0.2-0.2","spark_pilot_2","7537","6","9","Male","","","","","","","823","<p> <b> True or False? </b> </p><p> The same animal will always be there if you go up in the same place. </p>","0","comp_question","","","","true","","","","","","","","","",""
"comp-q","107","552637","0.0-3.0-15.0-0.2-1.2","spark_pilot_2","7537","6","9","Male","","","","","","","2104.60000000149","<p> <b> That's right! </b> One animal lives in the upper part and one lives in the lower part of every place. </p>","0","comp_answer","","","","","","","","","","","","","",""
"comp-q","108","562325","0.0-3.0-15.0-0.3-0.3","spark_pilot_2","7537","6","9","Male","","","","","","","4163","<p> <b> True or False? </b> </p><p> If you see a different picture, it means you are in a new place. </p>","0","comp_question","","","","false","","","","","","","","","",""
"comp-q","109","574620","0.0-3.0-15.0-0.3-1.3","spark_pilot_2","7537","6","9","Male","","","","","","","1208.7999999970198","<p> <b>Incorrect.</b> Lots of different images may show the same place. For example,  you may see three different images that all remind you that you are in outer space. </p>","0","comp_answer","","","","","","","","","","","","","",""
"comp-q","110","581580","0.0-3.0-15.0-0.4-0.4","spark_pilot_2","7537","6","9","Male","","","","","","","1458.7000000029802","<p> <b> True or False? </b> </p><p> If you see a different picture, it means you are in a new place. </p>","1","comp_question","","","","true","","","","","","","","","",""
"comp-q","111","594676","0.0-3.0-15.0-0.4-1.4","spark_pilot_2","7537","6","9","Male","","","","","","","1864.7999999970198","<p> <b> That's right! </b> Lots of different images may show the same place. For example,  you may see three different images that all remind you that you are in outer space. </p>","0","comp_answer","","","","","","","","","","","","","",""
"learning-instructions","112","606132","0.0-3.0-16.0-0.0","spark_pilot_2","7537","6","9","Male","","","","","","","1601","<p> Good job. Remember to do your best because the amount of treasure you earn will be converted into bonus money. </p>
            <p> It’s time to start the real game! </p>","","instructions","","","","","","","","","","","","","",""
"learning-instructions","113","612420","0.0-4.0-0.0-0.0","spark_pilot_2","7537","6","9","Male","","","","","","","3518.89999999851","<p> This time you are searching for treasure in the <b>canyon</b>.</p>","","instructions","","","","","","","","","","","","","",""
"learning-instructions","114","631693","0.0-4.0-0.0-0.1","spark_pilot_2","7537","6","9","Male","","","","","","","1971","<p><b>New</b> animals with <b>new</b> treasure chests live here. You need to explore to discover where the animal with the best treasure chest is.</p>
                    <p> Like before, once you figure out which animal has the chest with the most treasure, you should try to get to that animal and select that chest! </p>","","instructions","","","","","","","","","","","","","",""
"learning-instructions","115","649389","0.0-4.0-1.0-0.0","spark_pilot_2","7537","6","9","Male","","","","","","","2966.60000000149","<p> Remember, when you see a picture of the place, use the up and down keys to <b>find an animal</b>.</p>
            <p> When you encounter an animal, you should use the left and right keys to <b>select a treasure chest</b>.</p>
            <p> Don't forget to look out for the robber! </p>","","instructions","","","","","","","","","","","","","",""
"revaluation","116","655392","0.0-4.0-2.0-0.0","spark_pilot_2","7537","6","9","Male","","false","","","","","[1111.2999999970198,839.7999999970198]","./assets/img/canyon/memory/23.jpg","[""ArrowDown"",""ArrowLeft""]","value training","canyon","8","{""ArrowUp,ArrowLeft"":23,""ArrowUp,ArrowRight"":10,""ArrowDown,ArrowLeft"":8,""ArrowDown,ArrowRight"":30}","false","ArrowDown,ArrowLeft","false","","","revaluation","1","0","","",""
"html-keyboard-response","117","655899","0.0-4.0-2.0-1.0","spark_pilot_2","7537","6","9","Male","","","","","","","null","<div style=""font-size:60px;"">+</div>","null","fixation","","","","","","","","","","","1","","",""
"revaluation","118","661914","0.0-4.0-2.0-0.1","spark_pilot_2","7537","6","9","Male","","false","","","","","[504.80000000447035,604.8999999985099]","./assets/img/canyon/memory/6.jpg","[""ArrowUp"",""ArrowLeft""]","value training","canyon","23","{""ArrowUp,ArrowLeft"":23,""ArrowUp,ArrowRight"":10,""ArrowDown,ArrowLeft"":8,""ArrowDown,ArrowRight"":30}","false","ArrowUp,ArrowLeft","false","","","revaluation","1","2","","",""
"html-keyboard-response","119","662415","0.0-4.0-2.0-1.1","spark_pilot_2","7537","6","9","Male","","","","","","","null","<div style=""font-size:60px;"">+</div>","null","fixation","","","","","","","","","","","3","","",""
"revaluation","120","668419","0.0-4.0-2.0-0.2","spark_pilot_2","7537","6","9","Male","","false","","","","","[300.1000000014901,396]","./assets/img/canyon/memory/22.jpg","[""ArrowDown"",""ArrowRight""]","value training","canyon","30","{""ArrowUp,ArrowLeft"":23,""ArrowUp,ArrowRight"":10,""ArrowDown,ArrowLeft"":8,""ArrowDown,ArrowRight"":30}","true","ArrowDown,ArrowRight","false","","","revaluation","1","4","","",""
"html-keyboard-response","121","668920","0.0-4.0-2.0-1.2","spark_pilot_2","7537","6","9","Male","","","","","","","null","<div style=""font-size:60px;"">+</div>","null","fixation","","","","","","","","","","","5","","",""
"revaluation","122","674923","0.0-4.0-2.0-0.3","spark_pilot_2","7537","6","9","Male","","false","","","","","[1020.7000000029802,635.8000000044703]","./assets/img/canyon/memory/31.jpg","[""ArrowDown"",""ArrowLeft""]","value training","canyon","8","{""ArrowUp,ArrowLeft"":23,""ArrowUp,ArrowRight"":10,""ArrowDown,ArrowLeft"":8,""ArrowDown,ArrowRight"":30}","false","ArrowDown,ArrowLeft","false","","","revaluation","1","6","","",""
"html-keyboard-response","123","675425","0.0-4.0-2.0-1.3","spark_pilot_2","7537","6","9","Male","","","","","","","null","<div style=""font-size:60px;"">+</div>","null","fixation","","","","","","","","","","","7","","",""
"revaluation","124","681427","0.0-4.0-2.0-0.4","spark_pilot_2","7537","6","9","Male","","false","","","","","[531.5999999940395,658.7999999970198]","./assets/img/canyon/memory/41.jpg","[""ArrowUp"",""ArrowRight""]","value training","canyon","10","{""ArrowUp,ArrowLeft"":23,""ArrowUp,ArrowRight"":10,""ArrowDown,ArrowLeft"":8,""ArrowDown,ArrowRight"":30}","false","ArrowUp,ArrowRight","false","","","revaluation","1","8","","",""
"html-keyboard-response","125","681928","0.0-4.0-2.0-1.4","spark_pilot_2","7537","6","9","Male","","","","","","","null","<div style=""font-size:60px;"">+</div>","null","fixation","","","","","","","","","","","9","","",""
"revaluation","126","687933","0.0-4.0-2.0-0.5","spark_pilot_2","7537","6","9","Male","","false","","","","","[715.2000000029802,946]","./assets/img/canyon/memory/11.jpg","[""ArrowDown"",""ArrowRight""]","value training","canyon","30","{""ArrowUp,ArrowLeft"":23,""ArrowUp,ArrowRight"":10,""ArrowDown,ArrowLeft"":8,""ArrowDown,ArrowRight"":30}","true","ArrowDown,ArrowRight","false","","","revaluation","1","10","","",""
"html-keyboard-response","127","688435","0.0-4.0-2.0-1.5","spark_pilot_2","7537","6","9","Male","","","","","","","null","<div style=""font-size:60px;"">+</div>","null","fixation","","","","","","","","","","","11","","",""
"revaluation","128","694439","0.0-4.0-2.0-0.6","spark_pilot_2","7537","6","9","Male","","false","","","","","[1024.8999999985099,495.5]","./assets/img/canyon/memory/22.jpg","[""ArrowDown"",""ArrowLeft""]","value training","canyon","8","{""ArrowUp,ArrowLeft"":23,""ArrowUp,ArrowRight"":10,""ArrowDown,ArrowLeft"":8,""ArrowDown,ArrowRight"":30}","false","ArrowDown,ArrowLeft","false","","","revaluation","1","12","","",""
"html-keyboard-response","129","694940","0.0-4.0-2.0-1.6","spark_pilot_2","7537","6","9","Male","","","","","","","null","<div style=""font-size:60px;"">+</div>","null","fixation","","","","","","","","","","","13","","",""
"revaluation","130","698943","0.0-4.0-2.0-0.7","spark_pilot_2","7537","6","9","Male","","false","","","","","[368.1000000014901]","./assets/img/canyon/catch/0.jpg","[""ArrowUp""]","value training","canyon","-10","{""ArrowUp,ArrowLeft"":23,""ArrowUp,ArrowRight"":10,""ArrowDown,ArrowLeft"":8,""ArrowDown,ArrowRight"":30}","false","ArrowUp","true","","","revaluation","1","14","","",""
"html-keyboard-response","131","699444","0.0-4.0-2.0-1.7","spark_pilot_2","7537","6","9","Male","","","","","","","null","<div style=""font-size:60px;"">+</div>","null","fixation","","","","","","","","","","","15","","",""
"revaluation","132","705449","0.0-4.0-2.0-0.8","spark_pilot_2","7537","6","9","Male","","false","","","","","[486.5,549.5]","./assets/img/canyon/memory/4.jpg","[""ArrowUp"",""ArrowRight""]","value training","canyon","10","{""ArrowUp,ArrowLeft"":23,""ArrowUp,ArrowRight"":10,""ArrowDown,ArrowLeft"":8,""ArrowDown,ArrowRight"":30}","false","ArrowUp,ArrowRight","false","","","revaluation","1","16","","",""
"html-keyboard-response","133","705951","0.0-4.0-2.0-1.8","spark_pilot_2","7537","6","9","Male","","","","","","","null","<div style=""font-size:60px;"">+</div>","null","fixation","","","","","","","","","","","17","","",""
"revaluation","134","711955","0.0-4.0-2.0-0.9","spark_pilot_2","7537","6","9","Male","","false","","","","","[1125.3999999985099,852.7000000029802]","./assets/img/canyon/memory/20.jpg","[""ArrowDown"",""ArrowLeft""]","value training","canyon","8","{""ArrowUp,ArrowLeft"":23,""ArrowUp,ArrowRight"":10,""ArrowDown,ArrowLeft"":8,""ArrowDown,ArrowRight"":30}","false","ArrowDown,ArrowLeft","false","","","revaluation","1","18","","",""
"html-keyboard-response","135","712456","0.0-4.0-2.0-1.9","spark_pilot_2","7537","6","9","Male","","","","","","","null","<div style=""font-size:60px;"">+</div>","null","fixation","","","","","","","","","","","19","","",""
"revaluation","136","718461","0.0-4.0-2.0-0.10","spark_pilot_2","7537","6","9","Male","","false","","","","","[571.2000000029802,1690]","./assets/img/canyon/memory/16.jpg","[""ArrowDown"",""ArrowRight""]","value training","canyon","30","{""ArrowUp,ArrowLeft"":23,""ArrowUp,ArrowRight"":10,""ArrowDown,ArrowLeft"":8,""ArrowDown,ArrowRight"":30}","true","ArrowDown,ArrowRight","false","","","revaluation","1","20","","",""
"html-keyboard-response","137","718962","0.0-4.0-2.0-1.10","spark_pilot_2","7537","6","9","Male","","","","","","","null","<div style=""font-size:60px;"">+</div>","null","fixation","","","","","","","","","","","21","","",""
"revaluation","138","724965","0.0-4.0-2.0-0.11","spark_pilot_2","7537","6","9","Male","","false","","","","","[825.5,537.3000000044703]","./assets/img/canyon/memory/15.jpg","[""ArrowUp"",""ArrowLeft""]","value training","canyon","23","{""ArrowUp,ArrowLeft"":23,""ArrowUp,ArrowRight"":10,""ArrowDown,ArrowLeft"":8,""ArrowDown,ArrowRight"":30}","false","ArrowUp,ArrowLeft","false","","","revaluation","1","22","","",""
"html-keyboard-response","139","725467","0.0-4.0-2.0-1.11","spark_pilot_2","7537","6","9","Male","","","","","","","null","<div style=""font-size:60px;"">+</div>","null","fixation","","","","","","","","","","","23","","",""
"revaluation","140","729469","0.0-4.0-2.0-0.12","spark_pilot_2","7537","6","9","Male","","false","","","","","[960.0999999940395]","./assets/img/canyon/catch/3.jpg","[""spaceBar""]","value training","canyon","0","{""ArrowUp,ArrowLeft"":23,""ArrowUp,ArrowRight"":10,""ArrowDown,ArrowLeft"":8,""ArrowDown,ArrowRight"":30}","true","spaceBar","true","","","revaluation","1","24","","",""
"html-keyboard-response","141","729971","0.0-4.0-2.0-1.12","spark_pilot_2","7537","6","9","Male","","","","","","","null","<div style=""font-size:60px;"">+</div>","null","fixation","","","","","","","","","","","25","","",""
"revaluation","142","733973","0.0-4.0-2.0-0.13","spark_pilot_2","7537","6","9","Male","","false","","","","","[928.7000000029802]","./assets/img/canyon/catch/5.jpg","[""spaceBar""]","value training","canyon","0","{""ArrowUp,ArrowLeft"":23,""ArrowUp,ArrowRight"":10,""ArrowDown,ArrowLeft"":8,""ArrowDown,ArrowRight"":30}","true","spaceBar","true","","","revaluation","1","26","","",""
"html-keyboard-response","143","734474","0.0-4.0-2.0-1.13","spark_pilot_2","7537","6","9","Male","","","","","","","null","<div style=""font-size:60px;"">+</div>","null","fixation","","","","","","","","","","","27","","",""
"revaluation","144","740488","0.0-4.0-2.0-0.14","spark_pilot_2","7537","6","9","Male","","false","","","","","[649.5,1296]","./assets/img/canyon/memory/12.jpg","[""ArrowUp"",""ArrowLeft""]","value training","canyon","23","{""ArrowUp,ArrowLeft"":23,""ArrowUp,ArrowRight"":10,""ArrowDown,ArrowLeft"":8,""ArrowDown,ArrowRight"":30}","false","ArrowUp,ArrowLeft","false","","","revaluation","1","28","","",""
"html-keyboard-response","145","740989","0.0-4.0-2.0-1.14","spark_pilot_2","7537","6","9","Male","","","","","","","null","<div style=""font-size:60px;"">+</div>","null","fixation","","","","","","","","","","","29","","",""
"revaluation","146","746995","0.0-4.0-2.0-0.15","spark_pilot_2","7537","6","9","Male","","false","","","","","[614.8999999985099,540.8000000044703]","./assets/img/canyon/memory/29.jpg","[""ArrowUp"",""ArrowRight""]","value training","canyon","10","{""ArrowUp,ArrowLeft"":23,""ArrowUp,ArrowRight"":10,""ArrowDown,ArrowLeft"":8,""ArrowDown,ArrowRight"":30}","false","ArrowUp,ArrowRight","false","","","revaluation","1","30","","",""
"html-keyboard-response","147","747496","0.0-4.0-2.0-1.15","spark_pilot_2","7537","6","9","Male","","","","","","","null","<div style=""font-size:60px;"">+</div>","null","fixation","","","","","","","","","","","31","","",""
"revaluation","148","751499","0.0-4.0-2.0-0.16","spark_pilot_2","7537","6","9","Male","","false","","","","","[1043.1999999955297]","./assets/img/canyon/catch/2.jpg","[""spaceBar""]","value training","canyon","0","{""ArrowUp,ArrowLeft"":23,""ArrowUp,ArrowRight"":10,""ArrowDown,ArrowLeft"":8,""ArrowDown,ArrowRight"":30}","true","spaceBar","true","","","revaluation","1","32","","",""
"html-keyboard-response","149","752001","0.0-4.0-2.0-1.16","spark_pilot_2","7537","6","9","Male","","","","","","","null","<div style=""font-size:60px;"">+</div>","null","fixation","","","","","","","","","","","33","","",""
"revaluation","150","758004","0.0-4.0-2.0-0.17","spark_pilot_2","7537","6","9","Male","","false","","","","","[842.6000000014901,554.1000000014901]","./assets/img/canyon/memory/39.jpg","[""ArrowUp"",""ArrowRight""]","value training","canyon","10","{""ArrowUp,ArrowLeft"":23,""ArrowUp,ArrowRight"":10,""ArrowDown,ArrowLeft"":8,""ArrowDown,ArrowRight"":30}","false","ArrowUp,ArrowRight","false","","","revaluation","1","34","","",""
"html-keyboard-response","151","758506","0.0-4.0-2.0-1.17","spark_pilot_2","7537","6","9","Male","","","","","","","null","<div style=""font-size:60px;"">+</div>","null","fixation","","","","","","","","","","","35","","",""
"revaluation","152","764511","0.0-4.0-2.0-0.18","spark_pilot_2","7537","6","9","Male","","false","","","","","[858.6000000014901,1360.6000000014901]","./assets/img/canyon/memory/41.jpg","[""ArrowDown"",""ArrowLeft""]","value training","canyon","8","{""ArrowUp,ArrowLeft"":23,""ArrowUp,ArrowRight"":10,""ArrowDown,ArrowLeft"":8,""ArrowDown,ArrowRight"":30}","false","ArrowDown,ArrowLeft","false","","","revaluation","1","36","","",""
"html-keyboard-response","153","765012","0.0-4.0-2.0-1.18","spark_pilot_2","7537","6","9","Male","","","","","","","null","<div style=""font-size:60px;"">+</div>","null","fixation","","","","","","","","","","","37","","",""
"revaluation","154","771016","0.0-4.0-2.0-0.19","spark_pilot_2","7537","6","9","Male","","false","","","","","[1128,1534.5]","./assets/img/canyon/memory/32.jpg","[""ArrowDown"",""ArrowLeft""]","value training","canyon","8","{""ArrowUp,ArrowLeft"":23,""ArrowUp,ArrowRight"":10,""ArrowDown,ArrowLeft"":8,""ArrowDown,ArrowRight"":30}","false","ArrowDown,ArrowLeft","false","","","revaluation","1","38","","",""
"html-keyboard-response","155","771518","0.0-4.0-2.0-1.19","spark_pilot_2","7537","6","9","Male","","","","","","","null","<div style=""font-size:60px;"">+</div>","null","fixation","","","","","","","","","","","39","","",""
"revaluation","156","777521","0.0-4.0-2.0-0.20","spark_pilot_2","7537","6","9","Male","","false","","","","","[350.30000000447035,941]","./assets/img/canyon/memory/39.jpg","[""ArrowUp"",""ArrowLeft""]","value training","canyon","23","{""ArrowUp,ArrowLeft"":23,""ArrowUp,ArrowRight"":10,""ArrowDown,ArrowLeft"":8,""ArrowDown,ArrowRight"":30}","false","ArrowUp,ArrowLeft","false","","","revaluation","1","40","","",""
"html-keyboard-response","157","778023","0.0-4.0-2.0-1.20","spark_pilot_2","7537","6","9","Male","","","","","","","null","<div style=""font-size:60px;"">+</div>","null","fixation","","","","","","","","","","","41","","",""
"revaluation","158","782026","0.0-4.0-2.0-0.21","spark_pilot_2","7537","6","9","Male","","false","","","","","[445.29999999701977]","./assets/img/canyon/catch/4.jpg","[""ArrowDown""]","value training","canyon","-10","{""ArrowUp,ArrowLeft"":23,""ArrowUp,ArrowRight"":10,""ArrowDown,ArrowLeft"":8,""ArrowDown,ArrowRight"":30}","false","ArrowDown","true","","","revaluation","1","42","","",""
"html-keyboard-response","159","782528","0.0-4.0-2.0-1.21","spark_pilot_2","7537","6","9","Male","","","","","","","null","<div style=""font-size:60px;"">+</div>","null","fixation","","","","","","","","","","","43","","",""
"revaluation","160","788532","0.0-4.0-2.0-0.22","spark_pilot_2","7537","6","9","Male","","false","","","","","[756.6000000014901,1298.2999999970198]","./assets/img/canyon/memory/12.jpg","[""ArrowDown"",""ArrowLeft""]","value training","canyon","8","{""ArrowUp,ArrowLeft"":23,""ArrowUp,ArrowRight"":10,""ArrowDown,ArrowLeft"":8,""ArrowDown,ArrowRight"":30}","false","ArrowDown,ArrowLeft","false","","","revaluation","1","44","","",""
"html-keyboard-response","161","789033","0.0-4.0-2.0-1.22","spark_pilot_2","7537","6","9","Male","","","","","","","null","<div style=""font-size:60px;"">+</div>","null","fixation","","","","","","","","","","","45","","",""
"revaluation","162","795038","0.0-4.0-2.0-0.23","spark_pilot_2","7537","6","9","Male","","false","","","","","[1235.2000000029802,922.8999999985099]","./assets/img/canyon/memory/5.jpg","[""ArrowDown"",""ArrowLeft""]","value training","canyon","8","{""ArrowUp,ArrowLeft"":23,""ArrowUp,ArrowRight"":10,""ArrowDown,ArrowLeft"":8,""ArrowDown,ArrowRight"":30}","false","ArrowDown,ArrowLeft","false","","","revaluation","1","46","","",""
"html-keyboard-response","163","795539","0.0-4.0-2.0-1.23","spark_pilot_2","7537","6","9","Male","","","","","","","null","<div style=""font-size:60px;"">+</div>","null","fixation","","","","","","","","","","","47","","",""
"revaluation","164","801545","0.0-4.0-2.0-0.24","spark_pilot_2","7537","6","9","Male","","false","","","","","[1825.1000000014901,582.5]","./assets/img/canyon/memory/15.jpg","[""ArrowDown"",""ArrowRight""]","value training","canyon","30","{""ArrowUp,ArrowLeft"":23,""ArrowUp,ArrowRight"":10,""ArrowDown,ArrowLeft"":8,""ArrowDown,ArrowRight"":30}","true","ArrowDown,ArrowRight","false","","","revaluation","1","48","","",""
"html-keyboard-response","165","802046","0.0-4.0-2.0-1.24","spark_pilot_2","7537","6","9","Male","","","","","","","null","<div style=""font-size:60px;"">+</div>","null","fixation","","","","","","","","","","","49","","",""
"revaluation","166","808050","0.0-4.0-2.0-0.25","spark_pilot_2","7537","6","9","Male","","false","","","","","[718,1149]","./assets/img/canyon/memory/18.jpg","[""ArrowUp"",""ArrowRight""]","value training","canyon","10","{""ArrowUp,ArrowLeft"":23,""ArrowUp,ArrowRight"":10,""ArrowDown,ArrowLeft"":8,""ArrowDown,ArrowRight"":30}","false","ArrowUp,ArrowRight","false","","","revaluation","1","50","","",""
"html-keyboard-response","167","808551","0.0-4.0-2.0-1.25","spark_pilot_2","7537","6","9","Male","","","","","","","null","<div style=""font-size:60px;"">+</div>","null","fixation","","","","","","","","","","","51","","",""
"revaluation","168","814556","0.0-4.0-2.0-0.26","spark_pilot_2","7537","6","9","Male","","false","","","","","[1996.5999999940395,1138.7000000029802]","./assets/img/canyon/memory/40.jpg","[""ArrowDown"",""ArrowLeft""]","value training","canyon","8","{""ArrowUp,ArrowLeft"":23,""ArrowUp,ArrowRight"":10,""ArrowDown,ArrowLeft"":8,""ArrowDown,ArrowRight"":30}","false","ArrowDown,ArrowLeft","false","","","revaluation","1","52","","",""
"html-keyboard-response","169","815057","0.0-4.0-2.0-1.26","spark_pilot_2","7537","6","9","Male","","","","","","","null","<div style=""font-size:60px;"">+</div>","null","fixation","","","","","","","","","","","53","","",""
"revaluation","170","821063","0.0-4.0-2.0-0.27","spark_pilot_2","7537","6","9","Male","","false","","","","","[610.2999999970198,33.100000001490116]","./assets/img/canyon/memory/2.jpg","[""ArrowDown"",""ArrowLeft""]","value training","canyon","8","{""ArrowUp,ArrowLeft"":23,""ArrowUp,ArrowRight"":10,""ArrowDown,ArrowLeft"":8,""ArrowDown,ArrowRight"":30}","false","ArrowDown,ArrowLeft","false","","","revaluation","1","54","","",""
"html-keyboard-response","171","821565","0.0-4.0-2.0-1.27","spark_pilot_2","7537","6","9","Male","","","","","","","null","<div style=""font-size:60px;"">+</div>","null","fixation","","","","","","","","","","","55","","",""
"revaluation","172","827568","0.0-4.0-2.0-0.28","spark_pilot_2","7537","6","9","Male","","false","","","","","[535.3000000044703,638]","./assets/img/canyon/memory/35.jpg","[""ArrowDown"",""ArrowLeft""]","value training","canyon","8","{""ArrowUp,ArrowLeft"":23,""ArrowUp,ArrowRight"":10,""ArrowDown,ArrowLeft"":8,""ArrowDown,ArrowRight"":30}","false","ArrowDown,ArrowLeft","false","","","revaluation","1","56","","",""
"html-keyboard-response","173","828070","0.0-4.0-2.0-1.28","spark_pilot_2","7537","6","9","Male","","","","","","","null","<div style=""font-size:60px;"">+</div>","null","fixation","","","","","","","","","","","57","","",""
"revaluation","174","834075","0.0-4.0-2.0-0.29","spark_pilot_2","7537","6","9","Male","","false","","","","","[550.2000000029802,1084.1000000014901]","./assets/img/canyon/memory/35.jpg","[""ArrowDown"",""ArrowRight""]","value training","canyon","30","{""ArrowUp,ArrowLeft"":23,""ArrowUp,ArrowRight"":10,""ArrowDown,ArrowLeft"":8,""ArrowDown,ArrowRight"":30}","true","ArrowDown,ArrowRight","false","","","revaluation","1","58","","",""
"html-keyboard-response","175","834576","0.0-4.0-2.0-1.29","spark_pilot_2","7537","6","9","Male","","","","","","","null","<div style=""font-size:60px;"">+</div>","null","fixation","","","","","","","","","","","59","","",""
"revaluation","176","840580","0.0-4.0-2.0-0.30","spark_pilot_2","7537","6","9","Male","","false","","","","","[475.30000000447035,1002.7999999970198]","./assets/img/canyon/memory/18.jpg","[""ArrowUp"",""ArrowLeft""]","value training","canyon","23","{""ArrowUp,ArrowLeft"":23,""ArrowUp,ArrowRight"":10,""ArrowDown,ArrowLeft"":8,""ArrowDown,ArrowRight"":30}","false","ArrowUp,ArrowLeft","false","","","revaluation","1","60","","",""
"html-keyboard-response","177","841081","0.0-4.0-2.0-1.30","spark_pilot_2","7537","6","9","Male","","","","","","","null","<div style=""font-size:60px;"">+</div>","null","fixation","","","","","","","","","","","61","","",""
"revaluation","178","847086","0.0-4.0-2.0-0.31","spark_pilot_2","7537","6","9","Male","","false","","","","","[530.8000000044703,825]","./assets/img/canyon/memory/23.jpg","[""ArrowUp"",""ArrowRight""]","value training","canyon","10","{""ArrowUp,ArrowLeft"":23,""ArrowUp,ArrowRight"":10,""ArrowDown,ArrowLeft"":8,""ArrowDown,ArrowRight"":30}","false","ArrowUp,ArrowRight","false","","","revaluation","1","62","","",""
"html-keyboard-response","179","847587","0.0-4.0-2.0-1.31","spark_pilot_2","7537","6","9","Male","","","","","","","null","<div style=""font-size:60px;"">+</div>","null","fixation","","","","","","","","","","","63","","",""
"revaluation","180","853592","0.0-4.0-2.0-0.32","spark_pilot_2","7537","6","9","Male","","false","","","","","[376.80000000447035,566.8999999985099]","./assets/img/canyon/memory/16.jpg","[""ArrowDown"",""ArrowRight""]","value training","canyon","30","{""ArrowUp,ArrowLeft"":23,""ArrowUp,ArrowRight"":10,""ArrowDown,ArrowLeft"":8,""ArrowDown,ArrowRight"":30}","true","ArrowDown,ArrowRight","false","","","revaluation","1","64","","",""
"html-keyboard-response","181","854093","0.0-4.0-2.0-1.32","spark_pilot_2","7537","6","9","Male","","","","","","","null","<div style=""font-size:60px;"">+</div>","null","fixation","","","","","","","","","","","65","","",""
"revaluation","182","858097","0.0-4.0-2.0-0.33","spark_pilot_2","7537","6","9","Male","","true","","","","","[]","./assets/img/canyon/memory/32.jpg","[]","value training","canyon","-5","{""ArrowUp,ArrowLeft"":23,""ArrowUp,ArrowRight"":10,""ArrowDown,ArrowLeft"":8,""ArrowDown,ArrowRight"":30}","false","","false","","","revaluation","1","66","","",""
"html-keyboard-response","183","858599","0.0-4.0-2.0-1.33","spark_pilot_2","7537","6","9","Male","","","","","","","null","<div style=""font-size:60px;"">+</div>","null","fixation","","","","","","","","","","","67","","",""
"revaluation","184","864602","0.0-4.0-2.0-0.34","spark_pilot_2","7537","6","9","Male","","false","","","","","[389.3999999985099,923.8999999985099]","./assets/img/canyon/memory/21.jpg","[""ArrowDown"",""ArrowLeft""]","value training","canyon","8","{""ArrowUp,ArrowLeft"":23,""ArrowUp,ArrowRight"":10,""ArrowDown,ArrowLeft"":8,""ArrowDown,ArrowRight"":30}","false","ArrowDown,ArrowLeft","false","","","revaluation","1","68","","",""
"html-keyboard-response","185","865103","0.0-4.0-2.0-1.34","spark_pilot_2","7537","6","9","Male","","","","","","","null","<div style=""font-size:60px;"">+</div>","null","fixation","","","","","","","","","","","69","","",""
"revaluation","186","871107","0.0-4.0-2.0-0.35","spark_pilot_2","7537","6","9","Male","","false","","","","","[724.6000000014901,724.5]","./assets/img/canyon/memory/4.jpg","[""ArrowDown"",""ArrowLeft""]","value training","canyon","8","{""ArrowUp,ArrowLeft"":23,""ArrowUp,ArrowRight"":10,""ArrowDown,ArrowLeft"":8,""ArrowDown,ArrowRight"":30}","false","ArrowDown,ArrowLeft","false","","","revaluation","1","70","","",""
"html-keyboard-response","187","871608","0.0-4.0-2.0-1.35","spark_pilot_2","7537","6","9","Male","","","","","","","null","<div style=""font-size:60px;"">+</div>","null","fixation","","","","","","","","","","","71","","",""
"revaluation","188","877614","0.0-4.0-2.0-0.36","spark_pilot_2","7537","6","9","Male","","false","","","","","[987.7999999970198,1297.8999999985099]","./assets/img/canyon/memory/24.jpg","[""ArrowDown"",""ArrowLeft""]","value training","canyon","8","{""ArrowUp,ArrowLeft"":23,""ArrowUp,ArrowRight"":10,""ArrowDown,ArrowLeft"":8,""ArrowDown,ArrowRight"":30}","false","ArrowDown,ArrowLeft","false","","","revaluation","1","72","","",""
"html-keyboard-response","189","878115","0.0-4.0-2.0-1.36","spark_pilot_2","7537","6","9","Male","","","","","","","null","<div style=""font-size:60px;"">+</div>","null","fixation","","","","","","","","","","","73","","",""
"revaluation","190","884120","0.0-4.0-2.0-0.37","spark_pilot_2","7537","6","9","Male","","false","","","","","[592.7000000029802,928.2000000029802]","./assets/img/canyon/memory/5.jpg","[""ArrowUp"",""ArrowRight""]","value training","canyon","10","{""ArrowUp,ArrowLeft"":23,""ArrowUp,ArrowRight"":10,""ArrowDown,ArrowLeft"":8,""ArrowDown,ArrowRight"":30}","false","ArrowUp,ArrowRight","false","","","revaluation","1","74","","",""
"html-keyboard-response","191","884621","0.0-4.0-2.0-1.37","spark_pilot_2","7537","6","9","Male","","","","","","","null","<div style=""font-size:60px;"">+</div>","null","fixation","","","","","","","","","","","75","","",""
"revaluation","192","890626","0.0-4.0-2.0-0.38","spark_pilot_2","7537","6","9","Male","","false","","","","","[518,541.1000000014901]","./assets/img/canyon/memory/24.jpg","[""ArrowUp"",""ArrowLeft""]","value training","canyon","23","{""ArrowUp,ArrowLeft"":23,""ArrowUp,ArrowRight"":10,""ArrowDown,ArrowLeft"":8,""ArrowDown,ArrowRight"":30}","false","ArrowUp,ArrowLeft","false","","","revaluation","1","76","","",""
"html-keyboard-response","193","891142","0.0-4.0-2.0-1.38","spark_pilot_2","7537","6","9","Male","","","","","","","null","<div style=""font-size:60px;"">+</div>","null","fixation","","","","","","","","","","","77","","",""
"revaluation","194","897147","0.0-4.0-2.0-0.39","spark_pilot_2","7537","6","9","Male","","false","","","","","[628.7999999970198,867.7999999970198]","./assets/img/canyon/memory/21.jpg","[""ArrowDown"",""ArrowLeft""]","value training","canyon","8","{""ArrowUp,ArrowLeft"":23,""ArrowUp,ArrowRight"":10,""ArrowDown,ArrowLeft"":8,""ArrowDown,ArrowRight"":30}","false","ArrowDown,ArrowLeft","false","","","revaluation","1","78","","",""
"html-keyboard-response","195","897648","0.0-4.0-2.0-1.39","spark_pilot_2","7537","6","9","Male","","","","","","","null","<div style=""font-size:60px;"">+</div>","null","fixation","","","","","","","","","","","79","","",""
"revaluation","196","903653","0.0-4.0-2.0-0.40","spark_pilot_2","7537","6","9","Male","","false","","","","","[555.7000000029802,1114.8999999985099]","./assets/img/canyon/memory/2.jpg","[""ArrowDown"",""ArrowLeft""]","value training","canyon","8","{""ArrowUp,ArrowLeft"":23,""ArrowUp,ArrowRight"":10,""ArrowDown,ArrowLeft"":8,""ArrowDown,ArrowRight"":30}","false","ArrowDown,ArrowLeft","false","","","revaluation","1","80","","",""
"html-keyboard-response","197","904154","0.0-4.0-2.0-1.40","spark_pilot_2","7537","6","9","Male","","","","","","","null","<div style=""font-size:60px;"">+</div>","null","fixation","","","","","","","","","","","81","","",""
"revaluation","198","910160","0.0-4.0-2.0-0.41","spark_pilot_2","7537","6","9","Male","","false","","","","","[1442,1600.3000000044703]","./assets/img/canyon/memory/6.jpg","[""ArrowDown"",""ArrowRight""]","value training","canyon","30","{""ArrowUp,ArrowLeft"":23,""ArrowUp,ArrowRight"":10,""ArrowDown,ArrowLeft"":8,""ArrowDown,ArrowRight"":30}","true","ArrowDown,ArrowRight","false","","","revaluation","1","82","","",""
"html-keyboard-response","199","910662","0.0-4.0-2.0-1.41","spark_pilot_2","7537","6","9","Male","","","","","","","null","<div style=""font-size:60px;"">+</div>","null","fixation","","","","","","","","","","","83","","",""
"revaluation","200","914666","0.0-4.0-2.0-0.42","spark_pilot_2","7537","6","9","Male","","false","","","","","[1077.6000000014901]","./assets/img/canyon/catch/6.jpg","[""spaceBar""]","value training","canyon","0","{""ArrowUp,ArrowLeft"":23,""ArrowUp,ArrowRight"":10,""ArrowDown,ArrowLeft"":8,""ArrowDown,ArrowRight"":30}","true","spaceBar","true","","","revaluation","1","84","","",""
"html-keyboard-response","201","915168","0.0-4.0-2.0-1.42","spark_pilot_2","7537","6","9","Male","","","","","","","null","<div style=""font-size:60px;"">+</div>","null","fixation","","","","","","","","","","","85","","",""
"revaluation","202","919171","0.0-4.0-2.0-0.43","spark_pilot_2","7537","6","9","Male","","false","","","","","[1211.7999999970198]","./assets/img/canyon/catch/1.jpg","[""spaceBar""]","value training","canyon","0","{""ArrowUp,ArrowLeft"":23,""ArrowUp,ArrowRight"":10,""ArrowDown,ArrowLeft"":8,""ArrowDown,ArrowRight"":30}","true","spaceBar","true","","","revaluation","1","86","","",""
"html-keyboard-response","203","919673","0.0-4.0-2.0-1.43","spark_pilot_2","7537","6","9","Male","","","","","","","null","<div style=""font-size:60px;"">+</div>","null","fixation","","","","","","","","","","","87","","",""
"revaluation","204","923676","0.0-4.0-2.0-0.44","spark_pilot_2","7537","6","9","Male","","false","","","","","[994.7999999970198]","./assets/img/canyon/catch/7.jpg","[""spaceBar""]","value training","canyon","0","{""ArrowUp,ArrowLeft"":23,""ArrowUp,ArrowRight"":10,""ArrowDown,ArrowLeft"":8,""ArrowDown,ArrowRight"":30}","true","spaceBar","true","","","revaluation","1","88","","",""
"html-keyboard-response","205","924177","0.0-4.0-2.0-1.44","spark_pilot_2","7537","6","9","Male","","","","","","","null","<div style=""font-size:60px;"">+</div>","null","fixation","","","","","","","","","","","89","","",""
"revaluation","206","930181","0.0-4.0-2.0-0.45","spark_pilot_2","7537","6","9","Male","","false","","","","","[1347.1000000014901,1137.5]","./assets/img/canyon/memory/31.jpg","[""ArrowDown"",""ArrowRight""]","value training","canyon","30","{""ArrowUp,ArrowLeft"":23,""ArrowUp,ArrowRight"":10,""ArrowDown,ArrowLeft"":8,""ArrowDown,ArrowRight"":30}","true","ArrowDown,ArrowRight","false","","","revaluation","1","90","","",""
"html-keyboard-response","207","930683","0.0-4.0-2.0-1.45","spark_pilot_2","7537","6","9","Male","","","","","","","null","<div style=""font-size:60px;"">+</div>","null","fixation","","","","","","","","","","","91","","",""
"revaluation","208","936688","0.0-4.0-2.0-0.46","spark_pilot_2","7537","6","9","Male","","false","","","","","[313.20000000298023,1064.5]","./assets/img/canyon/memory/29.jpg","[""ArrowUp"",""ArrowLeft""]","value training","canyon","23","{""ArrowUp,ArrowLeft"":23,""ArrowUp,ArrowRight"":10,""ArrowDown,ArrowLeft"":8,""ArrowDown,ArrowRight"":30}","false","ArrowUp,ArrowLeft","false","","","revaluation","1","92","","",""
"html-keyboard-response","209","937188","0.0-4.0-2.0-1.46","spark_pilot_2","7537","6","9","Male","","","","","","","null","<div style=""font-size:60px;"">+</div>","null","fixation","","","","","","","","","","","93","","",""
"revaluation","210","943199","0.0-4.0-2.0-0.47","spark_pilot_2","7537","6","9","Male","","false","","","","","[814.9000000059605,749.8999999985099]","./assets/img/canyon/memory/20.jpg","[""ArrowDown"",""ArrowRight""]","value training","canyon","30","{""ArrowUp,ArrowLeft"":23,""ArrowUp,ArrowRight"":10,""ArrowDown,ArrowLeft"":8,""ArrowDown,ArrowRight"":30}","true","ArrowDown,ArrowRight","false","","","revaluation","1","94","","",""
"html-keyboard-response","211","943700","0.0-4.0-2.0-1.47","spark_pilot_2","7537","6","9","Male","","","","","","","null","<div style=""font-size:60px;"">+</div>","null","fixation","","","","","","","","","","","95","","",""
"revaluation","212","949705","0.0-4.0-2.0-0.48","spark_pilot_2","7537","6","9","Male","","false","","","","","[367.1000000014901,1349.3999999985099]","./assets/img/canyon/memory/40.jpg","[""ArrowUp"",""ArrowLeft""]","value training","canyon","23","{""ArrowUp,ArrowLeft"":23,""ArrowUp,ArrowRight"":10,""ArrowDown,ArrowLeft"":8,""ArrowDown,ArrowRight"":30}","false","ArrowUp,ArrowLeft","false","","","revaluation","1","96","","",""
"html-keyboard-response","213","950207","0.0-4.0-2.0-1.48","spark_pilot_2","7537","6","9","Male","","","","","","","null","<div style=""font-size:60px;"">+</div>","null","fixation","","","","","","","","","","","97","","",""
"revaluation","214","956221","0.0-4.0-2.0-0.49","spark_pilot_2","7537","6","9","Male","","false","","","","","[309.20000000298023,1171.8999999985099]","./assets/img/canyon/memory/11.jpg","[""ArrowDown"",""ArrowRight""]","value training","canyon","30","{""ArrowUp,ArrowLeft"":23,""ArrowUp,ArrowRight"":10,""ArrowDown,ArrowLeft"":8,""ArrowDown,ArrowRight"":30}","true","ArrowDown,ArrowRight","false","","","revaluation","1","98","","",""
"html-keyboard-response","215","956722","0.0-4.0-2.0-1.49","spark_pilot_2","7537","6","9","Male","","","","","","","null","<div style=""font-size:60px;"">+</div>","null","fixation","","","","","","","","","","","99","","",""
"learning-instructions","216","971525","0.0-4.0-3.0-0.0","spark_pilot_2","7537","6","9","Male","","","","","","","1893","<p> Now, you will travel with a friend who will choose whether you go up or down first. </p>
            <p> On these turns, you will just see the animal that they found. You will still get to choose which chest to search for treasure.</p>","","instructions","","","","","","","","","","","","","",""
"revaluation","217","975550","0.0-4.0-4.0-0.0","spark_pilot_2","7537","6","9","Male","","false","","","","","[1151.7000000029802]","./assets/img/canyon/animals/lion.jpg","[""ArrowLeft""]","revaluation","canyon","21","{""ArrowUp,ArrowLeft"":27,""ArrowUp,ArrowRight"":15,""ArrowDown,ArrowLeft"":21,""ArrowDown,ArrowRight"":7}","true","ArrowDown,ArrowLeft","","","","revaluation","1","0","","",""
"html-keyboard-response","218","976065","0.0-4.0-4.0-1.0","spark_pilot_2","7537","6","9","Male","","","","","","","null","<div style=""font-size:60px;"">+</div>","null","fixation","","","","","","","","","","","1","","",""
"revaluation","219","980085","0.0-4.0-4.0-0.1","spark_pilot_2","7537","6","9","Male","","false","","","","","[43.100000001490116]","./assets/img/canyon/animals/lion.jpg","[""ArrowRight""]","revaluation","canyon","7","{""ArrowUp,ArrowLeft"":27,""ArrowUp,ArrowRight"":15,""ArrowDown,ArrowLeft"":21,""ArrowDown,ArrowRight"":7}","false","ArrowDown,ArrowRight","","","","revaluation","1","2","","",""
"html-keyboard-response","220","980600","0.0-4.0-4.0-1.1","spark_pilot_2","7537","6","9","Male","","","","","","","null","<div style=""font-size:60px;"">+</div>","null","fixation","","","","","","","","","","","3","","",""
"revaluation","221","984625","0.0-4.0-4.0-0.2","spark_pilot_2","7537","6","9","Male","","false","","","","","[243.10000000149012]","./assets/img/canyon/animals/giraffe.jpg","[""ArrowRight""]","revaluation","canyon","15","{""ArrowUp,ArrowLeft"":27,""ArrowUp,ArrowRight"":15,""ArrowDown,ArrowLeft"":21,""ArrowDown,ArrowRight"":7}","false","ArrowUp,ArrowRight","","","","revaluation","1","4","","",""
"html-keyboard-response","222","985138","0.0-4.0-4.0-1.2","spark_pilot_2","7537","6","9","Male","","","","","","","null","<div style=""font-size:60px;"">+</div>","null","fixation","","","","","","","","","","","5","","",""
"revaluation","223","989155","0.0-4.0-4.0-0.3","spark_pilot_2","7537","6","9","Male","","false","","","","","[169.60000000149012]","./assets/img/canyon/animals/lion.jpg","[""ArrowRight""]","revaluation","canyon","7","{""ArrowUp,ArrowLeft"":27,""ArrowUp,ArrowRight"":15,""ArrowDown,ArrowLeft"":21,""ArrowDown,ArrowRight"":7}","false","ArrowDown,ArrowRight","","","","revaluation","1","6","","",""
"html-keyboard-response","224","989669","0.0-4.0-4.0-1.3","spark_pilot_2","7537","6","9","Male","","","","","","","null","<div style=""font-size:60px;"">+</div>","null","fixation","","","","","","","","","","","7","","",""
"revaluation","225","993694","0.0-4.0-4.0-0.4","spark_pilot_2","7537","6","9","Male","","false","","","","","[294.8999999985099]","./assets/img/canyon/animals/lion.jpg","[""ArrowLeft""]","revaluation","canyon","21","{""ArrowUp,ArrowLeft"":27,""ArrowUp,ArrowRight"":15,""ArrowDown,ArrowLeft"":21,""ArrowDown,ArrowRight"":7}","true","ArrowDown,ArrowLeft","","","","revaluation","1","8","","",""
"html-keyboard-response","226","994209","0.0-4.0-4.0-1.4","spark_pilot_2","7537","6","9","Male","","","","","","","null","<div style=""font-size:60px;"">+</div>","null","fixation","","","","","","","","","","","9","","",""
"revaluation","227","998230","0.0-4.0-4.0-0.5","spark_pilot_2","7537","6","9","Male","","false","","","","","[522.8000000044703]","./assets/img/canyon/animals/giraffe.jpg","[""ArrowRight""]","revaluation","canyon","15","{""ArrowUp,ArrowLeft"":27,""ArrowUp,ArrowRight"":15,""ArrowDown,ArrowLeft"":21,""ArrowDown,ArrowRight"":7}","false","ArrowUp,ArrowRight","","","","revaluation","1","10","","",""
"html-keyboard-response","228","998745","0.0-4.0-4.0-1.5","spark_pilot_2","7537","6","9","Male","","","","","","","null","<div style=""font-size:60px;"">+</div>","null","fixation","","","","","","","","","","","11","","",""
"revaluation","229","1002748","0.0-4.0-4.0-0.6","spark_pilot_2","7537","6","9","Male","","false","","","","","[290.29999999701977]","./assets/img/canyon/animals/giraffe.jpg","[""ArrowLeft""]","revaluation","canyon","27","{""ArrowUp,ArrowLeft"":27,""ArrowUp,ArrowRight"":15,""ArrowDown,ArrowLeft"":21,""ArrowDown,ArrowRight"":7}","true","ArrowUp,ArrowLeft","","","","revaluation","1","12","","",""
"html-keyboard-response","230","1003252","0.0-4.0-4.0-1.6","spark_pilot_2","7537","6","9","Male","","","","","","","null","<div style=""font-size:60px;"">+</div>","null","fixation","","","","","","","","","","","13","","",""
"revaluation","231","1007256","0.0-4.0-4.0-0.7","spark_pilot_2","7537","6","9","Male","","false","","","","","[335.30000000447035]","./assets/img/canyon/animals/lion.jpg","[""ArrowRight""]","revaluation","canyon","7","{""ArrowUp,ArrowLeft"":27,""ArrowUp,ArrowRight"":15,""ArrowDown,ArrowLeft"":21,""ArrowDown,ArrowRight"":7}","false","ArrowDown,ArrowRight","","","","revaluation","1","14","","",""
"html-keyboard-response","232","1007757","0.0-4.0-4.0-1.7","spark_pilot_2","7537","6","9","Male","","","","","","","null","<div style=""font-size:60px;"">+</div>","null","fixation","","","","","","","","","","","15","","",""
"revaluation","233","1011759","0.0-4.0-4.0-0.8","spark_pilot_2","7537","6","9","Male","","false","","","","","[519.5]","./assets/img/canyon/animals/lion.jpg","[""ArrowRight""]","revaluation","canyon","7","{""ArrowUp,ArrowLeft"":27,""ArrowUp,ArrowRight"":15,""ArrowDown,ArrowLeft"":21,""ArrowDown,ArrowRight"":7}","false","ArrowDown,ArrowRight","","","","revaluation","1","16","","",""
"html-keyboard-response","234","1012260","0.0-4.0-4.0-1.8","spark_pilot_2","7537","6","9","Male","","","","","","","null","<div style=""font-size:60px;"">+</div>","null","fixation","","","","","","","","","","","17","","",""
"revaluation","235","1016263","0.0-4.0-4.0-0.9","spark_pilot_2","7537","6","9","Male","","false","","","","","[375.5]","./assets/img/canyon/animals/giraffe.jpg","[""ArrowLeft""]","revaluation","canyon","27","{""ArrowUp,ArrowLeft"":27,""ArrowUp,ArrowRight"":15,""ArrowDown,ArrowLeft"":21,""ArrowDown,ArrowRight"":7}","true","ArrowUp,ArrowLeft","","","","revaluation","1","18","","",""
"html-keyboard-response","236","1016765","0.0-4.0-4.0-1.9","spark_pilot_2","7537","6","9","Male","","","","","","","null","<div style=""font-size:60px;"">+</div>","null","fixation","","","","","","","","","","","19","","",""
"revaluation","237","1020768","0.0-4.0-4.0-0.10","spark_pilot_2","7537","6","9","Male","","false","","","","","[398.5]","./assets/img/canyon/animals/giraffe.jpg","[""ArrowLeft""]","revaluation","canyon","27","{""ArrowUp,ArrowLeft"":27,""ArrowUp,ArrowRight"":15,""ArrowDown,ArrowLeft"":21,""ArrowDown,ArrowRight"":7}","true","ArrowUp,ArrowLeft","","","","revaluation","1","20","","",""
"html-keyboard-response","238","1021270","0.0-4.0-4.0-1.10","spark_pilot_2","7537","6","9","Male","","","","","","","null","<div style=""font-size:60px;"">+</div>","null","fixation","","","","","","","","","","","21","","",""
"revaluation","239","1025273","0.0-4.0-4.0-0.11","spark_pilot_2","7537","6","9","Male","","false","","","","","[429.20000000298023]","./assets/img/canyon/animals/giraffe.jpg","[""ArrowRight""]","revaluation","canyon","15","{""ArrowUp,ArrowLeft"":27,""ArrowUp,ArrowRight"":15,""ArrowDown,ArrowLeft"":21,""ArrowDown,ArrowRight"":7}","false","ArrowUp,ArrowRight","","","","revaluation","1","22","","",""
"html-keyboard-response","240","1025774","0.0-4.0-4.0-1.11","spark_pilot_2","7537","6","9","Male","","","","","","","null","<div style=""font-size:60px;"">+</div>","null","fixation","","","","","","","","","","","23","","",""
"revaluation","241","1029776","0.0-4.0-4.0-0.12","spark_pilot_2","7537","6","9","Male","","false","","","","","[373.5]","./assets/img/canyon/animals/lion.jpg","[""ArrowRight""]","revaluation","canyon","7","{""ArrowUp,ArrowLeft"":27,""ArrowUp,ArrowRight"":15,""ArrowDown,ArrowLeft"":21,""ArrowDown,ArrowRight"":7}","false","ArrowDown,ArrowRight","","","","revaluation","1","24","","",""
"html-keyboard-response","242","1030278","0.0-4.0-4.0-1.12","spark_pilot_2","7537","6","9","Male","","","","","","","null","<div style=""font-size:60px;"">+</div>","null","fixation","","","","","","","","","","","25","","",""
"revaluation","243","1034281","0.0-4.0-4.0-0.13","spark_pilot_2","7537","6","9","Male","","false","","","","","[325.8999999985099]","./assets/img/canyon/animals/lion.jpg","[""ArrowRight""]","revaluation","canyon","7","{""ArrowUp,ArrowLeft"":27,""ArrowUp,ArrowRight"":15,""ArrowDown,ArrowLeft"":21,""ArrowDown,ArrowRight"":7}","false","ArrowDown,ArrowRight","","","","revaluation","1","26","","",""
"html-keyboard-response","244","1034782","0.0-4.0-4.0-1.13","spark_pilot_2","7537","6","9","Male","","","","","","","null","<div style=""font-size:60px;"">+</div>","null","fixation","","","","","","","","","","","27","","",""
"revaluation","245","1038786","0.0-4.0-4.0-0.14","spark_pilot_2","7537","6","9","Male","","false","","","","","[374.1000000014901]","./assets/img/canyon/animals/giraffe.jpg","[""ArrowRight""]","revaluation","canyon","15","{""ArrowUp,ArrowLeft"":27,""ArrowUp,ArrowRight"":15,""ArrowDown,ArrowLeft"":21,""ArrowDown,ArrowRight"":7}","false","ArrowUp,ArrowRight","","","","revaluation","1","28","","",""
"html-keyboard-response","246","1039287","0.0-4.0-4.0-1.14","spark_pilot_2","7537","6","9","Male","","","","","","","null","<div style=""font-size:60px;"">+</div>","null","fixation","","","","","","","","","","","29","","",""
"revaluation","247","1043291","0.0-4.0-4.0-0.15","spark_pilot_2","7537","6","9","Male","","false","","","","","[348]","./assets/img/canyon/animals/lion.jpg","[""ArrowLeft""]","revaluation","canyon","21","{""ArrowUp,ArrowLeft"":27,""ArrowUp,ArrowRight"":15,""ArrowDown,ArrowLeft"":21,""ArrowDown,ArrowRight"":7}","true","ArrowDown,ArrowLeft","","","","revaluation","1","30","","",""
"html-keyboard-response","248","1043801","0.0-4.0-4.0-1.15","spark_pilot_2","7537","6","9","Male","","","","","","","null","<div style=""font-size:60px;"">+</div>","null","fixation","","","","","","","","","","","31","","",""
"revaluation","249","1047804","0.0-4.0-4.0-0.16","spark_pilot_2","7537","6","9","Male","","false","","","","","[322.5]","./assets/img/canyon/animals/giraffe.jpg","[""ArrowLeft""]","revaluation","canyon","27","{""ArrowUp,ArrowLeft"":27,""ArrowUp,ArrowRight"":15,""ArrowDown,ArrowLeft"":21,""ArrowDown,ArrowRight"":7}","true","ArrowUp,ArrowLeft","","","","revaluation","1","32","","",""
"html-keyboard-response","250","1048305","0.0-4.0-4.0-1.16","spark_pilot_2","7537","6","9","Male","","","","","","","null","<div style=""font-size:60px;"">+</div>","null","fixation","","","","","","","","","","","33","","",""
"revaluation","251","1052307","0.0-4.0-4.0-0.17","spark_pilot_2","7537","6","9","Male","","false","","","","","[530.5]","./assets/img/canyon/animals/giraffe.jpg","[""ArrowRight""]","revaluation","canyon","15","{""ArrowUp,ArrowLeft"":27,""ArrowUp,ArrowRight"":15,""ArrowDown,ArrowLeft"":21,""ArrowDown,ArrowRight"":7}","false","ArrowUp,ArrowRight","","","","revaluation","1","34","","",""
"html-keyboard-response","252","1052809","0.0-4.0-4.0-1.17","spark_pilot_2","7537","6","9","Male","","","","","","","null","<div style=""font-size:60px;"">+</div>","null","fixation","","","","","","","","","","","35","","",""
"learning-instructions","253","1065845","0.0-4.0-5.0-0.0","spark_pilot_2","7537","6","9","Male","","","","","","","1642.5","<p> Time to play the dot game! </p>
            <p> For one minute, click the red dots on the following screen as they appear. </p>
            <p><b> Don't look away, as you will earn bonus for clicking dots</b>. </p>","","instructions","","","","","","","","","","","","","",""
"revaluation","254","1125845","0.0-4.0-6.0-0.0","spark_pilot_2","7537","6","9","Male","","","","","","","[67,256,75,57,71,140]","","","rest","","60","","","","","0","60000","","","","","",""
"learning-instructions","255","1133388","0.0-4.0-7.0-0.0","spark_pilot_2","7537","6","9","Male","","","","","","","1417","<p> You have almost finished this part of the game! </p>
            <p> We are going to ask you to make a few more choices. </p>","","instructions","","","","","","","","","","","","","",""
"learning-instructions","256","1153020","0.0-4.0-7.0-0.1","spark_pilot_2","7537","6","9","Male","","","","","","","5658.5","<p> First, you need to decide whether to go up or down. When you see each picture, use the arrow keys to make your choice. </p>
            <p><b>You will not see which animal you found, but try to get to the one that will give you the most treasure.</b></p>","","instructions","","","","","","","","","","","","","",""
"revaluation","257","1156036","0.0-4.0-8.0-0.0","spark_pilot_2","7537","6","9","Male","","false","","","","","[3015.5]","./assets/img/canyon/test/1.jpg","[""ArrowDown""]","first stage test","canyon","0","{""ArrowUp,ArrowLeft"":27,""ArrowUp,ArrowRight"":15,""ArrowDown,ArrowLeft"":21,""ArrowDown,ArrowRight"":7}","false","ArrowDown","false","","","revaluation","1","","","",""
"html-keyboard-response","258","1156541","0.0-4.0-8.0-1.0","spark_pilot_2","7537","6","9","Male","","","","","","","null","<div style=""font-size:60px;"">+</div>","null","fixation","","","","","","","","","","","","","",""
"revaluation","259","1157196","0.0-4.0-8.0-0.1","spark_pilot_2","7537","6","9","Male","","false","","","","","[653.9000000059605]","./assets/img/canyon/test/2.jpg","[""ArrowDown""]","first stage test","canyon","0","{""ArrowUp,ArrowLeft"":27,""ArrowUp,ArrowRight"":15,""ArrowDown,ArrowLeft"":21,""ArrowDown,ArrowRight"":7}","false","ArrowDown","false","","","revaluation","1","","","",""
"html-keyboard-response","260","1157697","0.0-4.0-8.0-1.1","spark_pilot_2","7537","6","9","Male","","","","","","","null","<div style=""font-size:60px;"">+</div>","null","fixation","","","","","","","","","","","","","",""
"revaluation","261","1157917","0.0-4.0-8.0-0.2","spark_pilot_2","7537","6","9","Male","","false","","","","","[218.5]","./assets/img/canyon/test/3.jpg","[""ArrowUp""]","first stage test","canyon","0","{""ArrowUp,ArrowLeft"":27,""ArrowUp,ArrowRight"":15,""ArrowDown,ArrowLeft"":21,""ArrowDown,ArrowRight"":7}","true","ArrowUp","false","","","revaluation","1","","","",""
"html-keyboard-response","262","1158432","0.0-4.0-8.0-1.2","spark_pilot_2","7537","6","9","Male","","","","","","","null","<div style=""font-size:60px;"">+</div>","null","fixation","","","","","","","","","","","","","",""
"revaluation","263","1158685","0.0-4.0-8.0-0.3","spark_pilot_2","7537","6","9","Male","","false","","","","","[252]","./assets/img/canyon/test/0.jpg","[""ArrowDown""]","first stage test","canyon","0","{""ArrowUp,ArrowLeft"":27,""ArrowUp,ArrowRight"":15,""ArrowDown,ArrowLeft"":21,""ArrowDown,ArrowRight"":7}","false","ArrowDown","false","","","revaluation","1","","","",""
"html-keyboard-response","264","1159186","0.0-4.0-8.0-1.3","spark_pilot_2","7537","6","9","Male","","","","","","","null","<div style=""font-size:60px;"">+</div>","null","fixation","","","","","","","","","","","","","",""
"learning-instructions","265","1173260","0.0-4.0-9.0-0.0","spark_pilot_2","7537","6","9","Male","","","","","","","2729.10000000149","<p> Now you will see the animals again and can search their chests for treasure. </p>
            <p> This time, you will not see how much treasure you earned, but you will earn more bonus money for making better choices. </p>","","instructions","","","","","","","","","","","","","",""
"revaluation","266","1174485","0.0-4.0-10.0-0.0","spark_pilot_2","7537","6","9","Male","","false","","","","","[1223.5]","./assets/img/canyon/animals/giraffe.jpg","[""ArrowLeft""]","second stage test","canyon","0","{""ArrowUp,ArrowLeft"":27,""ArrowUp,ArrowRight"":15,""ArrowDown,ArrowLeft"":21,""ArrowDown,ArrowRight"":7}","true","ArrowUp,ArrowLeft","","","","revaluation","1","","","",""
"html-keyboard-response","267","1174988","0.0-4.0-10.0-1.0","spark_pilot_2","7537","6","9","Male","","","","","","","null","<div style=""font-size:60px;"">+</div>","null","fixation","","","","","","","","","","","","","",""
"revaluation","268","1175412","0.0-4.0-10.0-0.1","spark_pilot_2","7537","6","9","Male","","false","","","","","[423.09999999403954]","./assets/img/canyon/animals/giraffe.jpg","[""ArrowRight""]","second stage test","canyon","0","{""ArrowUp,ArrowLeft"":27,""ArrowUp,ArrowRight"":15,""ArrowDown,ArrowLeft"":21,""ArrowDown,ArrowRight"":7}","false","ArrowUp,ArrowRight","","","","revaluation","1","","","",""
"html-keyboard-response","269","1175913","0.0-4.0-10.0-1.1","spark_pilot_2","7537","6","9","Male","","","","","","","null","<div style=""font-size:60px;"">+</div>","null","fixation","","","","","","","","","","","","","",""
"revaluation","270","1176117","0.0-4.0-10.0-0.2","spark_pilot_2","7537","6","9","Male","","false","","","","","[203.30000000447035]","./assets/img/canyon/animals/giraffe.jpg","[""ArrowRight""]","second stage test","canyon","0","{""ArrowUp,ArrowLeft"":27,""ArrowUp,ArrowRight"":15,""ArrowDown,ArrowLeft"":21,""ArrowDown,ArrowRight"":7}","false","ArrowUp,ArrowRight","","","","revaluation","1","","","",""
"html-keyboard-response","271","1176622","0.0-4.0-10.0-1.2","spark_pilot_2","7537","6","9","Male","","","","","","","null","<div style=""font-size:60px;"">+</div>","null","fixation","","","","","","","","","","","","","",""
"revaluation","272","1176709","0.0-4.0-10.0-0.3","spark_pilot_2","7537","6","9","Male","","false","","","","","[85.40000000596046]","./assets/img/canyon/animals/giraffe.jpg","[""ArrowRight""]","second stage test","canyon","0","{""ArrowUp,ArrowLeft"":27,""ArrowUp,ArrowRight"":15,""ArrowDown,ArrowLeft"":21,""ArrowDown,ArrowRight"":7}","false","ArrowUp,ArrowRight","","","","revaluation","1","","","",""
"html-keyboard-response","273","1177210","0.0-4.0-10.0-1.3","spark_pilot_2","7537","6","9","Male","","","","","","","null","<div style=""font-size:60px;"">+</div>","null","fixation","","","","","","","","","","","","","",""
"revaluation","274","1177260","0.0-4.0-10.0-0.4","spark_pilot_2","7537","6","9","Male","","false","","","","","[48]","./assets/img/canyon/animals/lion.jpg","[""ArrowLeft""]","second stage test","canyon","0","{""ArrowUp,ArrowLeft"":27,""ArrowUp,ArrowRight"":15,""ArrowDown,ArrowLeft"":21,""ArrowDown,ArrowRight"":7}","true","ArrowDown,ArrowLeft","","","","revaluation","1","","","",""
"html-keyboard-response","275","1177762","0.0-4.0-10.0-1.4","spark_pilot_2","7537","6","9","Male","","","","","","","null","<div style=""font-size:60px;"">+</div>","null","fixation","","","","","","","","","","","","","",""
"revaluation","276","1178125","0.0-4.0-10.0-0.5","spark_pilot_2","7537","6","9","Male","","false","","","","","[361.30000000447035]","./assets/img/canyon/animals/lion.jpg","[""ArrowRight""]","second stage test","canyon","0","{""ArrowUp,ArrowLeft"":27,""ArrowUp,ArrowRight"":15,""ArrowDown,ArrowLeft"":21,""ArrowDown,ArrowRight"":7}","false","ArrowDown,ArrowRight","","","","revaluation","1","","","",""
"html-keyboard-response","277","1178635","0.0-4.0-10.0-1.5","spark_pilot_2","7537","6","9","Male","","","","","","","null","<div style=""font-size:60px;"">+</div>","null","fixation","","","","","","","","","","","","","",""
"revaluation","278","1179004","0.0-4.0-10.0-0.6","spark_pilot_2","7537","6","9","Male","","false","","","","","[368.3999999985099]","./assets/img/canyon/animals/lion.jpg","[""ArrowLeft""]","second stage test","canyon","0","{""ArrowUp,ArrowLeft"":27,""ArrowUp,ArrowRight"":15,""ArrowDown,ArrowLeft"":21,""ArrowDown,ArrowRight"":7}","true","ArrowDown,ArrowLeft","","","","revaluation","1","","","",""
"html-keyboard-response","279","1179505","0.0-4.0-10.0-1.6","spark_pilot_2","7537","6","9","Male","","","","","","","null","<div style=""font-size:60px;"">+</div>","null","fixation","","","","","","","","","","","","","",""
"revaluation","280","1179676","0.0-4.0-10.0-0.7","spark_pilot_2","7537","6","9","Male","","false","","","","","[169.39999999850988]","./assets/img/canyon/animals/lion.jpg","[""ArrowLeft""]","second stage test","canyon","0","{""ArrowUp,ArrowLeft"":27,""ArrowUp,ArrowRight"":15,""ArrowDown,ArrowLeft"":21,""ArrowDown,ArrowRight"":7}","true","ArrowDown,ArrowLeft","","","","revaluation","1","","","",""
"html-keyboard-response","281","1180177","0.0-4.0-10.0-1.7","spark_pilot_2","7537","6","9","Male","","","","","","","null","<div style=""font-size:60px;"">+</div>","null","fixation","","","","","","","","","","","","","",""
"learning-instructions","282","1185684","0.0-4.0-0.1-0.2","spark_pilot_2","7537","6","9","Male","","","","","","","2802.60000000149","<p> This time you are searching for treasure in the <b>ocean</b>.</p>","","instructions","","","","","","","","","","","","","",""
"learning-instructions","283","1205509","0.0-4.0-0.1-0.3","spark_pilot_2","7537","6","9","Male","","","","","","","2576.8000000044703","<p><b>New</b> animals with <b>new</b> treasure chests live here. You need to explore to discover where the animal with the best treasure chest is.</p>
                    <p> Like before, once you figure out which animal has the chest with the most treasure, you should try to get to that animal and select that chest! </p>","","instructions","","","","","","","","","","","","","",""
"learning-instructions","284","1221988","0.0-4.0-1.1-0.1","spark_pilot_2","7537","6","9","Male","","","","","","","1746.6000000014901","<p> Remember, when you see a picture of the place, use the up and down keys to <b>find an animal</b>.</p>
            <p> When you encounter an animal, you should use the left and right keys to <b>select a treasure chest</b>.</p>
            <p> Don't forget to look out for the robber! </p>","","instructions","","","","","","","","","","","","","",""
"revaluation","285","1227992","0.0-4.0-2.1-0.50","spark_pilot_2","7537","6","9","Male","","false","","","","","[695.3000000044703,1199.1000000014901]","./assets/img/ocean/memory/2.jpg","[""ArrowUp"",""ArrowLeft""]","value training","ocean","26","{""ArrowUp,ArrowLeft"":26,""ArrowUp,ArrowRight"":10,""ArrowDown,ArrowLeft"":5,""ArrowDown,ArrowRight"":17}","true","ArrowUp,ArrowLeft","false","","","original","2","0","","",""
"html-keyboard-response","286","1228496","0.0-4.0-2.1-1.50","spark_pilot_2","7537","6","9","Male","","","","","","","null","<div style=""font-size:60px;"">+</div>","null","fixation","","","","","","","","","","","1","","",""
"revaluation","287","1234511","0.0-4.0-2.1-0.51","spark_pilot_2","7537","6","9","Male","","false","","","","","[340.1000000014901,571]","./assets/img/ocean/memory/15.jpg","[""ArrowDown"",""ArrowRight""]","value training","ocean","17","{""ArrowUp,ArrowLeft"":26,""ArrowUp,ArrowRight"":10,""ArrowDown,ArrowLeft"":5,""ArrowDown,ArrowRight"":17}","false","ArrowDown,ArrowRight","false","","","original","2","2","","",""
"html-keyboard-response","288","1235023","0.0-4.0-2.1-1.51","spark_pilot_2","7537","6","9","Male","","","","","","","null","<div style=""font-size:60px;"">+</div>","null","fixation","","","","","","","","","","","3","","",""
"revaluation","289","1241038","0.0-4.0-2.1-0.52","spark_pilot_2","7537","6","9","Male","","false","","","","","[540.3999999985099,1163.3999999985099]","./assets/img/ocean/memory/39.jpg","[""ArrowUp"",""ArrowLeft""]","value training","ocean","26","{""ArrowUp,ArrowLeft"":26,""ArrowUp,ArrowRight"":10,""ArrowDown,ArrowLeft"":5,""ArrowDown,ArrowRight"":17}","true","ArrowUp,ArrowLeft","false","","","original","2","4","","",""
"html-keyboard-response","290","1241539","0.0-4.0-2.1-1.52","spark_pilot_2","7537","6","9","Male","","","","","","","null","<div style=""font-size:60px;"">+</div>","null","fixation","","","","","","","","","","","5","","",""
"revaluation","291","1247565","0.0-4.0-2.1-0.53","spark_pilot_2","7537","6","9","Male","","false","","","","","[832.3999999985099,1599.2000000029802]","./assets/img/ocean/memory/16.jpg","[""ArrowUp"",""ArrowRight""]","value training","ocean","10","{""ArrowUp,ArrowLeft"":26,""ArrowUp,ArrowRight"":10,""ArrowDown,ArrowLeft"":5,""ArrowDown,ArrowRight"":17}","false","ArrowUp,ArrowRight","false","","","original","2","6","","",""
"html-keyboard-response","292","1248066","0.0-4.0-2.1-1.53","spark_pilot_2","7537","6","9","Male","","","","","","","null","<div style=""font-size:60px;"">+</div>","null","fixation","","","","","","","","","","","7","","",""
"revaluation","293","1254080","0.0-4.0-2.1-0.54","spark_pilot_2","7537","6","9","Male","","false","","","","","[545.2999999970198,719.1000000014901]","./assets/img/ocean/memory/35.jpg","[""ArrowUp"",""ArrowLeft""]","value training","ocean","26","{""ArrowUp,ArrowLeft"":26,""ArrowUp,ArrowRight"":10,""ArrowDown,ArrowLeft"":5,""ArrowDown,ArrowRight"":17}","true","ArrowUp,ArrowLeft","false","","","original","2","8","","",""
"html-keyboard-response","294","1254582","0.0-4.0-2.1-1.54","spark_pilot_2","7537","6","9","Male","","","","","","","null","<div style=""font-size:60px;"">+</div>","null","fixation","","","","","","","","","","","9","","",""
"revaluation","295","1260586","0.0-4.0-2.1-0.55","spark_pilot_2","7537","6","9","Male","","false","","","","","[893,659.3000000044703]","./assets/img/ocean/memory/6.jpg","[""ArrowDown"",""ArrowLeft""]","value training","ocean","5","{""ArrowUp,ArrowLeft"":26,""ArrowUp,ArrowRight"":10,""ArrowDown,ArrowLeft"":5,""ArrowDown,ArrowRight"":17}","false","ArrowDown,ArrowLeft","false","","","original","2","10","","",""
"html-keyboard-response","296","1261088","0.0-4.0-2.1-1.55","spark_pilot_2","7537","6","9","Male","","","","","","","null","<div style=""font-size:60px;"">+</div>","null","fixation","","","","","","","","","","","11","","",""
"revaluation","297","1267094","0.0-4.0-2.1-0.56","spark_pilot_2","7537","6","9","Male","","false","","","","","[730.5,640.3999999985099]","./assets/img/ocean/memory/5.jpg","[""ArrowUp"",""ArrowLeft""]","value training","ocean","26","{""ArrowUp,ArrowLeft"":26,""ArrowUp,ArrowRight"":10,""ArrowDown,ArrowLeft"":5,""ArrowDown,ArrowRight"":17}","true","ArrowUp,ArrowLeft","false","","","original","2","12","","",""
"html-keyboard-response","298","1267595","0.0-4.0-2.1-1.56","spark_pilot_2","7537","6","9","Male","","","","","","","null","<div style=""font-size:60px;"">+</div>","null","fixation","","","","","","","","","","","13","","",""
"revaluation","299","1273600","0.0-4.0-2.1-0.57","spark_pilot_2","7537","6","9","Male","","false","","","","","[495.20000000298023,854.7000000029802]","./assets/img/ocean/memory/21.jpg","[""ArrowUp"",""ArrowLeft""]","value training","ocean","26","{""ArrowUp,ArrowLeft"":26,""ArrowUp,ArrowRight"":10,""ArrowDown,ArrowLeft"":5,""ArrowDown,ArrowRight"":17}","true","ArrowUp,ArrowLeft","false","","","original","2","14","","",""
"html-keyboard-response","300","1274102","0.0-4.0-2.1-1.57","spark_pilot_2","7537","6","9","Male","","","","","","","null","<div style=""font-size:60px;"">+</div>","null","fixation","","","","","","","","","","","15","","",""
"revaluation","301","1280106","0.0-4.0-2.1-0.58","spark_pilot_2","7537","6","9","Male","","false","","","","","[1052.6000000014901,1035.7000000029802]","./assets/img/ocean/memory/41.jpg","[""ArrowUp"",""ArrowRight""]","value training","ocean","10","{""ArrowUp,ArrowLeft"":26,""ArrowUp,ArrowRight"":10,""ArrowDown,ArrowLeft"":5,""ArrowDown,ArrowRight"":17}","false","ArrowUp,ArrowRight","false","","","original","2","16","","",""
"html-keyboard-response","302","1280608","0.0-4.0-2.1-1.58","spark_pilot_2","7537","6","9","Male","","","","","","","null","<div style=""font-size:60px;"">+</div>","null","fixation","","","","","","","","","","","17","","",""
"revaluation","303","1286612","0.0-4.0-2.1-0.59","spark_pilot_2","7537","6","9","Male","","false","","","","","[634.7999999970198,537.8000000044703]","./assets/img/ocean/memory/35.jpg","[""ArrowDown"",""ArrowLeft""]","value training","ocean","5","{""ArrowUp,ArrowLeft"":26,""ArrowUp,ArrowRight"":10,""ArrowDown,ArrowLeft"":5,""ArrowDown,ArrowRight"":17}","false","ArrowDown,ArrowLeft","false","","","original","2","18","","",""
"html-keyboard-response","304","1287113","0.0-4.0-2.1-1.59","spark_pilot_2","7537","6","9","Male","","","","","","","null","<div style=""font-size:60px;"">+</div>","null","fixation","","","","","","","","","","","19","","",""
"revaluation","305","1291116","0.0-4.0-2.1-0.60","spark_pilot_2","7537","6","9","Male","","false","","","","","[785.8000000044703]","./assets/img/ocean/catch/7.jpg","[""ArrowUp""]","value training","ocean","-10","{""ArrowUp,ArrowLeft"":26,""ArrowUp,ArrowRight"":10,""ArrowDown,ArrowLeft"":5,""ArrowDown,ArrowRight"":17}","false","ArrowUp","true","","","original","2","20","","",""
"html-keyboard-response","306","1291617","0.0-4.0-2.1-1.60","spark_pilot_2","7537","6","9","Male","","","","","","","null","<div style=""font-size:60px;"">+</div>","null","fixation","","","","","","","","","","","21","","",""
"revaluation","307","1297621","0.0-4.0-2.1-0.61","spark_pilot_2","7537","6","9","Male","","false","","","","","[873.6000000014901,608.8999999985099]","./assets/img/ocean/memory/22.jpg","[""ArrowUp"",""ArrowRight""]","value training","ocean","10","{""ArrowUp,ArrowLeft"":26,""ArrowUp,ArrowRight"":10,""ArrowDown,ArrowLeft"":5,""ArrowDown,ArrowRight"":17}","false","ArrowUp,ArrowRight","false","","","original","2","22","","",""
"html-keyboard-response","308","1298123","0.0-4.0-2.1-1.61","spark_pilot_2","7537","6","9","Male","","","","","","","null","<div style=""font-size:60px;"">+</div>","null","fixation","","","","","","","","","","","23","","",""
