"trial_type","trial_index","time_elapsed","internal_node_id","task_version","subject_id","assigned_condition","age","gender","success","timeout","failed_images","failed_audio","failed_video","browser_interaction","rt","stimulus","response","task_part","environment","score","rewardMap","correct","fullState","isCatch","numberMissed","duration","condition","order","trial_num","key_press","ground_truth","bonus"
"pavlovia","0","986","0.0-0.0","spark_pilot_2","7332","4","12","Female","","","","","","","","","","","","","","","","","","","","","","","",""
"preload","1","10852","0.0-1.0","spark_pilot_2","7332","4","12","Female","true","false","[]","[]","[]","[{""event"":""fullscreenenter"",""trial"":2,""time"":13197}]","","","","","","","","","","","","","","","","","",""
"fullscreen","2","14183","0.0-2.0","spark_pilot_2","7332","4","12","Female","true","","","","","","","","","","","","","","","","","","","","","","",""
"audio-button-response","3","16844","0.0-3.0-0.0-0.0","spark_pilot_2","7332","4","12","Female","","","","","","","2309","./assets/audio/audiotest/turtle.mp3","2","audio_test","","","","","","","","","","","","","",""
"learning-instructions","4","28776","0.0-3.0-1.0-0.0","spark_pilot_2","7332","4","12","Female","","","","","","","4930.800000071526","<p> Welcome! Please remember to stay in fullscreen mode and don't click away from the experiment. </p>","","instructions","","","","","","","","","","","","","",""
"learning-instructions","5","38910","0.0-3.0-1.0-0.1","spark_pilot_2","7332","4","12","Female","","","","","","","1724.8999999761581","<p> Today you will be playing a game to earn treasure. </p>
            <p> At the end of the experiment, you will earn a bonus based on how much treasure you find. </p>
            <img src='./assets/img/instructions/treasure.jpg' class='instructions-image'>","","instructions","","","","","","","","","","","","","",""
"learning-instructions","6","50371","0.0-3.0-1.0-0.2","spark_pilot_2","7332","4","12","Female","","","","","","","3195.600000023842","<p> Animals have hidden treasure in treasure chests. </p>
            <p> You need to first find an animal and then choose which of their treasure chests to search. </p>
            <img src='./assets/img/space/animals/cat.jpg' class='instructions-image'>","","instructions","","","","","","","","","","","","","",""
"learning-instructions","7","67100","0.0-3.0-1.0-0.3","spark_pilot_2","7332","4","12","Female","","","","","","","3566","<p> In each round, you will search for treasure in a different place. In the real game, there will be two rounds. </p>
            <p> You will begin with a separate, practice round where you will search for treasure in outer space. </p>
            <img src='./assets/img/space/0.jpg' class='instructions-image'>","","instructions","","","","","","","","","","","","","",""
"learning-instructions","8","79973","0.0-3.0-1.0-0.4","spark_pilot_2","7332","4","12","Female","","","","","","","1439.1000000238419","<p> On every turn, you will see a picture of the place that you are in, but the specific image may be different each time. </p>
            <p> For example, both of these images mean you are in outer space. </p>
            <img src='./assets/img/instructions/outerspace.jpg' class='instructions-image'>","","instructions","","","","","","","","","","","","","",""
"learning-instructions","9","90349","0.0-3.0-1.0-0.5","spark_pilot_2","7332","4","12","Female","","","","","","","2544.0999999046326","<p> You need to decide which direction to travel in. </p>
            <p> You can choose between going <b>up or down</b> by using the arrow keys. </p>
            <img src='./assets/img/instructions/updown.jpg' class='instructions-image'>","","instructions","","","","","","","","","","","","","",""
"learning-instructions","10","101324","0.0-3.0-1.0-0.6","spark_pilot_2","7332","4","12","Female","","","","","","","2159.399999976158","<p> You will have <b>2 seconds</b> to make your choice. </p>
            <p> If you do not make a choice within 2 seconds, you will not find an animal or earn treasure. </p>
            <img src='./assets/img/instructions/2seconds.jpg' class='instructions-image'>","","instructions","","","","","","","","","","","","","",""
"learning-instructions","11","110236","0.0-3.0-1.0-0.7","spark_pilot_2","7332","4","12","Female","","","","","","","1871.9000000953674","<p> Let’s try practicing that now! </p>
            <p> When you see a picture of the place you are in, press the <b>up</b> key to travel up. </p>
            <img src='./assets/img/instructions/pressUp.jpg' class='instructions-image'>","","instructions","","","","","","","","","","","","","",""
"revaluation","12","114269","0.0-3.0-2.0-0.0","spark_pilot_2","7332","4","12","Female","","false","","","","","[689.6999999284744]","./assets/img/space/0.jpg","[""ArrowUp""]","first stage practice","space","0","null","null","ArrowUp","false","","","","","","","",""
"html-keyboard-response","13","114786","0.0-3.0-2.0-1.0","spark_pilot_2","7332","4","12","Female","","","","","","","null","<div style=""font-size:60px;"">+</div>","null","fixation","","","","","","","","","","","","","",""
"revaluation","14","118815","0.0-3.0-2.0-0.1","spark_pilot_2","7332","4","12","Female","","false","","","","","[706.7999999523163]","./assets/img/space/1.jpg","[""ArrowUp""]","first stage practice","space","0","null","null","ArrowUp","false","","","","","","","",""
"html-keyboard-response","15","119317","0.0-3.0-2.0-1.1","spark_pilot_2","7332","4","12","Female","","","","","","","null","<div style=""font-size:60px;"">+</div>","null","fixation","","","","","","","","","","","","","",""
"revaluation","16","123343","0.0-3.0-2.0-0.2","spark_pilot_2","7332","4","12","Female","","false","","","","","[329]","./assets/img/space/2.jpg","[""ArrowUp""]","first stage practice","space","0","null","null","ArrowUp","false","","","","","","","",""
"html-keyboard-response","17","123850","0.0-3.0-2.0-1.2","spark_pilot_2","7332","4","12","Female","","","","","","","null","<div style=""font-size:60px;"">+</div>","null","fixation","","","","","","","","","","","","","",""
"learning-instructions","18","130144","0.0-3.0-3.0-0.0","spark_pilot_2","7332","4","12","Female","","","","","","","1578.4000000953674","<p> Great job! Now try pressing the <b>down</b> key to travel down. </p>
            <img src='./assets/img/instructions/pressDown.jpg' class='instructions-image'>","","instructions","","","","","","","","","","","","","",""
"revaluation","19","134167","0.0-3.0-4.0-0.0","spark_pilot_2","7332","4","12","Female","","false","","","","","[542.3999999761581]","./assets/img/space/3.jpg","[""ArrowDown""]","first stage practice","space","0","null","null","ArrowDown","false","","","","","","","",""
"html-keyboard-response","20","134673","0.0-3.0-4.0-1.0","spark_pilot_2","7332","4","12","Female","","","","","","","null","<div style=""font-size:60px;"">+</div>","null","fixation","","","","","","","","","","","","","",""
"revaluation","21","138690","0.0-3.0-4.0-0.1","spark_pilot_2","7332","4","12","Female","","false","","","","","[367.40000009536743]","./assets/img/space/4.jpg","[""ArrowDown""]","first stage practice","space","0","null","null","ArrowDown","false","","","","","","","",""
"html-keyboard-response","22","139196","0.0-3.0-4.0-1.1","spark_pilot_2","7332","4","12","Female","","","","","","","null","<div style=""font-size:60px;"">+</div>","null","fixation","","","","","","","","","","","","","",""
"revaluation","23","143209","0.0-3.0-4.0-0.2","spark_pilot_2","7332","4","12","Female","","false","","","","","[502]","./assets/img/space/5.jpg","[""ArrowDown""]","first stage practice","space","0","null","null","ArrowDown","false","","","","","","","",""
"html-keyboard-response","24","143721","0.0-3.0-4.0-1.2","spark_pilot_2","7332","4","12","Female","","","","","","","null","<div style=""font-size:60px;"">+</div>","null","fixation","","","","","","","","","","","","","",""
"learning-instructions","25","157468","0.0-3.0-5.0-0.0","spark_pilot_2","7332","4","12","Female","","","","","","","3891.600000023842","<p> The animals don’t move, so the animal in the upper part of a place will stay in the upper part of a place, and the animal in the lower part of a place will stay in the lower part of a place. </p>","","instructions","","","","","","","","","","","","","",""
"learning-instructions","26","167766","0.0-3.0-5.0-0.1","spark_pilot_2","7332","4","12","Female","","","","","","","1160.3999999761581","<p> Each animal has two treasure chests for you to choose from. </p>
            <p> The amount of treasure in each chest can range from <b> 0 to 40 pieces.</b></p>","","instructions","","","","","","","","","","","","","",""
"learning-instructions","27","181446","0.0-3.0-5.0-0.2","spark_pilot_2","7332","4","12","Female","","","","","","","2478.4000000953674","<p> You should decide which chest to search for treasure by using the <b>left</b> and <b>right</b> arrow keys. </p>
            <p><b> Pay attention to which animal is on the screen, as the animals have different treasure chests. </b></p>
            <img src='./assets/img/instructions/leftright.jpg' class='instructions-image'>","","instructions","","","","","","","","","","","","","",""
"learning-instructions","28","188844","0.0-3.0-5.0-0.3","spark_pilot_2","7332","4","12","Female","","","","","","","1029.5","<p> Let’s try practicing that now. </p>
            <p> When you see an animal, choose which chest to search for treasure. </p>
            <img src='./assets/img/instructions/chooseChest.jpg' class='instructions-image'>","","instructions","","","","","","","","","","","","","",""
"revaluation","29","192860","0.0-3.0-6.0-0.0","spark_pilot_2","7332","4","12","Female","","false","","","","","[494.1999999284744]","./assets/img/space/animals/cat.jpg","[""ArrowRight""]","second stage practice","space","36","{""ArrowUp,ArrowLeft"":3,""ArrowUp,ArrowRight"":36,""ArrowDown,ArrowLeft"":15,""ArrowDown,ArrowRight"":23}","true","ArrowUp,ArrowRight","","","","","","","","",""
"html-keyboard-response","30","193364","0.0-3.0-6.0-1.0","spark_pilot_2","7332","4","12","Female","","","","","","","null","<div style=""font-size:60px;"">+</div>","null","fixation","","","","","","","","","","","","","",""
"revaluation","31","197383","0.0-3.0-6.0-0.1","spark_pilot_2","7332","4","12","Female","","false","","","","","[489.6999999284744]","./assets/img/space/animals/cat.jpg","[""ArrowRight""]","second stage practice","space","36","{""ArrowUp,ArrowLeft"":3,""ArrowUp,ArrowRight"":36,""ArrowDown,ArrowLeft"":15,""ArrowDown,ArrowRight"":23}","true","ArrowUp,ArrowRight","","","","","","","","",""
"html-keyboard-response","32","197892","0.0-3.0-6.0-1.1","spark_pilot_2","7332","4","12","Female","","","","","","","null","<div style=""font-size:60px;"">+</div>","null","fixation","","","","","","","","","","","","","",""
"revaluation","33","201905","0.0-3.0-6.0-0.2","spark_pilot_2","7332","4","12","Female","","false","","","","","[394.60000002384186]","./assets/img/space/animals/rabbit.jpg","[""ArrowRight""]","second stage practice","space","23","{""ArrowUp,ArrowLeft"":3,""ArrowUp,ArrowRight"":36,""ArrowDown,ArrowLeft"":15,""ArrowDown,ArrowRight"":23}","true","ArrowDown,ArrowRight","","","","","","","","",""
"html-keyboard-response","34","202418","0.0-3.0-6.0-1.2","spark_pilot_2","7332","4","12","Female","","","","","","","null","<div style=""font-size:60px;"">+</div>","null","fixation","","","","","","","","","","","","","",""
"revaluation","35","206435","0.0-3.0-6.0-0.3","spark_pilot_2","7332","4","12","Female","","false","","","","","[448.39999997615814]","./assets/img/space/animals/rabbit.jpg","[""ArrowRight""]","second stage practice","space","23","{""ArrowUp,ArrowLeft"":3,""ArrowUp,ArrowRight"":36,""ArrowDown,ArrowLeft"":15,""ArrowDown,ArrowRight"":23}","true","ArrowDown,ArrowRight","","","","","","","","",""
"html-keyboard-response","36","206948","0.0-3.0-6.0-1.3","spark_pilot_2","7332","4","12","Female","","","","","","","null","<div style=""font-size:60px;"">+</div>","null","fixation","","","","","","","","","","","","","",""
"learning-instructions","37","226395","0.0-3.0-7.0-0.0","spark_pilot_2","7332","4","12","Female","","","","","","","2631.899999976158","<p> Great job. Now let’s try putting it together. </p>
            <p> On each turn, you will first see a picture to remind you of the place you are in, and you need to choose whether to go up or down. </p>
            <p> Then you will see an animal and choose which of its chests to search for treasure. </p>","","instructions","","","","","","","","","","","","","",""
"learning-instructions","38","236171","0.0-3.0-7.0-0.1","spark_pilot_2","7332","4","12","Female","","","","","","","1506.7000000476837","<p> When you choose whether to go up or down, try to go to the animal with the chest with the most treasure. </p>
            <p> Try practicing that now! </p>","","instructions","","","","","","","","","","","","","",""
"revaluation","39","242195","0.0-3.0-8.0-0.0","spark_pilot_2","7332","4","12","Female","","false","","","","","[675.5999999046326,446.5]","./assets/img/space/6.jpg","[""ArrowUp"",""ArrowRight""]","full practice","space","36","{""ArrowUp,ArrowLeft"":3,""ArrowUp,ArrowRight"":36,""ArrowDown,ArrowLeft"":15,""ArrowDown,ArrowRight"":23}","true","ArrowUp,ArrowRight","false","","","","","","","",""
"html-keyboard-response","40","242703","0.0-3.0-8.0-1.0","spark_pilot_2","7332","4","12","Female","","","","","","","null","<div style=""font-size:60px;"">+</div>","null","fixation","","","","","","","","","","","","","",""
"revaluation","41","248732","0.0-3.0-8.0-0.1","spark_pilot_2","7332","4","12","Female","","false","","","","","[343.3000000715256,406.39999997615814]","./assets/img/space/7.jpg","[""ArrowUp"",""ArrowRight""]","full practice","space","36","{""ArrowUp,ArrowLeft"":3,""ArrowUp,ArrowRight"":36,""ArrowDown,ArrowLeft"":15,""ArrowDown,ArrowRight"":23}","true","ArrowUp,ArrowRight","false","","","","","","","",""
"html-keyboard-response","42","249236","0.0-3.0-8.0-1.1","spark_pilot_2","7332","4","12","Female","","","","","","","null","<div style=""font-size:60px;"">+</div>","null","fixation","","","","","","","","","","","","","",""
"revaluation","43","255252","0.0-3.0-8.0-0.2","spark_pilot_2","7332","4","12","Female","","false","","","","","[329,289.3000000715256]","./assets/img/space/8.jpg","[""ArrowUp"",""ArrowRight""]","full practice","space","36","{""ArrowUp,ArrowLeft"":3,""ArrowUp,ArrowRight"":36,""ArrowDown,ArrowLeft"":15,""ArrowDown,ArrowRight"":23}","true","ArrowUp,ArrowRight","false","","","","","","","",""
"html-keyboard-response","44","255754","0.0-3.0-8.0-1.2","spark_pilot_2","7332","4","12","Female","","","","","","","null","<div style=""font-size:60px;"">+</div>","null","fixation","","","","","","","","","","","","","",""
"revaluation","45","261779","0.0-3.0-8.0-0.3","spark_pilot_2","7332","4","12","Female","","false","","","","","[318.10000002384186,306.7000000476837]","./assets/img/space/9.jpg","[""ArrowUp"",""ArrowLeft""]","full practice","space","3","{""ArrowUp,ArrowLeft"":3,""ArrowUp,ArrowRight"":36,""ArrowDown,ArrowLeft"":15,""ArrowDown,ArrowRight"":23}","false","ArrowUp,ArrowLeft","false","","","","","","","",""
"html-keyboard-response","46","262294","0.0-3.0-8.0-1.3","spark_pilot_2","7332","4","12","Female","","","","","","","null","<div style=""font-size:60px;"">+</div>","null","fixation","","","","","","","","","","","","","",""
"revaluation","47","268339","0.0-3.0-8.0-0.4","spark_pilot_2","7332","4","12","Female","","false","","","","","[333,496.89999997615814]","./assets/img/space/10.jpg","[""ArrowUp"",""ArrowRight""]","full practice","space","36","{""ArrowUp,ArrowLeft"":3,""ArrowUp,ArrowRight"":36,""ArrowDown,ArrowLeft"":15,""ArrowDown,ArrowRight"":23}","true","ArrowUp,ArrowRight","false","","","","","","","",""
"html-keyboard-response","48","268846","0.0-3.0-8.0-1.4","spark_pilot_2","7332","4","12","Female","","","","","","","null","<div style=""font-size:60px;"">+</div>","null","fixation","","","","","","","","","","","","","",""
"learning-instructions","49","280420","0.0-3.0-9.0-0.0","spark_pilot_2","7332","4","12","Female","","","","","","","1247.0999999046326","<p> One last thing: sometimes, you will see a robber. The robber can be anywhere in the picture. </p>
            <p> If you do not stop them, you will lose treasure. </p>
            <img src='./assets/img/instructions/robber.jpg' class='instructions-image'>","","instructions","","","","","","","","","","","","","",""
"learning-instructions","50","288982","0.0-3.0-9.0-0.1","spark_pilot_2","7332","4","12","Female","","","","","","","1378.3999999761581","<p> If you see the robber, you should <b>press the space bar</b> rather than using the arrow keys. </p>
            <p> Try practicing that now! </p>","","instructions","","","","","","","","","","","","","",""
"revaluation","51","293006","0.0-3.0-10.0-0.0","spark_pilot_2","7332","4","12","Female","","false","","","","","[1202.5]","./assets/img/space/catch/0.jpg","[""spaceBar""]","catch practice","space","0","{""ArrowUp,ArrowLeft"":3,""ArrowUp,ArrowRight"":36,""ArrowDown,ArrowLeft"":15,""ArrowDown,ArrowRight"":23}","true","spaceBar","true","","","","","","","",""
"html-keyboard-response","52","293522","0.0-3.0-10.0-1.0","spark_pilot_2","7332","4","12","Female","","","","","","","null","<div style=""font-size:60px;"">+</div>","null","fixation","","","","","","","","","","","","","",""
"revaluation","53","297547","0.0-3.0-10.0-0.1","spark_pilot_2","7332","4","12","Female","","false","","","","","[578.2000000476837]","./assets/img/space/catch/1.jpg","[""spaceBar""]","catch practice","space","0","{""ArrowUp,ArrowLeft"":3,""ArrowUp,ArrowRight"":36,""ArrowDown,ArrowLeft"":15,""ArrowDown,ArrowRight"":23}","true","spaceBar","true","","","","","","","",""
"html-keyboard-response","54","298062","0.0-3.0-10.0-1.1","spark_pilot_2","7332","4","12","Female","","","","","","","null","<div style=""font-size:60px;"">+</div>","null","fixation","","","","","","","","","","","","","",""
"revaluation","55","302075","0.0-3.0-10.0-0.2","spark_pilot_2","7332","4","12","Female","","false","","","","","[497.39999997615814]","./assets/img/space/catch/2.jpg","[""spaceBar""]","catch practice","space","0","{""ArrowUp,ArrowLeft"":3,""ArrowUp,ArrowRight"":36,""ArrowDown,ArrowLeft"":15,""ArrowDown,ArrowRight"":23}","true","spaceBar","true","","","","","","","",""
"html-keyboard-response","56","302587","0.0-3.0-10.0-1.2","spark_pilot_2","7332","4","12","Female","","","","","","","null","<div style=""font-size:60px;"">+</div>","null","fixation","","","","","","","","","","","","","",""
"learning-instructions","57","319519","0.0-3.0-11.0-0.0","spark_pilot_2","7332","4","12","Female","","","","","","","2936.3000000715256","<p> After you explore a place to find treasure, it will be time to play a different game. </p>
            <p> During this game, red dots will appear on the screen and fall down slowly. </p>
            <p><b> You must click on them before they reach the bottom. </b></p>
            <img src='./assets/img/instructions/dotGame.jpg' class='instructions-image'>","","instructions","","","","","","","","","","","","","",""
"learning-instructions","58","326359","0.0-3.0-11.0-0.1","spark_pilot_2","7332","4","12","Female","","","","","","","1156.8000000715256","<p> For every dot you click, you will earn additional treasure. </p>
            <p> Let’s try practicing that now. </p>","","instructions","","","","","","","","","","","","","",""
"revaluation","59","341376","0.0-3.0-12.0-0.0","spark_pilot_2","7332","4","12","Female","","","","","","","[123]","","","rest practice","","10","","","","","0","15000","","","","","",""
"learning-instructions","60","348968","0.0-3.0-13.0-0.0-0.0","spark_pilot_2","7332","4","12","Female","","","","","","","2326.100000023842","<p> Now, you will practice a shortened version of the game to get a sense of how it all fits together. </p>","","instructions","","","","","","","","","","","","","",""
"learning-instructions","61","353395","0.0-3.0-13.0-0.0-0.1","spark_pilot_2","7332","4","12","Female","","","","","","","1233.3999999761581","<p>This time you are searching for treasure in outer space.</p>","","instructions","","","","","","","","","","","","","",""
"learning-instructions","62","370179","0.0-3.0-13.0-1.0-0.0","spark_pilot_2","7332","4","12","Female","","","","","","","2006.8000000715256","<p> Remember, when you see a picture of the place, use the up and down keys to <b>find an animal</b>.</p>
            <p> When you encounter an animal, you should use the left and right keys to <b>select a treasure chest</b>.</p>
            <p> Don't forget to look out for the robber! </p>","","instructions","","","","","","","","","","","","","",""
"revaluation","63","376193","0.0-3.0-13.0-2.0-0.0","spark_pilot_2","7332","4","12","Female","","false","","","","","[950.8999999761581,444.2999999523163]","./assets/img/space/11.jpg","[""ArrowUp"",""ArrowRight""]","practice block","space","36","{""ArrowUp,ArrowLeft"":3,""ArrowUp,ArrowRight"":36,""ArrowDown,ArrowLeft"":15,""ArrowDown,ArrowRight"":23}","true","ArrowUp,ArrowRight","false","","","","","","","",""
"html-keyboard-response","64","376696","0.0-3.0-13.0-2.0-1.0","spark_pilot_2","7332","4","12","Female","","","","","","","null","<div style=""font-size:60px;"">+</div>","null","fixation","","","","","","","","","","","","","",""
"revaluation","65","382739","0.0-3.0-13.0-2.0-0.1","spark_pilot_2","7332","4","12","Female","","false","","","","","[415.89999997615814,318.40000009536743]","./assets/img/space/12.jpg","[""ArrowUp"",""ArrowRight""]","practice block","space","36","{""ArrowUp,ArrowLeft"":3,""ArrowUp,ArrowRight"":36,""ArrowDown,ArrowLeft"":15,""ArrowDown,ArrowRight"":23}","true","ArrowUp,ArrowRight","false","","","","","","","",""
"html-keyboard-response","66","383253","0.0-3.0-13.0-2.0-1.1","spark_pilot_2","7332","4","12","Female","","","","","","","null","<div style=""font-size:60px;"">+</div>","null","fixation","","","","","","","","","","","","","",""
"revaluation","67","389280","0.0-3.0-13.0-2.0-0.2","spark_pilot_2","7332","4","12","Female","","false","","","","","[565.1000000238419,430.60000002384186]","./assets/img/space/13.jpg","[""ArrowUp"",""ArrowRight""]","practice block","space","36","{""ArrowUp,ArrowLeft"":3,""ArrowUp,ArrowRight"":36,""ArrowDown,ArrowLeft"":15,""ArrowDown,ArrowRight"":23}","true","ArrowUp,ArrowRight","false","","","","","","","",""
"html-keyboard-response","68","389787","0.0-3.0-13.0-2.0-1.2","spark_pilot_2","7332","4","12","Female","","","","","","","null","<div style=""font-size:60px;"">+</div>","null","fixation","","","","","","","","","","","","","",""
"revaluation","69","395817","0.0-3.0-13.0-2.0-0.3","spark_pilot_2","7332","4","12","Female","","false","","","","","[801.3999999761581,523.3999999761581]","./assets/img/space/14.jpg","[""ArrowUp"",""ArrowRight""]","practice block","space","36","{""ArrowUp,ArrowLeft"":3,""ArrowUp,ArrowRight"":36,""ArrowDown,ArrowLeft"":15,""ArrowDown,ArrowRight"":23}","true","ArrowUp,ArrowRight","false","","","","","","","",""
"html-keyboard-response","70","396329","0.0-3.0-13.0-2.0-1.3","spark_pilot_2","7332","4","12","Female","","","","","","","null","<div style=""font-size:60px;"">+</div>","null","fixation","","","","","","","","","","","","","",""
"revaluation","71","402348","0.0-3.0-13.0-2.0-0.4","spark_pilot_2","7332","4","12","Female","","false","","","","","[340.60000002384186,507.39999997615814]","./assets/img/space/11.jpg","[""ArrowUp"",""ArrowRight""]","practice block","space","36","{""ArrowUp,ArrowLeft"":3,""ArrowUp,ArrowRight"":36,""ArrowDown,ArrowLeft"":15,""ArrowDown,ArrowRight"":23}","true","ArrowUp,ArrowRight","false","","","","","","","",""
"html-keyboard-response","72","402857","0.0-3.0-13.0-2.0-1.4","spark_pilot_2","7332","4","12","Female","","","","","","","null","<div style=""font-size:60px;"">+</div>","null","fixation","","","","","","","","","","","","","",""
"revaluation","73","408879","0.0-3.0-13.0-2.0-0.5","spark_pilot_2","7332","4","12","Female","","false","","","","","[672.3999999761581,546.5999999046326]","./assets/img/space/12.jpg","[""ArrowUp"",""ArrowRight""]","practice block","space","36","{""ArrowUp,ArrowLeft"":3,""ArrowUp,ArrowRight"":36,""ArrowDown,ArrowLeft"":15,""ArrowDown,ArrowRight"":23}","true","ArrowUp,ArrowRight","false","","","","","","","",""
"html-keyboard-response","74","409382","0.0-3.0-13.0-2.0-1.5","spark_pilot_2","7332","4","12","Female","","","","","","","null","<div style=""font-size:60px;"">+</div>","null","fixation","","","","","","","","","","","","","",""
"revaluation","75","415398","0.0-3.0-13.0-2.0-0.6","spark_pilot_2","7332","4","12","Female","","false","","","","","[726.3000000715256,564.5]","./assets/img/space/13.jpg","[""ArrowUp"",""ArrowRight""]","practice block","space","36","{""ArrowUp,ArrowLeft"":3,""ArrowUp,ArrowRight"":36,""ArrowDown,ArrowLeft"":15,""ArrowDown,ArrowRight"":23}","true","ArrowUp,ArrowRight","false","","","","","","","",""
"html-keyboard-response","76","415903","0.0-3.0-13.0-2.0-1.6","spark_pilot_2","7332","4","12","Female","","","","","","","null","<div style=""font-size:60px;"">+</div>","null","fixation","","","","","","","","","","","","","",""
"revaluation","77","421922","0.0-3.0-13.0-2.0-0.7","spark_pilot_2","7332","4","12","Female","","false","","","","","[575.5,420.90000009536743]","./assets/img/space/14.jpg","[""ArrowUp"",""ArrowRight""]","practice block","space","36","{""ArrowUp,ArrowLeft"":3,""ArrowUp,ArrowRight"":36,""ArrowDown,ArrowLeft"":15,""ArrowDown,ArrowRight"":23}","true","ArrowUp,ArrowRight","false","","","","","","","",""
"html-keyboard-response","78","422431","0.0-3.0-13.0-2.0-1.7","spark_pilot_2","7332","4","12","Female","","","","","","","null","<div style=""font-size:60px;"">+</div>","null","fixation","","","","","","","","","","","","","",""
"revaluation","79","426444","0.0-3.0-13.0-2.0-0.8","spark_pilot_2","7332","4","12","Female","","false","","","","","[1160]","./assets/img/space/catch/3.jpg","[""spaceBar""]","practice block","space","0","{""ArrowUp,ArrowLeft"":3,""ArrowUp,ArrowRight"":36,""ArrowDown,ArrowLeft"":15,""ArrowDown,ArrowRight"":23}","true","spaceBar","true","","","","","","","",""
"html-keyboard-response","80","426952","0.0-3.0-13.0-2.0-1.8","spark_pilot_2","7332","4","12","Female","","","","","","","null","<div style=""font-size:60px;"">+</div>","null","fixation","","","","","","","","","","","","","",""
"learning-instructions","81","443605","0.0-3.0-13.0-3.0-0.0","spark_pilot_2","7332","4","12","Female","","","","","","","3134.7000000476837","<p> Now, you will travel with a friend who will choose whether you go up or down first. </p>
            <p> On these turns, you will just see the animal that they found. You will still get to choose which chest to search for treasure.</p>","","instructions","","","","","","","","","","","","","",""
"revaluation","82","447633","0.0-3.0-13.0-4.0-0.0","spark_pilot_2","7332","4","12","Female","","false","","","","","[932.7999999523163]","./assets/img/space/animals/rabbit.jpg","[""ArrowRight""]","practice block","space","23","{""ArrowUp,ArrowLeft"":3,""ArrowUp,ArrowRight"":36,""ArrowDown,ArrowLeft"":15,""ArrowDown,ArrowRight"":23}","true","ArrowDown,ArrowRight","","","","","","","","",""
"html-keyboard-response","83","448148","0.0-3.0-13.0-4.0-1.0","spark_pilot_2","7332","4","12","Female","","","","","","","null","<div style=""font-size:60px;"">+</div>","null","fixation","","","","","","","","","","","","","",""
"revaluation","84","452167","0.0-3.0-13.0-4.0-0.1","spark_pilot_2","7332","4","12","Female","","false","","","","","[400.60000002384186]","./assets/img/space/animals/cat.jpg","[""ArrowRight""]","practice block","space","36","{""ArrowUp,ArrowLeft"":3,""ArrowUp,ArrowRight"":36,""ArrowDown,ArrowLeft"":15,""ArrowDown,ArrowRight"":23}","true","ArrowUp,ArrowRight","","","","","","","","",""
"html-keyboard-response","85","452680","0.0-3.0-13.0-4.0-1.1","spark_pilot_2","7332","4","12","Female","","","","","","","null","<div style=""font-size:60px;"">+</div>","null","fixation","","","","","","","","","","","","","",""
"revaluation","86","456709","0.0-3.0-13.0-4.0-0.2","spark_pilot_2","7332","4","12","Female","","false","","","","","[404.39999997615814]","./assets/img/space/animals/cat.jpg","[""ArrowRight""]","practice block","space","36","{""ArrowUp,ArrowLeft"":3,""ArrowUp,ArrowRight"":36,""ArrowDown,ArrowLeft"":15,""ArrowDown,ArrowRight"":23}","true","ArrowUp,ArrowRight","","","","","","","","",""
"html-keyboard-response","87","457226","0.0-3.0-13.0-4.0-1.2","spark_pilot_2","7332","4","12","Female","","","","","","","null","<div style=""font-size:60px;"">+</div>","null","fixation","","","","","","","","","","","","","",""
"revaluation","88","461249","0.0-3.0-13.0-4.0-0.3","spark_pilot_2","7332","4","12","Female","","false","","","","","[545.1000000238419]","./assets/img/space/animals/rabbit.jpg","[""ArrowRight""]","practice block","space","23","{""ArrowUp,ArrowLeft"":3,""ArrowUp,ArrowRight"":36,""ArrowDown,ArrowLeft"":15,""ArrowDown,ArrowRight"":23}","true","ArrowDown,ArrowRight","","","","","","","","",""
"html-keyboard-response","89","461760","0.0-3.0-13.0-4.0-1.3","spark_pilot_2","7332","4","12","Female","","","","","","","null","<div style=""font-size:60px;"">+</div>","null","fixation","","","","","","","","","","","","","",""
"learning-instructions","90","470141","0.0-3.0-13.0-5.0-0.0","spark_pilot_2","7332","4","12","Female","","","","","","","1000.8999999761581","<p> Time to play the dot game! </p>
            <p> For 15 seconds, click the red dots on the following screen as they appear. </p>","","instructions","","","","","","","","","","","","","",""
"revaluation","91","485145","0.0-3.0-13.0-6.0-0.0","spark_pilot_2","7332","4","12","Female","","","","","","","[113,136]","","","rest practice","","20","","","","","0","15000","","","","","",""
"learning-instructions","92","493466","0.0-3.0-13.0-7.0-0.0","spark_pilot_2","7332","4","12","Female","","","","","","","2185.6999999284744","<p> You have almost finished this part of the game! </p>
            <p> We are going to ask you to make a few more choices. </p>","","instructions","","","","","","","","","","","","","",""
"learning-instructions","93","509181","0.0-3.0-13.0-7.0-0.1","spark_pilot_2","7332","4","12","Female","","","","","","","1702","<p> First, you need to decide whether to go up or down. When you see each picture, use the arrow keys to make your choice. </p>
            <p><b>You will not see which animal you found, but try to get to the one that will give you the most treasure.</b></p>","","instructions","","","","","","","","","","","","","",""
"revaluation","94","511575","0.0-3.0-13.0-8.0","spark_pilot_2","7332","4","12","Female","","false","","","","","[2390.7999999523163]","./assets/img/space/15.jpg","[""ArrowUp""]","practice block","space","0","{""ArrowUp,ArrowLeft"":3,""ArrowUp,ArrowRight"":36,""ArrowDown,ArrowLeft"":15,""ArrowDown,ArrowRight"":23}","true","ArrowUp","false","","","","","","","",""
"html-keyboard-response","95","512083","0.0-3.0-13.0-9.0","spark_pilot_2","7332","4","12","Female","","","","","","","null","<div style=""font-size:60px;"">+</div>","null","fixation","","","","","","","","","","","","","",""
"learning-instructions","96","525151","0.0-3.0-13.0-10.0-0.0","spark_pilot_2","7332","4","12","Female","","","","","","","1691","<p> Now you will see the animals again and can search their chests for treasure. </p>
            <p> This time, you will not see how much treasure you earned, but you will earn more bonus money for making better choices. </p>","","instructions","","","","","","","","","","","","","",""
"revaluation","97","525916","0.0-3.0-13.0-11.0-0.0","spark_pilot_2","7332","4","12","Female","","false","","","","","[761.5]","./assets/img/space/animals/cat.jpg","[""ArrowRight""]","practice block","space","0","{""ArrowUp,ArrowLeft"":3,""ArrowUp,ArrowRight"":36,""ArrowDown,ArrowLeft"":15,""ArrowDown,ArrowRight"":23}","true","ArrowUp,ArrowRight","","","","","","","","",""
"html-keyboard-response","98","526421","0.0-3.0-13.0-11.0-1.0","spark_pilot_2","7332","4","12","Female","","","","","","","null","<div style=""font-size:60px;"">+</div>","null","fixation","","","","","","","","","","","","","",""
"revaluation","99","527005","0.0-3.0-13.0-11.0-0.1","spark_pilot_2","7332","4","12","Female","","false","","","","","[572.5]","./assets/img/space/animals/rabbit.jpg","[""ArrowRight""]","practice block","space","0","{""ArrowUp,ArrowLeft"":3,""ArrowUp,ArrowRight"":36,""ArrowDown,ArrowLeft"":15,""ArrowDown,ArrowRight"":23}","true","ArrowDown,ArrowRight","","","","","","","","",""
"html-keyboard-response","100","527514","0.0-3.0-13.0-11.0-1.1","spark_pilot_2","7332","4","12","Female","","","","","","","null","<div style=""font-size:60px;"">+</div>","null","fixation","","","","","","","","","","","","","",""
"learning-instructions","101","537632","0.0-3.0-14.0-0.0","spark_pilot_2","7332","4","12","Female","","","","","","","5532.900000095367","<p> Before you start, we're going to ask you a few questions about how the game works. </p>","","instructions","","","","","","","","","","","","","",""
"comp-q","102","544727","0.0-3.0-15.0-0.0-0.0","spark_pilot_2","7332","4","12","Female","","","","","","","1502.4000000953674","<p> <b> True or False? </b> </p>
            <p> There can be 50 pieces of treasure in a given animal's chest. </p>","1","comp_question","","","","true","","","","","","","","","",""
"comp-q","103","552873","0.0-3.0-15.0-0.0-1.0","spark_pilot_2","7332","4","12","Female","","","","","","","1493.6000000238419","<p> <b> That's right! </b> The amount of treasure in each chest can range from 0 to 40 pieces. </p>","0","comp_answer","","","","","","","","","","","","","",""
"comp-q","104","561107","0.0-3.0-15.0-0.1-0.1","spark_pilot_2","7332","4","12","Female","","","","","","","1106","<p> <b> True or False? </b> </p><p> In this game, all animals have the same amount of treasure in their left and right chests. </p>","1","comp_question","","","","true","","","","","","","","","",""
"comp-q","105","567982","0.0-3.0-15.0-0.1-1.1","spark_pilot_2","7332","4","12","Female","","","","","","","1643.6000000238419","<p> <b> That's right! </b> Animals have different amounts of treasure in their treasure chests. </p>","0","comp_answer","","","","","","","","","","","","","",""
"comp-q","106","575085","0.0-3.0-15.0-0.2-0.2","spark_pilot_2","7332","4","12","Female","","","","","","","1245.8999999761581","<p> <b> True or False? </b> </p><p> The same animal will always be there if you go up in the same place. </p>","1","comp_question","","","","false","","","","","","","","","",""
"comp-q","107","582910","0.0-3.0-15.0-0.2-1.2","spark_pilot_2","7332","4","12","Female","","","","","","","1520.5999999046326","<p> <b>Incorrect.</b> One animal lives in the upper part and one lives in the lower part of every place. </p>","0","comp_answer","","","","","","","","","","","","","",""
"comp-q","108","589906","0.0-3.0-15.0-0.3-0.3","spark_pilot_2","7332","4","12","Female","","","","","","","1177.6000000238419","<p> <b> True or False? </b> </p><p> The same animal will always be there if you go up in the same place. </p>","0","comp_question","","","","true","","","","","","","","","",""
"comp-q","109","597784","0.0-3.0-15.0-0.3-1.3","spark_pilot_2","7332","4","12","Female","","","","","","","1425.4000000953674","<p> <b> That's right! </b> One animal lives in the upper part and one lives in the lower part of every place. </p>","0","comp_answer","","","","","","","","","","","","","",""
"comp-q","110","606171","0.0-3.0-15.0-0.4-0.4","spark_pilot_2","7332","4","12","Female","","","","","","","2853.2000000476837","<p> <b> True or False? </b> </p><p> If you see a different picture, it means you are in a new place. </p>","0","comp_question","","","","false","","","","","","","","","",""
"comp-q","111","619704","0.0-3.0-15.0-0.4-1.4","spark_pilot_2","7332","4","12","Female","","","","","","","2045.3999999761581","<p> <b>Incorrect.</b> Lots of different images may show the same place. For example,  you may see three different images that all remind you that you are in outer space. </p>","0","comp_answer","","","","","","","","","","","","","",""
"comp-q","112","626065","0.0-3.0-15.0-0.5-0.5","spark_pilot_2","7332","4","12","Female","","","","","","","856.8000000715256","<p> <b> True or False? </b> </p><p> If you see a different picture, it means you are in a new place. </p>","1","comp_question","","","","true","","","","","","","","","",""
"comp-q","113","639916","0.0-3.0-15.0-0.5-1.5","spark_pilot_2","7332","4","12","Female","","","","","","","2616.399999976158","<p> <b> That's right! </b> Lots of different images may show the same place. For example,  you may see three different images that all remind you that you are in outer space. </p>","0","comp_answer","","","","","","","","","","","","","",""
"learning-instructions","114","651499","0.0-3.0-16.0-0.0","spark_pilot_2","7332","4","12","Female","","","","","","","1729.3999999761581","<p> Good job. Remember to do your best because the amount of treasure you earn will be converted into bonus money. </p>
            <p> It’s time to start the real game! </p>","","instructions","","","","","","","","","","","","","",""
"learning-instructions","115","655533","0.0-4.0-0.0-0.0","spark_pilot_2","7332","4","12","Female","","","","","","","1322.7000000476837","<p> This time you are searching for treasure in the <b>ocean</b>.</p>","","instructions","","","","","","","","","","","","","",""
"learning-instructions","116","702781","0.0-4.0-0.0-0.1","spark_pilot_2","7332","4","12","Female","","","","","","","29940.600000023842","<p><b>New</b> animals with <b>new</b> treasure chests live here. You need to explore to discover where the animal with the best treasure chest is.</p>
                    <p> Like before, once you figure out which animal has the chest with the most treasure, you should try to get to that animal and select that chest! </p>","","instructions","","","","","","","","","","","","","",""
"learning-instructions","117","718560","0.0-4.0-1.0-0.0","spark_pilot_2","7332","4","12","Female","","","","","","","1038.2999999523163","<p> Remember, when you see a picture of the place, use the up and down keys to <b>find an animal</b>.</p>
            <p> When you encounter an animal, you should use the left and right keys to <b>select a treasure chest</b>.</p>
            <p> Don't forget to look out for the robber! </p>","","instructions","","","","","","","","","","","","","",""
"revaluation","118","724597","0.0-4.0-2.0-0.0","spark_pilot_2","7332","4","12","Female","","false","","","","","[1214.5,695.8999999761581]","./assets/img/ocean/memory/14.jpg","[""ArrowUp"",""ArrowRight""]","value training","ocean","10","{""ArrowUp,ArrowLeft"":26,""ArrowUp,ArrowRight"":10,""ArrowDown,ArrowLeft"":5,""ArrowDown,ArrowRight"":17}","false","ArrowUp,ArrowRight","false","","","revaluation","1","0","","",""
"html-keyboard-response","119","725114","0.0-4.0-2.0-1.0","spark_pilot_2","7332","4","12","Female","","","","","","","null","<div style=""font-size:60px;"">+</div>","null","fixation","","","","","","","","","","","1","","",""
"revaluation","120","731143","0.0-4.0-2.0-0.1","spark_pilot_2","7332","4","12","Female","","false","","","","","[674.5,498.89999997615814]","./assets/img/ocean/memory/24.jpg","[""ArrowUp"",""ArrowLeft""]","value training","ocean","26","{""ArrowUp,ArrowLeft"":26,""ArrowUp,ArrowRight"":10,""ArrowDown,ArrowLeft"":5,""ArrowDown,ArrowRight"":17}","true","ArrowUp,ArrowLeft","false","","","revaluation","1","2","","",""
"html-keyboard-response","121","731650","0.0-4.0-2.0-1.1","spark_pilot_2","7332","4","12","Female","","","","","","","null","<div style=""font-size:60px;"">+</div>","null","fixation","","","","","","","","","","","3","","",""
"revaluation","122","737684","0.0-4.0-2.0-0.2","spark_pilot_2","7332","4","12","Female","","false","","","","","[520.7000000476837,332]","./assets/img/ocean/memory/3.jpg","[""ArrowUp"",""ArrowRight""]","value training","ocean","10","{""ArrowUp,ArrowLeft"":26,""ArrowUp,ArrowRight"":10,""ArrowDown,ArrowLeft"":5,""ArrowDown,ArrowRight"":17}","false","ArrowUp,ArrowRight","false","","","revaluation","1","4","","",""
"html-keyboard-response","123","738195","0.0-4.0-2.0-1.2","spark_pilot_2","7332","4","12","Female","","","","","","","null","<div style=""font-size:60px;"">+</div>","null","fixation","","","","","","","","","","","5","","",""
"revaluation","124","742215","0.0-4.0-2.0-0.3","spark_pilot_2","7332","4","12","Female","","false","","","","","[473.2000000476837]","./assets/img/ocean/catch/5.jpg","[""ArrowUp""]","value training","ocean","-10","{""ArrowUp,ArrowLeft"":26,""ArrowUp,ArrowRight"":10,""ArrowDown,ArrowLeft"":5,""ArrowDown,ArrowRight"":17}","false","ArrowUp","true","","","revaluation","1","6","","",""
"html-keyboard-response","125","742731","0.0-4.0-2.0-1.3","spark_pilot_2","7332","4","12","Female","","","","","","","null","<div style=""font-size:60px;"">+</div>","null","fixation","","","","","","","","","","","7","","",""
"revaluation","126","748746","0.0-4.0-2.0-0.4","spark_pilot_2","7332","4","12","Female","","false","","","","","[365.89999997615814,500.2999999523163]","./assets/img/ocean/memory/0.jpg","[""ArrowUp"",""ArrowRight""]","value training","ocean","10","{""ArrowUp,ArrowLeft"":26,""ArrowUp,ArrowRight"":10,""ArrowDown,ArrowLeft"":5,""ArrowDown,ArrowRight"":17}","false","ArrowUp,ArrowRight","false","","","revaluation","1","8","","",""
"html-keyboard-response","127","749255","0.0-4.0-2.0-1.4","spark_pilot_2","7332","4","12","Female","","","","","","","null","<div style=""font-size:60px;"">+</div>","null","fixation","","","","","","","","","","","9","","",""
"revaluation","128","753275","0.0-4.0-2.0-0.5","spark_pilot_2","7332","4","12","Female","","false","","","","","[815.5]","./assets/img/ocean/catch/4.jpg","[""ArrowUp""]","value training","ocean","-10","{""ArrowUp,ArrowLeft"":26,""ArrowUp,ArrowRight"":10,""ArrowDown,ArrowLeft"":5,""ArrowDown,ArrowRight"":17}","false","ArrowUp","true","","","revaluation","1","10","","",""
"html-keyboard-response","129","753781","0.0-4.0-2.0-1.5","spark_pilot_2","7332","4","12","Female","","","","","","","null","<div style=""font-size:60px;"">+</div>","null","fixation","","","","","","","","","","","11","","",""
"revaluation","130","759798","0.0-4.0-2.0-0.6","spark_pilot_2","7332","4","12","Female","","false","","","","","[472.60000002384186,457.7000000476837]","./assets/img/ocean/memory/6.jpg","[""ArrowUp"",""ArrowRight""]","value training","ocean","10","{""ArrowUp,ArrowLeft"":26,""ArrowUp,ArrowRight"":10,""ArrowDown,ArrowLeft"":5,""ArrowDown,ArrowRight"":17}","false","ArrowUp,ArrowRight","false","","","revaluation","1","12","","",""
"html-keyboard-response","131","760303","0.0-4.0-2.0-1.6","spark_pilot_2","7332","4","12","Female","","","","","","","null","<div style=""font-size:60px;"">+</div>","null","fixation","","","","","","","","","","","13","","",""
"revaluation","132","766323","0.0-4.0-2.0-0.7","spark_pilot_2","7332","4","12","Female","","false","","","","","[814.3999999761581,446.5]","./assets/img/ocean/memory/6.jpg","[""ArrowUp"",""ArrowRight""]","value training","ocean","10","{""ArrowUp,ArrowLeft"":26,""ArrowUp,ArrowRight"":10,""ArrowDown,ArrowLeft"":5,""ArrowDown,ArrowRight"":17}","false","ArrowUp,ArrowRight","false","","","revaluation","1","14","","",""
"html-keyboard-response","133","766831","0.0-4.0-2.0-1.7","spark_pilot_2","7332","4","12","Female","","","","","","","null","<div style=""font-size:60px;"">+</div>","null","fixation","","","","","","","","","","","15","","",""
"revaluation","134","772852","0.0-4.0-2.0-0.8","spark_pilot_2","7332","4","12","Female","","false","","","","","[557.2000000476837,346.89999997615814]","./assets/img/ocean/memory/32.jpg","[""ArrowUp"",""ArrowLeft""]","value training","ocean","26","{""ArrowUp,ArrowLeft"":26,""ArrowUp,ArrowRight"":10,""ArrowDown,ArrowLeft"":5,""ArrowDown,ArrowRight"":17}","true","ArrowUp,ArrowLeft","false","","","revaluation","1","16","","",""
"html-keyboard-response","135","773361","0.0-4.0-2.0-1.8","spark_pilot_2","7332","4","12","Female","","","","","","","null","<div style=""font-size:60px;"">+</div>","null","fixation","","","","","","","","","","","17","","",""
"revaluation","136","777373","0.0-4.0-2.0-0.9","spark_pilot_2","7332","4","12","Female","","false","","","","","[606.8999999761581]","./assets/img/ocean/catch/0.jpg","[""spaceBar""]","value training","ocean","0","{""ArrowUp,ArrowLeft"":26,""ArrowUp,ArrowRight"":10,""ArrowDown,ArrowLeft"":5,""ArrowDown,ArrowRight"":17}","true","spaceBar","true","","","revaluation","1","18","","",""
"html-keyboard-response","137","777880","0.0-4.0-2.0-1.9","spark_pilot_2","7332","4","12","Female","","","","","","","null","<div style=""font-size:60px;"">+</div>","null","fixation","","","","","","","","","","","19","","",""
"revaluation","138","783902","0.0-4.0-2.0-0.10","spark_pilot_2","7332","4","12","Female","","false","","","","","[527.3999999761581,379.8000000715256]","./assets/img/ocean/memory/38.jpg","[""ArrowUp"",""ArrowRight""]","value training","ocean","10","{""ArrowUp,ArrowLeft"":26,""ArrowUp,ArrowRight"":10,""ArrowDown,ArrowLeft"":5,""ArrowDown,ArrowRight"":17}","false","ArrowUp,ArrowRight","false","","","revaluation","1","20","","",""
"html-keyboard-response","139","784406","0.0-4.0-2.0-1.10","spark_pilot_2","7332","4","12","Female","","","","","","","null","<div style=""font-size:60px;"">+</div>","null","fixation","","","","","","","","","","","21","","",""
"revaluation","140","790427","0.0-4.0-2.0-0.11","spark_pilot_2","7332","4","12","Female","","false","","","","","[805.5,466.89999997615814]","./assets/img/ocean/memory/4.jpg","[""ArrowUp"",""ArrowRight""]","value training","ocean","10","{""ArrowUp,ArrowLeft"":26,""ArrowUp,ArrowRight"":10,""ArrowDown,ArrowLeft"":5,""ArrowDown,ArrowRight"":17}","false","ArrowUp,ArrowRight","false","","","revaluation","1","22","","",""
"html-keyboard-response","141","790935","0.0-4.0-2.0-1.11","spark_pilot_2","7332","4","12","Female","","","","","","","null","<div style=""font-size:60px;"">+</div>","null","fixation","","","","","","","","","","","23","","",""
"revaluation","142","796957","0.0-4.0-2.0-0.12","spark_pilot_2","7332","4","12","Female","","false","","","","","[895.6000000238419,467.39999997615814]","./assets/img/ocean/memory/24.jpg","[""ArrowUp"",""ArrowLeft""]","value training","ocean","26","{""ArrowUp,ArrowLeft"":26,""ArrowUp,ArrowRight"":10,""ArrowDown,ArrowLeft"":5,""ArrowDown,ArrowRight"":17}","true","ArrowUp,ArrowLeft","false","","","revaluation","1","24","","",""
"html-keyboard-response","143","797461","0.0-4.0-2.0-1.12","spark_pilot_2","7332","4","12","Female","","","","","","","null","<div style=""font-size:60px;"">+</div>","null","fixation","","","","","","","","","","","25","","",""
"revaluation","144","803490","0.0-4.0-2.0-0.13","spark_pilot_2","7332","4","12","Female","","false","","","","","[872.8000000715256,416.40000009536743]","./assets/img/ocean/memory/0.jpg","[""ArrowUp"",""ArrowLeft""]","value training","ocean","26","{""ArrowUp,ArrowLeft"":26,""ArrowUp,ArrowRight"":10,""ArrowDown,ArrowLeft"":5,""ArrowDown,ArrowRight"":17}","true","ArrowUp,ArrowLeft","false","","","revaluation","1","26","","",""
"html-keyboard-response","145","804003","0.0-4.0-2.0-1.13","spark_pilot_2","7332","4","12","Female","","","","","","","null","<div style=""font-size:60px;"">+</div>","null","fixation","","","","","","","","","","","27","","",""
"revaluation","146","810021","0.0-4.0-2.0-0.14","spark_pilot_2","7332","4","12","Female","","false","","","","","[554.8999999761581,474.89999997615814]","./assets/img/ocean/memory/28.jpg","[""ArrowUp"",""ArrowLeft""]","value training","ocean","26","{""ArrowUp,ArrowLeft"":26,""ArrowUp,ArrowRight"":10,""ArrowDown,ArrowLeft"":5,""ArrowDown,ArrowRight"":17}","true","ArrowUp,ArrowLeft","false","","","revaluation","1","28","","",""
"html-keyboard-response","147","810525","0.0-4.0-2.0-1.14","spark_pilot_2","7332","4","12","Female","","","","","","","null","<div style=""font-size:60px;"">+</div>","null","fixation","","","","","","","","","","","29","","",""
"revaluation","148","816542","0.0-4.0-2.0-0.15","spark_pilot_2","7332","4","12","Female","","false","","","","","[693.1999999284744,339.59999990463257]","./assets/img/ocean/memory/18.jpg","[""ArrowDown"",""ArrowLeft""]","value training","ocean","5","{""ArrowUp,ArrowLeft"":26,""ArrowUp,ArrowRight"":10,""ArrowDown,ArrowLeft"":5,""ArrowDown,ArrowRight"":17}","false","ArrowDown,ArrowLeft","false","","","revaluation","1","30","","",""
"html-keyboard-response","149","817047","0.0-4.0-2.0-1.15","spark_pilot_2","7332","4","12","Female","","","","","","","null","<div style=""font-size:60px;"">+</div>","null","fixation","","","","","","","","","","","31","","",""
"revaluation","150","821073","0.0-4.0-2.0-0.16","spark_pilot_2","7332","4","12","Female","","false","","","","","[601.0999999046326]","./assets/img/ocean/catch/3.jpg","[""spaceBar""]","value training","ocean","0","{""ArrowUp,ArrowLeft"":26,""ArrowUp,ArrowRight"":10,""ArrowDown,ArrowLeft"":5,""ArrowDown,ArrowRight"":17}","true","spaceBar","true","","","revaluation","1","32","","",""
"html-keyboard-response","151","821575","0.0-4.0-2.0-1.16","spark_pilot_2","7332","4","12","Female","","","","","","","null","<div style=""font-size:60px;"">+</div>","null","fixation","","","","","","","","","","","33","","",""
"revaluation","152","827597","0.0-4.0-2.0-0.17","spark_pilot_2","7332","4","12","Female","","false","","","","","[418.60000002384186,589.8999999761581]","./assets/img/ocean/memory/39.jpg","[""ArrowUp"",""ArrowLeft""]","value training","ocean","26","{""ArrowUp,ArrowLeft"":26,""ArrowUp,ArrowRight"":10,""ArrowDown,ArrowLeft"":5,""ArrowDown,ArrowRight"":17}","true","ArrowUp,ArrowLeft","false","","","revaluation","1","34","","",""
"html-keyboard-response","153","828101","0.0-4.0-2.0-1.17","spark_pilot_2","7332","4","12","Female","","","","","","","null","<div style=""font-size:60px;"">+</div>","null","fixation","","","","","","","","","","","35","","",""
"revaluation","154","834121","0.0-4.0-2.0-0.18","spark_pilot_2","7332","4","12","Female","","false","","","","","[741.6000000238419,405.60000002384186]","./assets/img/ocean/memory/32.jpg","[""ArrowUp"",""ArrowLeft""]","value training","ocean","26","{""ArrowUp,ArrowLeft"":26,""ArrowUp,ArrowRight"":10,""ArrowDown,ArrowLeft"":5,""ArrowDown,ArrowRight"":17}","true","ArrowUp,ArrowLeft","false","","","revaluation","1","36","","",""
"html-keyboard-response","155","834624","0.0-4.0-2.0-1.18","spark_pilot_2","7332","4","12","Female","","","","","","","null","<div style=""font-size:60px;"">+</div>","null","fixation","","","","","","","","","","","37","","",""
"revaluation","156","838634","0.0-4.0-2.0-0.19","spark_pilot_2","7332","4","12","Female","","false","","","","","[889.5]","./assets/img/ocean/catch/1.jpg","[""spaceBar""]","value training","ocean","0","{""ArrowUp,ArrowLeft"":26,""ArrowUp,ArrowRight"":10,""ArrowDown,ArrowLeft"":5,""ArrowDown,ArrowRight"":17}","true","spaceBar","true","","","revaluation","1","38","","",""
"html-keyboard-response","157","839143","0.0-4.0-2.0-1.19","spark_pilot_2","7332","4","12","Female","","","","","","","null","<div style=""font-size:60px;"">+</div>","null","fixation","","","","","","","","","","","39","","",""
"revaluation","158","843159","0.0-4.0-2.0-0.20","spark_pilot_2","7332","4","12","Female","","false","","","","","[671.8999999761581]","./assets/img/ocean/catch/2.jpg","[""spaceBar""]","value training","ocean","0","{""ArrowUp,ArrowLeft"":26,""ArrowUp,ArrowRight"":10,""ArrowDown,ArrowLeft"":5,""ArrowDown,ArrowRight"":17}","true","spaceBar","true","","","revaluation","1","40","","",""
"html-keyboard-response","159","843664","0.0-4.0-2.0-1.20","spark_pilot_2","7332","4","12","Female","","","","","","","null","<div style=""font-size:60px;"">+</div>","null","fixation","","","","","","","","","","","41","","",""
"revaluation","160","849681","0.0-4.0-2.0-0.21","spark_pilot_2","7332","4","12","Female","","false","","","","","[513.2999999523163,432.7999999523163]","./assets/img/ocean/memory/28.jpg","[""ArrowUp"",""ArrowLeft""]","value training","ocean","26","{""ArrowUp,ArrowLeft"":26,""ArrowUp,ArrowRight"":10,""ArrowDown,ArrowLeft"":5,""ArrowDown,ArrowRight"":17}","true","ArrowUp,ArrowLeft","false","","","revaluation","1","42","","",""
"html-keyboard-response","161","850184","0.0-4.0-2.0-1.21","spark_pilot_2","7332","4","12","Female","","","","","","","null","<div style=""font-size:60px;"">+</div>","null","fixation","","","","","","","","","","","43","","",""
"revaluation","162","856205","0.0-4.0-2.0-0.22","spark_pilot_2","7332","4","12","Female","","false","","","","","[729.8000000715256,567.2999999523163]","./assets/img/ocean/memory/21.jpg","[""ArrowUp"",""ArrowLeft""]","value training","ocean","26","{""ArrowUp,ArrowLeft"":26,""ArrowUp,ArrowRight"":10,""ArrowDown,ArrowLeft"":5,""ArrowDown,ArrowRight"":17}","true","ArrowUp,ArrowLeft","false","","","revaluation","1","44","","",""
"html-keyboard-response","163","856712","0.0-4.0-2.0-1.22","spark_pilot_2","7332","4","12","Female","","","","","","","null","<div style=""font-size:60px;"">+</div>","null","fixation","","","","","","","","","","","45","","",""
"revaluation","164","862730","0.0-4.0-2.0-0.23","spark_pilot_2","7332","4","12","Female","","false","","","","","[839.7999999523163,511.7999999523163]","./assets/img/ocean/memory/21.jpg","[""ArrowUp"",""ArrowRight""]","value training","ocean","10","{""ArrowUp,ArrowLeft"":26,""ArrowUp,ArrowRight"":10,""ArrowDown,ArrowLeft"":5,""ArrowDown,ArrowRight"":17}","false","ArrowUp,ArrowRight","false","","","revaluation","1","46","","",""
"html-keyboard-response","165","863233","0.0-4.0-2.0-1.23","spark_pilot_2","7332","4","12","Female","","","","","","","null","<div style=""font-size:60px;"">+</div>","null","fixation","","","","","","","","","","","47","","",""
"revaluation","166","869251","0.0-4.0-2.0-0.24","spark_pilot_2","7332","4","12","Female","","false","","","","","[666.6000000238419,399.2000000476837]","./assets/img/ocean/memory/34.jpg","[""ArrowUp"",""ArrowLeft""]","value training","ocean","26","{""ArrowUp,ArrowLeft"":26,""ArrowUp,ArrowRight"":10,""ArrowDown,ArrowLeft"":5,""ArrowDown,ArrowRight"":17}","true","ArrowUp,ArrowLeft","false","","","revaluation","1","48","","",""
"html-keyboard-response","167","869761","0.0-4.0-2.0-1.24","spark_pilot_2","7332","4","12","Female","","","","","","","null","<div style=""font-size:60px;"">+</div>","null","fixation","","","","","","","","","","","49","","",""
"revaluation","168","875781","0.0-4.0-2.0-0.25","spark_pilot_2","7332","4","12","Female","","false","","","","","[633.1000000238419,431.89999997615814]","./assets/img/ocean/memory/9.jpg","[""ArrowUp"",""ArrowLeft""]","value training","ocean","26","{""ArrowUp,ArrowLeft"":26,""ArrowUp,ArrowRight"":10,""ArrowDown,ArrowLeft"":5,""ArrowDown,ArrowRight"":17}","true","ArrowUp,ArrowLeft","false","","","revaluation","1","50","","",""
"html-keyboard-response","169","876296","0.0-4.0-2.0-1.25","spark_pilot_2","7332","4","12","Female","","","","","","","null","<div style=""font-size:60px;"">+</div>","null","fixation","","","","","","","","","","","51","","",""
"revaluation","170","882314","0.0-4.0-2.0-0.26","spark_pilot_2","7332","4","12","Female","","false","","","","","[713.6000000238419,310.39999997615814]","./assets/img/ocean/memory/15.jpg","[""ArrowUp"",""ArrowLeft""]","value training","ocean","26","{""ArrowUp,ArrowLeft"":26,""ArrowUp,ArrowRight"":10,""ArrowDown,ArrowLeft"":5,""ArrowDown,ArrowRight"":17}","true","ArrowUp,ArrowLeft","false","","","revaluation","1","52","","",""
"html-keyboard-response","171","882820","0.0-4.0-2.0-1.26","spark_pilot_2","7332","4","12","Female","","","","","","","null","<div style=""font-size:60px;"">+</div>","null","fixation","","","","","","","","","","","53","","",""
"revaluation","172","888855","0.0-4.0-2.0-0.27","spark_pilot_2","7332","4","12","Female","","false","","","","","[599,369.39999997615814]","./assets/img/ocean/memory/2.jpg","[""ArrowUp"",""ArrowLeft""]","value training","ocean","26","{""ArrowUp,ArrowLeft"":26,""ArrowUp,ArrowRight"":10,""ArrowDown,ArrowLeft"":5,""ArrowDown,ArrowRight"":17}","true","ArrowUp,ArrowLeft","false","","","revaluation","1","54","","",""
"html-keyboard-response","173","889365","0.0-4.0-2.0-1.27","spark_pilot_2","7332","4","12","Female","","","","","","","null","<div style=""font-size:60px;"">+</div>","null","fixation","","","","","","","","","","","55","","",""
"revaluation","174","895378","0.0-4.0-2.0-0.28","spark_pilot_2","7332","4","12","Female","","false","","","","","[1170.2000000476837,693.3999999761581]","./assets/img/ocean/memory/20.jpg","[""ArrowUp"",""ArrowLeft""]","value training","ocean","26","{""ArrowUp,ArrowLeft"":26,""ArrowUp,ArrowRight"":10,""ArrowDown,ArrowLeft"":5,""ArrowDown,ArrowRight"":17}","true","ArrowUp,ArrowLeft","false","","","revaluation","1","56","","",""
"html-keyboard-response","175","895884","0.0-4.0-2.0-1.28","spark_pilot_2","7332","4","12","Female","","","","","","","null","<div style=""font-size:60px;"">+</div>","null","fixation","","","","","","","","","","","57","","",""
"revaluation","176","901906","0.0-4.0-2.0-0.29","spark_pilot_2","7332","4","12","Female","","false","","","","","[462.2000000476837,493.60000002384186]","./assets/img/ocean/memory/16.jpg","[""ArrowUp"",""ArrowLeft""]","value training","ocean","26","{""ArrowUp,ArrowLeft"":26,""ArrowUp,ArrowRight"":10,""ArrowDown,ArrowLeft"":5,""ArrowDown,ArrowRight"":17}","true","ArrowUp,ArrowLeft","false","","","revaluation","1","58","","",""
"html-keyboard-response","177","902413","0.0-4.0-2.0-1.29","spark_pilot_2","7332","4","12","Female","","","","","","","null","<div style=""font-size:60px;"">+</div>","null","fixation","","","","","","","","","","","59","","",""
"revaluation","178","908445","0.0-4.0-2.0-0.30","spark_pilot_2","7332","4","12","Female","","false","","","","","[434.60000002384186,470.5]","./assets/img/ocean/memory/18.jpg","[""ArrowUp"",""ArrowLeft""]","value training","ocean","26","{""ArrowUp,ArrowLeft"":26,""ArrowUp,ArrowRight"":10,""ArrowDown,ArrowLeft"":5,""ArrowDown,ArrowRight"":17}","true","ArrowUp,ArrowLeft","false","","","revaluation","1","60","","",""
"html-keyboard-response","179","908947","0.0-4.0-2.0-1.30","spark_pilot_2","7332","4","12","Female","","","","","","","null","<div style=""font-size:60px;"">+</div>","null","fixation","","","","","","","","","","","61","","",""
"revaluation","180","914966","0.0-4.0-2.0-0.31","spark_pilot_2","7332","4","12","Female","","false","","","","","[783.3999999761581,167.60000002384186]","./assets/img/ocean/memory/8.jpg","[""ArrowUp"",""ArrowLeft""]","value training","ocean","26","{""ArrowUp,ArrowLeft"":26,""ArrowUp,ArrowRight"":10,""ArrowDown,ArrowLeft"":5,""ArrowDown,ArrowRight"":17}","true","ArrowUp,ArrowLeft","false","","","revaluation","1","62","","",""
"html-keyboard-response","181","915475","0.0-4.0-2.0-1.31","spark_pilot_2","7332","4","12","Female","","","","","","","null","<div style=""font-size:60px;"">+</div>","null","fixation","","","","","","","","","","","63","","",""
"revaluation","182","921491","0.0-4.0-2.0-0.32","spark_pilot_2","7332","4","12","Female","","false","","","","","[634.1000000238419,313.2000000476837]","./assets/img/ocean/memory/38.jpg","[""ArrowUp"",""ArrowLeft""]","value training","ocean","26","{""ArrowUp,ArrowLeft"":26,""ArrowUp,ArrowRight"":10,""ArrowDown,ArrowLeft"":5,""ArrowDown,ArrowRight"":17}","true","ArrowUp,ArrowLeft","false","","","revaluation","1","64","","",""
"html-keyboard-response","183","921994","0.0-4.0-2.0-1.32","spark_pilot_2","7332","4","12","Female","","","","","","","null","<div style=""font-size:60px;"">+</div>","null","fixation","","","","","","","","","","","65","","",""
"revaluation","184","928016","0.0-4.0-2.0-0.33","spark_pilot_2","7332","4","12","Female","","false","","","","","[528.2000000476837,535.6000000238419]","./assets/img/ocean/memory/13.jpg","[""ArrowUp"",""ArrowLeft""]","value training","ocean","26","{""ArrowUp,ArrowLeft"":26,""ArrowUp,ArrowRight"":10,""ArrowDown,ArrowLeft"":5,""ArrowDown,ArrowRight"":17}","true","ArrowUp,ArrowLeft","false","","","revaluation","1","66","","",""
"html-keyboard-response","185","928523","0.0-4.0-2.0-1.33","spark_pilot_2","7332","4","12","Female","","","","","","","null","<div style=""font-size:60px;"">+</div>","null","fixation","","","","","","","","","","","67","","",""
"revaluation","186","934548","0.0-4.0-2.0-0.34","spark_pilot_2","7332","4","12","Female","","false","","","","","[525.5,272.6999999284744]","./assets/img/ocean/memory/15.jpg","[""ArrowUp"",""ArrowLeft""]","value training","ocean","26","{""ArrowUp,ArrowLeft"":26,""ArrowUp,ArrowRight"":10,""ArrowDown,ArrowLeft"":5,""ArrowDown,ArrowRight"":17}","true","ArrowUp,ArrowLeft","false","","","revaluation","1","68","","",""
"html-keyboard-response","187","935057","0.0-4.0-2.0-1.34","spark_pilot_2","7332","4","12","Female","","","","","","","null","<div style=""font-size:60px;"">+</div>","null","fixation","","","","","","","","","","","69","","",""
"revaluation","188","941080","0.0-4.0-2.0-0.35","spark_pilot_2","7332","4","12","Female","","false","","","","","[421.60000002384186,276.2000000476837]","./assets/img/ocean/memory/2.jpg","[""ArrowUp"",""ArrowLeft""]","value training","ocean","26","{""ArrowUp,ArrowLeft"":26,""ArrowUp,ArrowRight"":10,""ArrowDown,ArrowLeft"":5,""ArrowDown,ArrowRight"":17}","true","ArrowUp,ArrowLeft","false","","","revaluation","1","70","","",""
"html-keyboard-response","189","941584","0.0-4.0-2.0-1.35","spark_pilot_2","7332","4","12","Female","","","","","","","null","<div style=""font-size:60px;"">+</div>","null","fixation","","","","","","","","","","","71","","",""
"revaluation","190","947608","0.0-4.0-2.0-0.36","spark_pilot_2","7332","4","12","Female","","false","","","","","[393.5,383.7000000476837]","./assets/img/ocean/memory/9.jpg","[""ArrowUp"",""ArrowLeft""]","value training","ocean","26","{""ArrowUp,ArrowLeft"":26,""ArrowUp,ArrowRight"":10,""ArrowDown,ArrowLeft"":5,""ArrowDown,ArrowRight"":17}","true","ArrowUp,ArrowLeft","false","","","revaluation","1","72","","",""
"html-keyboard-response","191","948112","0.0-4.0-2.0-1.36","spark_pilot_2","7332","4","12","Female","","","","","","","null","<div style=""font-size:60px;"">+</div>","null","fixation","","","","","","","","","","","73","","",""
"revaluation","192","954145","0.0-4.0-2.0-0.37","spark_pilot_2","7332","4","12","Female","","false","","","","","[420.5,134.69999992847443]","./assets/img/ocean/memory/39.jpg","[""ArrowUp"",""ArrowLeft""]","value training","ocean","26","{""ArrowUp,ArrowLeft"":26,""ArrowUp,ArrowRight"":10,""ArrowDown,ArrowLeft"":5,""ArrowDown,ArrowRight"":17}","true","ArrowUp,ArrowLeft","false","","","revaluation","1","74","","",""
"html-keyboard-response","193","954652","0.0-4.0-2.0-1.37","spark_pilot_2","7332","4","12","Female","","","","","","","null","<div style=""font-size:60px;"">+</div>","null","fixation","","","","","","","","","","","75","","",""
"revaluation","194","960678","0.0-4.0-2.0-0.38","spark_pilot_2","7332","4","12","Female","","false","","","","","[506.60000002384186,339.7999999523163]","./assets/img/ocean/memory/4.jpg","[""ArrowUp"",""ArrowLeft""]","value training","ocean","26","{""ArrowUp,ArrowLeft"":26,""ArrowUp,ArrowRight"":10,""ArrowDown,ArrowLeft"":5,""ArrowDown,ArrowRight"":17}","true","ArrowUp,ArrowLeft","false","","","revaluation","1","76","","",""
"html-keyboard-response","195","961184","0.0-4.0-2.0-1.38","spark_pilot_2","7332","4","12","Female","","","","","","","null","<div style=""font-size:60px;"">+</div>","null","fixation","","","","","","","","","","","77","","",""
"revaluation","196","967204","0.0-4.0-2.0-0.39","spark_pilot_2","7332","4","12","Female","","false","","","","","[750.5,471.59999990463257]","./assets/img/ocean/memory/14.jpg","[""ArrowUp"",""ArrowLeft""]","value training","ocean","26","{""ArrowUp,ArrowLeft"":26,""ArrowUp,ArrowRight"":10,""ArrowDown,ArrowLeft"":5,""ArrowDown,ArrowRight"":17}","true","ArrowUp,ArrowLeft","false","","","revaluation","1","78","","",""
"html-keyboard-response","197","967711","0.0-4.0-2.0-1.39","spark_pilot_2","7332","4","12","Female","","","","","","","null","<div style=""font-size:60px;"">+</div>","null","fixation","","","","","","","","","","","79","","",""
"revaluation","198","973736","0.0-4.0-2.0-0.40","spark_pilot_2","7332","4","12","Female","","false","","","","","[690.0999999046326,536.8999999761581]","./assets/img/ocean/memory/35.jpg","[""ArrowUp"",""ArrowLeft""]","value training","ocean","26","{""ArrowUp,ArrowLeft"":26,""ArrowUp,ArrowRight"":10,""ArrowDown,ArrowLeft"":5,""ArrowDown,ArrowRight"":17}","true","ArrowUp,ArrowLeft","false","","","revaluation","1","80","","",""
"html-keyboard-response","199","974240","0.0-4.0-2.0-1.40","spark_pilot_2","7332","4","12","Female","","","","","","","null","<div style=""font-size:60px;"">+</div>","null","fixation","","","","","","","","","","","81","","",""
"revaluation","200","980260","0.0-4.0-2.0-0.41","spark_pilot_2","7332","4","12","Female","","false","","","","","[531.2999999523163,65.19999992847443]","./assets/img/ocean/memory/13.jpg","[""ArrowUp"",""ArrowLeft""]","value training","ocean","26","{""ArrowUp,ArrowLeft"":26,""ArrowUp,ArrowRight"":10,""ArrowDown,ArrowLeft"":5,""ArrowDown,ArrowRight"":17}","true","ArrowUp,ArrowLeft","false","","","revaluation","1","82","","",""
"html-keyboard-response","201","980765","0.0-4.0-2.0-1.41","spark_pilot_2","7332","4","12","Female","","","","","","","null","<div style=""font-size:60px;"">+</div>","null","fixation","","","","","","","","","","","83","","",""
"revaluation","202","984779","0.0-4.0-2.0-0.42","spark_pilot_2","7332","4","12","Female","","false","","","","","[1413.8000000715256]","./assets/img/ocean/catch/7.jpg","[""spaceBar""]","value training","ocean","0","{""ArrowUp,ArrowLeft"":26,""ArrowUp,ArrowRight"":10,""ArrowDown,ArrowLeft"":5,""ArrowDown,ArrowRight"":17}","true","spaceBar","true","","","revaluation","1","84","","",""
"html-keyboard-response","203","985282","0.0-4.0-2.0-1.42","spark_pilot_2","7332","4","12","Female","","","","","","","null","<div style=""font-size:60px;"">+</div>","null","fixation","","","","","","","","","","","85","","",""
"revaluation","204","991307","0.0-4.0-2.0-0.43","spark_pilot_2","7332","4","12","Female","","false","","","","","[485.3000000715256,515.6000000238419]","./assets/img/ocean/memory/8.jpg","[""ArrowUp"",""ArrowLeft""]","value training","ocean","26","{""ArrowUp,ArrowLeft"":26,""ArrowUp,ArrowRight"":10,""ArrowDown,ArrowLeft"":5,""ArrowDown,ArrowRight"":17}","true","ArrowUp,ArrowLeft","false","","","revaluation","1","86","","",""
"html-keyboard-response","205","991824","0.0-4.0-2.0-1.43","spark_pilot_2","7332","4","12","Female","","","","","","","null","<div style=""font-size:60px;"">+</div>","null","fixation","","","","","","","","","","","87","","",""
"revaluation","206","997842","0.0-4.0-2.0-0.44","spark_pilot_2","7332","4","12","Female","","false","","","","","[317.1999999284744,408.09999990463257]","./assets/img/ocean/memory/20.jpg","[""ArrowUp"",""ArrowLeft""]","value training","ocean","26","{""ArrowUp,ArrowLeft"":26,""ArrowUp,ArrowRight"":10,""ArrowDown,ArrowLeft"":5,""ArrowDown,ArrowRight"":17}","true","ArrowUp,ArrowLeft","false","","","revaluation","1","88","","",""
"html-keyboard-response","207","998346","0.0-4.0-2.0-1.44","spark_pilot_2","7332","4","12","Female","","","","","","","null","<div style=""font-size:60px;"">+</div>","null","fixation","","","","","","","","","","","89","","",""
"revaluation","208","1004371","0.0-4.0-2.0-0.45","spark_pilot_2","7332","4","12","Female","","false","","","","","[703.1000000238419,572.7000000476837]","./assets/img/ocean/memory/34.jpg","[""ArrowUp"",""ArrowLeft""]","value training","ocean","26","{""ArrowUp,ArrowLeft"":26,""ArrowUp,ArrowRight"":10,""ArrowDown,ArrowLeft"":5,""ArrowDown,ArrowRight"":17}","true","ArrowUp,ArrowLeft","false","","","revaluation","1","90","","",""
"html-keyboard-response","209","1004874","0.0-4.0-2.0-1.45","spark_pilot_2","7332","4","12","Female","","","","","","","null","<div style=""font-size:60px;"">+</div>","null","fixation","","","","","","","","","","","91","","",""
"revaluation","210","1010889","0.0-4.0-2.0-0.46","spark_pilot_2","7332","4","12","Female","","false","","","","","[661.1000000238419,317.8000000715256]","./assets/img/ocean/memory/35.jpg","[""ArrowUp"",""ArrowLeft""]","value training","ocean","26","{""ArrowUp,ArrowLeft"":26,""ArrowUp,ArrowRight"":10,""ArrowDown,ArrowLeft"":5,""ArrowDown,ArrowRight"":17}","true","ArrowUp,ArrowLeft","false","","","revaluation","1","92","","",""
"html-keyboard-response","211","1011398","0.0-4.0-2.0-1.46","spark_pilot_2","7332","4","12","Female","","","","","","","null","<div style=""font-size:60px;"">+</div>","null","fixation","","","","","","","","","","","93","","",""
"revaluation","212","1017418","0.0-4.0-2.0-0.47","spark_pilot_2","7332","4","12","Female","","false","","","","","[577.1000000238419,454.5]","./assets/img/ocean/memory/3.jpg","[""ArrowUp"",""ArrowLeft""]","value training","ocean","26","{""ArrowUp,ArrowLeft"":26,""ArrowUp,ArrowRight"":10,""ArrowDown,ArrowLeft"":5,""ArrowDown,ArrowRight"":17}","true","ArrowUp,ArrowLeft","false","","","revaluation","1","94","","",""
"html-keyboard-response","213","1017919","0.0-4.0-2.0-1.47","spark_pilot_2","7332","4","12","Female","","","","","","","null","<div style=""font-size:60px;"">+</div>","null","fixation","","","","","","","","","","","95","","",""
"revaluation","214","1023939","0.0-4.0-2.0-0.48","spark_pilot_2","7332","4","12","Female","","false","","","","","[727.6000000238419,381.7999999523163]","./assets/img/ocean/memory/16.jpg","[""ArrowUp"",""ArrowLeft""]","value training","ocean","26","{""ArrowUp,ArrowLeft"":26,""ArrowUp,ArrowRight"":10,""ArrowDown,ArrowLeft"":5,""ArrowDown,ArrowRight"":17}","true","ArrowUp,ArrowLeft","false","","","revaluation","1","96","","",""
"html-keyboard-response","215","1024443","0.0-4.0-2.0-1.48","spark_pilot_2","7332","4","12","Female","","","","","","","null","<div style=""font-size:60px;"">+</div>","null","fixation","","","","","","","","","","","97","","",""
"revaluation","216","1028471","0.0-4.0-2.0-0.49","spark_pilot_2","7332","4","12","Female","","false","","","","","[1363.3999999761581]","./assets/img/ocean/catch/6.jpg","[""spaceBar""]","value training","ocean","0","{""ArrowUp,ArrowLeft"":26,""ArrowUp,ArrowRight"":10,""ArrowDown,ArrowLeft"":5,""ArrowDown,ArrowRight"":17}","true","spaceBar","true","","","revaluation","1","98","","",""
"html-keyboard-response","217","1028974","0.0-4.0-2.0-1.49","spark_pilot_2","7332","4","12","Female","","","","","","","null","<div style=""font-size:60px;"">+</div>","null","fixation","","","","","","","","","","","99","","",""
"learning-instructions","218","1047256","0.0-4.0-3.0-0.0","spark_pilot_2","7332","4","12","Female","","","","","","","4720.799999952316","<p> Now, you will travel with a friend who will choose whether you go up or down first. </p>
            <p> On these turns, you will just see the animal that they found. You will still get to choose which chest to search for treasure.</p>","","instructions","","","","","","","","","","","","","",""
"revaluation","219","1051283","0.0-4.0-4.0-0.0","spark_pilot_2","7332","4","12","Female","","false","","","","","[1139.2000000476837]","./assets/img/ocean/animals/octopus.jpg","[""ArrowLeft""]","revaluation","ocean","2","{""ArrowUp,ArrowLeft"":2,""ArrowUp,ArrowRight"":11,""ArrowDown,ArrowLeft"":8,""ArrowDown,ArrowRight"":27}","false","ArrowUp,ArrowLeft","","","","revaluation","1","0","","",""
"html-keyboard-response","220","1051802","0.0-4.0-4.0-1.0","spark_pilot_2","7332","4","12","Female","","","","","","","null","<div style=""font-size:60px;"">+</div>","null","fixation","","","","","","","","","","","1","","",""
"revaluation","221","1055813","0.0-4.0-4.0-0.1","spark_pilot_2","7332","4","12","Female","","false","","","","","[413.40000009536743]","./assets/img/ocean/animals/seahorse.jpg","[""ArrowRight""]","revaluation","ocean","27","{""ArrowUp,ArrowLeft"":2,""ArrowUp,ArrowRight"":11,""ArrowDown,ArrowLeft"":8,""ArrowDown,ArrowRight"":27}","true","ArrowDown,ArrowRight","","","","revaluation","1","2","","",""
"html-keyboard-response","222","1056317","0.0-4.0-4.0-1.1","spark_pilot_2","7332","4","12","Female","","","","","","","null","<div style=""font-size:60px;"">+</div>","null","fixation","","","","","","","","","","","3","","",""
"revaluation","223","1060343","0.0-4.0-4.0-0.2","spark_pilot_2","7332","4","12","Female","","false","","","","","[548.6000000238419]","./assets/img/ocean/animals/octopus.jpg","[""ArrowRight""]","revaluation","ocean","11","{""ArrowUp,ArrowLeft"":2,""ArrowUp,ArrowRight"":11,""ArrowDown,ArrowLeft"":8,""ArrowDown,ArrowRight"":27}","true","ArrowUp,ArrowRight","","","","revaluation","1","4","","",""
"html-keyboard-response","224","1060864","0.0-4.0-4.0-1.2","spark_pilot_2","7332","4","12","Female","","","","","","","null","<div style=""font-size:60px;"">+</div>","null","fixation","","","","","","","","","","","5","","",""
"revaluation","225","1064882","0.0-4.0-4.0-0.3","spark_pilot_2","7332","4","12","Female","","false","","","","","[625.5]","./assets/img/ocean/animals/octopus.jpg","[""ArrowRight""]","revaluation","ocean","11","{""ArrowUp,ArrowLeft"":2,""ArrowUp,ArrowRight"":11,""ArrowDown,ArrowLeft"":8,""ArrowDown,ArrowRight"":27}","true","ArrowUp,ArrowRight","","","","revaluation","1","6","","",""
"html-keyboard-response","226","1065395","0.0-4.0-4.0-1.3","spark_pilot_2","7332","4","12","Female","","","","","","","null","<div style=""font-size:60px;"">+</div>","null","fixation","","","","","","","","","","","7","","",""
"revaluation","227","1069412","0.0-4.0-4.0-0.4","spark_pilot_2","7332","4","12","Female","","false","","","","","[1106.7999999523163]","./assets/img/ocean/animals/seahorse.jpg","[""ArrowRight""]","revaluation","ocean","27","{""ArrowUp,ArrowLeft"":2,""ArrowUp,ArrowRight"":11,""ArrowDown,ArrowLeft"":8,""ArrowDown,ArrowRight"":27}","true","ArrowDown,ArrowRight","","","","revaluation","1","8","","",""
"html-keyboard-response","228","1069921","0.0-4.0-4.0-1.4","spark_pilot_2","7332","4","12","Female","","","","","","","null","<div style=""font-size:60px;"">+</div>","null","fixation","","","","","","","","","","","9","","",""
"revaluation","229","1073934","0.0-4.0-4.0-0.5","spark_pilot_2","7332","4","12","Female","","false","","","","","[586.7000000476837]","./assets/img/ocean/animals/seahorse.jpg","[""ArrowRight""]","revaluation","ocean","27","{""ArrowUp,ArrowLeft"":2,""ArrowUp,ArrowRight"":11,""ArrowDown,ArrowLeft"":8,""ArrowDown,ArrowRight"":27}","true","ArrowDown,ArrowRight","","","","revaluation","1","10","","",""
"html-keyboard-response","230","1074444","0.0-4.0-4.0-1.5","spark_pilot_2","7332","4","12","Female","","","","","","","null","<div style=""font-size:60px;"">+</div>","null","fixation","","","","","","","","","","","11","","",""
"revaluation","231","1078471","0.0-4.0-4.0-0.6","spark_pilot_2","7332","4","12","Female","","false","","","","","[236.39999997615814]","./assets/img/ocean/animals/octopus.jpg","[""ArrowRight""]","revaluation","ocean","11","{""ArrowUp,ArrowLeft"":2,""ArrowUp,ArrowRight"":11,""ArrowDown,ArrowLeft"":8,""ArrowDown,ArrowRight"":27}","true","ArrowUp,ArrowRight","","","","revaluation","1","12","","",""
"html-keyboard-response","232","1078976","0.0-4.0-4.0-1.6","spark_pilot_2","7332","4","12","Female","","","","","","","null","<div style=""font-size:60px;"">+</div>","null","fixation","","","","","","","","","","","13","","",""
"revaluation","233","1082996","0.0-4.0-4.0-0.7","spark_pilot_2","7332","4","12","Female","","false","","","","","[526.6999999284744]","./assets/img/ocean/animals/seahorse.jpg","[""ArrowRight""]","revaluation","ocean","27","{""ArrowUp,ArrowLeft"":2,""ArrowUp,ArrowRight"":11,""ArrowDown,ArrowLeft"":8,""ArrowDown,ArrowRight"":27}","true","ArrowDown,ArrowRight","","","","revaluation","1","14","","",""
"html-keyboard-response","234","1083503","0.0-4.0-4.0-1.7","spark_pilot_2","7332","4","12","Female","","","","","","","null","<div style=""font-size:60px;"">+</div>","null","fixation","","","","","","","","","","","15","","",""
"revaluation","235","1087515","0.0-4.0-4.0-0.8","spark_pilot_2","7332","4","12","Female","","false","","","","","[424.1999999284744]","./assets/img/ocean/animals/octopus.jpg","[""ArrowRight""]","revaluation","ocean","11","{""ArrowUp,ArrowLeft"":2,""ArrowUp,ArrowRight"":11,""ArrowDown,ArrowLeft"":8,""ArrowDown,ArrowRight"":27}","true","ArrowUp,ArrowRight","","","","revaluation","1","16","","",""
"html-keyboard-response","236","1088018","0.0-4.0-4.0-1.8","spark_pilot_2","7332","4","12","Female","","","","","","","null","<div style=""font-size:60px;"">+</div>","null","fixation","","","","","","","","","","","17","","",""
"revaluation","237","1092034","0.0-4.0-4.0-0.9","spark_pilot_2","7332","4","12","Female","","false","","","","","[488]","./assets/img/ocean/animals/seahorse.jpg","[""ArrowRight""]","revaluation","ocean","27","{""ArrowUp,ArrowLeft"":2,""ArrowUp,ArrowRight"":11,""ArrowDown,ArrowLeft"":8,""ArrowDown,ArrowRight"":27}","true","ArrowDown,ArrowRight","","","","revaluation","1","18","","",""
"html-keyboard-response","238","1092536","0.0-4.0-4.0-1.9","spark_pilot_2","7332","4","12","Female","","","","","","","null","<div style=""font-size:60px;"">+</div>","null","fixation","","","","","","","","","","","19","","",""
"revaluation","239","1096553","0.0-4.0-4.0-0.10","spark_pilot_2","7332","4","12","Female","","false","","","","","[900]","./assets/img/ocean/animals/seahorse.jpg","[""ArrowRight""]","revaluation","ocean","27","{""ArrowUp,ArrowLeft"":2,""ArrowUp,ArrowRight"":11,""ArrowDown,ArrowLeft"":8,""ArrowDown,ArrowRight"":27}","true","ArrowDown,ArrowRight","","","","revaluation","1","20","","",""
"html-keyboard-response","240","1097061","0.0-4.0-4.0-1.10","spark_pilot_2","7332","4","12","Female","","","","","","","null","<div style=""font-size:60px;"">+</div>","null","fixation","","","","","","","","","","","21","","",""
"revaluation","241","1101071","0.0-4.0-4.0-0.11","spark_pilot_2","7332","4","12","Female","","false","","","","","[929.7999999523163]","./assets/img/ocean/animals/octopus.jpg","[""ArrowRight""]","revaluation","ocean","11","{""ArrowUp,ArrowLeft"":2,""ArrowUp,ArrowRight"":11,""ArrowDown,ArrowLeft"":8,""ArrowDown,ArrowRight"":27}","true","ArrowUp,ArrowRight","","","","revaluation","1","22","","",""
"html-keyboard-response","242","1101581","0.0-4.0-4.0-1.11","spark_pilot_2","7332","4","12","Female","","","","","","","null","<div style=""font-size:60px;"">+</div>","null","fixation","","","","","","","","","","","23","","",""
"revaluation","243","1105599","0.0-4.0-4.0-0.12","spark_pilot_2","7332","4","12","Female","","false","","","","","[492.1999999284744]","./assets/img/ocean/animals/octopus.jpg","[""ArrowRight""]","revaluation","ocean","11","{""ArrowUp,ArrowLeft"":2,""ArrowUp,ArrowRight"":11,""ArrowDown,ArrowLeft"":8,""ArrowDown,ArrowRight"":27}","true","ArrowUp,ArrowRight","","","","revaluation","1","24","","",""
"html-keyboard-response","244","1106106","0.0-4.0-4.0-1.12","spark_pilot_2","7332","4","12","Female","","","","","","","null","<div style=""font-size:60px;"">+</div>","null","fixation","","","","","","","","","","","25","","",""
"revaluation","245","1110123","0.0-4.0-4.0-0.13","spark_pilot_2","7332","4","12","Female","","false","","","","","[721.1999999284744]","./assets/img/ocean/animals/octopus.jpg","[""ArrowRight""]","revaluation","ocean","11","{""ArrowUp,ArrowLeft"":2,""ArrowUp,ArrowRight"":11,""ArrowDown,ArrowLeft"":8,""ArrowDown,ArrowRight"":27}","true","ArrowUp,ArrowRight","","","","revaluation","1","26","","",""
"html-keyboard-response","246","1110629","0.0-4.0-4.0-1.13","spark_pilot_2","7332","4","12","Female","","","","","","","null","<div style=""font-size:60px;"">+</div>","null","fixation","","","","","","","","","","","27","","",""
"revaluation","247","1114650","0.0-4.0-4.0-0.14","spark_pilot_2","7332","4","12","Female","","false","","","","","[1325.7000000476837]","./assets/img/ocean/animals/seahorse.jpg","[""ArrowRight""]","revaluation","ocean","27","{""ArrowUp,ArrowLeft"":2,""ArrowUp,ArrowRight"":11,""ArrowDown,ArrowLeft"":8,""ArrowDown,ArrowRight"":27}","true","ArrowDown,ArrowRight","","","","revaluation","1","28","","",""
"html-keyboard-response","248","1115154","0.0-4.0-4.0-1.14","spark_pilot_2","7332","4","12","Female","","","","","","","null","<div style=""font-size:60px;"">+</div>","null","fixation","","","","","","","","","","","29","","",""
"revaluation","249","1119168","0.0-4.0-4.0-0.15","spark_pilot_2","7332","4","12","Female","","true","","","","","[]","./assets/img/ocean/animals/seahorse.jpg","[]","revaluation","ocean","-5","{""ArrowUp,ArrowLeft"":2,""ArrowUp,ArrowRight"":11,""ArrowDown,ArrowLeft"":8,""ArrowDown,ArrowRight"":27}","false","ArrowDown","","","","revaluation","1","30","","",""
"html-keyboard-response","250","1119671","0.0-4.0-4.0-1.15","spark_pilot_2","7332","4","12","Female","","","","","","","null","<div style=""font-size:60px;"">+</div>","null","fixation","","","","","","","","","","","31","","",""
"revaluation","251","1123678","0.0-4.0-4.0-0.16","spark_pilot_2","7332","4","12","Female","","false","","","","","[517.3999999761581]","./assets/img/ocean/animals/seahorse.jpg","[""ArrowRight""]","revaluation","ocean","27","{""ArrowUp,ArrowLeft"":2,""ArrowUp,ArrowRight"":11,""ArrowDown,ArrowLeft"":8,""ArrowDown,ArrowRight"":27}","true","ArrowDown,ArrowRight","","","","revaluation","1","32","","",""
"html-keyboard-response","252","1124185","0.0-4.0-4.0-1.16","spark_pilot_2","7332","4","12","Female","","","","","","","null","<div style=""font-size:60px;"">+</div>","null","fixation","","","","","","","","","","","33","","",""
"revaluation","253","1128206","0.0-4.0-4.0-0.17","spark_pilot_2","7332","4","12","Female","","false","","","","","[410]","./assets/img/ocean/animals/octopus.jpg","[""ArrowRight""]","revaluation","ocean","11","{""ArrowUp,ArrowLeft"":2,""ArrowUp,ArrowRight"":11,""ArrowDown,ArrowLeft"":8,""ArrowDown,ArrowRight"":27}","true","ArrowUp,ArrowRight","","","","revaluation","1","34","","",""
"html-keyboard-response","254","1128716","0.0-4.0-4.0-1.17","spark_pilot_2","7332","4","12","Female","","","","","","","null","<div style=""font-size:60px;"">+</div>","null","fixation","","","","","","","","","","","35","","",""
"learning-instructions","255","1141818","0.0-4.0-5.0-0.0","spark_pilot_2","7332","4","12","Female","","","","","","","841.7999999523163","<p> Time to play the dot game! </p>
            <p> For one minute, click the red dots on the following screen as they appear. </p>
            <p><b> Don't look away, as you will earn bonus for clicking dots</b>. </p>","","instructions","","","","","","","","","","","","","",""
"revaluation","256","1201815","0.0-4.0-6.0-0.0","spark_pilot_2","7332","4","12","Female","","","","","","","[79,73,113,92,88,72]","","","rest","","60","","","","","0","60000","","","","","",""
"learning-instructions","257","1211759","0.0-4.0-7.0-0.0","spark_pilot_2","7332","4","12","Female","","","","","","","3159.7000000476837","<p> You have almost finished this part of the game! </p>
            <p> We are going to ask you to make a few more choices. </p>","","instructions","","","","","","","","","","","","","",""
"learning-instructions","258","1227209","0.0-4.0-7.0-0.1","spark_pilot_2","7332","4","12","Female","","","","","","","1480","<p> First, you need to decide whether to go up or down. When you see each picture, use the arrow keys to make your choice. </p>
            <p><b>You will not see which animal you found, but try to get to the one that will give you the most treasure.</b></p>","","instructions","","","","","","","","","","","","","",""
"revaluation","259","1228009","0.0-4.0-8.0-0.0","spark_pilot_2","7332","4","12","Female","","false","","","","","[794.5999999046326]","./assets/img/ocean/test/3.jpg","[""ArrowUp""]","first stage test","ocean","0","{""ArrowUp,ArrowLeft"":2,""ArrowUp,ArrowRight"":11,""ArrowDown,ArrowLeft"":8,""ArrowDown,ArrowRight"":27}","false","ArrowUp","false","","","revaluation","1","","","",""
"html-keyboard-response","260","1228512","0.0-4.0-8.0-1.0","spark_pilot_2","7332","4","12","Female","","","","","","","null","<div style=""font-size:60px;"">+</div>","null","fixation","","","","","","","","","","","","","",""
"revaluation","261","1229005","0.0-4.0-8.0-0.1","spark_pilot_2","7332","4","12","Female","","false","","","","","[489.2000000476837]","./assets/img/ocean/test/1.jpg","[""ArrowUp""]","first stage test","ocean","0","{""ArrowUp,ArrowLeft"":2,""ArrowUp,ArrowRight"":11,""ArrowDown,ArrowLeft"":8,""ArrowDown,ArrowRight"":27}","false","ArrowUp","false","","","revaluation","1","","","",""
"html-keyboard-response","262","1229511","0.0-4.0-8.0-1.1","spark_pilot_2","7332","4","12","Female","","","","","","","null","<div style=""font-size:60px;"">+</div>","null","fixation","","","","","","","","","","","","","",""
"revaluation","263","1229828","0.0-4.0-8.0-0.2","spark_pilot_2","7332","4","12","Female","","false","","","","","[312.2000000476837]","./assets/img/ocean/test/0.jpg","[""ArrowUp""]","first stage test","ocean","0","{""ArrowUp,ArrowLeft"":2,""ArrowUp,ArrowRight"":11,""ArrowDown,ArrowLeft"":8,""ArrowDown,ArrowRight"":27}","false","ArrowUp","false","","","revaluation","1","","","",""
"html-keyboard-response","264","1230343","0.0-4.0-8.0-1.2","spark_pilot_2","7332","4","12","Female","","","","","","","null","<div style=""font-size:60px;"">+</div>","null","fixation","","","","","","","","","","","","","",""
"revaluation","265","1230628","0.0-4.0-8.0-0.3","spark_pilot_2","7332","4","12","Female","","false","","","","","[276.60000002384186]","./assets/img/ocean/test/2.jpg","[""ArrowUp""]","first stage test","ocean","0","{""ArrowUp,ArrowLeft"":2,""ArrowUp,ArrowRight"":11,""ArrowDown,ArrowLeft"":8,""ArrowDown,ArrowRight"":27}","false","ArrowUp","false","","","revaluation","1","","","",""
"html-keyboard-response","266","1231133","0.0-4.0-8.0-1.3","spark_pilot_2","7332","4","12","Female","","","","","","","null","<div style=""font-size:60px;"">+</div>","null","fixation","","","","","","","","","","","","","",""
"learning-instructions","267","1243483","0.0-4.0-9.0-0.0","spark_pilot_2","7332","4","12","Female","","","","","","","996.3000000715256","<p> Now you will see the animals again and can search their chests for treasure. </p>
            <p> This time, you will not see how much treasure you earned, but you will earn more bonus money for making better choices. </p>","","instructions","","","","","","","","","","","","","",""
"revaluation","268","1244032","0.0-4.0-10.0-0.0","spark_pilot_2","7332","4","12","Female","","false","","","","","[544]","./assets/img/ocean/animals/octopus.jpg","[""ArrowRight""]","second stage test","ocean","0","{""ArrowUp,ArrowLeft"":2,""ArrowUp,ArrowRight"":11,""ArrowDown,ArrowLeft"":8,""ArrowDown,ArrowRight"":27}","true","ArrowUp,ArrowRight","","","","revaluation","1","","","",""
"html-keyboard-response","269","1244537","0.0-4.0-10.0-1.0","spark_pilot_2","7332","4","12","Female","","","","","","","null","<div style=""font-size:60px;"">+</div>","null","fixation","","","","","","","","","","","","","",""
"revaluation","270","1244998","0.0-4.0-10.0-0.1","spark_pilot_2","7332","4","12","Female","","false","","","","","[455.2999999523163]","./assets/img/ocean/animals/octopus.jpg","[""ArrowRight""]","second stage test","ocean","0","{""ArrowUp,ArrowLeft"":2,""ArrowUp,ArrowRight"":11,""ArrowDown,ArrowLeft"":8,""ArrowDown,ArrowRight"":27}","true","ArrowUp,ArrowRight","","","","revaluation","1","","","",""
"html-keyboard-response","271","1245509","0.0-4.0-10.0-1.1","spark_pilot_2","7332","4","12","Female","","","","","","","null","<div style=""font-size:60px;"">+</div>","null","fixation","","","","","","","","","","","","","",""
"revaluation","272","1245747","0.0-4.0-10.0-0.2","spark_pilot_2","7332","4","12","Female","","false","","","","","[232.5]","./assets/img/ocean/animals/octopus.jpg","[""ArrowLeft""]","second stage test","ocean","0","{""ArrowUp,ArrowLeft"":2,""ArrowUp,ArrowRight"":11,""ArrowDown,ArrowLeft"":8,""ArrowDown,ArrowRight"":27}","false","ArrowUp,ArrowLeft","","","","revaluation","1","","","",""
"html-keyboard-response","273","1246256","0.0-4.0-10.0-1.2","spark_pilot_2","7332","4","12","Female","","","","","","","null","<div style=""font-size:60px;"">+</div>","null","fixation","","","","","","","","","","","","","",""
"revaluation","274","1246541","0.0-4.0-10.0-0.3","spark_pilot_2","7332","4","12","Female","","false","","","","","[281.09999990463257]","./assets/img/ocean/animals/octopus.jpg","[""ArrowLeft""]","second stage test","ocean","0","{""ArrowUp,ArrowLeft"":2,""ArrowUp,ArrowRight"":11,""ArrowDown,ArrowLeft"":8,""ArrowDown,ArrowRight"":27}","false","ArrowUp,ArrowLeft","","","","revaluation","1","","","",""
"html-keyboard-response","275","1247053","0.0-4.0-10.0-1.3","spark_pilot_2","7332","4","12","Female","","","","","","","null","<div style=""font-size:60px;"">+</div>","null","fixation","","","","","","","","","","","","","",""
"revaluation","276","1247355","0.0-4.0-10.0-0.4","spark_pilot_2","7332","4","12","Female","","false","","","","","[295.60000002384186]","./assets/img/ocean/animals/seahorse.jpg","[""ArrowLeft""]","second stage test","ocean","0","{""ArrowUp,ArrowLeft"":2,""ArrowUp,ArrowRight"":11,""ArrowDown,ArrowLeft"":8,""ArrowDown,ArrowRight"":27}","false","ArrowDown,ArrowLeft","","","","revaluation","1","","","",""
"html-keyboard-response","277","1247861","0.0-4.0-10.0-1.4","spark_pilot_2","7332","4","12","Female","","","","","","","null","<div style=""font-size:60px;"">+</div>","null","fixation","","","","","","","","","","","","","",""
"revaluation","278","1248300","0.0-4.0-10.0-0.5","spark_pilot_2","7332","4","12","Female","","false","","","","","[434.2999999523163]","./assets/img/ocean/animals/seahorse.jpg","[""ArrowLeft""]","second stage test","ocean","0","{""ArrowUp,ArrowLeft"":2,""ArrowUp,ArrowRight"":11,""ArrowDown,ArrowLeft"":8,""ArrowDown,ArrowRight"":27}","false","ArrowDown,ArrowLeft","","","","revaluation","1","","","",""
"html-keyboard-response","279","1248807","0.0-4.0-10.0-1.5","spark_pilot_2","7332","4","12","Female","","","","","","","null","<div style=""font-size:60px;"">+</div>","null","fixation","","","","","","","","","","","","","",""
"revaluation","280","1249199","0.0-4.0-10.0-0.6","spark_pilot_2","7332","4","12","Female","","false","","","","","[382.2999999523163]","./assets/img/ocean/animals/seahorse.jpg","[""ArrowRight""]","second stage test","ocean","0","{""ArrowUp,ArrowLeft"":2,""ArrowUp,ArrowRight"":11,""ArrowDown,ArrowLeft"":8,""ArrowDown,ArrowRight"":27}","true","ArrowDown,ArrowRight","","","","revaluation","1","","","",""
"html-keyboard-response","281","1249706","0.0-4.0-10.0-1.6","spark_pilot_2","7332","4","12","Female","","","","","","","null","<div style=""font-size:60px;"">+</div>","null","fixation","","","","","","","","","","","","","",""
"revaluation","282","1250052","0.0-4.0-10.0-0.7","spark_pilot_2","7332","4","12","Female","","false","","","","","[338.10000002384186]","./assets/img/ocean/animals/seahorse.jpg","[""ArrowRight""]","second stage test","ocean","0","{""ArrowUp,ArrowLeft"":2,""ArrowUp,ArrowRight"":11,""ArrowDown,ArrowLeft"":8,""ArrowDown,ArrowRight"":27}","true","ArrowDown,ArrowRight","","","","revaluation","1","","","",""
"html-keyboard-response","283","1250566","0.0-4.0-10.0-1.7","spark_pilot_2","7332","4","12","Female","","","","","","","null","<div style=""font-size:60px;"">+</div>","null","fixation","","","","","","","","","","","","","",""
"learning-instructions","284","1255409","0.0-4.0-0.1-0.2","spark_pilot_2","7332","4","12","Female","","","","","","","2062.399999976158","<p> This time you are searching for treasure in the <b>canyon</b>.</p>","","instructions","","","","","","","","","","","","","",""
"learning-instructions","285","1274058","0.0-4.0-0.1-0.3","spark_pilot_2","7332","4","12","Female","","","","","","","1400.3999999761581","<p><b>New</b> animals with <b>new</b> treasure chests live here. You need to explore to discover where the animal with the best treasure chest is.</p>
                    <p> Like before, once you figure out which animal has the chest with the most treasure, you should try to get to that animal and select that chest! </p>","","instructions","","","","","","","","","","","","","",""
"learning-instructions","286","1289382","0.0-4.0-1.1-0.1","spark_pilot_2","7332","4","12","Female","","","","","","","594.7999999523163","<p> Remember, when you see a picture of the place, use the up and down keys to <b>find an animal</b>.</p>
            <p> When you encounter an animal, you should use the left and right keys to <b>select a treasure chest</b>.</p>
            <p> Don't forget to look out for the robber! </p>","","instructions","","","","","","","","","","","","","",""
"revaluation","287","1293414","0.0-4.0-2.1-0.50","spark_pilot_2","7332","4","12","Female","","false","","","","","[405.3000000715256]","./assets/img/canyon/catch/3.jpg","[""ArrowUp""]","value training","canyon","-10","{""ArrowUp,ArrowLeft"":23,""ArrowUp,ArrowRight"":10,""ArrowDown,ArrowLeft"":8,""ArrowDown,ArrowRight"":30}","false","ArrowUp","true","","","original","2","0","","",""
"html-keyboard-response","288","1293918","0.0-4.0-2.1-1.50","spark_pilot_2","7332","4","12","Female","","","","","","","null","<div style=""font-size:60px;"">+</div>","null","fixation","","","","","","","","","","","1","","",""
"revaluation","289","1299950","0.0-4.0-2.1-0.51","spark_pilot_2","7332","4","12","Female","","false","","","","","[949.2999999523163,697.6999999284744]","./assets/img/canyon/memory/21.jpg","[""ArrowUp"",""ArrowLeft""]","value training","canyon","23","{""ArrowUp,ArrowLeft"":23,""ArrowUp,ArrowRight"":10,""ArrowDown,ArrowLeft"":8,""ArrowDown,ArrowRight"":30}","false","ArrowUp,ArrowLeft","false","","","original","2","2","","",""
"html-keyboard-response","290","1300467","0.0-4.0-2.1-1.51","spark_pilot_2","7332","4","12","Female","","","","","","","null","<div style=""font-size:60px;"">+</div>","null","fixation","","","","","","","","","","","3","","",""
"revaluation","291","1306492","0.0-4.0-2.1-0.52","spark_pilot_2","7332","4","12","Female","","false","","","","","[488,421.89999997615814]","./assets/img/canyon/memory/9.jpg","[""ArrowUp"",""ArrowLeft""]","value training","canyon","23","{""ArrowUp,ArrowLeft"":23,""ArrowUp,ArrowRight"":10,""ArrowDown,ArrowLeft"":8,""ArrowDown,ArrowRight"":30}","false","ArrowUp,ArrowLeft","false","","","original","2","4","","",""
"html-keyboard-response","292","1306995","0.0-4.0-2.1-1.52","spark_pilot_2","7332","4","12","Female","","","","","","","null","<div style=""font-size:60px;"">+</div>","null","fixation","","","","","","","","","","","5","","",""
"revaluation","293","1313033","0.0-4.0-2.1-0.53","spark_pilot_2","7332","4","12","Female","","false","","","","","[377.2000000476837,417.2999999523163]","./assets/img/canyon/memory/13.jpg","[""ArrowUp"",""ArrowLeft""]","value training","canyon","23","{""ArrowUp,ArrowLeft"":23,""ArrowUp,ArrowRight"":10,""ArrowDown,ArrowLeft"":8,""ArrowDown,ArrowRight"":30}","false","ArrowUp,ArrowLeft","false","","","original","2","6","","",""
"html-keyboard-response","294","1313539","0.0-4.0-2.1-1.53","spark_pilot_2","7332","4","12","Female","","","","","","","null","<div style=""font-size:60px;"">+</div>","null","fixation","","","","","","","","","","","7","","",""
"revaluation","295","1319560","0.0-4.0-2.1-0.54","spark_pilot_2","7332","4","12","Female","","false","","","","","[470.89999997615814,413.6999999284744]","./assets/img/canyon/memory/4.jpg","[""ArrowUp"",""ArrowLeft""]","value training","canyon","23","{""ArrowUp,ArrowLeft"":23,""ArrowUp,ArrowRight"":10,""ArrowDown,ArrowLeft"":8,""ArrowDown,ArrowRight"":30}","false","ArrowUp,ArrowLeft","false","","","original","2","8","","",""
"html-keyboard-response","296","1320065","0.0-4.0-2.1-1.54","spark_pilot_2","7332","4","12","Female","","","","","","","null","<div style=""font-size:60px;"">+</div>","null","fixation","","","","","","","","","","","9","","",""
"revaluation","297","1326076","0.0-4.0-2.1-0.55","spark_pilot_2","7332","4","12","Female","","false","","","","","[424,412.39999997615814]","./assets/img/canyon/memory/16.jpg","[""ArrowUp"",""ArrowLeft""]","value training","canyon","23","{""ArrowUp,ArrowLeft"":23,""ArrowUp,ArrowRight"":10,""ArrowDown,ArrowLeft"":8,""ArrowDown,ArrowRight"":30}","false","ArrowUp,ArrowLeft","false","","","original","2","10","","",""
"html-keyboard-response","298","1326580","0.0-4.0-2.1-1.55","spark_pilot_2","7332","4","12","Female","","","","","","","null","<div style=""font-size:60px;"">+</div>","null","fixation","","","","","","","","","","","11","","",""
"revaluation","299","1330599","0.0-4.0-2.1-0.56","spark_pilot_2","7332","4","12","Female","","false","","","","","[572.6999999284744]","./assets/img/canyon/catch/7.jpg","[""spaceBar""]","value training","canyon","0","{""ArrowUp,ArrowLeft"":23,""ArrowUp,ArrowRight"":10,""ArrowDown,ArrowLeft"":8,""ArrowDown,ArrowRight"":30}","true","spaceBar","true","","","original","2","12","","",""
"html-keyboard-response","300","1331106","0.0-4.0-2.1-1.56","spark_pilot_2","7332","4","12","Female","","","","","","","null","<div style=""font-size:60px;"">+</div>","null","fixation","","","","","","","","","","","13","","",""
"revaluation","301","1337130","0.0-4.0-2.1-0.57","spark_pilot_2","7332","4","12","Female","","false","","","","","[606.1999999284744,657]","./assets/img/canyon/memory/39.jpg","[""ArrowUp"",""ArrowLeft""]","value training","canyon","23","{""ArrowUp,ArrowLeft"":23,""ArrowUp,ArrowRight"":10,""ArrowDown,ArrowLeft"":8,""ArrowDown,ArrowRight"":30}","false","ArrowUp,ArrowLeft","false","","","original","2","14","","",""
"html-keyboard-response","302","1337639","0.0-4.0-2.1-1.57","spark_pilot_2","7332","4","12","Female","","","","","","","null","<div style=""font-size:60px;"">+</div>","null","fixation","","","","","","","","","","","15","","",""
"revaluation","303","1343656","0.0-4.0-2.1-0.58","spark_pilot_2","7332","4","12","Female","","false","","","","","[650.7999999523163,1047.2000000476837]","./assets/img/canyon/memory/9.jpg","[""ArrowUp"",""ArrowLeft""]","value training","canyon","23","{""ArrowUp,ArrowLeft"":23,""ArrowUp,ArrowRight"":10,""ArrowDown,ArrowLeft"":8,""ArrowDown,ArrowRight"":30}","false","ArrowUp,ArrowLeft","false","","","original","2","16","","",""
"html-keyboard-response","304","1344167","0.0-4.0-2.1-1.58","spark_pilot_2","7332","4","12","Female","","","","","","","null","<div style=""font-size:60px;"">+</div>","null","fixation","","","","","","","","","","","17","","",""
"revaluation","305","1350184","0.0-4.0-2.1-0.59","spark_pilot_2","7332","4","12","Female","","false","","","","","[526.6999999284744,453.8000000715256]","./assets/img/canyon/memory/2.jpg","[""ArrowUp"",""ArrowLeft""]","value training","canyon","23","{""ArrowUp,ArrowLeft"":23,""ArrowUp,ArrowRight"":10,""ArrowDown,ArrowLeft"":8,""ArrowDown,ArrowRight"":30}","false","ArrowUp,ArrowLeft","false","","","original","2","18","","",""
