"trial_type","trial_index","time_elapsed","internal_node_id","task_version","subject_id","assigned_condition","age","gender","success","timeout","failed_images","failed_audio","failed_video","browser_interaction","rt","stimulus","response","task_part","environment","score","rewardMap","correct","fullState","isCatch","numberMissed","duration","condition","order","trial_num","key_press","ground_truth","bonus"
"pavlovia","0","1377","0.0-0.0","spark_pilot_2","7283","5","10","Male","","","","","","","","","","","","","","","","","","","","","","","",""
"preload","1","18900","0.0-1.0","spark_pilot_2","7283","5","10","Male","true","false","[]","[]","[]","[{""event"":""fullscreenenter"",""trial"":2,""time"":20514}]","","","","","","","","","","","","","","","","","",""
"fullscreen","2","21498","0.0-2.0","spark_pilot_2","7283","5","10","Male","true","","","","","","","","","","","","","","","","","","","","","","",""
"audio-button-response","3","24737","0.0-3.0-0.0-0.0","spark_pilot_2","7283","5","10","Male","","","","","","","2760","./assets/audio/audiotest/turtle.mp3","2","audio_test","","","","","","","","","","","","","",""
"learning-instructions","4","35209","0.0-3.0-1.0-0.0","spark_pilot_2","7283","5","10","Male","","","","","","","3491.2999999523163","<p> Welcome! Please remember to stay in fullscreen mode and don't click away from the experiment. </p>","","instructions","","","","","","","","","","","","","",""
"learning-instructions","5","45353","0.0-3.0-1.0-0.1","spark_pilot_2","7283","5","10","Male","","","","","","","1735.7000000476837","<p> Today you will be playing a game to earn treasure. </p>
            <p> At the end of the experiment, you will earn a bonus based on how much treasure you find. </p>
            <img src='./assets/img/instructions/treasure.jpg' class='instructions-image'>","","instructions","","","","","","","","","","","","","",""
"learning-instructions","6","54825","0.0-3.0-1.0-0.2","spark_pilot_2","7283","5","10","Male","","","","","","","1227.1999998092651","<p> Animals have hidden treasure in treasure chests. </p>
            <p> You need to first find an animal and then choose which of their treasure chests to search. </p>
            <img src='./assets/img/space/animals/cat.jpg' class='instructions-image'>","","instructions","","","","","","","","","","","","","",""
"learning-instructions","7","68953","0.0-3.0-1.0-0.3","spark_pilot_2","7283","5","10","Male","","","","","","","977.1000001430511","<p> In each round, you will search for treasure in a different place. In the real game, there will be two rounds. </p>
            <p> You will begin with a separate, practice round where you will search for treasure in outer space. </p>
            <img src='./assets/img/space/0.jpg' class='instructions-image'>","","instructions","","","","","","","","","","","","","",""
"learning-instructions","8","81329","0.0-3.0-1.0-0.4","spark_pilot_2","7283","5","10","Male","","","","","","","972","<p> On every turn, you will see a picture of the place that you are in, but the specific image may be different each time. </p>
            <p> For example, both of these images mean you are in outer space. </p>
            <img src='./assets/img/instructions/outerspace.jpg' class='instructions-image'>","","instructions","","","","","","","","","","","","","",""
"learning-instructions","9","90906","0.0-3.0-1.0-0.5","spark_pilot_2","7283","5","10","Male","","","","","","","1757.3999998569489","<p> You need to decide which direction to travel in. </p>
            <p> You can choose between going <b>up or down</b> by using the arrow keys. </p>
            <img src='./assets/img/instructions/updown.jpg' class='instructions-image'>","","instructions","","","","","","","","","","","","","",""
"learning-instructions","10","102945","0.0-3.0-1.0-0.6","spark_pilot_2","7283","5","10","Male","","","","","","","3237.800000190735","<p> You will have <b>2 seconds</b> to make your choice. </p>
            <p> If you do not make a choice within 2 seconds, you will not find an animal or earn treasure. </p>
            <img src='./assets/img/instructions/2seconds.jpg' class='instructions-image'>","","instructions","","","","","","","","","","","","","",""
"learning-instructions","11","113426","0.0-3.0-1.0-0.7","spark_pilot_2","7283","5","10","Male","","","","","","","3447.300000190735","<p> Let’s try practicing that now! </p>
            <p> When you see a picture of the place you are in, press the <b>up</b> key to travel up. </p>
            <img src='./assets/img/instructions/pressUp.jpg' class='instructions-image'>","","instructions","","","","","","","","","","","","","",""
"revaluation","12","117448","0.0-3.0-2.0-0.0","spark_pilot_2","7283","5","10","Male","","false","","","","","[1376.5999999046326]","./assets/img/space/0.jpg","[""ArrowUp""]","first stage practice","space","0","null","null","ArrowUp","false","","","","","","","",""
"html-keyboard-response","13","117953","0.0-3.0-2.0-1.0","spark_pilot_2","7283","5","10","Male","","","","","","","null","<div style=""font-size:60px;"">+</div>","null","fixation","","","","","","","","","","","","","",""
"revaluation","14","121979","0.0-3.0-2.0-0.1","spark_pilot_2","7283","5","10","Male","","false","","","","","[963.2000000476837]","./assets/img/space/1.jpg","[""ArrowUp""]","first stage practice","space","0","null","null","ArrowUp","false","","","","","","","",""
"html-keyboard-response","15","122492","0.0-3.0-2.0-1.1","spark_pilot_2","7283","5","10","Male","","","","","","","null","<div style=""font-size:60px;"">+</div>","null","fixation","","","","","","","","","","","","","",""
"revaluation","16","126518","0.0-3.0-2.0-0.2","spark_pilot_2","7283","5","10","Male","","false","","","","","[784.4000000953674]","./assets/img/space/2.jpg","[""ArrowUp""]","first stage practice","space","0","null","null","ArrowUp","false","","","","","","","",""
"html-keyboard-response","17","127027","0.0-3.0-2.0-1.2","spark_pilot_2","7283","5","10","Male","","","","","","","null","<div style=""font-size:60px;"">+</div>","null","fixation","","","","","","","","","","","","","",""
"learning-instructions","18","132819","0.0-3.0-3.0-0.0","spark_pilot_2","7283","5","10","Male","","","","","","","1072.4000000953674","<p> Great job! Now try pressing the <b>down</b> key to travel down. </p>
            <img src='./assets/img/instructions/pressDown.jpg' class='instructions-image'>","","instructions","","","","","","","","","","","","","",""
"revaluation","19","136837","0.0-3.0-4.0-0.0","spark_pilot_2","7283","5","10","Male","","false","","","","","[1165.9000000953674]","./assets/img/space/3.jpg","[""ArrowDown""]","first stage practice","space","0","null","null","ArrowDown","false","","","","","","","",""
"html-keyboard-response","20","137347","0.0-3.0-4.0-1.0","spark_pilot_2","7283","5","10","Male","","","","","","","null","<div style=""font-size:60px;"">+</div>","null","fixation","","","","","","","","","","","","","",""
"revaluation","21","141373","0.0-3.0-4.0-0.1","spark_pilot_2","7283","5","10","Male","","false","","","","","[507.2000000476837]","./assets/img/space/4.jpg","[""ArrowDown""]","first stage practice","space","0","null","null","ArrowDown","false","","","","","","","",""
"html-keyboard-response","22","141881","0.0-3.0-4.0-1.1","spark_pilot_2","7283","5","10","Male","","","","","","","null","<div style=""font-size:60px;"">+</div>","null","fixation","","","","","","","","","","","","","",""
"revaluation","23","145904","0.0-3.0-4.0-0.2","spark_pilot_2","7283","5","10","Male","","false","","","","","[1052.9000000953674]","./assets/img/space/5.jpg","[""ArrowDown""]","first stage practice","space","0","null","null","ArrowDown","false","","","","","","","",""
"html-keyboard-response","24","146412","0.0-3.0-4.0-1.2","spark_pilot_2","7283","5","10","Male","","","","","","","null","<div style=""font-size:60px;"">+</div>","null","fixation","","","","","","","","","","","","","",""
"learning-instructions","25","157226","0.0-3.0-5.0-0.0","spark_pilot_2","7283","5","10","Male","","","","","","","909.4000000953674","<p> The animals don’t move, so the animal in the upper part of a place will stay in the upper part of a place, and the animal in the lower part of a place will stay in the lower part of a place. </p>","","instructions","","","","","","","","","","","","","",""
"learning-instructions","26","168402","0.0-3.0-5.0-0.1","spark_pilot_2","7283","5","10","Male","","","","","","","2055.7999999523163","<p> Each animal has two treasure chests for you to choose from. </p>
            <p> The amount of treasure in each chest can range from <b> 0 to 40 pieces.</b></p>","","instructions","","","","","","","","","","","","","",""
"learning-instructions","27","180058","0.0-3.0-5.0-0.2","spark_pilot_2","7283","5","10","Male","","","","","","","470.2000000476837","<p> You should decide which chest to search for treasure by using the <b>left</b> and <b>right</b> arrow keys. </p>
            <p><b> Pay attention to which animal is on the screen, as the animals have different treasure chests. </b></p>
            <img src='./assets/img/instructions/leftright.jpg' class='instructions-image'>","","instructions","","","","","","","","","","","","","",""
"learning-instructions","28","187338","0.0-3.0-5.0-0.3","spark_pilot_2","7283","5","10","Male","","","","","","","919.2000000476837","<p> Let’s try practicing that now. </p>
            <p> When you see an animal, choose which chest to search for treasure. </p>
            <img src='./assets/img/instructions/chooseChest.jpg' class='instructions-image'>","","instructions","","","","","","","","","","","","","",""
"revaluation","29","191362","0.0-3.0-6.0-0.0","spark_pilot_2","7283","5","10","Male","","false","","","","","[1391.9000000953674]","./assets/img/space/animals/cat.jpg","[""ArrowRight""]","second stage practice","space","36","{""ArrowUp,ArrowLeft"":3,""ArrowUp,ArrowRight"":36,""ArrowDown,ArrowLeft"":15,""ArrowDown,ArrowRight"":23}","true","ArrowUp,ArrowRight","","","","","","","","",""
"html-keyboard-response","30","191870","0.0-3.0-6.0-1.0","spark_pilot_2","7283","5","10","Male","","","","","","","null","<div style=""font-size:60px;"">+</div>","null","fixation","","","","","","","","","","","","","",""
"revaluation","31","195896","0.0-3.0-6.0-0.1","spark_pilot_2","7283","5","10","Male","","false","","","","","[591.8000001907349]","./assets/img/space/animals/rabbit.jpg","[""ArrowRight""]","second stage practice","space","23","{""ArrowUp,ArrowLeft"":3,""ArrowUp,ArrowRight"":36,""ArrowDown,ArrowLeft"":15,""ArrowDown,ArrowRight"":23}","true","ArrowDown,ArrowRight","","","","","","","","",""
"html-keyboard-response","32","196406","0.0-3.0-6.0-1.1","spark_pilot_2","7283","5","10","Male","","","","","","","null","<div style=""font-size:60px;"">+</div>","null","fixation","","","","","","","","","","","","","",""
"revaluation","33","200431","0.0-3.0-6.0-0.2","spark_pilot_2","7283","5","10","Male","","false","","","","","[928]","./assets/img/space/animals/rabbit.jpg","[""ArrowLeft""]","second stage practice","space","15","{""ArrowUp,ArrowLeft"":3,""ArrowUp,ArrowRight"":36,""ArrowDown,ArrowLeft"":15,""ArrowDown,ArrowRight"":23}","false","ArrowDown,ArrowLeft","","","","","","","","",""
"html-keyboard-response","34","200940","0.0-3.0-6.0-1.2","spark_pilot_2","7283","5","10","Male","","","","","","","null","<div style=""font-size:60px;"">+</div>","null","fixation","","","","","","","","","","","","","",""
"revaluation","35","204961","0.0-3.0-6.0-0.3","spark_pilot_2","7283","5","10","Male","","false","","","","","[753.7999999523163]","./assets/img/space/animals/cat.jpg","[""ArrowRight""]","second stage practice","space","36","{""ArrowUp,ArrowLeft"":3,""ArrowUp,ArrowRight"":36,""ArrowDown,ArrowLeft"":15,""ArrowDown,ArrowRight"":23}","true","ArrowUp,ArrowRight","","","","","","","","",""
"html-keyboard-response","36","205473","0.0-3.0-6.0-1.3","spark_pilot_2","7283","5","10","Male","","","","","","","null","<div style=""font-size:60px;"">+</div>","null","fixation","","","","","","","","","","","","","",""
"learning-instructions","37","222969","0.0-3.0-7.0-0.0","spark_pilot_2","7283","5","10","Male","","","","","","","591.3999998569489","<p> Great job. Now let’s try putting it together. </p>
            <p> On each turn, you will first see a picture to remind you of the place you are in, and you need to choose whether to go up or down. </p>
            <p> Then you will see an animal and choose which of its chests to search for treasure. </p>","","instructions","","","","","","","","","","","","","",""
"learning-instructions","38","232273","0.0-3.0-7.0-0.1","spark_pilot_2","7283","5","10","Male","","","","","","","1046","<p> When you choose whether to go up or down, try to go to the animal with the chest with the most treasure. </p>
            <p> Try practicing that now! </p>","","instructions","","","","","","","","","","","","","",""
"revaluation","39","238303","0.0-3.0-8.0-0.0","spark_pilot_2","7283","5","10","Male","","false","","","","","[992,1237]","./assets/img/space/6.jpg","[""ArrowUp"",""ArrowLeft""]","full practice","space","3","{""ArrowUp,ArrowLeft"":3,""ArrowUp,ArrowRight"":36,""ArrowDown,ArrowLeft"":15,""ArrowDown,ArrowRight"":23}","false","ArrowUp,ArrowLeft","false","","","","","","","",""
"html-keyboard-response","40","238812","0.0-3.0-8.0-1.0","spark_pilot_2","7283","5","10","Male","","","","","","","null","<div style=""font-size:60px;"">+</div>","null","fixation","","","","","","","","","","","","","",""
"revaluation","41","244847","0.0-3.0-8.0-0.1","spark_pilot_2","7283","5","10","Male","","false","","","","","[626,612.2999999523163]","./assets/img/space/7.jpg","[""ArrowUp"",""ArrowRight""]","full practice","space","36","{""ArrowUp,ArrowLeft"":3,""ArrowUp,ArrowRight"":36,""ArrowDown,ArrowLeft"":15,""ArrowDown,ArrowRight"":23}","true","ArrowUp,ArrowRight","false","","","","","","","",""
"html-keyboard-response","42","245358","0.0-3.0-8.0-1.1","spark_pilot_2","7283","5","10","Male","","","","","","","null","<div style=""font-size:60px;"">+</div>","null","fixation","","","","","","","","","","","","","",""
"revaluation","43","251409","0.0-3.0-8.0-0.2","spark_pilot_2","7283","5","10","Male","","false","","","","","[732.4000000953674,491.30000019073486]","./assets/img/space/8.jpg","[""ArrowDown"",""ArrowLeft""]","full practice","space","15","{""ArrowUp,ArrowLeft"":3,""ArrowUp,ArrowRight"":36,""ArrowDown,ArrowLeft"":15,""ArrowDown,ArrowRight"":23}","false","ArrowDown,ArrowLeft","false","","","","","","","",""
"html-keyboard-response","44","251920","0.0-3.0-8.0-1.2","spark_pilot_2","7283","5","10","Male","","","","","","","null","<div style=""font-size:60px;"">+</div>","null","fixation","","","","","","","","","","","","","",""
"revaluation","45","257940","0.0-3.0-8.0-0.3","spark_pilot_2","7283","5","10","Male","","false","","","","","[765.7000000476837,396.09999990463257]","./assets/img/space/9.jpg","[""ArrowDown"",""ArrowRight""]","full practice","space","23","{""ArrowUp,ArrowLeft"":3,""ArrowUp,ArrowRight"":36,""ArrowDown,ArrowLeft"":15,""ArrowDown,ArrowRight"":23}","false","ArrowDown,ArrowRight","false","","","","","","","",""
"html-keyboard-response","46","258452","0.0-3.0-8.0-1.3","spark_pilot_2","7283","5","10","Male","","","","","","","null","<div style=""font-size:60px;"">+</div>","null","fixation","","","","","","","","","","","","","",""
"revaluation","47","264465","0.0-3.0-8.0-0.4","spark_pilot_2","7283","5","10","Male","","false","","","","","[466.7000000476837,602.5999999046326]","./assets/img/space/10.jpg","[""ArrowUp"",""ArrowRight""]","full practice","space","36","{""ArrowUp,ArrowLeft"":3,""ArrowUp,ArrowRight"":36,""ArrowDown,ArrowLeft"":15,""ArrowDown,ArrowRight"":23}","true","ArrowUp,ArrowRight","false","","","","","","","",""
"html-keyboard-response","48","264967","0.0-3.0-8.0-1.4","spark_pilot_2","7283","5","10","Male","","","","","","","null","<div style=""font-size:60px;"">+</div>","null","fixation","","","","","","","","","","","","","",""
"learning-instructions","49","276650","0.0-3.0-9.0-0.0","spark_pilot_2","7283","5","10","Male","","","","","","","1320.7999999523163","<p> One last thing: sometimes, you will see a robber. The robber can be anywhere in the picture. </p>
            <p> If you do not stop them, you will lose treasure. </p>
            <img src='./assets/img/instructions/robber.jpg' class='instructions-image'>","","instructions","","","","","","","","","","","","","",""
"learning-instructions","50","284626","0.0-3.0-9.0-0.1","spark_pilot_2","7283","5","10","Male","","","","","","","806.6000001430511","<p> If you see the robber, you should <b>press the space bar</b> rather than using the arrow keys. </p>
            <p> Try practicing that now! </p>","","instructions","","","","","","","","","","","","","",""
"revaluation","51","288646","0.0-3.0-10.0-0.0","spark_pilot_2","7283","5","10","Male","","false","","","","","[1407.5999999046326]","./assets/img/space/catch/0.jpg","[""spaceBar""]","catch practice","space","0","{""ArrowUp,ArrowLeft"":3,""ArrowUp,ArrowRight"":36,""ArrowDown,ArrowLeft"":15,""ArrowDown,ArrowRight"":23}","true","spaceBar","true","","","","","","","",""
"html-keyboard-response","52","289157","0.0-3.0-10.0-1.0","spark_pilot_2","7283","5","10","Male","","","","","","","null","<div style=""font-size:60px;"">+</div>","null","fixation","","","","","","","","","","","","","",""
"revaluation","53","293172","0.0-3.0-10.0-0.1","spark_pilot_2","7283","5","10","Male","","false","","","","","[1074.2999999523163]","./assets/img/space/catch/1.jpg","[""spaceBar""]","catch practice","space","0","{""ArrowUp,ArrowLeft"":3,""ArrowUp,ArrowRight"":36,""ArrowDown,ArrowLeft"":15,""ArrowDown,ArrowRight"":23}","true","spaceBar","true","","","","","","","",""
"html-keyboard-response","54","293682","0.0-3.0-10.0-1.1","spark_pilot_2","7283","5","10","Male","","","","","","","null","<div style=""font-size:60px;"">+</div>","null","fixation","","","","","","","","","","","","","",""
"revaluation","55","297703","0.0-3.0-10.0-0.2","spark_pilot_2","7283","5","10","Male","","false","","","","","[675.9000000953674]","./assets/img/space/catch/2.jpg","[""spaceBar""]","catch practice","space","0","{""ArrowUp,ArrowLeft"":3,""ArrowUp,ArrowRight"":36,""ArrowDown,ArrowLeft"":15,""ArrowDown,ArrowRight"":23}","true","spaceBar","true","","","","","","","",""
"html-keyboard-response","56","298214","0.0-3.0-10.0-1.2","spark_pilot_2","7283","5","10","Male","","","","","","","null","<div style=""font-size:60px;"">+</div>","null","fixation","","","","","","","","","","","","","",""
"learning-instructions","57","312481","0.0-3.0-11.0-0.0","spark_pilot_2","7283","5","10","Male","","","","","","","592.5999999046326","<p> After you explore a place to find treasure, it will be time to play a different game. </p>
            <p> During this game, red dots will appear on the screen and fall down slowly. </p>
            <p><b> You must click on them before they reach the bottom. </b></p>
            <img src='./assets/img/instructions/dotGame.jpg' class='instructions-image'>","","instructions","","","","","","","","","","","","","",""
"learning-instructions","58","319322","0.0-3.0-11.0-0.1","spark_pilot_2","7283","5","10","Male","","","","","","","713","<p> For every dot you click, you will earn additional treasure. </p>
            <p> Let’s try practicing that now. </p>","","instructions","","","","","","","","","","","","","",""
"revaluation","59","334336","0.0-3.0-12.0-0.0","spark_pilot_2","7283","5","10","Male","","","","","","","[83]","","","rest practice","","10","","","","","0","15000","","","","","",""
"learning-instructions","60","346954","0.0-3.0-13.0-0.0-0.0","spark_pilot_2","7283","5","10","Male","","","","","","","7335.099999904633","<p> Now, you will practice a shortened version of the game to get a sense of how it all fits together. </p>","","instructions","","","","","","","","","","","","","",""
"learning-instructions","61","360506","0.0-3.0-13.0-0.0-0.1","spark_pilot_2","7283","5","10","Male","","","","","","","10376.700000047684","<p>This time you are searching for treasure in outer space.</p>","","instructions","","","","","","","","","","","","","",""
"learning-instructions","62","376234","0.0-3.0-13.0-1.0-0.0","spark_pilot_2","7283","5","10","Male","","","","","","","964","<p> Remember, when you see a picture of the place, use the up and down keys to <b>find an animal</b>.</p>
            <p> When you encounter an animal, you should use the left and right keys to <b>select a treasure chest</b>.</p>
            <p> Don't forget to look out for the robber! </p>","","instructions","","","","","","","","","","","","","",""
"revaluation","63","382272","0.0-3.0-13.0-2.0-0.0","spark_pilot_2","7283","5","10","Male","","false","","","","","[1319.7999999523163,505]","./assets/img/space/11.jpg","[""ArrowUp"",""ArrowRight""]","practice block","space","36","{""ArrowUp,ArrowLeft"":3,""ArrowUp,ArrowRight"":36,""ArrowDown,ArrowLeft"":15,""ArrowDown,ArrowRight"":23}","true","ArrowUp,ArrowRight","false","","","","","","","",""
"html-keyboard-response","64","382781","0.0-3.0-13.0-2.0-1.0","spark_pilot_2","7283","5","10","Male","","","","","","","null","<div style=""font-size:60px;"">+</div>","null","fixation","","","","","","","","","","","","","",""
"revaluation","65","388812","0.0-3.0-13.0-2.0-0.1","spark_pilot_2","7283","5","10","Male","","false","","","","","[1248.3999998569489,482.90000009536743]","./assets/img/space/12.jpg","[""ArrowUp"",""ArrowRight""]","practice block","space","36","{""ArrowUp,ArrowLeft"":3,""ArrowUp,ArrowRight"":36,""ArrowDown,ArrowLeft"":15,""ArrowDown,ArrowRight"":23}","true","ArrowUp,ArrowRight","false","","","","","","","",""
"html-keyboard-response","66","389325","0.0-3.0-13.0-2.0-1.1","spark_pilot_2","7283","5","10","Male","","","","","","","null","<div style=""font-size:60px;"">+</div>","null","fixation","","","","","","","","","","","","","",""
"revaluation","67","395362","0.0-3.0-13.0-2.0-0.2","spark_pilot_2","7283","5","10","Male","","false","","","","","[1261.0999999046326,548]","./assets/img/space/13.jpg","[""ArrowUp"",""ArrowRight""]","practice block","space","36","{""ArrowUp,ArrowLeft"":3,""ArrowUp,ArrowRight"":36,""ArrowDown,ArrowLeft"":15,""ArrowDown,ArrowRight"":23}","true","ArrowUp,ArrowRight","false","","","","","","","",""
"html-keyboard-response","68","395869","0.0-3.0-13.0-2.0-1.2","spark_pilot_2","7283","5","10","Male","","","","","","","null","<div style=""font-size:60px;"">+</div>","null","fixation","","","","","","","","","","","","","",""
"revaluation","69","401902","0.0-3.0-13.0-2.0-0.3","spark_pilot_2","7283","5","10","Male","","false","","","","","[912.5999999046326,634.7999999523163]","./assets/img/space/14.jpg","[""ArrowUp"",""ArrowRight""]","practice block","space","36","{""ArrowUp,ArrowLeft"":3,""ArrowUp,ArrowRight"":36,""ArrowDown,ArrowLeft"":15,""ArrowDown,ArrowRight"":23}","true","ArrowUp,ArrowRight","false","","","","","","","",""
"html-keyboard-response","70","402413","0.0-3.0-13.0-2.0-1.3","spark_pilot_2","7283","5","10","Male","","","","","","","null","<div style=""font-size:60px;"">+</div>","null","fixation","","","","","","","","","","","","","",""
"revaluation","71","408427","0.0-3.0-13.0-2.0-0.4","spark_pilot_2","7283","5","10","Male","","false","","","","","[1081.2999999523163,386]","./assets/img/space/11.jpg","[""ArrowUp"",""ArrowRight""]","practice block","space","36","{""ArrowUp,ArrowLeft"":3,""ArrowUp,ArrowRight"":36,""ArrowDown,ArrowLeft"":15,""ArrowDown,ArrowRight"":23}","true","ArrowUp,ArrowRight","false","","","","","","","",""
"html-keyboard-response","72","408932","0.0-3.0-13.0-2.0-1.4","spark_pilot_2","7283","5","10","Male","","","","","","","null","<div style=""font-size:60px;"">+</div>","null","fixation","","","","","","","","","","","","","",""
"revaluation","73","414940","0.0-3.0-13.0-2.0-0.5","spark_pilot_2","7283","5","10","Male","","false","","","","","[1121.5,512.7999999523163]","./assets/img/space/12.jpg","[""ArrowUp"",""ArrowRight""]","practice block","space","36","{""ArrowUp,ArrowLeft"":3,""ArrowUp,ArrowRight"":36,""ArrowDown,ArrowLeft"":15,""ArrowDown,ArrowRight"":23}","true","ArrowUp,ArrowRight","false","","","","","","","",""
"html-keyboard-response","74","415442","0.0-3.0-13.0-2.0-1.5","spark_pilot_2","7283","5","10","Male","","","","","","","null","<div style=""font-size:60px;"">+</div>","null","fixation","","","","","","","","","","","","","",""
"revaluation","75","421450","0.0-3.0-13.0-2.0-0.6","spark_pilot_2","7283","5","10","Male","","false","","","","","[1116.5999999046326,443.19999980926514]","./assets/img/space/13.jpg","[""ArrowUp"",""ArrowRight""]","practice block","space","36","{""ArrowUp,ArrowLeft"":3,""ArrowUp,ArrowRight"":36,""ArrowDown,ArrowLeft"":15,""ArrowDown,ArrowRight"":23}","true","ArrowUp,ArrowRight","false","","","","","","","",""
"html-keyboard-response","76","421952","0.0-3.0-13.0-2.0-1.6","spark_pilot_2","7283","5","10","Male","","","","","","","null","<div style=""font-size:60px;"">+</div>","null","fixation","","","","","","","","","","","","","",""
"revaluation","77","427959","0.0-3.0-13.0-2.0-0.7","spark_pilot_2","7283","5","10","Male","","false","","","","","[869.8999998569489,461.7000000476837]","./assets/img/space/14.jpg","[""ArrowUp"",""ArrowRight""]","practice block","space","36","{""ArrowUp,ArrowLeft"":3,""ArrowUp,ArrowRight"":36,""ArrowDown,ArrowLeft"":15,""ArrowDown,ArrowRight"":23}","true","ArrowUp,ArrowRight","false","","","","","","","",""
"html-keyboard-response","78","428462","0.0-3.0-13.0-2.0-1.7","spark_pilot_2","7283","5","10","Male","","","","","","","null","<div style=""font-size:60px;"">+</div>","null","fixation","","","","","","","","","","","","","",""
"revaluation","79","432468","0.0-3.0-13.0-2.0-0.8","spark_pilot_2","7283","5","10","Male","","false","","","","","[1216.9000000953674]","./assets/img/space/catch/3.jpg","[""spaceBar""]","practice block","space","0","{""ArrowUp,ArrowLeft"":3,""ArrowUp,ArrowRight"":36,""ArrowDown,ArrowLeft"":15,""ArrowDown,ArrowRight"":23}","true","spaceBar","true","","","","","","","",""
"html-keyboard-response","80","432970","0.0-3.0-13.0-2.0-1.8","spark_pilot_2","7283","5","10","Male","","","","","","","null","<div style=""font-size:60px;"">+</div>","null","fixation","","","","","","","","","","","","","",""
"learning-instructions","81","447994","0.0-3.0-13.0-3.0-0.0","spark_pilot_2","7283","5","10","Male","","","","","","","1838.8000001907349","<p> Now, you will travel with a friend who will choose whether you go up or down first. </p>
            <p> On these turns, you will just see the animal that they found. You will still get to choose which chest to search for treasure.</p>","","instructions","","","","","","","","","","","","","",""
"revaluation","82","452017","0.0-3.0-13.0-4.0-0.0","spark_pilot_2","7283","5","10","Male","","false","","","","","[1263.6000001430511]","./assets/img/space/animals/rabbit.jpg","[""ArrowLeft""]","practice block","space","15","{""ArrowUp,ArrowLeft"":3,""ArrowUp,ArrowRight"":36,""ArrowDown,ArrowLeft"":15,""ArrowDown,ArrowRight"":23}","false","ArrowDown,ArrowLeft","","","","","","","","",""
"html-keyboard-response","83","452529","0.0-3.0-13.0-4.0-1.0","spark_pilot_2","7283","5","10","Male","","","","","","","null","<div style=""font-size:60px;"">+</div>","null","fixation","","","","","","","","","","","","","",""
"revaluation","84","456554","0.0-3.0-13.0-4.0-0.1","spark_pilot_2","7283","5","10","Male","","false","","","","","[725]","./assets/img/space/animals/cat.jpg","[""ArrowRight""]","practice block","space","36","{""ArrowUp,ArrowLeft"":3,""ArrowUp,ArrowRight"":36,""ArrowDown,ArrowLeft"":15,""ArrowDown,ArrowRight"":23}","true","ArrowUp,ArrowRight","","","","","","","","",""
"html-keyboard-response","85","457065","0.0-3.0-13.0-4.0-1.1","spark_pilot_2","7283","5","10","Male","","","","","","","null","<div style=""font-size:60px;"">+</div>","null","fixation","","","","","","","","","","","","","",""
"revaluation","86","461092","0.0-3.0-13.0-4.0-0.2","spark_pilot_2","7283","5","10","Male","","false","","","","","[670.7000000476837]","./assets/img/space/animals/cat.jpg","[""ArrowRight""]","practice block","space","36","{""ArrowUp,ArrowLeft"":3,""ArrowUp,ArrowRight"":36,""ArrowDown,ArrowLeft"":15,""ArrowDown,ArrowRight"":23}","true","ArrowUp,ArrowRight","","","","","","","","",""
"html-keyboard-response","87","461604","0.0-3.0-13.0-4.0-1.2","spark_pilot_2","7283","5","10","Male","","","","","","","null","<div style=""font-size:60px;"">+</div>","null","fixation","","","","","","","","","","","","","",""
"revaluation","88","465624","0.0-3.0-13.0-4.0-0.3","spark_pilot_2","7283","5","10","Male","","false","","","","","[458.7999999523163]","./assets/img/space/animals/rabbit.jpg","[""ArrowRight""]","practice block","space","23","{""ArrowUp,ArrowLeft"":3,""ArrowUp,ArrowRight"":36,""ArrowDown,ArrowLeft"":15,""ArrowDown,ArrowRight"":23}","true","ArrowDown,ArrowRight","","","","","","","","",""
"html-keyboard-response","89","466132","0.0-3.0-13.0-4.0-1.3","spark_pilot_2","7283","5","10","Male","","","","","","","null","<div style=""font-size:60px;"">+</div>","null","fixation","","","","","","","","","","","","","",""
"learning-instructions","90","474610","0.0-3.0-13.0-5.0-0.0","spark_pilot_2","7283","5","10","Male","","","","","","","1085","<p> Time to play the dot game! </p>
            <p> For 15 seconds, click the red dots on the following screen as they appear. </p>","","instructions","","","","","","","","","","","","","",""
"revaluation","91","489612","0.0-3.0-13.0-6.0-0.0","spark_pilot_2","7283","5","10","Male","","","","","","","[59]","","","rest practice","","10","","","","","0","15000","","","","","",""
"learning-instructions","92","498186","0.0-3.0-13.0-7.0-0.0","spark_pilot_2","7283","5","10","Male","","","","","","","2400.699999809265","<p> You have almost finished this part of the game! </p>
            <p> We are going to ask you to make a few more choices. </p>","","instructions","","","","","","","","","","","","","",""
"learning-instructions","93","514177","0.0-3.0-13.0-7.0-0.1","spark_pilot_2","7283","5","10","Male","","","","","","","1992.2000000476837","<p> First, you need to decide whether to go up or down. When you see each picture, use the arrow keys to make your choice. </p>
            <p><b>You will not see which animal you found, but try to get to the one that will give you the most treasure.</b></p>","","instructions","","","","","","","","","","","","","",""
"revaluation","94","515258","0.0-3.0-13.0-8.0","spark_pilot_2","7283","5","10","Male","","false","","","","","[1079.5]","./assets/img/space/15.jpg","[""ArrowUp""]","practice block","space","0","{""ArrowUp,ArrowLeft"":3,""ArrowUp,ArrowRight"":36,""ArrowDown,ArrowLeft"":15,""ArrowDown,ArrowRight"":23}","true","ArrowUp","false","","","","","","","",""
"html-keyboard-response","95","515765","0.0-3.0-13.0-9.0","spark_pilot_2","7283","5","10","Male","","","","","","","null","<div style=""font-size:60px;"">+</div>","null","fixation","","","","","","","","","","","","","",""
"learning-instructions","96","527713","0.0-3.0-13.0-10.0-0.0","spark_pilot_2","7283","5","10","Male","","","","","","","518.2000000476837","<p> Now you will see the animals again and can search their chests for treasure. </p>
            <p> This time, you will not see how much treasure you earned, but you will earn more bonus money for making better choices. </p>","","instructions","","","","","","","","","","","","","",""
"revaluation","97","528659","0.0-3.0-13.0-11.0-0.0","spark_pilot_2","7283","5","10","Male","","false","","","","","[943.7000000476837]","./assets/img/space/animals/cat.jpg","[""ArrowRight""]","practice block","space","0","{""ArrowUp,ArrowLeft"":3,""ArrowUp,ArrowRight"":36,""ArrowDown,ArrowLeft"":15,""ArrowDown,ArrowRight"":23}","true","ArrowUp,ArrowRight","","","","","","","","",""
"html-keyboard-response","98","529163","0.0-3.0-13.0-11.0-1.0","spark_pilot_2","7283","5","10","Male","","","","","","","null","<div style=""font-size:60px;"">+</div>","null","fixation","","","","","","","","","","","","","",""
"revaluation","99","529899","0.0-3.0-13.0-11.0-0.1","spark_pilot_2","7283","5","10","Male","","false","","","","","[730.2000000476837]","./assets/img/space/animals/rabbit.jpg","[""ArrowRight""]","practice block","space","0","{""ArrowUp,ArrowLeft"":3,""ArrowUp,ArrowRight"":36,""ArrowDown,ArrowLeft"":15,""ArrowDown,ArrowRight"":23}","true","ArrowDown,ArrowRight","","","","","","","","",""
"html-keyboard-response","100","530402","0.0-3.0-13.0-11.0-1.1","spark_pilot_2","7283","5","10","Male","","","","","","","null","<div style=""font-size:60px;"">+</div>","null","fixation","","","","","","","","","","","","","",""
"learning-instructions","101","536169","0.0-3.0-14.0-0.0","spark_pilot_2","7283","5","10","Male","","","","","","","1154","<p> Before you start, we're going to ask you a few questions about how the game works. </p>","","instructions","","","","","","","","","","","","","",""
"comp-q","102","542658","0.0-3.0-15.0-0.0-0.0","spark_pilot_2","7283","5","10","Male","","","","","","","905.2999999523163","<p> <b> True or False? </b> </p>
            <p> There can be 50 pieces of treasure in a given animal's chest. </p>","0","comp_question","","","","false","","","","","","","","","",""
"comp-q","103","551121","0.0-3.0-15.0-0.0-1.0","spark_pilot_2","7283","5","10","Male","","","","","","","1936","<p> <b>Incorrect.</b> The amount of treasure in each chest can range from 0 to 40 pieces. </p>","0","comp_answer","","","","","","","","","","","","","",""
"comp-q","104","557641","0.0-3.0-15.0-0.1-0.1","spark_pilot_2","7283","5","10","Male","","","","","","","956.3999998569489","<p> <b> True or False? </b> </p>
            <p> There can be 50 pieces of treasure in a given animal's chest. </p>","1","comp_question","","","","true","","","","","","","","","",""
"comp-q","105","565985","0.0-3.0-15.0-0.1-1.1","spark_pilot_2","7283","5","10","Male","","","","","","","1699.6000001430511","<p> <b> That's right! </b> The amount of treasure in each chest can range from 0 to 40 pieces. </p>","0","comp_answer","","","","","","","","","","","","","",""
"comp-q","106","573874","0.0-3.0-15.0-0.2-0.2","spark_pilot_2","7283","5","10","Male","","","","","","","768.2999999523163","<p> <b> True or False? </b> </p><p> In this game, all animals have the same amount of treasure in their left and right chests. </p>","1","comp_question","","","","true","","","","","","","","","",""
"comp-q","107","580026","0.0-3.0-15.0-0.2-1.2","spark_pilot_2","7283","5","10","Male","","","","","","","920.0999999046326","<p> <b> That's right! </b> Animals have different amounts of treasure in their treasure chests. </p>","0","comp_answer","","","","","","","","","","","","","",""
"comp-q","108","586578","0.0-3.0-15.0-0.3-0.3","spark_pilot_2","7283","5","10","Male","","","","","","","712.1000001430511","<p> <b> True or False? </b> </p><p> The same animal will always be there if you go up in the same place. </p>","0","comp_question","","","","true","","","","","","","","","",""
"comp-q","109","594290","0.0-3.0-15.0-0.3-1.3","spark_pilot_2","7283","5","10","Male","","","","","","","1264.5","<p> <b> That's right! </b> One animal lives in the upper part and one lives in the lower part of every place. </p>","0","comp_answer","","","","","","","","","","","","","",""
"comp-q","110","600722","0.0-3.0-15.0-0.4-0.4","spark_pilot_2","7283","5","10","Male","","","","","","","915.6999998092651","<p> <b> True or False? </b> </p><p> If you see a different picture, it means you are in a new place. </p>","1","comp_question","","","","true","","","","","","","","","",""
"comp-q","111","613522","0.0-3.0-15.0-0.4-1.4","spark_pilot_2","7283","5","10","Male","","","","","","","1576.5999999046326","<p> <b> That's right! </b> Lots of different images may show the same place. For example,  you may see three different images that all remind you that you are in outer space. </p>","0","comp_answer","","","","","","","","","","","","","",""
"learning-instructions","112","625002","0.0-3.0-16.0-0.0","spark_pilot_2","7283","5","10","Male","","","","","","","1406.4000000953674","<p> Good job. Remember to do your best because the amount of treasure you earn will be converted into bonus money. </p>
            <p> It’s time to start the real game! </p>","","instructions","","","","","","","","","","","","","",""
"learning-instructions","113","628658","0.0-4.0-0.0-0.0","spark_pilot_2","7283","5","10","Male","","","","","","","893.5","<p> This time you are searching for treasure in the <b>canyon</b>.</p>","","instructions","","","","","","","","","","","","","",""
"learning-instructions","114","646754","0.0-4.0-0.0-0.1","spark_pilot_2","7283","5","10","Male","","","","","","","808.2000000476837","<p><b>New</b> animals with <b>new</b> treasure chests live here. You need to explore to discover where the animal with the best treasure chest is.</p>
                    <p> Like before, once you figure out which animal has the chest with the most treasure, you should try to get to that animal and select that chest! </p>","","instructions","","","","","","","","","","","","","",""
"learning-instructions","115","662986","0.0-4.0-1.0-0.0","spark_pilot_2","7283","5","10","Male","","","","","","","1499.7000000476837","<p> Remember, when you see a picture of the place, use the up and down keys to <b>find an animal</b>.</p>
            <p> When you encounter an animal, you should use the left and right keys to <b>select a treasure chest</b>.</p>
            <p> Don't forget to look out for the robber! </p>","","instructions","","","","","","","","","","","","","",""
"revaluation","116","669020","0.0-4.0-2.0-0.0","spark_pilot_2","7283","5","10","Male","","false","","","","","[1519.6999998092651,770.6000001430511]","./assets/img/canyon/memory/26.jpg","[""ArrowUp"",""ArrowLeft""]","value training","canyon","26","{""ArrowUp,ArrowLeft"":26,""ArrowUp,ArrowRight"":10,""ArrowDown,ArrowLeft"":5,""ArrowDown,ArrowRight"":17}","true","ArrowUp,ArrowLeft","false","","","original","1","0","","",""
"html-keyboard-response","117","669529","0.0-4.0-2.0-1.0","spark_pilot_2","7283","5","10","Male","","","","","","","null","<div style=""font-size:60px;"">+</div>","null","fixation","","","","","","","","","","","1","","",""
"revaluation","118","675573","0.0-4.0-2.0-0.1","spark_pilot_2","7283","5","10","Male","","false","","","","","[1125,850.9000000953674]","./assets/img/canyon/memory/1.jpg","[""ArrowUp"",""ArrowRight""]","value training","canyon","10","{""ArrowUp,ArrowLeft"":26,""ArrowUp,ArrowRight"":10,""ArrowDown,ArrowLeft"":5,""ArrowDown,ArrowRight"":17}","false","ArrowUp,ArrowRight","false","","","original","1","2","","",""
"html-keyboard-response","119","676083","0.0-4.0-2.0-1.1","spark_pilot_2","7283","5","10","Male","","","","","","","null","<div style=""font-size:60px;"">+</div>","null","fixation","","","","","","","","","","","3","","",""
"revaluation","120","680107","0.0-4.0-2.0-0.2","spark_pilot_2","7283","5","10","Male","","false","","","","","[1445.5999999046326]","./assets/img/canyon/catch/2.jpg","[""spaceBar""]","value training","canyon","0","{""ArrowUp,ArrowLeft"":26,""ArrowUp,ArrowRight"":10,""ArrowDown,ArrowLeft"":5,""ArrowDown,ArrowRight"":17}","true","spaceBar","true","","","original","1","4","","",""
"html-keyboard-response","121","680618","0.0-4.0-2.0-1.2","spark_pilot_2","7283","5","10","Male","","","","","","","null","<div style=""font-size:60px;"">+</div>","null","fixation","","","","","","","","","","","5","","",""
"revaluation","122","686657","0.0-4.0-2.0-0.3","spark_pilot_2","7283","5","10","Male","","false","","","","","[1284.8999998569489,380.90000009536743]","./assets/img/canyon/memory/10.jpg","[""ArrowDown"",""ArrowLeft""]","value training","canyon","5","{""ArrowUp,ArrowLeft"":26,""ArrowUp,ArrowRight"":10,""ArrowDown,ArrowLeft"":5,""ArrowDown,ArrowRight"":17}","false","ArrowDown,ArrowLeft","false","","","original","1","6","","",""
"html-keyboard-response","123","687168","0.0-4.0-2.0-1.3","spark_pilot_2","7283","5","10","Male","","","","","","","null","<div style=""font-size:60px;"">+</div>","null","fixation","","","","","","","","","","","7","","",""
"revaluation","124","693195","0.0-4.0-2.0-0.4","spark_pilot_2","7283","5","10","Male","","false","","","","","[903.3999998569489,488.40000009536743]","./assets/img/canyon/memory/9.jpg","[""ArrowDown"",""ArrowRight""]","value training","canyon","17","{""ArrowUp,ArrowLeft"":26,""ArrowUp,ArrowRight"":10,""ArrowDown,ArrowLeft"":5,""ArrowDown,ArrowRight"":17}","false","ArrowDown,ArrowRight","false","","","original","1","8","","",""
"html-keyboard-response","125","693698","0.0-4.0-2.0-1.4","spark_pilot_2","7283","5","10","Male","","","","","","","null","<div style=""font-size:60px;"">+</div>","null","fixation","","","","","","","","","","","9","","",""
"revaluation","126","699708","0.0-4.0-2.0-0.5","spark_pilot_2","7283","5","10","Male","","false","","","","","[1665.9000000953674,553.1999998092651]","./assets/img/canyon/memory/18.jpg","[""ArrowUp"",""ArrowLeft""]","value training","canyon","26","{""ArrowUp,ArrowLeft"":26,""ArrowUp,ArrowRight"":10,""ArrowDown,ArrowLeft"":5,""ArrowDown,ArrowRight"":17}","true","ArrowUp,ArrowLeft","false","","","original","1","10","","",""
"html-keyboard-response","127","700210","0.0-4.0-2.0-1.5","spark_pilot_2","7283","5","10","Male","","","","","","","null","<div style=""font-size:60px;"">+</div>","null","fixation","","","","","","","","","","","11","","",""
"revaluation","128","706219","0.0-4.0-2.0-0.6","spark_pilot_2","7283","5","10","Male","","false","","","","","[1492.2999999523163,458.7999999523163]","./assets/img/canyon/memory/20.jpg","[""ArrowUp"",""ArrowLeft""]","value training","canyon","26","{""ArrowUp,ArrowLeft"":26,""ArrowUp,ArrowRight"":10,""ArrowDown,ArrowLeft"":5,""ArrowDown,ArrowRight"":17}","true","ArrowUp,ArrowLeft","false","","","original","1","12","","",""
"html-keyboard-response","129","706721","0.0-4.0-2.0-1.6","spark_pilot_2","7283","5","10","Male","","","","","","","null","<div style=""font-size:60px;"">+</div>","null","fixation","","","","","","","","","","","13","","",""
"revaluation","130","712728","0.0-4.0-2.0-0.7","spark_pilot_2","7283","5","10","Male","","false","","","","","[1325.4000000953674,372.90000009536743]","./assets/img/canyon/memory/34.jpg","[""ArrowUp"",""ArrowLeft""]","value training","canyon","26","{""ArrowUp,ArrowLeft"":26,""ArrowUp,ArrowRight"":10,""ArrowDown,ArrowLeft"":5,""ArrowDown,ArrowRight"":17}","true","ArrowUp,ArrowLeft","false","","","original","1","14","","",""
"html-keyboard-response","131","713231","0.0-4.0-2.0-1.7","spark_pilot_2","7283","5","10","Male","","","","","","","null","<div style=""font-size:60px;"">+</div>","null","fixation","","","","","","","","","","","15","","",""
"revaluation","132","719238","0.0-4.0-2.0-0.8","spark_pilot_2","7283","5","10","Male","","false","","","","","[1280,310.2999999523163]","./assets/img/canyon/memory/12.jpg","[""ArrowUp"",""ArrowLeft""]","value training","canyon","26","{""ArrowUp,ArrowLeft"":26,""ArrowUp,ArrowRight"":10,""ArrowDown,ArrowLeft"":5,""ArrowDown,ArrowRight"":17}","true","ArrowUp,ArrowLeft","false","","","original","1","16","","",""
"html-keyboard-response","133","719742","0.0-4.0-2.0-1.8","spark_pilot_2","7283","5","10","Male","","","","","","","null","<div style=""font-size:60px;"">+</div>","null","fixation","","","","","","","","","","","17","","",""
"revaluation","134","725749","0.0-4.0-2.0-0.9","spark_pilot_2","7283","5","10","Male","","false","","","","","[1456.5,535]","./assets/img/canyon/memory/7.jpg","[""ArrowUp"",""ArrowLeft""]","value training","canyon","26","{""ArrowUp,ArrowLeft"":26,""ArrowUp,ArrowRight"":10,""ArrowDown,ArrowLeft"":5,""ArrowDown,ArrowRight"":17}","true","ArrowUp,ArrowLeft","false","","","original","1","18","","",""
"html-keyboard-response","135","726251","0.0-4.0-2.0-1.9","spark_pilot_2","7283","5","10","Male","","","","","","","null","<div style=""font-size:60px;"">+</div>","null","fixation","","","","","","","","","","","19","","",""
"revaluation","136","732259","0.0-4.0-2.0-0.10","spark_pilot_2","7283","5","10","Male","","false","","","","","[1244.1999998092651,361.7999999523163]","./assets/img/canyon/memory/31.jpg","[""ArrowUp"",""ArrowLeft""]","value training","canyon","26","{""ArrowUp,ArrowLeft"":26,""ArrowUp,ArrowRight"":10,""ArrowDown,ArrowLeft"":5,""ArrowDown,ArrowRight"":17}","true","ArrowUp,ArrowLeft","false","","","original","1","20","","",""
"html-keyboard-response","137","732760","0.0-4.0-2.0-1.10","spark_pilot_2","7283","5","10","Male","","","","","","","null","<div style=""font-size:60px;"">+</div>","null","fixation","","","","","","","","","","","21","","",""
"revaluation","138","738766","0.0-4.0-2.0-0.11","spark_pilot_2","7283","5","10","Male","","false","","","","","[1006.4000000953674,365.59999990463257]","./assets/img/canyon/memory/3.jpg","[""ArrowUp"",""ArrowLeft""]","value training","canyon","26","{""ArrowUp,ArrowLeft"":26,""ArrowUp,ArrowRight"":10,""ArrowDown,ArrowLeft"":5,""ArrowDown,ArrowRight"":17}","true","ArrowUp,ArrowLeft","false","","","original","1","22","","",""
"html-keyboard-response","139","739268","0.0-4.0-2.0-1.11","spark_pilot_2","7283","5","10","Male","","","","","","","null","<div style=""font-size:60px;"">+</div>","null","fixation","","","","","","","","","","","23","","",""
"revaluation","140","743274","0.0-4.0-2.0-0.12","spark_pilot_2","7283","5","10","Male","","false","","","","","[1154.3999998569489]","./assets/img/canyon/catch/5.jpg","[""spaceBar""]","value training","canyon","0","{""ArrowUp,ArrowLeft"":26,""ArrowUp,ArrowRight"":10,""ArrowDown,ArrowLeft"":5,""ArrowDown,ArrowRight"":17}","true","spaceBar","true","","","original","1","24","","",""
"html-keyboard-response","141","743777","0.0-4.0-2.0-1.12","spark_pilot_2","7283","5","10","Male","","","","","","","null","<div style=""font-size:60px;"">+</div>","null","fixation","","","","","","","","","","","25","","",""
"revaluation","142","749782","0.0-4.0-2.0-0.13","spark_pilot_2","7283","5","10","Male","","false","","","","","[798.5999999046326,454.09999990463257]","./assets/img/canyon/memory/29.jpg","[""ArrowUp"",""ArrowLeft""]","value training","canyon","26","{""ArrowUp,ArrowLeft"":26,""ArrowUp,ArrowRight"":10,""ArrowDown,ArrowLeft"":5,""ArrowDown,ArrowRight"":17}","true","ArrowUp,ArrowLeft","false","","","original","1","26","","",""
"html-keyboard-response","143","750284","0.0-4.0-2.0-1.13","spark_pilot_2","7283","5","10","Male","","","","","","","null","<div style=""font-size:60px;"">+</div>","null","fixation","","","","","","","","","","","27","","",""
"revaluation","144","756289","0.0-4.0-2.0-0.14","spark_pilot_2","7283","5","10","Male","","false","","","","","[1212.5999999046326,355.7999999523163]","./assets/img/canyon/memory/19.jpg","[""ArrowUp"",""ArrowLeft""]","value training","canyon","26","{""ArrowUp,ArrowLeft"":26,""ArrowUp,ArrowRight"":10,""ArrowDown,ArrowLeft"":5,""ArrowDown,ArrowRight"":17}","true","ArrowUp,ArrowLeft","false","","","original","1","28","","",""
"html-keyboard-response","145","756790","0.0-4.0-2.0-1.14","spark_pilot_2","7283","5","10","Male","","","","","","","null","<div style=""font-size:60px;"">+</div>","null","fixation","","","","","","","","","","","29","","",""
"revaluation","146","762797","0.0-4.0-2.0-0.15","spark_pilot_2","7283","5","10","Male","","false","","","","","[1078.7000000476837,295.40000009536743]","./assets/img/canyon/memory/38.jpg","[""ArrowUp"",""ArrowLeft""]","value training","canyon","26","{""ArrowUp,ArrowLeft"":26,""ArrowUp,ArrowRight"":10,""ArrowDown,ArrowLeft"":5,""ArrowDown,ArrowRight"":17}","true","ArrowUp,ArrowLeft","false","","","original","1","30","","",""
"html-keyboard-response","147","763299","0.0-4.0-2.0-1.15","spark_pilot_2","7283","5","10","Male","","","","","","","null","<div style=""font-size:60px;"">+</div>","null","fixation","","","","","","","","","","","31","","",""
"revaluation","148","769307","0.0-4.0-2.0-0.16","spark_pilot_2","7283","5","10","Male","","false","","","","","[1427.0999999046326,330.09999990463257]","./assets/img/canyon/memory/18.jpg","[""ArrowUp"",""ArrowLeft""]","value training","canyon","26","{""ArrowUp,ArrowLeft"":26,""ArrowUp,ArrowRight"":10,""ArrowDown,ArrowLeft"":5,""ArrowDown,ArrowRight"":17}","true","ArrowUp,ArrowLeft","false","","","original","1","32","","",""
"html-keyboard-response","149","769809","0.0-4.0-2.0-1.16","spark_pilot_2","7283","5","10","Male","","","","","","","null","<div style=""font-size:60px;"">+</div>","null","fixation","","","","","","","","","","","33","","",""
"revaluation","150","775818","0.0-4.0-2.0-0.17","spark_pilot_2","7283","5","10","Male","","false","","","","","[1130.7999999523163,298.69999980926514]","./assets/img/canyon/memory/1.jpg","[""ArrowUp"",""ArrowLeft""]","value training","canyon","26","{""ArrowUp,ArrowLeft"":26,""ArrowUp,ArrowRight"":10,""ArrowDown,ArrowLeft"":5,""ArrowDown,ArrowRight"":17}","true","ArrowUp,ArrowLeft","false","","","original","1","34","","",""
"html-keyboard-response","151","776319","0.0-4.0-2.0-1.17","spark_pilot_2","7283","5","10","Male","","","","","","","null","<div style=""font-size:60px;"">+</div>","null","fixation","","","","","","","","","","","35","","",""
"revaluation","152","782327","0.0-4.0-2.0-0.18","spark_pilot_2","7283","5","10","Male","","false","","","","","[1223.1999998092651,317.7000000476837]","./assets/img/canyon/memory/36.jpg","[""ArrowUp"",""ArrowLeft""]","value training","canyon","26","{""ArrowUp,ArrowLeft"":26,""ArrowUp,ArrowRight"":10,""ArrowDown,ArrowLeft"":5,""ArrowDown,ArrowRight"":17}","true","ArrowUp,ArrowLeft","false","","","original","1","36","","",""
"html-keyboard-response","153","782829","0.0-4.0-2.0-1.18","spark_pilot_2","7283","5","10","Male","","","","","","","null","<div style=""font-size:60px;"">+</div>","null","fixation","","","","","","","","","","","37","","",""
"revaluation","154","788833","0.0-4.0-2.0-0.19","spark_pilot_2","7283","5","10","Male","","false","","","","","[963.6999998092651,387.19999980926514]","./assets/img/canyon/memory/12.jpg","[""ArrowUp"",""ArrowLeft""]","value training","canyon","26","{""ArrowUp,ArrowLeft"":26,""ArrowUp,ArrowRight"":10,""ArrowDown,ArrowLeft"":5,""ArrowDown,ArrowRight"":17}","true","ArrowUp,ArrowLeft","false","","","original","1","38","","",""
"html-keyboard-response","155","789338","0.0-4.0-2.0-1.19","spark_pilot_2","7283","5","10","Male","","","","","","","null","<div style=""font-size:60px;"">+</div>","null","fixation","","","","","","","","","","","39","","",""
"revaluation","156","795346","0.0-4.0-2.0-0.20","spark_pilot_2","7283","5","10","Male","","false","","","","","[1076.2999999523163,290.2999999523163]","./assets/img/canyon/memory/32.jpg","[""ArrowUp"",""ArrowLeft""]","value training","canyon","26","{""ArrowUp,ArrowLeft"":26,""ArrowUp,ArrowRight"":10,""ArrowDown,ArrowLeft"":5,""ArrowDown,ArrowRight"":17}","true","ArrowUp,ArrowLeft","false","","","original","1","40","","",""
"html-keyboard-response","157","795860","0.0-4.0-2.0-1.20","spark_pilot_2","7283","5","10","Male","","","","","","","null","<div style=""font-size:60px;"">+</div>","null","fixation","","","","","","","","","","","41","","",""
"revaluation","158","799867","0.0-4.0-2.0-0.21","spark_pilot_2","7283","5","10","Male","","false","","","","","[1186.2999999523163]","./assets/img/canyon/catch/0.jpg","[""spaceBar""]","value training","canyon","0","{""ArrowUp,ArrowLeft"":26,""ArrowUp,ArrowRight"":10,""ArrowDown,ArrowLeft"":5,""ArrowDown,ArrowRight"":17}","true","spaceBar","true","","","original","1","42","","",""
"html-keyboard-response","159","800369","0.0-4.0-2.0-1.21","spark_pilot_2","7283","5","10","Male","","","","","","","null","<div style=""font-size:60px;"">+</div>","null","fixation","","","","","","","","","","","43","","",""
"revaluation","160","804376","0.0-4.0-2.0-0.22","spark_pilot_2","7283","5","10","Male","","false","","","","","[1054]","./assets/img/canyon/catch/3.jpg","[""spaceBar""]","value training","canyon","0","{""ArrowUp,ArrowLeft"":26,""ArrowUp,ArrowRight"":10,""ArrowDown,ArrowLeft"":5,""ArrowDown,ArrowRight"":17}","true","spaceBar","true","","","original","1","44","","",""
"html-keyboard-response","161","804878","0.0-4.0-2.0-1.22","spark_pilot_2","7283","5","10","Male","","","","","","","null","<div style=""font-size:60px;"">+</div>","null","fixation","","","","","","","","","","","45","","",""
"revaluation","162","810887","0.0-4.0-2.0-0.23","spark_pilot_2","7283","5","10","Male","","false","","","","","[775.5999999046326,422.7999999523163]","./assets/img/canyon/memory/40.jpg","[""ArrowUp"",""ArrowLeft""]","value training","canyon","26","{""ArrowUp,ArrowLeft"":26,""ArrowUp,ArrowRight"":10,""ArrowDown,ArrowLeft"":5,""ArrowDown,ArrowRight"":17}","true","ArrowUp,ArrowLeft","false","","","original","1","46","","",""
"html-keyboard-response","163","811389","0.0-4.0-2.0-1.23","spark_pilot_2","7283","5","10","Male","","","","","","","null","<div style=""font-size:60px;"">+</div>","null","fixation","","","","","","","","","","","47","","",""
"revaluation","164","817397","0.0-4.0-2.0-0.24","spark_pilot_2","7283","5","10","Male","","false","","","","","[914,616.1000001430511]","./assets/img/canyon/memory/3.jpg","[""ArrowUp"",""ArrowLeft""]","value training","canyon","26","{""ArrowUp,ArrowLeft"":26,""ArrowUp,ArrowRight"":10,""ArrowDown,ArrowLeft"":5,""ArrowDown,ArrowRight"":17}","true","ArrowUp,ArrowLeft","false","","","original","1","48","","",""
"html-keyboard-response","165","817899","0.0-4.0-2.0-1.24","spark_pilot_2","7283","5","10","Male","","","","","","","null","<div style=""font-size:60px;"">+</div>","null","fixation","","","","","","","","","","","49","","",""
"revaluation","166","823908","0.0-4.0-2.0-0.25","spark_pilot_2","7283","5","10","Male","","false","","","","","[867.3999998569489,961.7999999523163]","./assets/img/canyon/memory/4.jpg","[""ArrowUp"",""ArrowLeft""]","value training","canyon","26","{""ArrowUp,ArrowLeft"":26,""ArrowUp,ArrowRight"":10,""ArrowDown,ArrowLeft"":5,""ArrowDown,ArrowRight"":17}","true","ArrowUp,ArrowLeft","false","","","original","1","50","","",""
"html-keyboard-response","167","824411","0.0-4.0-2.0-1.25","spark_pilot_2","7283","5","10","Male","","","","","","","null","<div style=""font-size:60px;"">+</div>","null","fixation","","","","","","","","","","","51","","",""
"revaluation","168","830420","0.0-4.0-2.0-0.26","spark_pilot_2","7283","5","10","Male","","false","","","","","[836.5,571.0999999046326]","./assets/img/canyon/memory/28.jpg","[""ArrowUp"",""ArrowLeft""]","value training","canyon","26","{""ArrowUp,ArrowLeft"":26,""ArrowUp,ArrowRight"":10,""ArrowDown,ArrowLeft"":5,""ArrowDown,ArrowRight"":17}","true","ArrowUp,ArrowLeft","false","","","original","1","52","","",""
"html-keyboard-response","169","830923","0.0-4.0-2.0-1.26","spark_pilot_2","7283","5","10","Male","","","","","","","null","<div style=""font-size:60px;"">+</div>","null","fixation","","","","","","","","","","","53","","",""
"revaluation","170","836929","0.0-4.0-2.0-0.27","spark_pilot_2","7283","5","10","Male","","false","","","","","[757,475.89999985694885]","./assets/img/canyon/memory/34.jpg","[""ArrowUp"",""ArrowLeft""]","value training","canyon","26","{""ArrowUp,ArrowLeft"":26,""ArrowUp,ArrowRight"":10,""ArrowDown,ArrowLeft"":5,""ArrowDown,ArrowRight"":17}","true","ArrowUp,ArrowLeft","false","","","original","1","54","","",""
"html-keyboard-response","171","837432","0.0-4.0-2.0-1.27","spark_pilot_2","7283","5","10","Male","","","","","","","null","<div style=""font-size:60px;"">+</div>","null","fixation","","","","","","","","","","","55","","",""
"revaluation","172","843437","0.0-4.0-2.0-0.28","spark_pilot_2","7283","5","10","Male","","false","","","","","[1041.5,279.89999985694885]","./assets/img/canyon/memory/7.jpg","[""ArrowUp"",""ArrowLeft""]","value training","canyon","26","{""ArrowUp,ArrowLeft"":26,""ArrowUp,ArrowRight"":10,""ArrowDown,ArrowLeft"":5,""ArrowDown,ArrowRight"":17}","true","ArrowUp,ArrowLeft","false","","","original","1","56","","",""
"html-keyboard-response","173","843939","0.0-4.0-2.0-1.28","spark_pilot_2","7283","5","10","Male","","","","","","","null","<div style=""font-size:60px;"">+</div>","null","fixation","","","","","","","","","","","57","","",""
"revaluation","174","849947","0.0-4.0-2.0-0.29","spark_pilot_2","7283","5","10","Male","","false","","","","","[732,338.59999990463257]","./assets/img/canyon/memory/9.jpg","[""ArrowUp"",""ArrowLeft""]","value training","canyon","26","{""ArrowUp,ArrowLeft"":26,""ArrowUp,ArrowRight"":10,""ArrowDown,ArrowLeft"":5,""ArrowDown,ArrowRight"":17}","true","ArrowUp,ArrowLeft","false","","","original","1","58","","",""
"html-keyboard-response","175","850449","0.0-4.0-2.0-1.29","spark_pilot_2","7283","5","10","Male","","","","","","","null","<div style=""font-size:60px;"">+</div>","null","fixation","","","","","","","","","","","59","","",""
"revaluation","176","856456","0.0-4.0-2.0-0.30","spark_pilot_2","7283","5","10","Male","","false","","","","","[646.2999999523163,485.2000000476837]","./assets/img/canyon/memory/40.jpg","[""ArrowUp"",""ArrowLeft""]","value training","canyon","26","{""ArrowUp,ArrowLeft"":26,""ArrowUp,ArrowRight"":10,""ArrowDown,ArrowLeft"":5,""ArrowDown,ArrowRight"":17}","true","ArrowUp,ArrowLeft","false","","","original","1","60","","",""
"html-keyboard-response","177","856958","0.0-4.0-2.0-1.30","spark_pilot_2","7283","5","10","Male","","","","","","","null","<div style=""font-size:60px;"">+</div>","null","fixation","","","","","","","","","","","61","","",""
"revaluation","178","860964","0.0-4.0-2.0-0.31","spark_pilot_2","7283","5","10","Male","","false","","","","","[1160.7999999523163]","./assets/img/canyon/catch/6.jpg","[""spaceBar""]","value training","canyon","0","{""ArrowUp,ArrowLeft"":26,""ArrowUp,ArrowRight"":10,""ArrowDown,ArrowLeft"":5,""ArrowDown,ArrowRight"":17}","true","spaceBar","true","","","original","1","62","","",""
"html-keyboard-response","179","861467","0.0-4.0-2.0-1.31","spark_pilot_2","7283","5","10","Male","","","","","","","null","<div style=""font-size:60px;"">+</div>","null","fixation","","","","","","","","","","","63","","",""
"revaluation","180","865473","0.0-4.0-2.0-0.32","spark_pilot_2","7283","5","10","Male","","false","","","","","[1101]","./assets/img/canyon/catch/7.jpg","[""spaceBar""]","value training","canyon","0","{""ArrowUp,ArrowLeft"":26,""ArrowUp,ArrowRight"":10,""ArrowDown,ArrowLeft"":5,""ArrowDown,ArrowRight"":17}","true","spaceBar","true","","","original","1","64","","",""
"html-keyboard-response","181","865982","0.0-4.0-2.0-1.32","spark_pilot_2","7283","5","10","Male","","","","","","","null","<div style=""font-size:60px;"">+</div>","null","fixation","","","","","","","","","","","65","","",""
"revaluation","182","871990","0.0-4.0-2.0-0.33","spark_pilot_2","7283","5","10","Male","","false","","","","","[927.9000000953674,799.7999999523163]","./assets/img/canyon/memory/31.jpg","[""ArrowUp"",""ArrowLeft""]","value training","canyon","26","{""ArrowUp,ArrowLeft"":26,""ArrowUp,ArrowRight"":10,""ArrowDown,ArrowLeft"":5,""ArrowDown,ArrowRight"":17}","true","ArrowUp,ArrowLeft","false","","","original","1","66","","",""
"html-keyboard-response","183","872492","0.0-4.0-2.0-1.33","spark_pilot_2","7283","5","10","Male","","","","","","","null","<div style=""font-size:60px;"">+</div>","null","fixation","","","","","","","","","","","67","","",""
"revaluation","184","878499","0.0-4.0-2.0-0.34","spark_pilot_2","7283","5","10","Male","","false","","","","","[851.4000000953674,426.2000000476837]","./assets/img/canyon/memory/29.jpg","[""ArrowUp"",""ArrowLeft""]","value training","canyon","26","{""ArrowUp,ArrowLeft"":26,""ArrowUp,ArrowRight"":10,""ArrowDown,ArrowLeft"":5,""ArrowDown,ArrowRight"":17}","true","ArrowUp,ArrowLeft","false","","","original","1","68","","",""
"html-keyboard-response","185","879001","0.0-4.0-2.0-1.34","spark_pilot_2","7283","5","10","Male","","","","","","","null","<div style=""font-size:60px;"">+</div>","null","fixation","","","","","","","","","","","69","","",""
"revaluation","186","885008","0.0-4.0-2.0-0.35","spark_pilot_2","7283","5","10","Male","","false","","","","","[709.7999999523163,461.10000014305115]","./assets/img/canyon/memory/4.jpg","[""ArrowUp"",""ArrowLeft""]","value training","canyon","26","{""ArrowUp,ArrowLeft"":26,""ArrowUp,ArrowRight"":10,""ArrowDown,ArrowLeft"":5,""ArrowDown,ArrowRight"":17}","true","ArrowUp,ArrowLeft","false","","","original","1","70","","",""
"html-keyboard-response","187","885509","0.0-4.0-2.0-1.35","spark_pilot_2","7283","5","10","Male","","","","","","","null","<div style=""font-size:60px;"">+</div>","null","fixation","","","","","","","","","","","71","","",""
"revaluation","188","891514","0.0-4.0-2.0-0.36","spark_pilot_2","7283","5","10","Male","","false","","","","","[940.0999999046326,418.40000009536743]","./assets/img/canyon/memory/38.jpg","[""ArrowUp"",""ArrowLeft""]","value training","canyon","26","{""ArrowUp,ArrowLeft"":26,""ArrowUp,ArrowRight"":10,""ArrowDown,ArrowLeft"":5,""ArrowDown,ArrowRight"":17}","true","ArrowUp,ArrowLeft","false","","","original","1","72","","",""
"html-keyboard-response","189","892017","0.0-4.0-2.0-1.36","spark_pilot_2","7283","5","10","Male","","","","","","","null","<div style=""font-size:60px;"">+</div>","null","fixation","","","","","","","","","","","73","","",""
"revaluation","190","898024","0.0-4.0-2.0-0.37","spark_pilot_2","7283","5","10","Male","","false","","","","","[1061,372]","./assets/img/canyon/memory/27.jpg","[""ArrowUp"",""ArrowLeft""]","value training","canyon","26","{""ArrowUp,ArrowLeft"":26,""ArrowUp,ArrowRight"":10,""ArrowDown,ArrowLeft"":5,""ArrowDown,ArrowRight"":17}","true","ArrowUp,ArrowLeft","false","","","original","1","74","","",""
"html-keyboard-response","191","898527","0.0-4.0-2.0-1.37","spark_pilot_2","7283","5","10","Male","","","","","","","null","<div style=""font-size:60px;"">+</div>","null","fixation","","","","","","","","","","","75","","",""
"revaluation","192","904534","0.0-4.0-2.0-0.38","spark_pilot_2","7283","5","10","Male","","false","","","","","[672,407]","./assets/img/canyon/memory/19.jpg","[""ArrowUp"",""ArrowLeft""]","value training","canyon","26","{""ArrowUp,ArrowLeft"":26,""ArrowUp,ArrowRight"":10,""ArrowDown,ArrowLeft"":5,""ArrowDown,ArrowRight"":17}","true","ArrowUp,ArrowLeft","false","","","original","1","76","","",""
"html-keyboard-response","193","905035","0.0-4.0-2.0-1.38","spark_pilot_2","7283","5","10","Male","","","","","","","null","<div style=""font-size:60px;"">+</div>","null","fixation","","","","","","","","","","","77","","",""
"revaluation","194","911042","0.0-4.0-2.0-0.39","spark_pilot_2","7283","5","10","Male","","false","","","","","[724.1000001430511,395.5]","./assets/img/canyon/memory/0.jpg","[""ArrowUp"",""ArrowLeft""]","value training","canyon","26","{""ArrowUp,ArrowLeft"":26,""ArrowUp,ArrowRight"":10,""ArrowDown,ArrowLeft"":5,""ArrowDown,ArrowRight"":17}","true","ArrowUp,ArrowLeft","false","","","original","1","78","","",""
"html-keyboard-response","195","911544","0.0-4.0-2.0-1.39","spark_pilot_2","7283","5","10","Male","","","","","","","null","<div style=""font-size:60px;"">+</div>","null","fixation","","","","","","","","","","","79","","",""
"revaluation","196","917553","0.0-4.0-2.0-0.40","spark_pilot_2","7283","5","10","Male","","false","","","","","[838.5,381.39999985694885]","./assets/img/canyon/memory/32.jpg","[""ArrowUp"",""ArrowLeft""]","value training","canyon","26","{""ArrowUp,ArrowLeft"":26,""ArrowUp,ArrowRight"":10,""ArrowDown,ArrowLeft"":5,""ArrowDown,ArrowRight"":17}","true","ArrowUp,ArrowLeft","false","","","original","1","80","","",""
"html-keyboard-response","197","918054","0.0-4.0-2.0-1.40","spark_pilot_2","7283","5","10","Male","","","","","","","null","<div style=""font-size:60px;"">+</div>","null","fixation","","","","","","","","","","","81","","",""
"revaluation","198","924061","0.0-4.0-2.0-0.41","spark_pilot_2","7283","5","10","Male","","false","","","","","[1040,303.59999990463257]","./assets/img/canyon/memory/36.jpg","[""ArrowUp"",""ArrowLeft""]","value training","canyon","26","{""ArrowUp,ArrowLeft"":26,""ArrowUp,ArrowRight"":10,""ArrowDown,ArrowLeft"":5,""ArrowDown,ArrowRight"":17}","true","ArrowUp,ArrowLeft","false","","","original","1","82","","",""
"html-keyboard-response","199","924563","0.0-4.0-2.0-1.41","spark_pilot_2","7283","5","10","Male","","","","","","","null","<div style=""font-size:60px;"">+</div>","null","fixation","","","","","","","","","","","83","","",""
"revaluation","200","928570","0.0-4.0-2.0-0.42","spark_pilot_2","7283","5","10","Male","","false","","","","","[1187.6000001430511]","./assets/img/canyon/catch/1.jpg","[""spaceBar""]","value training","canyon","0","{""ArrowUp,ArrowLeft"":26,""ArrowUp,ArrowRight"":10,""ArrowDown,ArrowLeft"":5,""ArrowDown,ArrowRight"":17}","true","spaceBar","true","","","original","1","84","","",""
"html-keyboard-response","201","929072","0.0-4.0-2.0-1.42","spark_pilot_2","7283","5","10","Male","","","","","","","null","<div style=""font-size:60px;"">+</div>","null","fixation","","","","","","","","","","","85","","",""
"revaluation","202","935092","0.0-4.0-2.0-0.43","spark_pilot_2","7283","5","10","Male","","false","","","","","[1110.0999999046326,473.30000019073486]","./assets/img/canyon/memory/0.jpg","[""ArrowUp"",""ArrowLeft""]","value training","canyon","26","{""ArrowUp,ArrowLeft"":26,""ArrowUp,ArrowRight"":10,""ArrowDown,ArrowLeft"":5,""ArrowDown,ArrowRight"":17}","true","ArrowUp,ArrowLeft","false","","","original","1","86","","",""
"html-keyboard-response","203","935593","0.0-4.0-2.0-1.43","spark_pilot_2","7283","5","10","Male","","","","","","","null","<div style=""font-size:60px;"">+</div>","null","fixation","","","","","","","","","","","87","","",""
"revaluation","204","941602","0.0-4.0-2.0-0.44","spark_pilot_2","7283","5","10","Male","","false","","","","","[1036.9000000953674,282.09999990463257]","./assets/img/canyon/memory/10.jpg","[""ArrowUp"",""ArrowLeft""]","value training","canyon","26","{""ArrowUp,ArrowLeft"":26,""ArrowUp,ArrowRight"":10,""ArrowDown,ArrowLeft"":5,""ArrowDown,ArrowRight"":17}","true","ArrowUp,ArrowLeft","false","","","original","1","88","","",""
"html-keyboard-response","205","942103","0.0-4.0-2.0-1.44","spark_pilot_2","7283","5","10","Male","","","","","","","null","<div style=""font-size:60px;"">+</div>","null","fixation","","","","","","","","","","","89","","",""
"revaluation","206","948111","0.0-4.0-2.0-0.45","spark_pilot_2","7283","5","10","Male","","false","","","","","[886.7999999523163,286.40000009536743]","./assets/img/canyon/memory/26.jpg","[""ArrowUp"",""ArrowLeft""]","value training","canyon","26","{""ArrowUp,ArrowLeft"":26,""ArrowUp,ArrowRight"":10,""ArrowDown,ArrowLeft"":5,""ArrowDown,ArrowRight"":17}","true","ArrowUp,ArrowLeft","false","","","original","1","90","","",""
"html-keyboard-response","207","948613","0.0-4.0-2.0-1.45","spark_pilot_2","7283","5","10","Male","","","","","","","null","<div style=""font-size:60px;"">+</div>","null","fixation","","","","","","","","","","","91","","",""
"revaluation","208","954620","0.0-4.0-2.0-0.46","spark_pilot_2","7283","5","10","Male","","false","","","","","[682.7000000476837,305.40000009536743]","./assets/img/canyon/memory/28.jpg","[""ArrowUp"",""ArrowLeft""]","value training","canyon","26","{""ArrowUp,ArrowLeft"":26,""ArrowUp,ArrowRight"":10,""ArrowDown,ArrowLeft"":5,""ArrowDown,ArrowRight"":17}","true","ArrowUp,ArrowLeft","false","","","original","1","92","","",""
"html-keyboard-response","209","955122","0.0-4.0-2.0-1.46","spark_pilot_2","7283","5","10","Male","","","","","","","null","<div style=""font-size:60px;"">+</div>","null","fixation","","","","","","","","","","","93","","",""
"revaluation","210","961130","0.0-4.0-2.0-0.47","spark_pilot_2","7283","5","10","Male","","false","","","","","[1261,356.2000000476837]","./assets/img/canyon/memory/20.jpg","[""ArrowUp"",""ArrowLeft""]","value training","canyon","26","{""ArrowUp,ArrowLeft"":26,""ArrowUp,ArrowRight"":10,""ArrowDown,ArrowLeft"":5,""ArrowDown,ArrowRight"":17}","true","ArrowUp,ArrowLeft","false","","","original","1","94","","",""
"html-keyboard-response","211","961631","0.0-4.0-2.0-1.47","spark_pilot_2","7283","5","10","Male","","","","","","","null","<div style=""font-size:60px;"">+</div>","null","fixation","","","","","","","","","","","95","","",""
"revaluation","212","965638","0.0-4.0-2.0-0.48","spark_pilot_2","7283","5","10","Male","","false","","","","","[1168.0999999046326]","./assets/img/canyon/catch/4.jpg","[""spaceBar""]","value training","canyon","0","{""ArrowUp,ArrowLeft"":26,""ArrowUp,ArrowRight"":10,""ArrowDown,ArrowLeft"":5,""ArrowDown,ArrowRight"":17}","true","spaceBar","true","","","original","1","96","","",""
"html-keyboard-response","213","966140","0.0-4.0-2.0-1.48","spark_pilot_2","7283","5","10","Male","","","","","","","null","<div style=""font-size:60px;"">+</div>","null","fixation","","","","","","","","","","","97","","",""
"revaluation","214","972148","0.0-4.0-2.0-0.49","spark_pilot_2","7283","5","10","Male","","false","","","","","[1315.3000001907349,482.10000014305115]","./assets/img/canyon/memory/27.jpg","[""ArrowUp"",""ArrowLeft""]","value training","canyon","26","{""ArrowUp,ArrowLeft"":26,""ArrowUp,ArrowRight"":10,""ArrowDown,ArrowLeft"":5,""ArrowDown,ArrowRight"":17}","true","ArrowUp,ArrowLeft","false","","","original","1","98","","",""
"html-keyboard-response","215","972650","0.0-4.0-2.0-1.49","spark_pilot_2","7283","5","10","Male","","","","","","","null","<div style=""font-size:60px;"">+</div>","null","fixation","","","","","","","","","","","99","","",""
"learning-instructions","216","986587","0.0-4.0-3.0-0.0","spark_pilot_2","7283","5","10","Male","","","","","","","792.7999999523163","<p> Now, you will travel with a friend who will choose whether you go up or down first. </p>
            <p> On these turns, you will just see the animal that they found. You will still get to choose which chest to search for treasure.</p>","","instructions","","","","","","","","","","","","","",""
"revaluation","217","990617","0.0-4.0-4.0-0.0","spark_pilot_2","7283","5","10","Male","","false","","","","","[999.6000001430511]","./assets/img/canyon/animals/lion.jpg","[""ArrowRight""]","revaluation","canyon","17","{""ArrowUp,ArrowLeft"":26,""ArrowUp,ArrowRight"":10,""ArrowDown,ArrowLeft"":5,""ArrowDown,ArrowRight"":17}","true","ArrowDown,ArrowRight","","","","original","1","0","","",""
"html-keyboard-response","218","991129","0.0-4.0-4.0-1.0","spark_pilot_2","7283","5","10","Male","","","","","","","null","<div style=""font-size:60px;"">+</div>","null","fixation","","","","","","","","","","","1","","",""
"revaluation","219","995153","0.0-4.0-4.0-0.1","spark_pilot_2","7283","5","10","Male","","false","","","","","[590.5999999046326]","./assets/img/canyon/animals/giraffe.jpg","[""ArrowLeft""]","revaluation","canyon","26","{""ArrowUp,ArrowLeft"":26,""ArrowUp,ArrowRight"":10,""ArrowDown,ArrowLeft"":5,""ArrowDown,ArrowRight"":17}","true","ArrowUp,ArrowLeft","","","","original","1","2","","",""
"html-keyboard-response","220","995663","0.0-4.0-4.0-1.1","spark_pilot_2","7283","5","10","Male","","","","","","","null","<div style=""font-size:60px;"">+</div>","null","fixation","","","","","","","","","","","3","","",""
"revaluation","221","999684","0.0-4.0-4.0-0.2","spark_pilot_2","7283","5","10","Male","","false","","","","","[489.2000000476837]","./assets/img/canyon/animals/lion.jpg","[""ArrowRight""]","revaluation","canyon","17","{""ArrowUp,ArrowLeft"":26,""ArrowUp,ArrowRight"":10,""ArrowDown,ArrowLeft"":5,""ArrowDown,ArrowRight"":17}","true","ArrowDown,ArrowRight","","","","original","1","4","","",""
"html-keyboard-response","222","1000197","0.0-4.0-4.0-1.2","spark_pilot_2","7283","5","10","Male","","","","","","","null","<div style=""font-size:60px;"">+</div>","null","fixation","","","","","","","","","","","5","","",""
"revaluation","223","1004219","0.0-4.0-4.0-0.3","spark_pilot_2","7283","5","10","Male","","false","","","","","[778.5]","./assets/img/canyon/animals/giraffe.jpg","[""ArrowLeft""]","revaluation","canyon","26","{""ArrowUp,ArrowLeft"":26,""ArrowUp,ArrowRight"":10,""ArrowDown,ArrowLeft"":5,""ArrowDown,ArrowRight"":17}","true","ArrowUp,ArrowLeft","","","","original","1","6","","",""
"html-keyboard-response","224","1004729","0.0-4.0-4.0-1.3","spark_pilot_2","7283","5","10","Male","","","","","","","null","<div style=""font-size:60px;"">+</div>","null","fixation","","","","","","","","","","","7","","",""
"revaluation","225","1008750","0.0-4.0-4.0-0.4","spark_pilot_2","7283","5","10","Male","","false","","","","","[605.2000000476837]","./assets/img/canyon/animals/lion.jpg","[""ArrowRight""]","revaluation","canyon","17","{""ArrowUp,ArrowLeft"":26,""ArrowUp,ArrowRight"":10,""ArrowDown,ArrowLeft"":5,""ArrowDown,ArrowRight"":17}","true","ArrowDown,ArrowRight","","","","original","1","8","","",""
"html-keyboard-response","226","1009262","0.0-4.0-4.0-1.4","spark_pilot_2","7283","5","10","Male","","","","","","","null","<div style=""font-size:60px;"">+</div>","null","fixation","","","","","","","","","","","9","","",""
"revaluation","227","1013283","0.0-4.0-4.0-0.5","spark_pilot_2","7283","5","10","Male","","false","","","","","[1376.2000000476837]","./assets/img/canyon/animals/lion.jpg","[""ArrowRight""]","revaluation","canyon","17","{""ArrowUp,ArrowLeft"":26,""ArrowUp,ArrowRight"":10,""ArrowDown,ArrowLeft"":5,""ArrowDown,ArrowRight"":17}","true","ArrowDown,ArrowRight","","","","original","1","10","","",""
"html-keyboard-response","228","1013791","0.0-4.0-4.0-1.5","spark_pilot_2","7283","5","10","Male","","","","","","","null","<div style=""font-size:60px;"">+</div>","null","fixation","","","","","","","","","","","11","","",""
"revaluation","229","1017801","0.0-4.0-4.0-0.6","spark_pilot_2","7283","5","10","Male","","false","","","","","[815.8999998569489]","./assets/img/canyon/animals/giraffe.jpg","[""ArrowLeft""]","revaluation","canyon","26","{""ArrowUp,ArrowLeft"":26,""ArrowUp,ArrowRight"":10,""ArrowDown,ArrowLeft"":5,""ArrowDown,ArrowRight"":17}","true","ArrowUp,ArrowLeft","","","","original","1","12","","",""
"html-keyboard-response","230","1018303","0.0-4.0-4.0-1.6","spark_pilot_2","7283","5","10","Male","","","","","","","null","<div style=""font-size:60px;"">+</div>","null","fixation","","","","","","","","","","","13","","",""
"revaluation","231","1022308","0.0-4.0-4.0-0.7","spark_pilot_2","7283","5","10","Male","","false","","","","","[783.6000001430511]","./assets/img/canyon/animals/giraffe.jpg","[""ArrowLeft""]","revaluation","canyon","26","{""ArrowUp,ArrowLeft"":26,""ArrowUp,ArrowRight"":10,""ArrowDown,ArrowLeft"":5,""ArrowDown,ArrowRight"":17}","true","ArrowUp,ArrowLeft","","","","original","1","14","","",""
"html-keyboard-response","232","1022811","0.0-4.0-4.0-1.7","spark_pilot_2","7283","5","10","Male","","","","","","","null","<div style=""font-size:60px;"">+</div>","null","fixation","","","","","","","","","","","15","","",""
"revaluation","233","1026818","0.0-4.0-4.0-0.8","spark_pilot_2","7283","5","10","Male","","false","","","","","[715.3999998569489]","./assets/img/canyon/animals/lion.jpg","[""ArrowRight""]","revaluation","canyon","17","{""ArrowUp,ArrowLeft"":26,""ArrowUp,ArrowRight"":10,""ArrowDown,ArrowLeft"":5,""ArrowDown,ArrowRight"":17}","true","ArrowDown,ArrowRight","","","","original","1","16","","",""
"html-keyboard-response","234","1027320","0.0-4.0-4.0-1.8","spark_pilot_2","7283","5","10","Male","","","","","","","null","<div style=""font-size:60px;"">+</div>","null","fixation","","","","","","","","","","","17","","",""
"revaluation","235","1031327","0.0-4.0-4.0-0.9","spark_pilot_2","7283","5","10","Male","","false","","","","","[623.0999999046326]","./assets/img/canyon/animals/giraffe.jpg","[""ArrowLeft""]","revaluation","canyon","26","{""ArrowUp,ArrowLeft"":26,""ArrowUp,ArrowRight"":10,""ArrowDown,ArrowLeft"":5,""ArrowDown,ArrowRight"":17}","true","ArrowUp,ArrowLeft","","","","original","1","18","","",""
"html-keyboard-response","236","1031828","0.0-4.0-4.0-1.9","spark_pilot_2","7283","5","10","Male","","","","","","","null","<div style=""font-size:60px;"">+</div>","null","fixation","","","","","","","","","","","19","","",""
"revaluation","237","1035836","0.0-4.0-4.0-0.10","spark_pilot_2","7283","5","10","Male","","false","","","","","[1034.5]","./assets/img/canyon/animals/lion.jpg","[""ArrowRight""]","revaluation","canyon","17","{""ArrowUp,ArrowLeft"":26,""ArrowUp,ArrowRight"":10,""ArrowDown,ArrowLeft"":5,""ArrowDown,ArrowRight"":17}","true","ArrowDown,ArrowRight","","","","original","1","20","","",""
"html-keyboard-response","238","1036338","0.0-4.0-4.0-1.10","spark_pilot_2","7283","5","10","Male","","","","","","","null","<div style=""font-size:60px;"">+</div>","null","fixation","","","","","","","","","","","21","","",""
"revaluation","239","1040344","0.0-4.0-4.0-0.11","spark_pilot_2","7283","5","10","Male","","false","","","","","[628.5]","./assets/img/canyon/animals/giraffe.jpg","[""ArrowLeft""]","revaluation","canyon","26","{""ArrowUp,ArrowLeft"":26,""ArrowUp,ArrowRight"":10,""ArrowDown,ArrowLeft"":5,""ArrowDown,ArrowRight"":17}","true","ArrowUp,ArrowLeft","","","","original","1","22","","",""
"html-keyboard-response","240","1040847","0.0-4.0-4.0-1.11","spark_pilot_2","7283","5","10","Male","","","","","","","null","<div style=""font-size:60px;"">+</div>","null","fixation","","","","","","","","","","","23","","",""
"revaluation","241","1044854","0.0-4.0-4.0-0.12","spark_pilot_2","7283","5","10","Male","","false","","","","","[495.7000000476837]","./assets/img/canyon/animals/giraffe.jpg","[""ArrowLeft""]","revaluation","canyon","26","{""ArrowUp,ArrowLeft"":26,""ArrowUp,ArrowRight"":10,""ArrowDown,ArrowLeft"":5,""ArrowDown,ArrowRight"":17}","true","ArrowUp,ArrowLeft","","","","original","1","24","","",""
"html-keyboard-response","242","1045356","0.0-4.0-4.0-1.12","spark_pilot_2","7283","5","10","Male","","","","","","","null","<div style=""font-size:60px;"">+</div>","null","fixation","","","","","","","","","","","25","","",""
"revaluation","243","1049364","0.0-4.0-4.0-0.13","spark_pilot_2","7283","5","10","Male","","false","","","","","[618.8999998569489]","./assets/img/canyon/animals/giraffe.jpg","[""ArrowLeft""]","revaluation","canyon","26","{""ArrowUp,ArrowLeft"":26,""ArrowUp,ArrowRight"":10,""ArrowDown,ArrowLeft"":5,""ArrowDown,ArrowRight"":17}","true","ArrowUp,ArrowLeft","","","","original","1","26","","",""
"html-keyboard-response","244","1049866","0.0-4.0-4.0-1.13","spark_pilot_2","7283","5","10","Male","","","","","","","null","<div style=""font-size:60px;"">+</div>","null","fixation","","","","","","","","","","","27","","",""
"revaluation","245","1053872","0.0-4.0-4.0-0.14","spark_pilot_2","7283","5","10","Male","","false","","","","","[794.7999999523163]","./assets/img/canyon/animals/lion.jpg","[""ArrowRight""]","revaluation","canyon","17","{""ArrowUp,ArrowLeft"":26,""ArrowUp,ArrowRight"":10,""ArrowDown,ArrowLeft"":5,""ArrowDown,ArrowRight"":17}","true","ArrowDown,ArrowRight","","","","original","1","28","","",""
"html-keyboard-response","246","1054374","0.0-4.0-4.0-1.14","spark_pilot_2","7283","5","10","Male","","","","","","","null","<div style=""font-size:60px;"">+</div>","null","fixation","","","","","","","","","","","29","","",""
"revaluation","247","1058380","0.0-4.0-4.0-0.15","spark_pilot_2","7283","5","10","Male","","false","","","","","[736.8999998569489]","./assets/img/canyon/animals/lion.jpg","[""ArrowRight""]","revaluation","canyon","17","{""ArrowUp,ArrowLeft"":26,""ArrowUp,ArrowRight"":10,""ArrowDown,ArrowLeft"":5,""ArrowDown,ArrowRight"":17}","true","ArrowDown,ArrowRight","","","","original","1","30","","",""
"html-keyboard-response","248","1058882","0.0-4.0-4.0-1.15","spark_pilot_2","7283","5","10","Male","","","","","","","null","<div style=""font-size:60px;"">+</div>","null","fixation","","","","","","","","","","","31","","",""
"revaluation","249","1062889","0.0-4.0-4.0-0.16","spark_pilot_2","7283","5","10","Male","","false","","","","","[524.7999999523163]","./assets/img/canyon/animals/giraffe.jpg","[""ArrowLeft""]","revaluation","canyon","26","{""ArrowUp,ArrowLeft"":26,""ArrowUp,ArrowRight"":10,""ArrowDown,ArrowLeft"":5,""ArrowDown,ArrowRight"":17}","true","ArrowUp,ArrowLeft","","","","original","1","32","","",""
"html-keyboard-response","250","1063390","0.0-4.0-4.0-1.16","spark_pilot_2","7283","5","10","Male","","","","","","","null","<div style=""font-size:60px;"">+</div>","null","fixation","","","","","","","","","","","33","","",""
"revaluation","251","1067396","0.0-4.0-4.0-0.17","spark_pilot_2","7283","5","10","Male","","false","","","","","[730.5999999046326]","./assets/img/canyon/animals/lion.jpg","[""ArrowRight""]","revaluation","canyon","17","{""ArrowUp,ArrowLeft"":26,""ArrowUp,ArrowRight"":10,""ArrowDown,ArrowLeft"":5,""ArrowDown,ArrowRight"":17}","true","ArrowDown,ArrowRight","","","","original","1","34","","",""
"html-keyboard-response","252","1067911","0.0-4.0-4.0-1.17","spark_pilot_2","7283","5","10","Male","","","","","","","null","<div style=""font-size:60px;"">+</div>","null","fixation","","","","","","","","","","","35","","",""
"learning-instructions","253","1080402","0.0-4.0-5.0-0.0","spark_pilot_2","7283","5","10","Male","","","","","","","747.4000000953674","<p> Time to play the dot game! </p>
            <p> For one minute, click the red dots on the following screen as they appear. </p>
            <p><b> Don't look away, as you will earn bonus for clicking dots</b>. </p>","","instructions","","","","","","","","","","","","","",""
"revaluation","254","1140404","0.0-4.0-6.0-0.0","spark_pilot_2","7283","5","10","Male","","","","","","","[64,53,77,120,48,65]","","","rest","","60","","","","","0","60000","","","","","",""
"learning-instructions","255","1149275","0.0-4.0-7.0-0.0","spark_pilot_2","7283","5","10","Male","","","","","","","2534.4000000953674","<p> You have almost finished this part of the game! </p>
            <p> We are going to ask you to make a few more choices. </p>","","instructions","","","","","","","","","","","","","",""
"learning-instructions","256","1164467","0.0-4.0-7.0-0.1","spark_pilot_2","7283","5","10","Male","","","","","","","1216.0999999046326","<p> First, you need to decide whether to go up or down. When you see each picture, use the arrow keys to make your choice. </p>
            <p><b>You will not see which animal you found, but try to get to the one that will give you the most treasure.</b></p>","","instructions","","","","","","","","","","","","","",""
"revaluation","257","1165684","0.0-4.0-8.0-0.0","spark_pilot_2","7283","5","10","Male","","false","","","","","[1215.5]","./assets/img/canyon/test/0.jpg","[""ArrowUp""]","first stage test","canyon","0","{""ArrowUp,ArrowLeft"":26,""ArrowUp,ArrowRight"":10,""ArrowDown,ArrowLeft"":5,""ArrowDown,ArrowRight"":17}","true","ArrowUp","false","","","original","1","","","",""
"html-keyboard-response","258","1166195","0.0-4.0-8.0-1.0","spark_pilot_2","7283","5","10","Male","","","","","","","null","<div style=""font-size:60px;"">+</div>","null","fixation","","","","","","","","","","","","","",""
"revaluation","259","1167108","0.0-4.0-8.0-0.1","spark_pilot_2","7283","5","10","Male","","false","","","","","[907.8999998569489]","./assets/img/canyon/test/2.jpg","[""ArrowUp""]","first stage test","canyon","0","{""ArrowUp,ArrowLeft"":26,""ArrowUp,ArrowRight"":10,""ArrowDown,ArrowLeft"":5,""ArrowDown,ArrowRight"":17}","true","ArrowUp","false","","","original","1","","","",""
"html-keyboard-response","260","1167618","0.0-4.0-8.0-1.1","spark_pilot_2","7283","5","10","Male","","","","","","","null","<div style=""font-size:60px;"">+</div>","null","fixation","","","","","","","","","","","","","",""
"revaluation","261","1168420","0.0-4.0-8.0-0.2","spark_pilot_2","7283","5","10","Male","","false","","","","","[796.8999998569489]","./assets/img/canyon/test/1.jpg","[""ArrowUp""]","first stage test","canyon","0","{""ArrowUp,ArrowLeft"":26,""ArrowUp,ArrowRight"":10,""ArrowDown,ArrowLeft"":5,""ArrowDown,ArrowRight"":17}","true","ArrowUp","false","","","original","1","","","",""
"html-keyboard-response","262","1168922","0.0-4.0-8.0-1.2","spark_pilot_2","7283","5","10","Male","","","","","","","null","<div style=""font-size:60px;"">+</div>","null","fixation","","","","","","","","","","","","","",""
"revaluation","263","1169748","0.0-4.0-8.0-0.3","spark_pilot_2","7283","5","10","Male","","false","","","","","[821.5]","./assets/img/canyon/test/3.jpg","[""ArrowUp""]","first stage test","canyon","0","{""ArrowUp,ArrowLeft"":26,""ArrowUp,ArrowRight"":10,""ArrowDown,ArrowLeft"":5,""ArrowDown,ArrowRight"":17}","true","ArrowUp","false","","","original","1","","","",""
"html-keyboard-response","264","1170254","0.0-4.0-8.0-1.3","spark_pilot_2","7283","5","10","Male","","","","","","","null","<div style=""font-size:60px;"">+</div>","null","fixation","","","","","","","","","","","","","",""
"learning-instructions","265","1182371","0.0-4.0-9.0-0.0","spark_pilot_2","7283","5","10","Male","","","","","","","780.2999999523163","<p> Now you will see the animals again and can search their chests for treasure. </p>
            <p> This time, you will not see how much treasure you earned, but you will earn more bonus money for making better choices. </p>","","instructions","","","","","","","","","","","","","",""
"revaluation","266","1183387","0.0-4.0-10.0-0.0","spark_pilot_2","7283","5","10","Male","","false","","","","","[1015.2999999523163]","./assets/img/canyon/animals/giraffe.jpg","[""ArrowLeft""]","second stage test","canyon","0","{""ArrowUp,ArrowLeft"":26,""ArrowUp,ArrowRight"":10,""ArrowDown,ArrowLeft"":5,""ArrowDown,ArrowRight"":17}","true","ArrowUp,ArrowLeft","","","","original","1","","","",""
"html-keyboard-response","267","1183889","0.0-4.0-10.0-1.0","spark_pilot_2","7283","5","10","Male","","","","","","","null","<div style=""font-size:60px;"">+</div>","null","fixation","","","","","","","","","","","","","",""
"revaluation","268","1184604","0.0-4.0-10.0-0.1","spark_pilot_2","7283","5","10","Male","","false","","","","","[710.5999999046326]","./assets/img/canyon/animals/giraffe.jpg","[""ArrowLeft""]","second stage test","canyon","0","{""ArrowUp,ArrowLeft"":26,""ArrowUp,ArrowRight"":10,""ArrowDown,ArrowLeft"":5,""ArrowDown,ArrowRight"":17}","true","ArrowUp,ArrowLeft","","","","original","1","","","",""
"html-keyboard-response","269","1185115","0.0-4.0-10.0-1.1","spark_pilot_2","7283","5","10","Male","","","","","","","null","<div style=""font-size:60px;"">+</div>","null","fixation","","","","","","","","","","","","","",""
"revaluation","270","1185683","0.0-4.0-10.0-0.2","spark_pilot_2","7283","5","10","Male","","false","","","","","[564.5]","./assets/img/canyon/animals/giraffe.jpg","[""ArrowLeft""]","second stage test","canyon","0","{""ArrowUp,ArrowLeft"":26,""ArrowUp,ArrowRight"":10,""ArrowDown,ArrowLeft"":5,""ArrowDown,ArrowRight"":17}","true","ArrowUp,ArrowLeft","","","","original","1","","","",""
"html-keyboard-response","271","1186198","0.0-4.0-10.0-1.2","spark_pilot_2","7283","5","10","Male","","","","","","","null","<div style=""font-size:60px;"">+</div>","null","fixation","","","","","","","","","","","","","",""
"revaluation","272","1186763","0.0-4.0-10.0-0.3","spark_pilot_2","7283","5","10","Male","","false","","","","","[560.2999999523163]","./assets/img/canyon/animals/giraffe.jpg","[""ArrowLeft""]","second stage test","canyon","0","{""ArrowUp,ArrowLeft"":26,""ArrowUp,ArrowRight"":10,""ArrowDown,ArrowLeft"":5,""ArrowDown,ArrowRight"":17}","true","ArrowUp,ArrowLeft","","","","original","1","","","",""
"html-keyboard-response","273","1187267","0.0-4.0-10.0-1.3","spark_pilot_2","7283","5","10","Male","","","","","","","null","<div style=""font-size:60px;"">+</div>","null","fixation","","","","","","","","","","","","","",""
"revaluation","274","1187852","0.0-4.0-10.0-0.4","spark_pilot_2","7283","5","10","Male","","false","","","","","[580.2999999523163]","./assets/img/canyon/animals/lion.jpg","[""ArrowRight""]","second stage test","canyon","0","{""ArrowUp,ArrowLeft"":26,""ArrowUp,ArrowRight"":10,""ArrowDown,ArrowLeft"":5,""ArrowDown,ArrowRight"":17}","true","ArrowDown,ArrowRight","","","","original","1","","","",""
"html-keyboard-response","275","1188364","0.0-4.0-10.0-1.4","spark_pilot_2","7283","5","10","Male","","","","","","","null","<div style=""font-size:60px;"">+</div>","null","fixation","","","","","","","","","","","","","",""
"revaluation","276","1188764","0.0-4.0-10.0-0.5","spark_pilot_2","7283","5","10","Male","","false","","","","","[394.90000009536743]","./assets/img/canyon/animals/lion.jpg","[""ArrowRight""]","second stage test","canyon","0","{""ArrowUp,ArrowLeft"":26,""ArrowUp,ArrowRight"":10,""ArrowDown,ArrowLeft"":5,""ArrowDown,ArrowRight"":17}","true","ArrowDown,ArrowRight","","","","original","1","","","",""
"html-keyboard-response","277","1189278","0.0-4.0-10.0-1.5","spark_pilot_2","7283","5","10","Male","","","","","","","null","<div style=""font-size:60px;"">+</div>","null","fixation","","","","","","","","","","","","","",""
"revaluation","278","1189684","0.0-4.0-10.0-0.6","spark_pilot_2","7283","5","10","Male","","false","","","","","[401]","./assets/img/canyon/animals/lion.jpg","[""ArrowRight""]","second stage test","canyon","0","{""ArrowUp,ArrowLeft"":26,""ArrowUp,ArrowRight"":10,""ArrowDown,ArrowLeft"":5,""ArrowDown,ArrowRight"":17}","true","ArrowDown,ArrowRight","","","","original","1","","","",""
"html-keyboard-response","279","1190193","0.0-4.0-10.0-1.6","spark_pilot_2","7283","5","10","Male","","","","","","","null","<div style=""font-size:60px;"">+</div>","null","fixation","","","","","","","","","","","","","",""
"revaluation","280","1190588","0.0-4.0-10.0-0.7","spark_pilot_2","7283","5","10","Male","","false","","","","","[390]","./assets/img/canyon/animals/lion.jpg","[""ArrowRight""]","second stage test","canyon","0","{""ArrowUp,ArrowLeft"":26,""ArrowUp,ArrowRight"":10,""ArrowDown,ArrowLeft"":5,""ArrowDown,ArrowRight"":17}","true","ArrowDown,ArrowRight","","","","original","1","","","",""
"html-keyboard-response","281","1191092","0.0-4.0-10.0-1.7","spark_pilot_2","7283","5","10","Male","","","","","","","null","<div style=""font-size:60px;"">+</div>","null","fixation","","","","","","","","","","","","","",""
"learning-instructions","282","1200666","0.0-4.0-0.1-0.2","spark_pilot_2","7283","5","10","Male","","","","","","","6856.300000190735","<p> This time you are searching for treasure in the <b>ocean</b>.</p>","","instructions","","","","","","","","","","","","","",""
"learning-instructions","283","1219658","0.0-4.0-0.1-0.3","spark_pilot_2","7283","5","10","Male","","","","","","","1748.1000001430511","<p><b>New</b> animals with <b>new</b> treasure chests live here. You need to explore to discover where the animal with the best treasure chest is.</p>
                    <p> Like before, once you figure out which animal has the chest with the most treasure, you should try to get to that animal and select that chest! </p>","","instructions","","","","","","","","","","","","","",""
"learning-instructions","284","1235739","0.0-4.0-1.1-0.1","spark_pilot_2","7283","5","10","Male","","","","","","","1349.0999999046326","<p> Remember, when you see a picture of the place, use the up and down keys to <b>find an animal</b>.</p>
            <p> When you encounter an animal, you should use the left and right keys to <b>select a treasure chest</b>.</p>
            <p> Don't forget to look out for the robber! </p>","","instructions","","","","","","","","","","","","","",""
"revaluation","285","1239757","0.0-4.0-2.1-0.50","spark_pilot_2","7283","5","10","Male","","false","","","","","[1623.2999999523163]","./assets/img/ocean/catch/2.jpg","[""spaceBar""]","value training","ocean","0","{""ArrowUp,ArrowLeft"":23,""ArrowUp,ArrowRight"":10,""ArrowDown,ArrowLeft"":8,""ArrowDown,ArrowRight"":30}","true","spaceBar","true","","","revaluation","2","0","","",""
"html-keyboard-response","286","1240268","0.0-4.0-2.1-1.50","spark_pilot_2","7283","5","10","Male","","","","","","","null","<div style=""font-size:60px;"">+</div>","null","fixation","","","","","","","","","","","1","","",""
"revaluation","287","1246298","0.0-4.0-2.1-0.51","spark_pilot_2","7283","5","10","Male","","false","","","","","[1098.5,593.2999999523163]","./assets/img/ocean/memory/9.jpg","[""ArrowUp"",""ArrowLeft""]","value training","ocean","23","{""ArrowUp,ArrowLeft"":23,""ArrowUp,ArrowRight"":10,""ArrowDown,ArrowLeft"":8,""ArrowDown,ArrowRight"":30}","false","ArrowUp,ArrowLeft","false","","","revaluation","2","2","","",""
"html-keyboard-response","288","1246810","0.0-4.0-2.1-1.51","spark_pilot_2","7283","5","10","Male","","","","","","","null","<div style=""font-size:60px;"">+</div>","null","fixation","","","","","","","","","","","3","","",""
"revaluation","289","1250835","0.0-4.0-2.1-0.52","spark_pilot_2","7283","5","10","Male","","false","","","","","[1365.8999998569489]","./assets/img/ocean/catch/5.jpg","[""spaceBar""]","value training","ocean","0","{""ArrowUp,ArrowLeft"":23,""ArrowUp,ArrowRight"":10,""ArrowDown,ArrowLeft"":8,""ArrowDown,ArrowRight"":30}","true","spaceBar","true","","","revaluation","2","4","","",""
"html-keyboard-response","290","1251347","0.0-4.0-2.1-1.52","spark_pilot_2","7283","5","10","Male","","","","","","","null","<div style=""font-size:60px;"">+</div>","null","fixation","","","","","","","","","","","5","","",""
"revaluation","291","1257394","0.0-4.0-2.1-0.53","spark_pilot_2","7283","5","10","Male","","false","","","","","[844.3000001907349,996.5]","./assets/img/ocean/memory/36.jpg","[""ArrowUp"",""ArrowRight""]","value training","ocean","10","{""ArrowUp,ArrowLeft"":23,""ArrowUp,ArrowRight"":10,""ArrowDown,ArrowLeft"":8,""ArrowDown,ArrowRight"":30}","false","ArrowUp,ArrowRight","false","","","revaluation","2","6","","",""
"html-keyboard-response","292","1257906","0.0-4.0-2.1-1.53","spark_pilot_2","7283","5","10","Male","","","","","","","null","<div style=""font-size:60px;"">+</div>","null","fixation","","","","","","","","","","","7","","",""
"revaluation","293","1263949","0.0-4.0-2.1-0.54","spark_pilot_2","7283","5","10","Male","","false","","","","","[1389.2999999523163,624.8000001907349]","./assets/img/ocean/memory/0.jpg","[""ArrowDown"",""ArrowLeft""]","value training","ocean","8","{""ArrowUp,ArrowLeft"":23,""ArrowUp,ArrowRight"":10,""ArrowDown,ArrowLeft"":8,""ArrowDown,ArrowRight"":30}","false","ArrowDown,ArrowLeft","false","","","revaluation","2","8","","",""
"html-keyboard-response","294","1264460","0.0-4.0-2.1-1.54","spark_pilot_2","7283","5","10","Male","","","","","","","null","<div style=""font-size:60px;"">+</div>","null","fixation","","","","","","","","","","","9","","",""
"revaluation","295","1270478","0.0-4.0-2.1-0.55","spark_pilot_2","7283","5","10","Male","","false","","","","","[1123.0999999046326,315.10000014305115]","./assets/img/ocean/memory/32.jpg","[""ArrowDown"",""ArrowRight""]","value training","ocean","30","{""ArrowUp,ArrowLeft"":23,""ArrowUp,ArrowRight"":10,""ArrowDown,ArrowLeft"":8,""ArrowDown,ArrowRight"":30}","true","ArrowDown,ArrowRight","false","","","revaluation","2","10","","",""
"html-keyboard-response","296","1270980","0.0-4.0-2.1-1.55","spark_pilot_2","7283","5","10","Male","","","","","","","null","<div style=""font-size:60px;"">+</div>","null","fixation","","","","","","","","","","","11","","",""
"revaluation","297","1276988","0.0-4.0-2.1-0.56","spark_pilot_2","7283","5","10","Male","","false","","","","","[1131.5999999046326,330.40000009536743]","./assets/img/ocean/memory/34.jpg","[""ArrowDown"",""ArrowRight""]","value training","ocean","30","{""ArrowUp,ArrowLeft"":23,""ArrowUp,ArrowRight"":10,""ArrowDown,ArrowLeft"":8,""ArrowDown,ArrowRight"":30}","true","ArrowDown,ArrowRight","false","","","revaluation","2","12","","",""
"html-keyboard-response","298","1277495","0.0-4.0-2.1-1.56","spark_pilot_2","7283","5","10","Male","","","","","","","null","<div style=""font-size:60px;"">+</div>","null","fixation","","","","","","","","","","","13","","",""
"revaluation","299","1283503","0.0-4.0-2.1-0.57","spark_pilot_2","7283","5","10","Male","","false","","","","","[831.8999998569489,279.40000009536743]","./assets/img/ocean/memory/40.jpg","[""ArrowDown"",""ArrowRight""]","value training","ocean","30","{""ArrowUp,ArrowLeft"":23,""ArrowUp,ArrowRight"":10,""ArrowDown,ArrowLeft"":8,""ArrowDown,ArrowRight"":30}","true","ArrowDown,ArrowRight","false","","","revaluation","2","14","","",""
"html-keyboard-response","300","1284004","0.0-4.0-2.1-1.57","spark_pilot_2","7283","5","10","Male","","","","","","","null","<div style=""font-size:60px;"">+</div>","null","fixation","","","","","","","","","","","15","","",""
"revaluation","301","1290011","0.0-4.0-2.1-0.58","spark_pilot_2","7283","5","10","Male","","false","","","","","[1068.6000001430511,418.10000014305115]","./assets/img/ocean/memory/20.jpg","[""ArrowDown"",""ArrowRight""]","value training","ocean","30","{""ArrowUp,ArrowLeft"":23,""ArrowUp,ArrowRight"":10,""ArrowDown,ArrowLeft"":8,""ArrowDown,ArrowRight"":30}","true","ArrowDown,ArrowRight","false","","","revaluation","2","16","","",""
"html-keyboard-response","302","1290513","0.0-4.0-2.1-1.58","spark_pilot_2","7283","5","10","Male","","","","","","","null","<div style=""font-size:60px;"">+</div>","null","fixation","","","","","","","","","","","17","","",""
"revaluation","303","1296526","0.0-4.0-2.1-0.59","spark_pilot_2","7283","5","10","Male","","false","","","","","[1152.5,247.79999995231628]","./assets/img/ocean/memory/27.jpg","[""ArrowDown"",""ArrowRight""]","value training","ocean","30","{""ArrowUp,ArrowLeft"":23,""ArrowUp,ArrowRight"":10,""ArrowDown,ArrowLeft"":8,""ArrowDown,ArrowRight"":30}","true","ArrowDown,ArrowRight","false","","","revaluation","2","18","","",""
"html-keyboard-response","304","1297028","0.0-4.0-2.1-1.59","spark_pilot_2","7283","5","10","Male","","","","","","","null","<div style=""font-size:60px;"">+</div>","null","fixation","","","","","","","","","","","19","","",""
"revaluation","305","1303036","0.0-4.0-2.1-0.60","spark_pilot_2","7283","5","10","Male","","false","","","","","[697.7000000476837,289.2999999523163]","./assets/img/ocean/memory/34.jpg","[""ArrowDown"",""ArrowRight""]","value training","ocean","30","{""ArrowUp,ArrowLeft"":23,""ArrowUp,ArrowRight"":10,""ArrowDown,ArrowLeft"":8,""ArrowDown,ArrowRight"":30}","true","ArrowDown,ArrowRight","false","","","revaluation","2","20","","",""
"html-keyboard-response","306","1303538","0.0-4.0-2.1-1.60","spark_pilot_2","7283","5","10","Male","","","","","","","null","<div style=""font-size:60px;"">+</div>","null","fixation","","","","","","","","","","","21","","",""
"revaluation","307","1309546","0.0-4.0-2.1-0.61","spark_pilot_2","7283","5","10","Male","","false","","","","","[701.2000000476837,340.2999999523163]","./assets/img/ocean/memory/4.jpg","[""ArrowDown"",""ArrowRight""]","value training","ocean","30","{""ArrowUp,ArrowLeft"":23,""ArrowUp,ArrowRight"":10,""ArrowDown,ArrowLeft"":8,""ArrowDown,ArrowRight"":30}","true","ArrowDown,ArrowRight","false","","","revaluation","2","22","","",""
"html-keyboard-response","308","1310048","0.0-4.0-2.1-1.61","spark_pilot_2","7283","5","10","Male","","","","","","","null","<div style=""font-size:60px;"">+</div>","null","fixation","","","","","","","","","","","23","","",""
