"trial_type","trial_index","time_elapsed","internal_node_id","task_version","subject_id","assigned_condition","age","gender","success","timeout","failed_images","failed_audio","failed_video","browser_interaction","rt","stimulus","response","task_part","environment","score","rewardMap","correct","fullState","isCatch","numberMissed","duration","condition","order","trial_num","key_press","ground_truth","bonus"
"pavlovia","0","1139","0.0-0.0","spark_pilot_2","7358","5","14","Male","","","","","","","","","","","","","","","","","","","","","","","",""
"preload","1","15098","0.0-1.0","spark_pilot_2","7358","5","14","Male","true","false","[]","[]","[]","[{""event"":""fullscreenenter"",""trial"":2,""time"":18358}]","","","","","","","","","","","","","","","","","",""
"fullscreen","2","19349","0.0-2.0","spark_pilot_2","7358","5","14","Male","true","","","","","","","","","","","","","","","","","","","","","","",""
"audio-button-response","3","21349","0.0-3.0-0.0-0.0","spark_pilot_2","7358","5","14","Male","","","","","","","1985","./assets/audio/audiotest/turtle.mp3","2","audio_test","","","","","","","","","","","","","",""
"learning-instructions","4","29483","0.0-3.0-1.0-0.0","spark_pilot_2","7358","5","14","Male","","","","","","","1123.2999999970198","<p> Welcome! Please remember to stay in fullscreen mode and don't click away from the experiment. </p>","","instructions","","","","","","","","","","","","","",""
"learning-instructions","5","39249","0.0-3.0-1.0-0.1","spark_pilot_2","7358","5","14","Male","","","","","","","1323.1000000014901","<p> Today you will be playing a game to earn treasure. </p>
            <p> At the end of the experiment, you will earn a bonus based on how much treasure you find. </p>
            <img src='./assets/img/instructions/treasure.jpg' class='instructions-image'>","","instructions","","","","","","","","","","","","","",""
"learning-instructions","6","49000","0.0-3.0-1.0-0.2","spark_pilot_2","7358","5","14","Male","","","","","","","1460.5","<p> Animals have hidden treasure in treasure chests. </p>
            <p> You need to first find an animal and then choose which of their treasure chests to search. </p>
            <img src='./assets/img/space/animals/cat.jpg' class='instructions-image'>","","instructions","","","","","","","","","","","","","",""
"learning-instructions","7","63715","0.0-3.0-1.0-0.3","spark_pilot_2","7358","5","14","Male","","","","","","","1524.1000000014901","<p> In each round, you will search for treasure in a different place. In the real game, there will be two rounds. </p>
            <p> You will begin with a separate, practice round where you will search for treasure in outer space. </p>
            <img src='./assets/img/space/0.jpg' class='instructions-image'>","","instructions","","","","","","","","","","","","","",""
"learning-instructions","8","76165","0.0-3.0-1.0-0.4","spark_pilot_2","7358","5","14","Male","","","","","","","993.8999999985099","<p> On every turn, you will see a picture of the place that you are in, but the specific image may be different each time. </p>
            <p> For example, both of these images mean you are in outer space. </p>
            <img src='./assets/img/instructions/outerspace.jpg' class='instructions-image'>","","instructions","","","","","","","","","","","","","",""
"learning-instructions","9","85849","0.0-3.0-1.0-0.5","spark_pilot_2","7358","5","14","Male","","","","","","","1825","<p> You need to decide which direction to travel in. </p>
            <p> You can choose between going <b>up or down</b> by using the arrow keys. </p>
            <img src='./assets/img/instructions/updown.jpg' class='instructions-image'>","","instructions","","","","","","","","","","","","","",""
"learning-instructions","10","95482","0.0-3.0-1.0-0.6","spark_pilot_2","7358","5","14","Male","","","","","","","788.8000000044703","<p> You will have <b>2 seconds</b> to make your choice. </p>
            <p> If you do not make a choice within 2 seconds, you will not find an animal or earn treasure. </p>
            <img src='./assets/img/instructions/2seconds.jpg' class='instructions-image'>","","instructions","","","","","","","","","","","","","",""
"learning-instructions","11","103815","0.0-3.0-1.0-0.7","spark_pilot_2","7358","5","14","Male","","","","","","","1267.4000000059605","<p> Let’s try practicing that now! </p>
            <p> When you see a picture of the place you are in, press the <b>up</b> key to travel up. </p>
            <img src='./assets/img/instructions/pressUp.jpg' class='instructions-image'>","","instructions","","","","","","","","","","","","","",""
"revaluation","12","107848","0.0-3.0-2.0-0.0","spark_pilot_2","7358","5","14","Male","","false","","","","","[556.6000000014901]","./assets/img/space/0.jpg","[""ArrowUp""]","first stage practice","space","0","null","null","ArrowUp","false","","","","","","","",""
"html-keyboard-response","13","108359","0.0-3.0-2.0-1.0","spark_pilot_2","7358","5","14","Male","","","","","","","null","<div style=""font-size:60px;"">+</div>","null","fixation","","","","","","","","","","","","","",""
"revaluation","14","112385","0.0-3.0-2.0-0.1","spark_pilot_2","7358","5","14","Male","","true","","","","","[]","./assets/img/space/1.jpg","[]","first stage practice","space","-5","null","null","","false","","","","","","","",""
"html-keyboard-response","15","112892","0.0-3.0-2.0-1.1","spark_pilot_2","7358","5","14","Male","","","","","","","null","<div style=""font-size:60px;"">+</div>","null","fixation","","","","","","","","","","","","","",""
"revaluation","16","116912","0.0-3.0-2.0-0.2","spark_pilot_2","7358","5","14","Male","","false","","","","","[757.6000000014901]","./assets/img/space/2.jpg","[""ArrowUp""]","first stage practice","space","0","null","null","ArrowUp","false","","","","","","","",""
"html-keyboard-response","17","117420","0.0-3.0-2.0-1.2","spark_pilot_2","7358","5","14","Male","","","","","","","null","<div style=""font-size:60px;"">+</div>","null","fixation","","","","","","","","","","","","","",""
"learning-instructions","18","123070","0.0-3.0-3.0-0.0","spark_pilot_2","7358","5","14","Male","","","","","","","924.6999999955297","<p> Great job! Now try pressing the <b>down</b> key to travel down. </p>
            <img src='./assets/img/instructions/pressDown.jpg' class='instructions-image'>","","instructions","","","","","","","","","","","","","",""
"revaluation","19","127084","0.0-3.0-4.0-0.0","spark_pilot_2","7358","5","14","Male","","false","","","","","[209.20000000298023]","./assets/img/space/3.jpg","[""ArrowDown""]","first stage practice","space","0","null","null","ArrowDown","false","","","","","","","",""
"html-keyboard-response","20","127587","0.0-3.0-4.0-1.0","spark_pilot_2","7358","5","14","Male","","","","","","","null","<div style=""font-size:60px;"">+</div>","null","fixation","","","","","","","","","","","","","",""
"revaluation","21","131608","0.0-3.0-4.0-0.1","spark_pilot_2","7358","5","14","Male","","false","","","","","[312.69999999552965]","./assets/img/space/4.jpg","[""ArrowDown""]","first stage practice","space","0","null","null","ArrowDown","false","","","","","","","",""
"html-keyboard-response","22","132115","0.0-3.0-4.0-1.1","spark_pilot_2","7358","5","14","Male","","","","","","","null","<div style=""font-size:60px;"">+</div>","null","fixation","","","","","","","","","","","","","",""
"revaluation","23","136132","0.0-3.0-4.0-0.2","spark_pilot_2","7358","5","14","Male","","false","","","","","[356.3999999985099]","./assets/img/space/5.jpg","[""ArrowDown""]","first stage practice","space","0","null","null","ArrowDown","false","","","","","","","",""
"html-keyboard-response","24","136636","0.0-3.0-4.0-1.2","spark_pilot_2","7358","5","14","Male","","","","","","","null","<div style=""font-size:60px;"">+</div>","null","fixation","","","","","","","","","","","","","",""
"learning-instructions","25","147300","0.0-3.0-5.0-0.0","spark_pilot_2","7358","5","14","Male","","","","","","","773.6999999955297","<p> The animals don’t move, so the animal in the upper part of a place will stay in the upper part of a place, and the animal in the lower part of a place will stay in the lower part of a place. </p>","","instructions","","","","","","","","","","","","","",""
"learning-instructions","26","156983","0.0-3.0-5.0-0.1","spark_pilot_2","7358","5","14","Male","","","","","","","518.6000000014901","<p> Each animal has two treasure chests for you to choose from. </p>
            <p> The amount of treasure in each chest can range from <b> 0 to 40 pieces.</b></p>","","instructions","","","","","","","","","","","","","",""
"learning-instructions","27","168683","0.0-3.0-5.0-0.2","spark_pilot_2","7358","5","14","Male","","","","","","","481.20000000298023","<p> You should decide which chest to search for treasure by using the <b>left</b> and <b>right</b> arrow keys. </p>
            <p><b> Pay attention to which animal is on the screen, as the animals have different treasure chests. </b></p>
            <img src='./assets/img/instructions/leftright.jpg' class='instructions-image'>","","instructions","","","","","","","","","","","","","",""
"learning-instructions","28","175833","0.0-3.0-5.0-0.3","spark_pilot_2","7358","5","14","Male","","","","","","","757.7000000029802","<p> Let’s try practicing that now. </p>
            <p> When you see an animal, choose which chest to search for treasure. </p>
            <img src='./assets/img/instructions/chooseChest.jpg' class='instructions-image'>","","instructions","","","","","","","","","","","","","",""
"revaluation","29","179856","0.0-3.0-6.0-0.0","spark_pilot_2","7358","5","14","Male","","false","","","","","[925.2000000029802]","./assets/img/space/animals/rabbit.jpg","[""ArrowLeft""]","second stage practice","space","15","{""ArrowUp,ArrowLeft"":3,""ArrowUp,ArrowRight"":36,""ArrowDown,ArrowLeft"":15,""ArrowDown,ArrowRight"":23}","false","ArrowDown,ArrowLeft","","","","","","","","",""
"html-keyboard-response","30","180362","0.0-3.0-6.0-1.0","spark_pilot_2","7358","5","14","Male","","","","","","","null","<div style=""font-size:60px;"">+</div>","null","fixation","","","","","","","","","","","","","",""
"revaluation","31","184383","0.0-3.0-6.0-0.1","spark_pilot_2","7358","5","14","Male","","false","","","","","[330.8999999985099]","./assets/img/space/animals/cat.jpg","[""ArrowRight""]","second stage practice","space","36","{""ArrowUp,ArrowLeft"":3,""ArrowUp,ArrowRight"":36,""ArrowDown,ArrowLeft"":15,""ArrowDown,ArrowRight"":23}","true","ArrowUp,ArrowRight","","","","","","","","",""
"html-keyboard-response","32","184893","0.0-3.0-6.0-1.1","spark_pilot_2","7358","5","14","Male","","","","","","","null","<div style=""font-size:60px;"">+</div>","null","fixation","","","","","","","","","","","","","",""
"revaluation","33","188910","0.0-3.0-6.0-0.2","spark_pilot_2","7358","5","14","Male","","false","","","","","[872.5]","./assets/img/space/animals/cat.jpg","[""ArrowLeft""]","second stage practice","space","3","{""ArrowUp,ArrowLeft"":3,""ArrowUp,ArrowRight"":36,""ArrowDown,ArrowLeft"":15,""ArrowDown,ArrowRight"":23}","false","ArrowUp,ArrowLeft","","","","","","","","",""
"html-keyboard-response","34","189418","0.0-3.0-6.0-1.2","spark_pilot_2","7358","5","14","Male","","","","","","","null","<div style=""font-size:60px;"">+</div>","null","fixation","","","","","","","","","","","","","",""
"revaluation","35","193439","0.0-3.0-6.0-0.3","spark_pilot_2","7358","5","14","Male","","false","","","","","[357.6000000014901]","./assets/img/space/animals/rabbit.jpg","[""ArrowRight""]","second stage practice","space","23","{""ArrowUp,ArrowLeft"":3,""ArrowUp,ArrowRight"":36,""ArrowDown,ArrowLeft"":15,""ArrowDown,ArrowRight"":23}","true","ArrowDown,ArrowRight","","","","","","","","",""
"html-keyboard-response","36","193950","0.0-3.0-6.0-1.3","spark_pilot_2","7358","5","14","Male","","","","","","","null","<div style=""font-size:60px;"">+</div>","null","fixation","","","","","","","","","","","","","",""
"learning-instructions","37","211401","0.0-3.0-7.0-0.0","spark_pilot_2","7358","5","14","Male","","","","","","","579.1999999955297","<p> Great job. Now let’s try putting it together. </p>
            <p> On each turn, you will first see a picture to remind you of the place you are in, and you need to choose whether to go up or down. </p>
            <p> Then you will see an animal and choose which of its chests to search for treasure. </p>","","instructions","","","","","","","","","","","","","",""
"learning-instructions","38","220916","0.0-3.0-7.0-0.1","spark_pilot_2","7358","5","14","Male","","","","","","","1223.8999999985099","<p> When you choose whether to go up or down, try to go to the animal with the chest with the most treasure. </p>
            <p> Try practicing that now! </p>","","instructions","","","","","","","","","","","","","",""
"revaluation","39","226938","0.0-3.0-8.0-0.0","spark_pilot_2","7358","5","14","Male","","false","","","","","[833.8999999985099,968.8999999985099]","./assets/img/space/6.jpg","[""ArrowDown"",""ArrowLeft""]","full practice","space","15","{""ArrowUp,ArrowLeft"":3,""ArrowUp,ArrowRight"":36,""ArrowDown,ArrowLeft"":15,""ArrowDown,ArrowRight"":23}","false","ArrowDown,ArrowLeft","false","","","","","","","",""
"html-keyboard-response","40","227442","0.0-3.0-8.0-1.0","spark_pilot_2","7358","5","14","Male","","","","","","","null","<div style=""font-size:60px;"">+</div>","null","fixation","","","","","","","","","","","","","",""
"revaluation","41","233470","0.0-3.0-8.0-0.1","spark_pilot_2","7358","5","14","Male","","false","","","","","[290.8999999985099,510.3999999985099]","./assets/img/space/7.jpg","[""ArrowUp"",""ArrowRight""]","full practice","space","36","{""ArrowUp,ArrowLeft"":3,""ArrowUp,ArrowRight"":36,""ArrowDown,ArrowLeft"":15,""ArrowDown,ArrowRight"":23}","true","ArrowUp,ArrowRight","false","","","","","","","",""
"html-keyboard-response","42","233981","0.0-3.0-8.0-1.1","spark_pilot_2","7358","5","14","Male","","","","","","","null","<div style=""font-size:60px;"">+</div>","null","fixation","","","","","","","","","","","","","",""
"revaluation","43","240014","0.0-3.0-8.0-0.2","spark_pilot_2","7358","5","14","Male","","false","","","","","[494.5,565.8999999985099]","./assets/img/space/8.jpg","[""ArrowUp"",""ArrowRight""]","full practice","space","36","{""ArrowUp,ArrowLeft"":3,""ArrowUp,ArrowRight"":36,""ArrowDown,ArrowLeft"":15,""ArrowDown,ArrowRight"":23}","true","ArrowUp,ArrowRight","false","","","","","","","",""
"html-keyboard-response","44","240521","0.0-3.0-8.0-1.2","spark_pilot_2","7358","5","14","Male","","","","","","","null","<div style=""font-size:60px;"">+</div>","null","fixation","","","","","","","","","","","","","",""
"revaluation","45","246550","0.0-3.0-8.0-0.3","spark_pilot_2","7358","5","14","Male","","false","","","","","[347.5,376.30000000447035]","./assets/img/space/9.jpg","[""ArrowDown"",""ArrowLeft""]","full practice","space","15","{""ArrowUp,ArrowLeft"":3,""ArrowUp,ArrowRight"":36,""ArrowDown,ArrowLeft"":15,""ArrowDown,ArrowRight"":23}","false","ArrowDown,ArrowLeft","false","","","","","","","",""
"html-keyboard-response","46","247060","0.0-3.0-8.0-1.3","spark_pilot_2","7358","5","14","Male","","","","","","","null","<div style=""font-size:60px;"">+</div>","null","fixation","","","","","","","","","","","","","",""
"revaluation","47","253083","0.0-3.0-8.0-0.4","spark_pilot_2","7358","5","14","Male","","false","","","","","[509.8999999985099,349.19999999552965]","./assets/img/space/10.jpg","[""ArrowUp"",""ArrowLeft""]","full practice","space","3","{""ArrowUp,ArrowLeft"":3,""ArrowUp,ArrowRight"":36,""ArrowDown,ArrowLeft"":15,""ArrowDown,ArrowRight"":23}","false","ArrowUp,ArrowLeft","false","","","","","","","",""
"html-keyboard-response","48","253594","0.0-3.0-8.0-1.4","spark_pilot_2","7358","5","14","Male","","","","","","","null","<div style=""font-size:60px;"">+</div>","null","fixation","","","","","","","","","","","","","",""
"learning-instructions","49","264601","0.0-3.0-9.0-0.0","spark_pilot_2","7358","5","14","Male","","","","","","","637.6999999955297","<p> One last thing: sometimes, you will see a robber. The robber can be anywhere in the picture. </p>
            <p> If you do not stop them, you will lose treasure. </p>
            <img src='./assets/img/instructions/robber.jpg' class='instructions-image'>","","instructions","","","","","","","","","","","","","",""
"learning-instructions","50","272517","0.0-3.0-9.0-0.1","spark_pilot_2","7358","5","14","Male","","","","","","","723.8000000044703","<p> If you see the robber, you should <b>press the space bar</b> rather than using the arrow keys. </p>
            <p> Try practicing that now! </p>","","instructions","","","","","","","","","","","","","",""
"revaluation","51","276541","0.0-3.0-10.0-0.0","spark_pilot_2","7358","5","14","Male","","false","","","","","[980.6000000014901]","./assets/img/space/catch/0.jpg","[""ArrowDown""]","catch practice","space","-10","{""ArrowUp,ArrowLeft"":3,""ArrowUp,ArrowRight"":36,""ArrowDown,ArrowLeft"":15,""ArrowDown,ArrowRight"":23}","false","ArrowDown","true","","","","","","","",""
"html-keyboard-response","52","277053","0.0-3.0-10.0-1.0","spark_pilot_2","7358","5","14","Male","","","","","","","null","<div style=""font-size:60px;"">+</div>","null","fixation","","","","","","","","","","","","","",""
"revaluation","53","281077","0.0-3.0-10.0-0.1","spark_pilot_2","7358","5","14","Male","","false","","","","","[464.20000000298023]","./assets/img/space/catch/1.jpg","[""spaceBar""]","catch practice","space","0","{""ArrowUp,ArrowLeft"":3,""ArrowUp,ArrowRight"":36,""ArrowDown,ArrowLeft"":15,""ArrowDown,ArrowRight"":23}","true","spaceBar","true","","","","","","","",""
"html-keyboard-response","54","281584","0.0-3.0-10.0-1.1","spark_pilot_2","7358","5","14","Male","","","","","","","null","<div style=""font-size:60px;"">+</div>","null","fixation","","","","","","","","","","","","","",""
"revaluation","55","285603","0.0-3.0-10.0-0.2","spark_pilot_2","7358","5","14","Male","","false","","","","","[465.90000000596046]","./assets/img/space/catch/2.jpg","[""spaceBar""]","catch practice","space","0","{""ArrowUp,ArrowLeft"":3,""ArrowUp,ArrowRight"":36,""ArrowDown,ArrowLeft"":15,""ArrowDown,ArrowRight"":23}","true","spaceBar","true","","","","","","","",""
"html-keyboard-response","56","286113","0.0-3.0-10.0-1.2","spark_pilot_2","7358","5","14","Male","","","","","","","null","<div style=""font-size:60px;"">+</div>","null","fixation","","","","","","","","","","","","","",""
"learning-instructions","57","301117","0.0-3.0-11.0-0.0","spark_pilot_2","7358","5","14","Male","","","","","","","1366.1000000014901","<p> After you explore a place to find treasure, it will be time to play a different game. </p>
            <p> During this game, red dots will appear on the screen and fall down slowly. </p>
            <p><b> You must click on them before they reach the bottom. </b></p>
            <img src='./assets/img/instructions/dotGame.jpg' class='instructions-image'>","","instructions","","","","","","","","","","","","","",""
"learning-instructions","58","307534","0.0-3.0-11.0-0.1","spark_pilot_2","7358","5","14","Male","","","","","","","655","<p> For every dot you click, you will earn additional treasure. </p>
            <p> Let’s try practicing that now. </p>","","instructions","","","","","","","","","","","","","",""
"revaluation","59","322547","0.0-3.0-12.0-0.0","spark_pilot_2","7358","5","14","Male","","","","","","","[72]","","","rest practice","","10","","","","","0","15000","","","","","",""
"learning-instructions","60","328685","0.0-3.0-13.0-0.0-0.0","spark_pilot_2","7358","5","14","Male","","","","","","","896.3999999985099","<p> Now, you will practice a shortened version of the game to get a sense of how it all fits together. </p>","","instructions","","","","","","","","","","","","","",""
"learning-instructions","61","333268","0.0-3.0-13.0-0.0-0.1","spark_pilot_2","7358","5","14","Male","","","","","","","1381.5","<p>This time you are searching for treasure in outer space.</p>","","instructions","","","","","","","","","","","","","",""
"learning-instructions","62","348685","0.0-3.0-13.0-1.0-0.0","spark_pilot_2","7358","5","14","Male","","","","","","","596.2999999970198","<p> Remember, when you see a picture of the place, use the up and down keys to <b>find an animal</b>.</p>
            <p> When you encounter an animal, you should use the left and right keys to <b>select a treasure chest</b>.</p>
            <p> Don't forget to look out for the robber! </p>","","instructions","","","","","","","","","","","","","",""
"revaluation","63","354716","0.0-3.0-13.0-2.0-0.0","spark_pilot_2","7358","5","14","Male","","false","","","","","[994.3999999985099,614.5]","./assets/img/space/11.jpg","[""ArrowUp"",""ArrowLeft""]","practice block","space","3","{""ArrowUp,ArrowLeft"":3,""ArrowUp,ArrowRight"":36,""ArrowDown,ArrowLeft"":15,""ArrowDown,ArrowRight"":23}","false","ArrowUp,ArrowLeft","false","","","","","","","",""
"html-keyboard-response","64","355222","0.0-3.0-13.0-2.0-1.0","spark_pilot_2","7358","5","14","Male","","","","","","","null","<div style=""font-size:60px;"">+</div>","null","fixation","","","","","","","","","","","","","",""
"revaluation","65","361248","0.0-3.0-13.0-2.0-0.1","spark_pilot_2","7358","5","14","Male","","false","","","","","[418.19999999552965,690.6999999955297]","./assets/img/space/12.jpg","[""ArrowDown"",""ArrowRight""]","practice block","space","23","{""ArrowUp,ArrowLeft"":3,""ArrowUp,ArrowRight"":36,""ArrowDown,ArrowLeft"":15,""ArrowDown,ArrowRight"":23}","false","ArrowDown,ArrowRight","false","","","","","","","",""
"html-keyboard-response","66","361751","0.0-3.0-13.0-2.0-1.1","spark_pilot_2","7358","5","14","Male","","","","","","","null","<div style=""font-size:60px;"">+</div>","null","fixation","","","","","","","","","","","","","",""
"revaluation","67","367779","0.0-3.0-13.0-2.0-0.2","spark_pilot_2","7358","5","14","Male","","false","","","","","[998.7999999970198,723.1000000014901]","./assets/img/space/13.jpg","[""ArrowUp"",""ArrowLeft""]","practice block","space","3","{""ArrowUp,ArrowLeft"":3,""ArrowUp,ArrowRight"":36,""ArrowDown,ArrowLeft"":15,""ArrowDown,ArrowRight"":23}","false","ArrowUp,ArrowLeft","false","","","","","","","",""
"html-keyboard-response","68","368291","0.0-3.0-13.0-2.0-1.2","spark_pilot_2","7358","5","14","Male","","","","","","","null","<div style=""font-size:60px;"">+</div>","null","fixation","","","","","","","","","","","","","",""
"revaluation","69","374323","0.0-3.0-13.0-2.0-0.3","spark_pilot_2","7358","5","14","Male","","false","","","","","[493,1278.3000000044703]","./assets/img/space/14.jpg","[""ArrowDown"",""ArrowRight""]","practice block","space","23","{""ArrowUp,ArrowLeft"":3,""ArrowUp,ArrowRight"":36,""ArrowDown,ArrowLeft"":15,""ArrowDown,ArrowRight"":23}","false","ArrowDown,ArrowRight","false","","","","","","","",""
"html-keyboard-response","70","374835","0.0-3.0-13.0-2.0-1.3","spark_pilot_2","7358","5","14","Male","","","","","","","null","<div style=""font-size:60px;"">+</div>","null","fixation","","","","","","","","","","","","","",""
"revaluation","71","380864","0.0-3.0-13.0-2.0-0.4","spark_pilot_2","7358","5","14","Male","","false","","","","","[1339.1000000014901,562.5999999940395]","./assets/img/space/11.jpg","[""ArrowDown"",""ArrowLeft""]","practice block","space","15","{""ArrowUp,ArrowLeft"":3,""ArrowUp,ArrowRight"":36,""ArrowDown,ArrowLeft"":15,""ArrowDown,ArrowRight"":23}","false","ArrowDown,ArrowLeft","false","","","","","","","",""
"html-keyboard-response","72","381377","0.0-3.0-13.0-2.0-1.4","spark_pilot_2","7358","5","14","Male","","","","","","","null","<div style=""font-size:60px;"">+</div>","null","fixation","","","","","","","","","","","","","",""
"revaluation","73","387401","0.0-3.0-13.0-2.0-0.5","spark_pilot_2","7358","5","14","Male","","false","","","","","[265.29999999701977,280.79999999701977]","./assets/img/space/12.jpg","[""ArrowUp"",""ArrowRight""]","practice block","space","36","{""ArrowUp,ArrowLeft"":3,""ArrowUp,ArrowRight"":36,""ArrowDown,ArrowLeft"":15,""ArrowDown,ArrowRight"":23}","true","ArrowUp,ArrowRight","false","","","","","","","",""
"html-keyboard-response","74","387910","0.0-3.0-13.0-2.0-1.5","spark_pilot_2","7358","5","14","Male","","","","","","","null","<div style=""font-size:60px;"">+</div>","null","fixation","","","","","","","","","","","","","",""
"revaluation","75","393937","0.0-3.0-13.0-2.0-0.6","spark_pilot_2","7358","5","14","Male","","false","","","","","[365.79999999701977,573]","./assets/img/space/13.jpg","[""ArrowUp"",""ArrowLeft""]","practice block","space","3","{""ArrowUp,ArrowLeft"":3,""ArrowUp,ArrowRight"":36,""ArrowDown,ArrowLeft"":15,""ArrowDown,ArrowRight"":23}","false","ArrowUp,ArrowLeft","false","","","","","","","",""
"html-keyboard-response","76","394447","0.0-3.0-13.0-2.0-1.6","spark_pilot_2","7358","5","14","Male","","","","","","","null","<div style=""font-size:60px;"">+</div>","null","fixation","","","","","","","","","","","","","",""
"revaluation","77","400473","0.0-3.0-13.0-2.0-0.7","spark_pilot_2","7358","5","14","Male","","false","","","","","[488,1862.8000000044703]","./assets/img/space/14.jpg","[""ArrowUp"",""ArrowRight""]","practice block","space","36","{""ArrowUp,ArrowLeft"":3,""ArrowUp,ArrowRight"":36,""ArrowDown,ArrowLeft"":15,""ArrowDown,ArrowRight"":23}","true","ArrowUp,ArrowRight","false","","","","","","","",""
"html-keyboard-response","78","400983","0.0-3.0-13.0-2.0-1.7","spark_pilot_2","7358","5","14","Male","","","","","","","null","<div style=""font-size:60px;"">+</div>","null","fixation","","","","","","","","","","","","","",""
"revaluation","79","405001","0.0-3.0-13.0-2.0-0.8","spark_pilot_2","7358","5","14","Male","","false","","","","","[1034.1000000014901]","./assets/img/space/catch/3.jpg","[""spaceBar""]","practice block","space","0","{""ArrowUp,ArrowLeft"":3,""ArrowUp,ArrowRight"":36,""ArrowDown,ArrowLeft"":15,""ArrowDown,ArrowRight"":23}","true","spaceBar","true","","","","","","","",""
"html-keyboard-response","80","405511","0.0-3.0-13.0-2.0-1.8","spark_pilot_2","7358","5","14","Male","","","","","","","null","<div style=""font-size:60px;"">+</div>","null","fixation","","","","","","","","","","","","","",""
"learning-instructions","81","419752","0.0-3.0-13.0-3.0-0.0","spark_pilot_2","7358","5","14","Male","","","","","","","1259.6000000014901","<p> Now, you will travel with a friend who will choose whether you go up or down first. </p>
            <p> On these turns, you will just see the animal that they found. You will still get to choose which chest to search for treasure.</p>","","instructions","","","","","","","","","","","","","",""
"revaluation","82","423770","0.0-3.0-13.0-4.0-0.0","spark_pilot_2","7358","5","14","Male","","false","","","","","[1554.8999999985099]","./assets/img/space/animals/cat.jpg","[""ArrowRight""]","practice block","space","36","{""ArrowUp,ArrowLeft"":3,""ArrowUp,ArrowRight"":36,""ArrowDown,ArrowLeft"":15,""ArrowDown,ArrowRight"":23}","true","ArrowUp,ArrowRight","","","","","","","","",""
"html-keyboard-response","83","424281","0.0-3.0-13.0-4.0-1.0","spark_pilot_2","7358","5","14","Male","","","","","","","null","<div style=""font-size:60px;"">+</div>","null","fixation","","","","","","","","","","","","","",""
"revaluation","84","428302","0.0-3.0-13.0-4.0-0.1","spark_pilot_2","7358","5","14","Male","","false","","","","","[379]","./assets/img/space/animals/cat.jpg","[""ArrowLeft""]","practice block","space","3","{""ArrowUp,ArrowLeft"":3,""ArrowUp,ArrowRight"":36,""ArrowDown,ArrowLeft"":15,""ArrowDown,ArrowRight"":23}","false","ArrowUp,ArrowLeft","","","","","","","","",""
"html-keyboard-response","85","428810","0.0-3.0-13.0-4.0-1.1","spark_pilot_2","7358","5","14","Male","","","","","","","null","<div style=""font-size:60px;"">+</div>","null","fixation","","","","","","","","","","","","","",""
"revaluation","86","432830","0.0-3.0-13.0-4.0-0.2","spark_pilot_2","7358","5","14","Male","","false","","","","","[491.3999999985099]","./assets/img/space/animals/rabbit.jpg","[""ArrowRight""]","practice block","space","23","{""ArrowUp,ArrowLeft"":3,""ArrowUp,ArrowRight"":36,""ArrowDown,ArrowLeft"":15,""ArrowDown,ArrowRight"":23}","true","ArrowDown,ArrowRight","","","","","","","","",""
"html-keyboard-response","87","433334","0.0-3.0-13.0-4.0-1.2","spark_pilot_2","7358","5","14","Male","","","","","","","null","<div style=""font-size:60px;"">+</div>","null","fixation","","","","","","","","","","","","","",""
"revaluation","88","437354","0.0-3.0-13.0-4.0-0.3","spark_pilot_2","7358","5","14","Male","","false","","","","","[865.8000000044703]","./assets/img/space/animals/rabbit.jpg","[""ArrowRight""]","practice block","space","23","{""ArrowUp,ArrowLeft"":3,""ArrowUp,ArrowRight"":36,""ArrowDown,ArrowLeft"":15,""ArrowDown,ArrowRight"":23}","true","ArrowDown,ArrowRight","","","","","","","","",""
"html-keyboard-response","89","437866","0.0-3.0-13.0-4.0-1.3","spark_pilot_2","7358","5","14","Male","","","","","","","null","<div style=""font-size:60px;"">+</div>","null","fixation","","","","","","","","","","","","","",""
"learning-instructions","90","445719","0.0-3.0-13.0-5.0-0.0","spark_pilot_2","7358","5","14","Male","","","","","","","454.5","<p> Time to play the dot game! </p>
            <p> For 15 seconds, click the red dots on the following screen as they appear. </p>","","instructions","","","","","","","","","","","","","",""
"revaluation","91","460728","0.0-3.0-13.0-6.0-0.0","spark_pilot_2","7358","5","14","Male","","","","","","","[75]","","","rest practice","","10","","","","","0","15000","","","","","",""
"learning-instructions","92","467701","0.0-3.0-13.0-7.0-0.0","spark_pilot_2","7358","5","14","Male","","","","","","","824.6000000014901","<p> You have almost finished this part of the game! </p>
            <p> We are going to ask you to make a few more choices. </p>","","instructions","","","","","","","","","","","","","",""
"learning-instructions","93","482253","0.0-3.0-13.0-7.0-0.1","spark_pilot_2","7358","5","14","Male","","","","","","","491.5","<p> First, you need to decide whether to go up or down. When you see each picture, use the arrow keys to make your choice. </p>
            <p><b>You will not see which animal you found, but try to get to the one that will give you the most treasure.</b></p>","","instructions","","","","","","","","","","","","","",""
"revaluation","94","483340","0.0-3.0-13.0-8.0","spark_pilot_2","7358","5","14","Male","","false","","","","","[1084]","./assets/img/space/15.jpg","[""ArrowDown""]","practice block","space","0","{""ArrowUp,ArrowLeft"":3,""ArrowUp,ArrowRight"":36,""ArrowDown,ArrowLeft"":15,""ArrowDown,ArrowRight"":23}","false","ArrowDown","false","","","","","","","",""
"html-keyboard-response","95","483848","0.0-3.0-13.0-9.0","spark_pilot_2","7358","5","14","Male","","","","","","","null","<div style=""font-size:60px;"">+</div>","null","fixation","","","","","","","","","","","","","",""
"learning-instructions","96","496186","0.0-3.0-13.0-10.0-0.0","spark_pilot_2","7358","5","14","Male","","","","","","","923","<p> Now you will see the animals again and can search their chests for treasure. </p>
            <p> This time, you will not see how much treasure you earned, but you will earn more bonus money for making better choices. </p>","","instructions","","","","","","","","","","","","","",""
"revaluation","97","496642","0.0-3.0-13.0-11.0-0.0","spark_pilot_2","7358","5","14","Male","","false","","","","","[452.6000000014901]","./assets/img/space/animals/cat.jpg","[""ArrowRight""]","practice block","space","0","{""ArrowUp,ArrowLeft"":3,""ArrowUp,ArrowRight"":36,""ArrowDown,ArrowLeft"":15,""ArrowDown,ArrowRight"":23}","true","ArrowUp,ArrowRight","","","","","","","","",""
"html-keyboard-response","98","497149","0.0-3.0-13.0-11.0-1.0","spark_pilot_2","7358","5","14","Male","","","","","","","null","<div style=""font-size:60px;"">+</div>","null","fixation","","","","","","","","","","","","","",""
"revaluation","99","497817","0.0-3.0-13.0-11.0-0.1","spark_pilot_2","7358","5","14","Male","","false","","","","","[663.3000000044703]","./assets/img/space/animals/rabbit.jpg","[""ArrowLeft""]","practice block","space","0","{""ArrowUp,ArrowLeft"":3,""ArrowUp,ArrowRight"":36,""ArrowDown,ArrowLeft"":15,""ArrowDown,ArrowRight"":23}","false","ArrowDown,ArrowLeft","","","","","","","","",""
"html-keyboard-response","100","498329","0.0-3.0-13.0-11.0-1.1","spark_pilot_2","7358","5","14","Male","","","","","","","null","<div style=""font-size:60px;"">+</div>","null","fixation","","","","","","","","","","","","","",""
"learning-instructions","101","503502","0.0-3.0-14.0-0.0","spark_pilot_2","7358","5","14","Male","","","","","","","569.7999999970198","<p> Before you start, we're going to ask you a few questions about how the game works. </p>","","instructions","","","","","","","","","","","","","",""
"comp-q","102","510137","0.0-3.0-15.0-0.0-0.0","spark_pilot_2","7358","5","14","Male","","","","","","","1028.5","<p> <b> True or False? </b> </p>
            <p> There can be 50 pieces of treasure in a given animal's chest. </p>","0","comp_question","","","","false","","","","","","","","","",""
"comp-q","103","517937","0.0-3.0-15.0-0.0-1.0","spark_pilot_2","7358","5","14","Male","","","","","","","1252.6000000014901","<p> <b>Incorrect.</b> The amount of treasure in each chest can range from 0 to 40 pieces. </p>","0","comp_answer","","","","","","","","","","","","","",""
"comp-q","104","524153","0.0-3.0-15.0-0.1-0.1","spark_pilot_2","7358","5","14","Male","","","","","","","653.6999999955297","<p> <b> True or False? </b> </p>
            <p> There can be 50 pieces of treasure in a given animal's chest. </p>","1","comp_question","","","","true","","","","","","","","","",""
"comp-q","105","531453","0.0-3.0-15.0-0.1-1.1","spark_pilot_2","7358","5","14","Male","","","","","","","616.3000000044703","<p> <b> That's right! </b> The amount of treasure in each chest can range from 0 to 40 pieces. </p>","0","comp_answer","","","","","","","","","","","","","",""
"comp-q","106","539237","0.0-3.0-15.0-0.2-0.2","spark_pilot_2","7358","5","14","Male","","","","","","","638.7999999970198","<p> <b> True or False? </b> </p><p> In this game, all animals have the same amount of treasure in their left and right chests. </p>","1","comp_question","","","","true","","","","","","","","","",""
"comp-q","107","545203","0.0-3.0-15.0-0.2-1.2","spark_pilot_2","7358","5","14","Male","","","","","","","713","<p> <b> That's right! </b> Animals have different amounts of treasure in their treasure chests. </p>","0","comp_answer","","","","","","","","","","","","","",""
"comp-q","108","551537","0.0-3.0-15.0-0.3-0.3","spark_pilot_2","7358","5","14","Male","","","","","","","469.29999999701977","<p> <b> True or False? </b> </p><p> The same animal will always be there if you go up in the same place. </p>","1","comp_question","","","","false","","","","","","","","","",""
"comp-q","109","558887","0.0-3.0-15.0-0.3-1.3","spark_pilot_2","7358","5","14","Male","","","","","","","1021.5999999940395","<p> <b>Incorrect.</b> One animal lives in the upper part and one lives in the lower part of every place. </p>","0","comp_answer","","","","","","","","","","","","","",""
"comp-q","110","565520","0.0-3.0-15.0-0.4-0.4","spark_pilot_2","7358","5","14","Male","","","","","","","810.7000000029802","<p> <b> True or False? </b> </p><p> The same animal will always be there if you go up in the same place. </p>","0","comp_question","","","","true","","","","","","","","","",""
"comp-q","111","572836","0.0-3.0-15.0-0.4-1.4","spark_pilot_2","7358","5","14","Male","","","","","","","847.6000000014901","<p> <b> That's right! </b> One animal lives in the upper part and one lives in the lower part of every place. </p>","0","comp_answer","","","","","","","","","","","","","",""
"comp-q","112","579037","0.0-3.0-15.0-0.5-0.5","spark_pilot_2","7358","5","14","Male","","","","","","","656.8999999985099","<p> <b> True or False? </b> </p><p> If you see a different picture, it means you are in a new place. </p>","1","comp_question","","","","true","","","","","","","","","",""
"comp-q","113","590936","0.0-3.0-15.0-0.5-1.5","spark_pilot_2","7358","5","14","Male","","","","","","","638.3999999985099","<p> <b> That's right! </b> Lots of different images may show the same place. For example,  you may see three different images that all remind you that you are in outer space. </p>","0","comp_answer","","","","","","","","","","","","","",""
"learning-instructions","114","602870","0.0-3.0-16.0-0.0","spark_pilot_2","7358","5","14","Male","","","","","","","2048","<p> Good job. Remember to do your best because the amount of treasure you earn will be converted into bonus money. </p>
            <p> It’s time to start the real game! </p>","","instructions","","","","","","","","","","","","","",""
"learning-instructions","115","607237","0.0-4.0-0.0-0.0","spark_pilot_2","7358","5","14","Male","","","","","","","1526.6999999955297","<p> This time you are searching for treasure in the <b>canyon</b>.</p>","","instructions","","","","","","","","","","","","","",""
"learning-instructions","116","625735","0.0-4.0-0.0-0.1","spark_pilot_2","7358","5","14","Male","","","","","","","1141.6000000014901","<p><b>New</b> animals with <b>new</b> treasure chests live here. You need to explore to discover where the animal with the best treasure chest is.</p>
                    <p> Like before, once you figure out which animal has the chest with the most treasure, you should try to get to that animal and select that chest! </p>","","instructions","","","","","","","","","","","","","",""
"learning-instructions","117","641720","0.0-4.0-1.0-0.0","spark_pilot_2","7358","5","14","Male","","","","","","","1255.8999999985099","<p> Remember, when you see a picture of the place, use the up and down keys to <b>find an animal</b>.</p>
            <p> When you encounter an animal, you should use the left and right keys to <b>select a treasure chest</b>.</p>
            <p> Don't forget to look out for the robber! </p>","","instructions","","","","","","","","","","","","","",""
"revaluation","118","647747","0.0-4.0-2.0-0.0","spark_pilot_2","7358","5","14","Male","","false","","","","","[1096.1999999955297,797.5999999940395]","./assets/img/canyon/memory/3.jpg","[""ArrowUp"",""ArrowRight""]","value training","canyon","10","{""ArrowUp,ArrowLeft"":26,""ArrowUp,ArrowRight"":10,""ArrowDown,ArrowLeft"":5,""ArrowDown,ArrowRight"":17}","false","ArrowUp,ArrowRight","false","","","original","1","0","","",""
"html-keyboard-response","119","648262","0.0-4.0-2.0-1.0","spark_pilot_2","7358","5","14","Male","","","","","","","null","<div style=""font-size:60px;"">+</div>","null","fixation","","","","","","","","","","","1","","",""
"revaluation","120","654294","0.0-4.0-2.0-0.1","spark_pilot_2","7358","5","14","Male","","false","","","","","[1405.1000000014901,458.70000000298023]","./assets/img/canyon/memory/27.jpg","[""ArrowDown"",""ArrowLeft""]","value training","canyon","5","{""ArrowUp,ArrowLeft"":26,""ArrowUp,ArrowRight"":10,""ArrowDown,ArrowLeft"":5,""ArrowDown,ArrowRight"":17}","false","ArrowDown,ArrowLeft","false","","","original","1","2","","",""
"html-keyboard-response","121","654802","0.0-4.0-2.0-1.1","spark_pilot_2","7358","5","14","Male","","","","","","","null","<div style=""font-size:60px;"">+</div>","null","fixation","","","","","","","","","","","3","","",""
"revaluation","122","660830","0.0-4.0-2.0-0.2","spark_pilot_2","7358","5","14","Male","","false","","","","","[442.70000000298023,338.69999999552965]","./assets/img/canyon/memory/17.jpg","[""ArrowUp"",""ArrowLeft""]","value training","canyon","26","{""ArrowUp,ArrowLeft"":26,""ArrowUp,ArrowRight"":10,""ArrowDown,ArrowLeft"":5,""ArrowDown,ArrowRight"":17}","true","ArrowUp,ArrowLeft","false","","","original","1","4","","",""
"html-keyboard-response","123","661341","0.0-4.0-2.0-1.2","spark_pilot_2","7358","5","14","Male","","","","","","","null","<div style=""font-size:60px;"">+</div>","null","fixation","","","","","","","","","","","5","","",""
"revaluation","124","667366","0.0-4.0-2.0-0.3","spark_pilot_2","7358","5","14","Male","","false","","","","","[439.5,606]","./assets/img/canyon/memory/1.jpg","[""ArrowDown"",""ArrowRight""]","value training","canyon","17","{""ArrowUp,ArrowLeft"":26,""ArrowUp,ArrowRight"":10,""ArrowDown,ArrowLeft"":5,""ArrowDown,ArrowRight"":17}","false","ArrowDown,ArrowRight","false","","","original","1","6","","",""
"html-keyboard-response","125","667878","0.0-4.0-2.0-1.3","spark_pilot_2","7358","5","14","Male","","","","","","","null","<div style=""font-size:60px;"">+</div>","null","fixation","","","","","","","","","","","7","","",""
"revaluation","126","673908","0.0-4.0-2.0-0.4","spark_pilot_2","7358","5","14","Male","","false","","","","","[1109.6000000014901,532.1999999955297]","./assets/img/canyon/memory/26.jpg","[""ArrowUp"",""ArrowLeft""]","value training","canyon","26","{""ArrowUp,ArrowLeft"":26,""ArrowUp,ArrowRight"":10,""ArrowDown,ArrowLeft"":5,""ArrowDown,ArrowRight"":17}","true","ArrowUp,ArrowLeft","false","","","original","1","8","","",""
"html-keyboard-response","127","674418","0.0-4.0-2.0-1.4","spark_pilot_2","7358","5","14","Male","","","","","","","null","<div style=""font-size:60px;"">+</div>","null","fixation","","","","","","","","","","","9","","",""
"revaluation","128","678435","0.0-4.0-2.0-0.5","spark_pilot_2","7358","5","14","Male","","false","","","","","[1125.8999999985099]","./assets/img/canyon/catch/0.jpg","[""spaceBar""]","value training","canyon","0","{""ArrowUp,ArrowLeft"":26,""ArrowUp,ArrowRight"":10,""ArrowDown,ArrowLeft"":5,""ArrowDown,ArrowRight"":17}","true","spaceBar","true","","","original","1","10","","",""
"html-keyboard-response","129","678946","0.0-4.0-2.0-1.5","spark_pilot_2","7358","5","14","Male","","","","","","","null","<div style=""font-size:60px;"">+</div>","null","fixation","","","","","","","","","","","11","","",""
"revaluation","130","682963","0.0-4.0-2.0-0.6","spark_pilot_2","7358","5","14","Male","","false","","","","","[1372.7999999970198]","./assets/img/canyon/catch/2.jpg","[""spaceBar""]","value training","canyon","0","{""ArrowUp,ArrowLeft"":26,""ArrowUp,ArrowRight"":10,""ArrowDown,ArrowLeft"":5,""ArrowDown,ArrowRight"":17}","true","spaceBar","true","","","original","1","12","","",""
"html-keyboard-response","131","683474","0.0-4.0-2.0-1.6","spark_pilot_2","7358","5","14","Male","","","","","","","null","<div style=""font-size:60px;"">+</div>","null","fixation","","","","","","","","","","","13","","",""
"revaluation","132","687491","0.0-4.0-2.0-0.7","spark_pilot_2","7358","5","14","Male","","true","","","","","[]","./assets/img/canyon/memory/23.jpg","[]","value training","canyon","-5","{""ArrowUp,ArrowLeft"":26,""ArrowUp,ArrowRight"":10,""ArrowDown,ArrowLeft"":5,""ArrowDown,ArrowRight"":17}","false","","false","","","original","1","14","","",""
"html-keyboard-response","133","688001","0.0-4.0-2.0-1.7","spark_pilot_2","7358","5","14","Male","","","","","","","null","<div style=""font-size:60px;"">+</div>","null","fixation","","","","","","","","","","","15","","",""
"revaluation","134","694028","0.0-4.0-2.0-0.8","spark_pilot_2","7358","5","14","Male","","false","","","","","[1030,351.1000000014901]","./assets/img/canyon/memory/32.jpg","[""ArrowDown"",""ArrowLeft""]","value training","canyon","5","{""ArrowUp,ArrowLeft"":26,""ArrowUp,ArrowRight"":10,""ArrowDown,ArrowLeft"":5,""ArrowDown,ArrowRight"":17}","false","ArrowDown,ArrowLeft","false","","","original","1","16","","",""
"html-keyboard-response","135","694538","0.0-4.0-2.0-1.8","spark_pilot_2","7358","5","14","Male","","","","","","","null","<div style=""font-size:60px;"">+</div>","null","fixation","","","","","","","","","","","17","","",""
"revaluation","136","700563","0.0-4.0-2.0-0.9","spark_pilot_2","7358","5","14","Male","","false","","","","","[335.8999999985099,383.30000000447035]","./assets/img/canyon/memory/26.jpg","[""ArrowUp"",""ArrowRight""]","value training","canyon","10","{""ArrowUp,ArrowLeft"":26,""ArrowUp,ArrowRight"":10,""ArrowDown,ArrowLeft"":5,""ArrowDown,ArrowRight"":17}","false","ArrowUp,ArrowRight","false","","","original","1","18","","",""
"html-keyboard-response","137","701074","0.0-4.0-2.0-1.9","spark_pilot_2","7358","5","14","Male","","","","","","","null","<div style=""font-size:60px;"">+</div>","null","fixation","","","","","","","","","","","19","","",""
"revaluation","138","707100","0.0-4.0-2.0-0.10","spark_pilot_2","7358","5","14","Male","","false","","","","","[755.7999999970198,625.6000000014901]","./assets/img/canyon/memory/16.jpg","[""ArrowDown"",""ArrowLeft""]","value training","canyon","5","{""ArrowUp,ArrowLeft"":26,""ArrowUp,ArrowRight"":10,""ArrowDown,ArrowLeft"":5,""ArrowDown,ArrowRight"":17}","false","ArrowDown,ArrowLeft","false","","","original","1","20","","",""
"html-keyboard-response","139","707610","0.0-4.0-2.0-1.10","spark_pilot_2","7358","5","14","Male","","","","","","","null","<div style=""font-size:60px;"">+</div>","null","fixation","","","","","","","","","","","21","","",""
"revaluation","140","711628","0.0-4.0-2.0-0.11","spark_pilot_2","7358","5","14","Male","","false","","","","","[1061.8000000044703]","./assets/img/canyon/catch/6.jpg","[""spaceBar""]","value training","canyon","0","{""ArrowUp,ArrowLeft"":26,""ArrowUp,ArrowRight"":10,""ArrowDown,ArrowLeft"":5,""ArrowDown,ArrowRight"":17}","true","spaceBar","true","","","original","1","22","","",""
"html-keyboard-response","141","712138","0.0-4.0-2.0-1.11","spark_pilot_2","7358","5","14","Male","","","","","","","null","<div style=""font-size:60px;"">+</div>","null","fixation","","","","","","","","","","","23","","",""
"revaluation","142","718164","0.0-4.0-2.0-0.12","spark_pilot_2","7358","5","14","Male","","false","","","","","[726.7999999970198,835.3999999985099]","./assets/img/canyon/memory/6.jpg","[""ArrowUp"",""ArrowLeft""]","value training","canyon","26","{""ArrowUp,ArrowLeft"":26,""ArrowUp,ArrowRight"":10,""ArrowDown,ArrowLeft"":5,""ArrowDown,ArrowRight"":17}","true","ArrowUp,ArrowLeft","false","","","original","1","24","","",""
"html-keyboard-response","143","718674","0.0-4.0-2.0-1.12","spark_pilot_2","7358","5","14","Male","","","","","","","null","<div style=""font-size:60px;"">+</div>","null","fixation","","","","","","","","","","","25","","",""
"revaluation","144","724701","0.0-4.0-2.0-0.13","spark_pilot_2","7358","5","14","Male","","false","","","","","[868.6999999955297,594.1000000014901]","./assets/img/canyon/memory/17.jpg","[""ArrowDown"",""ArrowRight""]","value training","canyon","17","{""ArrowUp,ArrowLeft"":26,""ArrowUp,ArrowRight"":10,""ArrowDown,ArrowLeft"":5,""ArrowDown,ArrowRight"":17}","false","ArrowDown,ArrowRight","false","","","original","1","26","","",""
"html-keyboard-response","145","725211","0.0-4.0-2.0-1.13","spark_pilot_2","7358","5","14","Male","","","","","","","null","<div style=""font-size:60px;"">+</div>","null","fixation","","","","","","","","","","","27","","",""
"revaluation","146","731237","0.0-4.0-2.0-0.14","spark_pilot_2","7358","5","14","Male","","false","","","","","[723.6000000014901,376]","./assets/img/canyon/memory/3.jpg","[""ArrowUp"",""ArrowLeft""]","value training","canyon","26","{""ArrowUp,ArrowLeft"":26,""ArrowUp,ArrowRight"":10,""ArrowDown,ArrowLeft"":5,""ArrowDown,ArrowRight"":17}","true","ArrowUp,ArrowLeft","false","","","original","1","28","","",""
"html-keyboard-response","147","731747","0.0-4.0-2.0-1.14","spark_pilot_2","7358","5","14","Male","","","","","","","null","<div style=""font-size:60px;"">+</div>","null","fixation","","","","","","","","","","","29","","",""
"revaluation","148","737768","0.0-4.0-2.0-0.15","spark_pilot_2","7358","5","14","Male","","false","","","","","[388.09999999403954,309.5]","./assets/img/canyon/memory/23.jpg","[""ArrowUp"",""ArrowRight""]","value training","canyon","10","{""ArrowUp,ArrowLeft"":26,""ArrowUp,ArrowRight"":10,""ArrowDown,ArrowLeft"":5,""ArrowDown,ArrowRight"":17}","false","ArrowUp,ArrowRight","false","","","original","1","30","","",""
"html-keyboard-response","149","738272","0.0-4.0-2.0-1.15","spark_pilot_2","7358","5","14","Male","","","","","","","null","<div style=""font-size:60px;"">+</div>","null","fixation","","","","","","","","","","","31","","",""
"revaluation","150","744298","0.0-4.0-2.0-0.16","spark_pilot_2","7358","5","14","Male","","false","","","","","[603.3999999985099,372.29999999701977]","./assets/img/canyon/memory/1.jpg","[""ArrowDown"",""ArrowLeft""]","value training","canyon","5","{""ArrowUp,ArrowLeft"":26,""ArrowUp,ArrowRight"":10,""ArrowDown,ArrowLeft"":5,""ArrowDown,ArrowRight"":17}","false","ArrowDown,ArrowLeft","false","","","original","1","32","","",""
"html-keyboard-response","151","744808","0.0-4.0-2.0-1.16","spark_pilot_2","7358","5","14","Male","","","","","","","null","<div style=""font-size:60px;"">+</div>","null","fixation","","","","","","","","","","","33","","",""
"revaluation","152","750834","0.0-4.0-2.0-0.17","spark_pilot_2","7358","5","14","Male","","false","","","","","[903.6000000014901,476.3999999985099]","./assets/img/canyon/memory/4.jpg","[""ArrowUp"",""ArrowRight""]","value training","canyon","10","{""ArrowUp,ArrowLeft"":26,""ArrowUp,ArrowRight"":10,""ArrowDown,ArrowLeft"":5,""ArrowDown,ArrowRight"":17}","false","ArrowUp,ArrowRight","false","","","original","1","34","","",""
"html-keyboard-response","153","751344","0.0-4.0-2.0-1.17","spark_pilot_2","7358","5","14","Male","","","","","","","null","<div style=""font-size:60px;"">+</div>","null","fixation","","","","","","","","","","","35","","",""
"revaluation","154","757370","0.0-4.0-2.0-0.18","spark_pilot_2","7358","5","14","Male","","false","","","","","[719,420.79999999701977]","./assets/img/canyon/memory/4.jpg","[""ArrowDown"",""ArrowLeft""]","value training","canyon","5","{""ArrowUp,ArrowLeft"":26,""ArrowUp,ArrowRight"":10,""ArrowDown,ArrowLeft"":5,""ArrowDown,ArrowRight"":17}","false","ArrowDown,ArrowLeft","false","","","original","1","36","","",""
"html-keyboard-response","155","757881","0.0-4.0-2.0-1.18","spark_pilot_2","7358","5","14","Male","","","","","","","null","<div style=""font-size:60px;"">+</div>","null","fixation","","","","","","","","","","","37","","",""
"revaluation","156","763907","0.0-4.0-2.0-0.19","spark_pilot_2","7358","5","14","Male","","false","","","","","[311.70000000298023,370]","./assets/img/canyon/memory/7.jpg","[""ArrowUp"",""ArrowLeft""]","value training","canyon","26","{""ArrowUp,ArrowLeft"":26,""ArrowUp,ArrowRight"":10,""ArrowDown,ArrowLeft"":5,""ArrowDown,ArrowRight"":17}","true","ArrowUp,ArrowLeft","false","","","original","1","38","","",""
"html-keyboard-response","157","764417","0.0-4.0-2.0-1.19","spark_pilot_2","7358","5","14","Male","","","","","","","null","<div style=""font-size:60px;"">+</div>","null","fixation","","","","","","","","","","","39","","",""
"revaluation","158","768434","0.0-4.0-2.0-0.20","spark_pilot_2","7358","5","14","Male","","false","","","","","[1389]","./assets/img/canyon/catch/5.jpg","[""spaceBar""]","value training","canyon","0","{""ArrowUp,ArrowLeft"":26,""ArrowUp,ArrowRight"":10,""ArrowDown,ArrowLeft"":5,""ArrowDown,ArrowRight"":17}","true","spaceBar","true","","","original","1","40","","",""
"html-keyboard-response","159","768945","0.0-4.0-2.0-1.20","spark_pilot_2","7358","5","14","Male","","","","","","","null","<div style=""font-size:60px;"">+</div>","null","fixation","","","","","","","","","","","41","","",""
"revaluation","160","774971","0.0-4.0-2.0-0.21","spark_pilot_2","7358","5","14","Male","","false","","","","","[880.1000000014901,1075.0999999940395]","./assets/img/canyon/memory/31.jpg","[""ArrowUp"",""ArrowRight""]","value training","canyon","10","{""ArrowUp,ArrowLeft"":26,""ArrowUp,ArrowRight"":10,""ArrowDown,ArrowLeft"":5,""ArrowDown,ArrowRight"":17}","false","ArrowUp,ArrowRight","false","","","original","1","42","","",""
"html-keyboard-response","161","775481","0.0-4.0-2.0-1.21","spark_pilot_2","7358","5","14","Male","","","","","","","null","<div style=""font-size:60px;"">+</div>","null","fixation","","","","","","","","","","","43","","",""
"revaluation","162","779499","0.0-4.0-2.0-0.22","spark_pilot_2","7358","5","14","Male","","false","","","","","[807.5]","./assets/img/canyon/catch/1.jpg","[""spaceBar""]","value training","canyon","0","{""ArrowUp,ArrowLeft"":26,""ArrowUp,ArrowRight"":10,""ArrowDown,ArrowLeft"":5,""ArrowDown,ArrowRight"":17}","true","spaceBar","true","","","original","1","44","","",""
"html-keyboard-response","163","780009","0.0-4.0-2.0-1.22","spark_pilot_2","7358","5","14","Male","","","","","","","null","<div style=""font-size:60px;"">+</div>","null","fixation","","","","","","","","","","","45","","",""
"revaluation","164","786035","0.0-4.0-2.0-0.23","spark_pilot_2","7358","5","14","Male","","false","","","","","[892.5,828.6999999955297]","./assets/img/canyon/memory/8.jpg","[""ArrowUp"",""ArrowLeft""]","value training","canyon","26","{""ArrowUp,ArrowLeft"":26,""ArrowUp,ArrowRight"":10,""ArrowDown,ArrowLeft"":5,""ArrowDown,ArrowRight"":17}","true","ArrowUp,ArrowLeft","false","","","original","1","46","","",""
"html-keyboard-response","165","786545","0.0-4.0-2.0-1.23","spark_pilot_2","7358","5","14","Male","","","","","","","null","<div style=""font-size:60px;"">+</div>","null","fixation","","","","","","","","","","","47","","",""
"revaluation","166","792571","0.0-4.0-2.0-0.24","spark_pilot_2","7358","5","14","Male","","false","","","","","[607.3999999985099,768.6999999955297]","./assets/img/canyon/memory/39.jpg","[""ArrowUp"",""ArrowLeft""]","value training","canyon","26","{""ArrowUp,ArrowLeft"":26,""ArrowUp,ArrowRight"":10,""ArrowDown,ArrowLeft"":5,""ArrowDown,ArrowRight"":17}","true","ArrowUp,ArrowLeft","false","","","original","1","48","","",""
"html-keyboard-response","167","793082","0.0-4.0-2.0-1.24","spark_pilot_2","7358","5","14","Male","","","","","","","null","<div style=""font-size:60px;"">+</div>","null","fixation","","","","","","","","","","","49","","",""
"revaluation","168","797099","0.0-4.0-2.0-0.25","spark_pilot_2","7358","5","14","Male","","false","","","","","[882.8999999985099]","./assets/img/canyon/catch/4.jpg","[""spaceBar""]","value training","canyon","0","{""ArrowUp,ArrowLeft"":26,""ArrowUp,ArrowRight"":10,""ArrowDown,ArrowLeft"":5,""ArrowDown,ArrowRight"":17}","true","spaceBar","true","","","original","1","50","","",""
"html-keyboard-response","169","797609","0.0-4.0-2.0-1.25","spark_pilot_2","7358","5","14","Male","","","","","","","null","<div style=""font-size:60px;"">+</div>","null","fixation","","","","","","","","","","","51","","",""
"revaluation","170","803635","0.0-4.0-2.0-0.26","spark_pilot_2","7358","5","14","Male","","false","","","","","[1359.2999999970198,492.19999999552965]","./assets/img/canyon/memory/19.jpg","[""ArrowDown"",""ArrowLeft""]","value training","canyon","5","{""ArrowUp,ArrowLeft"":26,""ArrowUp,ArrowRight"":10,""ArrowDown,ArrowLeft"":5,""ArrowDown,ArrowRight"":17}","false","ArrowDown,ArrowLeft","false","","","original","1","52","","",""
"html-keyboard-response","171","804146","0.0-4.0-2.0-1.26","spark_pilot_2","7358","5","14","Male","","","","","","","null","<div style=""font-size:60px;"">+</div>","null","fixation","","","","","","","","","","","53","","",""
"revaluation","172","810172","0.0-4.0-2.0-0.27","spark_pilot_2","7358","5","14","Male","","false","","","","","[738.6999999955297,380.09999999403954]","./assets/img/canyon/memory/39.jpg","[""ArrowUp"",""ArrowRight""]","value training","canyon","10","{""ArrowUp,ArrowLeft"":26,""ArrowUp,ArrowRight"":10,""ArrowDown,ArrowLeft"":5,""ArrowDown,ArrowRight"":17}","false","ArrowUp,ArrowRight","false","","","original","1","54","","",""
"html-keyboard-response","173","810682","0.0-4.0-2.0-1.27","spark_pilot_2","7358","5","14","Male","","","","","","","null","<div style=""font-size:60px;"">+</div>","null","fixation","","","","","","","","","","","55","","",""
"revaluation","174","816707","0.0-4.0-2.0-0.28","spark_pilot_2","7358","5","14","Male","","false","","","","","[774.6000000014901,745.1000000014901]","./assets/img/canyon/memory/32.jpg","[""ArrowUp"",""ArrowLeft""]","value training","canyon","26","{""ArrowUp,ArrowLeft"":26,""ArrowUp,ArrowRight"":10,""ArrowDown,ArrowLeft"":5,""ArrowDown,ArrowRight"":17}","true","ArrowUp,ArrowLeft","false","","","original","1","56","","",""
"html-keyboard-response","175","817218","0.0-4.0-2.0-1.28","spark_pilot_2","7358","5","14","Male","","","","","","","null","<div style=""font-size:60px;"">+</div>","null","fixation","","","","","","","","","","","57","","",""
"revaluation","176","823250","0.0-4.0-2.0-0.29","spark_pilot_2","7358","5","14","Male","","false","","","","","[1018.5,356]","./assets/img/canyon/memory/11.jpg","[""ArrowDown"",""ArrowLeft""]","value training","canyon","5","{""ArrowUp,ArrowLeft"":26,""ArrowUp,ArrowRight"":10,""ArrowDown,ArrowLeft"":5,""ArrowDown,ArrowRight"":17}","false","ArrowDown,ArrowLeft","false","","","original","1","58","","",""
"html-keyboard-response","177","823762","0.0-4.0-2.0-1.29","spark_pilot_2","7358","5","14","Male","","","","","","","null","<div style=""font-size:60px;"">+</div>","null","fixation","","","","","","","","","","","59","","",""
"revaluation","178","829792","0.0-4.0-2.0-0.30","spark_pilot_2","7358","5","14","Male","","false","","","","","[352.3999999985099,515.5]","./assets/img/canyon/memory/19.jpg","[""ArrowUp"",""ArrowRight""]","value training","canyon","10","{""ArrowUp,ArrowLeft"":26,""ArrowUp,ArrowRight"":10,""ArrowDown,ArrowLeft"":5,""ArrowDown,ArrowRight"":17}","false","ArrowUp,ArrowRight","false","","","original","1","60","","",""
"html-keyboard-response","179","830302","0.0-4.0-2.0-1.30","spark_pilot_2","7358","5","14","Male","","","","","","","null","<div style=""font-size:60px;"">+</div>","null","fixation","","","","","","","","","","","61","","",""
"revaluation","180","836328","0.0-4.0-2.0-0.31","spark_pilot_2","7358","5","14","Male","","false","","","","","[2004.6000000014901,742.1000000014901]","./assets/img/canyon/memory/27.jpg","[""ArrowUp"",""ArrowRight""]","value training","canyon","10","{""ArrowUp,ArrowLeft"":26,""ArrowUp,ArrowRight"":10,""ArrowDown,ArrowLeft"":5,""ArrowDown,ArrowRight"":17}","false","ArrowUp,ArrowRight","false","","","original","1","62","","",""
"html-keyboard-response","181","836838","0.0-4.0-2.0-1.31","spark_pilot_2","7358","5","14","Male","","","","","","","null","<div style=""font-size:60px;"">+</div>","null","fixation","","","","","","","","","","","63","","",""
"revaluation","182","842865","0.0-4.0-2.0-0.32","spark_pilot_2","7358","5","14","Male","","false","","","","","[435,509.1000000014901]","./assets/img/canyon/memory/38.jpg","[""ArrowDown"",""ArrowLeft""]","value training","canyon","5","{""ArrowUp,ArrowLeft"":26,""ArrowUp,ArrowRight"":10,""ArrowDown,ArrowLeft"":5,""ArrowDown,ArrowRight"":17}","false","ArrowDown,ArrowLeft","false","","","original","1","64","","",""
"html-keyboard-response","183","843375","0.0-4.0-2.0-1.32","spark_pilot_2","7358","5","14","Male","","","","","","","null","<div style=""font-size:60px;"">+</div>","null","fixation","","","","","","","","","","","65","","",""
"revaluation","184","849400","0.0-4.0-2.0-0.33","spark_pilot_2","7358","5","14","Male","","false","","","","","[721.0999999940395,1921.1000000014901]","./assets/img/canyon/memory/29.jpg","[""ArrowUp"",""ArrowRight""]","value training","canyon","10","{""ArrowUp,ArrowLeft"":26,""ArrowUp,ArrowRight"":10,""ArrowDown,ArrowLeft"":5,""ArrowDown,ArrowRight"":17}","false","ArrowUp,ArrowRight","false","","","original","1","66","","",""
"html-keyboard-response","185","849905","0.0-4.0-2.0-1.33","spark_pilot_2","7358","5","14","Male","","","","","","","null","<div style=""font-size:60px;"">+</div>","null","fixation","","","","","","","","","","","67","","",""
"revaluation","186","855931","0.0-4.0-2.0-0.34","spark_pilot_2","7358","5","14","Male","","false","","","","","[835,409]","./assets/img/canyon/memory/16.jpg","[""ArrowUp"",""ArrowLeft""]","value training","canyon","26","{""ArrowUp,ArrowLeft"":26,""ArrowUp,ArrowRight"":10,""ArrowDown,ArrowLeft"":5,""ArrowDown,ArrowRight"":17}","true","ArrowUp,ArrowLeft","false","","","original","1","68","","",""
"html-keyboard-response","187","856442","0.0-4.0-2.0-1.34","spark_pilot_2","7358","5","14","Male","","","","","","","null","<div style=""font-size:60px;"">+</div>","null","fixation","","","","","","","","","","","69","","",""
"revaluation","188","860458","0.0-4.0-2.0-0.35","spark_pilot_2","7358","5","14","Male","","false","","","","","[387.40000000596046]","./assets/img/canyon/catch/7.jpg","[""ArrowUp""]","value training","canyon","-10","{""ArrowUp,ArrowLeft"":26,""ArrowUp,ArrowRight"":10,""ArrowDown,ArrowLeft"":5,""ArrowDown,ArrowRight"":17}","false","ArrowUp","true","","","original","1","70","","",""
"html-keyboard-response","189","860970","0.0-4.0-2.0-1.35","spark_pilot_2","7358","5","14","Male","","","","","","","null","<div style=""font-size:60px;"">+</div>","null","fixation","","","","","","","","","","","71","","",""
"revaluation","190","867001","0.0-4.0-2.0-0.36","spark_pilot_2","7358","5","14","Male","","false","","","","","[637.1999999955297,382.79999999701977]","./assets/img/canyon/memory/12.jpg","[""ArrowDown"",""ArrowLeft""]","value training","canyon","5","{""ArrowUp,ArrowLeft"":26,""ArrowUp,ArrowRight"":10,""ArrowDown,ArrowLeft"":5,""ArrowDown,ArrowRight"":17}","false","ArrowDown,ArrowLeft","false","","","original","1","72","","",""
"html-keyboard-response","191","867512","0.0-4.0-2.0-1.36","spark_pilot_2","7358","5","14","Male","","","","","","","null","<div style=""font-size:60px;"">+</div>","null","fixation","","","","","","","","","","","73","","",""
"revaluation","192","873538","0.0-4.0-2.0-0.37","spark_pilot_2","7358","5","14","Male","","false","","","","","[596,859.2999999970198]","./assets/img/canyon/memory/8.jpg","[""ArrowUp"",""ArrowRight""]","value training","canyon","10","{""ArrowUp,ArrowLeft"":26,""ArrowUp,ArrowRight"":10,""ArrowDown,ArrowLeft"":5,""ArrowDown,ArrowRight"":17}","false","ArrowUp,ArrowRight","false","","","original","1","74","","",""
"html-keyboard-response","193","874048","0.0-4.0-2.0-1.37","spark_pilot_2","7358","5","14","Male","","","","","","","null","<div style=""font-size:60px;"">+</div>","null","fixation","","","","","","","","","","","75","","",""
"revaluation","194","880074","0.0-4.0-2.0-0.38","spark_pilot_2","7358","5","14","Male","","false","","","","","[818.2000000029802,666.8000000044703]","./assets/img/canyon/memory/25.jpg","[""ArrowUp"",""ArrowLeft""]","value training","canyon","26","{""ArrowUp,ArrowLeft"":26,""ArrowUp,ArrowRight"":10,""ArrowDown,ArrowLeft"":5,""ArrowDown,ArrowRight"":17}","true","ArrowUp,ArrowLeft","false","","","original","1","76","","",""
"html-keyboard-response","195","880584","0.0-4.0-2.0-1.38","spark_pilot_2","7358","5","14","Male","","","","","","","null","<div style=""font-size:60px;"">+</div>","null","fixation","","","","","","","","","","","77","","",""
"revaluation","196","884602","0.0-4.0-2.0-0.39","spark_pilot_2","7358","5","14","Male","","true","","","","","[]","./assets/img/canyon/memory/7.jpg","[]","value training","canyon","-5","{""ArrowUp,ArrowLeft"":26,""ArrowUp,ArrowRight"":10,""ArrowDown,ArrowLeft"":5,""ArrowDown,ArrowRight"":17}","false","","false","","","original","1","78","","",""
"html-keyboard-response","197","885112","0.0-4.0-2.0-1.39","spark_pilot_2","7358","5","14","Male","","","","","","","null","<div style=""font-size:60px;"">+</div>","null","fixation","","","","","","","","","","","79","","",""
"revaluation","198","891138","0.0-4.0-2.0-0.40","spark_pilot_2","7358","5","14","Male","","false","","","","","[392.8999999985099,410.09999999403954]","./assets/img/canyon/memory/12.jpg","[""ArrowUp"",""ArrowRight""]","value training","canyon","10","{""ArrowUp,ArrowLeft"":26,""ArrowUp,ArrowRight"":10,""ArrowDown,ArrowLeft"":5,""ArrowDown,ArrowRight"":17}","false","ArrowUp,ArrowRight","false","","","original","1","80","","",""
"html-keyboard-response","199","891648","0.0-4.0-2.0-1.40","spark_pilot_2","7358","5","14","Male","","","","","","","null","<div style=""font-size:60px;"">+</div>","null","fixation","","","","","","","","","","","81","","",""
"revaluation","200","895666","0.0-4.0-2.0-0.41","spark_pilot_2","7358","5","14","Male","","false","","","","","[1419.1999999955297]","./assets/img/canyon/catch/3.jpg","[""spaceBar""]","value training","canyon","0","{""ArrowUp,ArrowLeft"":26,""ArrowUp,ArrowRight"":10,""ArrowDown,ArrowLeft"":5,""ArrowDown,ArrowRight"":17}","true","spaceBar","true","","","original","1","82","","",""
"html-keyboard-response","201","896176","0.0-4.0-2.0-1.41","spark_pilot_2","7358","5","14","Male","","","","","","","null","<div style=""font-size:60px;"">+</div>","null","fixation","","","","","","","","","","","83","","",""
"revaluation","202","902201","0.0-4.0-2.0-0.42","spark_pilot_2","7358","5","14","Male","","false","","","","","[782.8000000044703,936.3999999985099]","./assets/img/canyon/memory/38.jpg","[""ArrowUp"",""ArrowRight""]","value training","canyon","10","{""ArrowUp,ArrowLeft"":26,""ArrowUp,ArrowRight"":10,""ArrowDown,ArrowLeft"":5,""ArrowDown,ArrowRight"":17}","false","ArrowUp,ArrowRight","false","","","original","1","84","","",""
"html-keyboard-response","203","902712","0.0-4.0-2.0-1.42","spark_pilot_2","7358","5","14","Male","","","","","","","null","<div style=""font-size:60px;"">+</div>","null","fixation","","","","","","","","","","","85","","",""
"revaluation","204","908744","0.0-4.0-2.0-0.43","spark_pilot_2","7358","5","14","Male","","false","","","","","[439.29999999701977,400.1000000014901]","./assets/img/canyon/memory/29.jpg","[""ArrowUp"",""ArrowRight""]","value training","canyon","10","{""ArrowUp,ArrowLeft"":26,""ArrowUp,ArrowRight"":10,""ArrowDown,ArrowLeft"":5,""ArrowDown,ArrowRight"":17}","false","ArrowUp,ArrowRight","false","","","original","1","86","","",""
"html-keyboard-response","205","909255","0.0-4.0-2.0-1.43","spark_pilot_2","7358","5","14","Male","","","","","","","null","<div style=""font-size:60px;"">+</div>","null","fixation","","","","","","","","","","","87","","",""
"revaluation","206","915281","0.0-4.0-2.0-0.44","spark_pilot_2","7358","5","14","Male","","false","","","","","[641.1999999955297,948.5]","./assets/img/canyon/memory/31.jpg","[""ArrowUp"",""ArrowRight""]","value training","canyon","10","{""ArrowUp,ArrowLeft"":26,""ArrowUp,ArrowRight"":10,""ArrowDown,ArrowLeft"":5,""ArrowDown,ArrowRight"":17}","false","ArrowUp,ArrowRight","false","","","original","1","88","","",""
"html-keyboard-response","207","915791","0.0-4.0-2.0-1.44","spark_pilot_2","7358","5","14","Male","","","","","","","null","<div style=""font-size:60px;"">+</div>","null","fixation","","","","","","","","","","","89","","",""
"revaluation","208","921816","0.0-4.0-2.0-0.45","spark_pilot_2","7358","5","14","Male","","false","","","","","[690.2999999970198,393]","./assets/img/canyon/memory/25.jpg","[""ArrowUp"",""ArrowLeft""]","value training","canyon","26","{""ArrowUp,ArrowLeft"":26,""ArrowUp,ArrowRight"":10,""ArrowDown,ArrowLeft"":5,""ArrowDown,ArrowRight"":17}","true","ArrowUp,ArrowLeft","false","","","original","1","90","","",""
"html-keyboard-response","209","922327","0.0-4.0-2.0-1.45","spark_pilot_2","7358","5","14","Male","","","","","","","null","<div style=""font-size:60px;"">+</div>","null","fixation","","","","","","","","","","","91","","",""
"revaluation","210","928353","0.0-4.0-2.0-0.46","spark_pilot_2","7358","5","14","Male","","false","","","","","[572.2999999970198,396.20000000298023]","./assets/img/canyon/memory/24.jpg","[""ArrowUp"",""ArrowLeft""]","value training","canyon","26","{""ArrowUp,ArrowLeft"":26,""ArrowUp,ArrowRight"":10,""ArrowDown,ArrowLeft"":5,""ArrowDown,ArrowRight"":17}","true","ArrowUp,ArrowLeft","false","","","original","1","92","","",""
"html-keyboard-response","211","928863","0.0-4.0-2.0-1.46","spark_pilot_2","7358","5","14","Male","","","","","","","null","<div style=""font-size:60px;"">+</div>","null","fixation","","","","","","","","","","","93","","",""
"revaluation","212","934885","0.0-4.0-2.0-0.47","spark_pilot_2","7358","5","14","Male","","false","","","","","[339.1000000014901,463.20000000298023]","./assets/img/canyon/memory/24.jpg","[""ArrowUp"",""ArrowRight""]","value training","canyon","10","{""ArrowUp,ArrowLeft"":26,""ArrowUp,ArrowRight"":10,""ArrowDown,ArrowLeft"":5,""ArrowDown,ArrowRight"":17}","false","ArrowUp,ArrowRight","false","","","original","1","94","","",""
"html-keyboard-response","213","935388","0.0-4.0-2.0-1.47","spark_pilot_2","7358","5","14","Male","","","","","","","null","<div style=""font-size:60px;"">+</div>","null","fixation","","","","","","","","","","","95","","",""
"revaluation","214","941414","0.0-4.0-2.0-0.48","spark_pilot_2","7358","5","14","Male","","false","","","","","[588.7000000029802,419.30000000447035]","./assets/img/canyon/memory/11.jpg","[""ArrowUp"",""ArrowLeft""]","value training","canyon","26","{""ArrowUp,ArrowLeft"":26,""ArrowUp,ArrowRight"":10,""ArrowDown,ArrowLeft"":5,""ArrowDown,ArrowRight"":17}","true","ArrowUp,ArrowLeft","false","","","original","1","96","","",""
"html-keyboard-response","215","941924","0.0-4.0-2.0-1.48","spark_pilot_2","7358","5","14","Male","","","","","","","null","<div style=""font-size:60px;"">+</div>","null","fixation","","","","","","","","","","","97","","",""
"revaluation","216","947951","0.0-4.0-2.0-0.49","spark_pilot_2","7358","5","14","Male","","false","","","","","[310.69999999552965,330]","./assets/img/canyon/memory/6.jpg","[""ArrowUp"",""ArrowLeft""]","value training","canyon","26","{""ArrowUp,ArrowLeft"":26,""ArrowUp,ArrowRight"":10,""ArrowDown,ArrowLeft"":5,""ArrowDown,ArrowRight"":17}","true","ArrowUp,ArrowLeft","false","","","original","1","98","","",""
"html-keyboard-response","217","948461","0.0-4.0-2.0-1.49","spark_pilot_2","7358","5","14","Male","","","","","","","null","<div style=""font-size:60px;"">+</div>","null","fixation","","","","","","","","","","","99","","",""
"learning-instructions","218","962272","0.0-4.0-3.0-0.0","spark_pilot_2","7358","5","14","Male","","","","","","","906","<p> Now, you will travel with a friend who will choose whether you go up or down first. </p>
            <p> On these turns, you will just see the animal that they found. You will still get to choose which chest to search for treasure.</p>","","instructions","","","","","","","","","","","","","",""
"revaluation","219","966289","0.0-4.0-4.0-0.0","spark_pilot_2","7358","5","14","Male","","false","","","","","[1010.6000000014901]","./assets/img/canyon/animals/giraffe.jpg","[""ArrowRight""]","revaluation","canyon","17","{""ArrowUp,ArrowLeft"":26,""ArrowUp,ArrowRight"":10,""ArrowDown,ArrowLeft"":5,""ArrowDown,ArrowRight"":17}","true","ArrowDown,ArrowRight","","","","original","1","0","","",""
"html-keyboard-response","220","966796","0.0-4.0-4.0-1.0","spark_pilot_2","7358","5","14","Male","","","","","","","null","<div style=""font-size:60px;"">+</div>","null","fixation","","","","","","","","","","","1","","",""
"revaluation","221","970813","0.0-4.0-4.0-0.1","spark_pilot_2","7358","5","14","Male","","false","","","","","[283.29999999701977]","./assets/img/canyon/animals/giraffe.jpg","[""ArrowLeft""]","revaluation","canyon","5","{""ArrowUp,ArrowLeft"":26,""ArrowUp,ArrowRight"":10,""ArrowDown,ArrowLeft"":5,""ArrowDown,ArrowRight"":17}","false","ArrowDown,ArrowLeft","","","","original","1","2","","",""
"html-keyboard-response","222","971315","0.0-4.0-4.0-1.1","spark_pilot_2","7358","5","14","Male","","","","","","","null","<div style=""font-size:60px;"">+</div>","null","fixation","","","","","","","","","","","3","","",""
"revaluation","223","975334","0.0-4.0-4.0-0.2","spark_pilot_2","7358","5","14","Male","","false","","","","","[113.10000000149012]","./assets/img/canyon/animals/giraffe.jpg","[""ArrowRight""]","revaluation","canyon","17","{""ArrowUp,ArrowLeft"":26,""ArrowUp,ArrowRight"":10,""ArrowDown,ArrowLeft"":5,""ArrowDown,ArrowRight"":17}","true","ArrowDown,ArrowRight","","","","original","1","4","","",""
"html-keyboard-response","224","975844","0.0-4.0-4.0-1.2","spark_pilot_2","7358","5","14","Male","","","","","","","null","<div style=""font-size:60px;"">+</div>","null","fixation","","","","","","","","","","","5","","",""
"revaluation","225","979865","0.0-4.0-4.0-0.3","spark_pilot_2","7358","5","14","Male","","false","","","","","[482.80000000447035]","./assets/img/canyon/animals/lion.jpg","[""ArrowLeft""]","revaluation","canyon","26","{""ArrowUp,ArrowLeft"":26,""ArrowUp,ArrowRight"":10,""ArrowDown,ArrowLeft"":5,""ArrowDown,ArrowRight"":17}","true","ArrowUp,ArrowLeft","","","","original","1","6","","",""
"html-keyboard-response","226","980376","0.0-4.0-4.0-1.3","spark_pilot_2","7358","5","14","Male","","","","","","","null","<div style=""font-size:60px;"">+</div>","null","fixation","","","","","","","","","","","7","","",""
"revaluation","227","984400","0.0-4.0-4.0-0.4","spark_pilot_2","7358","5","14","Male","","false","","","","","[389.09999999403954]","./assets/img/canyon/animals/lion.jpg","[""ArrowLeft""]","revaluation","canyon","26","{""ArrowUp,ArrowLeft"":26,""ArrowUp,ArrowRight"":10,""ArrowDown,ArrowLeft"":5,""ArrowDown,ArrowRight"":17}","true","ArrowUp,ArrowLeft","","","","original","1","8","","",""
"html-keyboard-response","228","984911","0.0-4.0-4.0-1.4","spark_pilot_2","7358","5","14","Male","","","","","","","null","<div style=""font-size:60px;"">+</div>","null","fixation","","","","","","","","","","","9","","",""
"revaluation","229","988927","0.0-4.0-4.0-0.5","spark_pilot_2","7358","5","14","Male","","false","","","","","[173.70000000298023]","./assets/img/canyon/animals/lion.jpg","[""ArrowLeft""]","revaluation","canyon","26","{""ArrowUp,ArrowLeft"":26,""ArrowUp,ArrowRight"":10,""ArrowDown,ArrowLeft"":5,""ArrowDown,ArrowRight"":17}","true","ArrowUp,ArrowLeft","","","","original","1","10","","",""
"html-keyboard-response","230","989440","0.0-4.0-4.0-1.5","spark_pilot_2","7358","5","14","Male","","","","","","","null","<div style=""font-size:60px;"">+</div>","null","fixation","","","","","","","","","","","11","","",""
"revaluation","231","993463","0.0-4.0-4.0-0.6","spark_pilot_2","7358","5","14","Male","","false","","","","","[435.30000000447035]","./assets/img/canyon/animals/lion.jpg","[""ArrowLeft""]","revaluation","canyon","26","{""ArrowUp,ArrowLeft"":26,""ArrowUp,ArrowRight"":10,""ArrowDown,ArrowLeft"":5,""ArrowDown,ArrowRight"":17}","true","ArrowUp,ArrowLeft","","","","original","1","12","","",""
"html-keyboard-response","232","993973","0.0-4.0-4.0-1.6","spark_pilot_2","7358","5","14","Male","","","","","","","null","<div style=""font-size:60px;"">+</div>","null","fixation","","","","","","","","","","","13","","",""
"revaluation","233","997991","0.0-4.0-4.0-0.7","spark_pilot_2","7358","5","14","Male","","false","","","","","[274.6000000014901]","./assets/img/canyon/animals/giraffe.jpg","[""ArrowRight""]","revaluation","canyon","17","{""ArrowUp,ArrowLeft"":26,""ArrowUp,ArrowRight"":10,""ArrowDown,ArrowLeft"":5,""ArrowDown,ArrowRight"":17}","true","ArrowDown,ArrowRight","","","","original","1","14","","",""
"html-keyboard-response","234","998501","0.0-4.0-4.0-1.7","spark_pilot_2","7358","5","14","Male","","","","","","","null","<div style=""font-size:60px;"">+</div>","null","fixation","","","","","","","","","","","15","","",""
"revaluation","235","1002519","0.0-4.0-4.0-0.8","spark_pilot_2","7358","5","14","Male","","false","","","","","[281.3999999985099]","./assets/img/canyon/animals/giraffe.jpg","[""ArrowLeft""]","revaluation","canyon","5","{""ArrowUp,ArrowLeft"":26,""ArrowUp,ArrowRight"":10,""ArrowDown,ArrowLeft"":5,""ArrowDown,ArrowRight"":17}","false","ArrowDown,ArrowLeft","","","","original","1","16","","",""
"html-keyboard-response","236","1003029","0.0-4.0-4.0-1.8","spark_pilot_2","7358","5","14","Male","","","","","","","null","<div style=""font-size:60px;"">+</div>","null","fixation","","","","","","","","","","","17","","",""
"revaluation","237","1007046","0.0-4.0-4.0-0.9","spark_pilot_2","7358","5","14","Male","","false","","","","","[893.5]","./assets/img/canyon/animals/lion.jpg","[""ArrowLeft""]","revaluation","canyon","26","{""ArrowUp,ArrowLeft"":26,""ArrowUp,ArrowRight"":10,""ArrowDown,ArrowLeft"":5,""ArrowDown,ArrowRight"":17}","true","ArrowUp,ArrowLeft","","","","original","1","18","","",""
"html-keyboard-response","238","1007556","0.0-4.0-4.0-1.9","spark_pilot_2","7358","5","14","Male","","","","","","","null","<div style=""font-size:60px;"">+</div>","null","fixation","","","","","","","","","","","19","","",""
"revaluation","239","1011574","0.0-4.0-4.0-0.10","spark_pilot_2","7358","5","14","Male","","false","","","","","[281.70000000298023]","./assets/img/canyon/animals/giraffe.jpg","[""ArrowRight""]","revaluation","canyon","17","{""ArrowUp,ArrowLeft"":26,""ArrowUp,ArrowRight"":10,""ArrowDown,ArrowLeft"":5,""ArrowDown,ArrowRight"":17}","true","ArrowDown,ArrowRight","","","","original","1","20","","",""
"html-keyboard-response","240","1012084","0.0-4.0-4.0-1.10","spark_pilot_2","7358","5","14","Male","","","","","","","null","<div style=""font-size:60px;"">+</div>","null","fixation","","","","","","","","","","","21","","",""
"revaluation","241","1016102","0.0-4.0-4.0-0.11","spark_pilot_2","7358","5","14","Male","","false","","","","","[547.8999999985099]","./assets/img/canyon/animals/giraffe.jpg","[""ArrowRight""]","revaluation","canyon","17","{""ArrowUp,ArrowLeft"":26,""ArrowUp,ArrowRight"":10,""ArrowDown,ArrowLeft"":5,""ArrowDown,ArrowRight"":17}","true","ArrowDown,ArrowRight","","","","original","1","22","","",""
"html-keyboard-response","242","1016612","0.0-4.0-4.0-1.11","spark_pilot_2","7358","5","14","Male","","","","","","","null","<div style=""font-size:60px;"">+</div>","null","fixation","","","","","","","","","","","23","","",""
"revaluation","243","1020630","0.0-4.0-4.0-0.12","spark_pilot_2","7358","5","14","Male","","false","","","","","[483]","./assets/img/canyon/animals/lion.jpg","[""ArrowLeft""]","revaluation","canyon","26","{""ArrowUp,ArrowLeft"":26,""ArrowUp,ArrowRight"":10,""ArrowDown,ArrowLeft"":5,""ArrowDown,ArrowRight"":17}","true","ArrowUp,ArrowLeft","","","","original","1","24","","",""
"html-keyboard-response","244","1021140","0.0-4.0-4.0-1.12","spark_pilot_2","7358","5","14","Male","","","","","","","null","<div style=""font-size:60px;"">+</div>","null","fixation","","","","","","","","","","","25","","",""
"revaluation","245","1025157","0.0-4.0-4.0-0.13","spark_pilot_2","7358","5","14","Male","","false","","","","","[393.8999999985099]","./assets/img/canyon/animals/giraffe.jpg","[""ArrowLeft""]","revaluation","canyon","5","{""ArrowUp,ArrowLeft"":26,""ArrowUp,ArrowRight"":10,""ArrowDown,ArrowLeft"":5,""ArrowDown,ArrowRight"":17}","false","ArrowDown,ArrowLeft","","","","original","1","26","","",""
"html-keyboard-response","246","1025667","0.0-4.0-4.0-1.13","spark_pilot_2","7358","5","14","Male","","","","","","","null","<div style=""font-size:60px;"">+</div>","null","fixation","","","","","","","","","","","27","","",""
"revaluation","247","1029685","0.0-4.0-4.0-0.14","spark_pilot_2","7358","5","14","Male","","false","","","","","[1081.8000000044703]","./assets/img/canyon/animals/giraffe.jpg","[""ArrowRight""]","revaluation","canyon","17","{""ArrowUp,ArrowLeft"":26,""ArrowUp,ArrowRight"":10,""ArrowDown,ArrowLeft"":5,""ArrowDown,ArrowRight"":17}","true","ArrowDown,ArrowRight","","","","original","1","28","","",""
"html-keyboard-response","248","1030195","0.0-4.0-4.0-1.14","spark_pilot_2","7358","5","14","Male","","","","","","","null","<div style=""font-size:60px;"">+</div>","null","fixation","","","","","","","","","","","29","","",""
"revaluation","249","1034213","0.0-4.0-4.0-0.15","spark_pilot_2","7358","5","14","Male","","false","","","","","[1707.6000000014901]","./assets/img/canyon/animals/lion.jpg","[""ArrowRight""]","revaluation","canyon","10","{""ArrowUp,ArrowLeft"":26,""ArrowUp,ArrowRight"":10,""ArrowDown,ArrowLeft"":5,""ArrowDown,ArrowRight"":17}","false","ArrowUp,ArrowRight","","","","original","1","30","","",""
"html-keyboard-response","250","1034723","0.0-4.0-4.0-1.15","spark_pilot_2","7358","5","14","Male","","","","","","","null","<div style=""font-size:60px;"">+</div>","null","fixation","","","","","","","","","","","31","","",""
"revaluation","251","1038741","0.0-4.0-4.0-0.16","spark_pilot_2","7358","5","14","Male","","false","","","","","[394.79999999701977]","./assets/img/canyon/animals/lion.jpg","[""ArrowLeft""]","revaluation","canyon","26","{""ArrowUp,ArrowLeft"":26,""ArrowUp,ArrowRight"":10,""ArrowDown,ArrowLeft"":5,""ArrowDown,ArrowRight"":17}","true","ArrowUp,ArrowLeft","","","","original","1","32","","",""
"html-keyboard-response","252","1039251","0.0-4.0-4.0-1.16","spark_pilot_2","7358","5","14","Male","","","","","","","null","<div style=""font-size:60px;"">+</div>","null","fixation","","","","","","","","","","","33","","",""
"revaluation","253","1043269","0.0-4.0-4.0-0.17","spark_pilot_2","7358","5","14","Male","","false","","","","","[464.5]","./assets/img/canyon/animals/lion.jpg","[""ArrowLeft""]","revaluation","canyon","26","{""ArrowUp,ArrowLeft"":26,""ArrowUp,ArrowRight"":10,""ArrowDown,ArrowLeft"":5,""ArrowDown,ArrowRight"":17}","true","ArrowUp,ArrowLeft","","","","original","1","34","","",""
"html-keyboard-response","254","1043779","0.0-4.0-4.0-1.17","spark_pilot_2","7358","5","14","Male","","","","","","","null","<div style=""font-size:60px;"">+</div>","null","fixation","","","","","","","","","","","35","","",""
"learning-instructions","255","1056357","0.0-4.0-5.0-0.0","spark_pilot_2","7358","5","14","Male","","","","","","","1129.6000000014901","<p> Time to play the dot game! </p>
            <p> For one minute, click the red dots on the following screen as they appear. </p>
            <p><b> Don't look away, as you will earn bonus for clicking dots</b>. </p>","","instructions","","","","","","","","","","","","","",""
"revaluation","256","1116366","0.0-4.0-6.0-0.0","spark_pilot_2","7358","5","14","Male","","","","","","","[95,61,53,52,65,72,43]","","","rest","","70","","","","","0","60000","","","","","",""
"learning-instructions","257","1123992","0.0-4.0-7.0-0.0","spark_pilot_2","7358","5","14","Male","","","","","","","1512.6000000014901","<p> You have almost finished this part of the game! </p>
            <p> We are going to ask you to make a few more choices. </p>","","instructions","","","","","","","","","","","","","",""
"learning-instructions","258","1138557","0.0-4.0-7.0-0.1","spark_pilot_2","7358","5","14","Male","","","","","","","590.3999999985099","<p> First, you need to decide whether to go up or down. When you see each picture, use the arrow keys to make your choice. </p>
            <p><b>You will not see which animal you found, but try to get to the one that will give you the most treasure.</b></p>","","instructions","","","","","","","","","","","","","",""
"revaluation","259","1139638","0.0-4.0-8.0-0.0","spark_pilot_2","7358","5","14","Male","","false","","","","","[1078]","./assets/img/canyon/test/0.jpg","[""ArrowDown""]","first stage test","canyon","0","{""ArrowUp,ArrowLeft"":26,""ArrowUp,ArrowRight"":10,""ArrowDown,ArrowLeft"":5,""ArrowDown,ArrowRight"":17}","false","ArrowDown","false","","","original","1","","","",""
"html-keyboard-response","260","1140149","0.0-4.0-8.0-1.0","spark_pilot_2","7358","5","14","Male","","","","","","","null","<div style=""font-size:60px;"">+</div>","null","fixation","","","","","","","","","","","","","",""
"revaluation","261","1140836","0.0-4.0-8.0-0.1","spark_pilot_2","7358","5","14","Male","","false","","","","","[682.3999999985099]","./assets/img/canyon/test/1.jpg","[""ArrowUp""]","first stage test","canyon","0","{""ArrowUp,ArrowLeft"":26,""ArrowUp,ArrowRight"":10,""ArrowDown,ArrowLeft"":5,""ArrowDown,ArrowRight"":17}","true","ArrowUp","false","","","original","1","","","",""
"html-keyboard-response","262","1141341","0.0-4.0-8.0-1.1","spark_pilot_2","7358","5","14","Male","","","","","","","null","<div style=""font-size:60px;"">+</div>","null","fixation","","","","","","","","","","","","","",""
"revaluation","263","1142164","0.0-4.0-8.0-0.2","spark_pilot_2","7358","5","14","Male","","false","","","","","[818.5]","./assets/img/canyon/test/3.jpg","[""ArrowDown""]","first stage test","canyon","0","{""ArrowUp,ArrowLeft"":26,""ArrowUp,ArrowRight"":10,""ArrowDown,ArrowLeft"":5,""ArrowDown,ArrowRight"":17}","false","ArrowDown","false","","","original","1","","","",""
"html-keyboard-response","264","1142669","0.0-4.0-8.0-1.2","spark_pilot_2","7358","5","14","Male","","","","","","","null","<div style=""font-size:60px;"">+</div>","null","fixation","","","","","","","","","","","","","",""
"revaluation","265","1143165","0.0-4.0-8.0-0.3","spark_pilot_2","7358","5","14","Male","","false","","","","","[492.20000000298023]","./assets/img/canyon/test/2.jpg","[""ArrowUp""]","first stage test","canyon","0","{""ArrowUp,ArrowLeft"":26,""ArrowUp,ArrowRight"":10,""ArrowDown,ArrowLeft"":5,""ArrowDown,ArrowRight"":17}","true","ArrowUp","false","","","original","1","","","",""
"html-keyboard-response","266","1143672","0.0-4.0-8.0-1.3","spark_pilot_2","7358","5","14","Male","","","","","","","null","<div style=""font-size:60px;"">+</div>","null","fixation","","","","","","","","","","","","","",""
"learning-instructions","267","1156291","0.0-4.0-9.0-0.0","spark_pilot_2","7358","5","14","Male","","","","","","","1275.3999999985099","<p> Now you will see the animals again and can search their chests for treasure. </p>
            <p> This time, you will not see how much treasure you earned, but you will earn more bonus money for making better choices. </p>","","instructions","","","","","","","","","","","","","",""
"revaluation","268","1157078","0.0-4.0-10.0-0.0","spark_pilot_2","7358","5","14","Male","","false","","","","","[782.5]","./assets/img/canyon/animals/lion.jpg","[""ArrowRight""]","second stage test","canyon","0","{""ArrowUp,ArrowLeft"":26,""ArrowUp,ArrowRight"":10,""ArrowDown,ArrowLeft"":5,""ArrowDown,ArrowRight"":17}","false","ArrowUp,ArrowRight","","","","original","1","","","",""
"html-keyboard-response","269","1157587","0.0-4.0-10.0-1.0","spark_pilot_2","7358","5","14","Male","","","","","","","null","<div style=""font-size:60px;"">+</div>","null","fixation","","","","","","","","","","","","","",""
"revaluation","270","1157874","0.0-4.0-10.0-0.1","spark_pilot_2","7358","5","14","Male","","false","","","","","[282.29999999701977]","./assets/img/canyon/animals/lion.jpg","[""ArrowLeft""]","second stage test","canyon","0","{""ArrowUp,ArrowLeft"":26,""ArrowUp,ArrowRight"":10,""ArrowDown,ArrowLeft"":5,""ArrowDown,ArrowRight"":17}","true","ArrowUp,ArrowLeft","","","","original","1","","","",""
"html-keyboard-response","271","1158381","0.0-4.0-10.0-1.1","spark_pilot_2","7358","5","14","Male","","","","","","","null","<div style=""font-size:60px;"">+</div>","null","fixation","","","","","","","","","","","","","",""
"revaluation","272","1158710","0.0-4.0-10.0-0.2","spark_pilot_2","7358","5","14","Male","","false","","","","","[325.70000000298023]","./assets/img/canyon/animals/lion.jpg","[""ArrowRight""]","second stage test","canyon","0","{""ArrowUp,ArrowLeft"":26,""ArrowUp,ArrowRight"":10,""ArrowDown,ArrowLeft"":5,""ArrowDown,ArrowRight"":17}","false","ArrowUp,ArrowRight","","","","original","1","","","",""
"html-keyboard-response","273","1159218","0.0-4.0-10.0-1.2","spark_pilot_2","7358","5","14","Male","","","","","","","null","<div style=""font-size:60px;"">+</div>","null","fixation","","","","","","","","","","","","","",""
"revaluation","274","1159518","0.0-4.0-10.0-0.3","spark_pilot_2","7358","5","14","Male","","false","","","","","[294.8999999985099]","./assets/img/canyon/animals/lion.jpg","[""ArrowLeft""]","second stage test","canyon","0","{""ArrowUp,ArrowLeft"":26,""ArrowUp,ArrowRight"":10,""ArrowDown,ArrowLeft"":5,""ArrowDown,ArrowRight"":17}","true","ArrowUp,ArrowLeft","","","","original","1","","","",""
"html-keyboard-response","275","1160027","0.0-4.0-10.0-1.3","spark_pilot_2","7358","5","14","Male","","","","","","","null","<div style=""font-size:60px;"">+</div>","null","fixation","","","","","","","","","","","","","",""
"revaluation","276","1160509","0.0-4.0-10.0-0.4","spark_pilot_2","7358","5","14","Male","","false","","","","","[478.29999999701977]","./assets/img/canyon/animals/giraffe.jpg","[""ArrowLeft""]","second stage test","canyon","0","{""ArrowUp,ArrowLeft"":26,""ArrowUp,ArrowRight"":10,""ArrowDown,ArrowLeft"":5,""ArrowDown,ArrowRight"":17}","false","ArrowDown,ArrowLeft","","","","original","1","","","",""
"html-keyboard-response","277","1161017","0.0-4.0-10.0-1.4","spark_pilot_2","7358","5","14","Male","","","","","","","null","<div style=""font-size:60px;"">+</div>","null","fixation","","","","","","","","","","","","","",""
"revaluation","278","1161341","0.0-4.0-10.0-0.5","spark_pilot_2","7358","5","14","Male","","false","","","","","[320.3999999985099]","./assets/img/canyon/animals/giraffe.jpg","[""ArrowLeft""]","second stage test","canyon","0","{""ArrowUp,ArrowLeft"":26,""ArrowUp,ArrowRight"":10,""ArrowDown,ArrowLeft"":5,""ArrowDown,ArrowRight"":17}","false","ArrowDown,ArrowLeft","","","","original","1","","","",""
"html-keyboard-response","279","1161848","0.0-4.0-10.0-1.5","spark_pilot_2","7358","5","14","Male","","","","","","","null","<div style=""font-size:60px;"">+</div>","null","fixation","","","","","","","","","","","","","",""
"revaluation","280","1162207","0.0-4.0-10.0-0.6","spark_pilot_2","7358","5","14","Male","","false","","","","","[353.8999999985099]","./assets/img/canyon/animals/giraffe.jpg","[""ArrowRight""]","second stage test","canyon","0","{""ArrowUp,ArrowLeft"":26,""ArrowUp,ArrowRight"":10,""ArrowDown,ArrowLeft"":5,""ArrowDown,ArrowRight"":17}","true","ArrowDown,ArrowRight","","","","original","1","","","",""
"html-keyboard-response","281","1162716","0.0-4.0-10.0-1.6","spark_pilot_2","7358","5","14","Male","","","","","","","null","<div style=""font-size:60px;"">+</div>","null","fixation","","","","","","","","","","","","","",""
"revaluation","282","1163052","0.0-4.0-10.0-0.7","spark_pilot_2","7358","5","14","Male","","false","","","","","[331.6000000014901]","./assets/img/canyon/animals/giraffe.jpg","[""ArrowRight""]","second stage test","canyon","0","{""ArrowUp,ArrowLeft"":26,""ArrowUp,ArrowRight"":10,""ArrowDown,ArrowLeft"":5,""ArrowDown,ArrowRight"":17}","true","ArrowDown,ArrowRight","","","","original","1","","","",""
"html-keyboard-response","283","1163554","0.0-4.0-10.0-1.7","spark_pilot_2","7358","5","14","Male","","","","","","","null","<div style=""font-size:60px;"">+</div>","null","fixation","","","","","","","","","","","","","",""
"learning-instructions","284","1166725","0.0-4.0-0.1-0.2","spark_pilot_2","7358","5","14","Male","","","","","","","452.6000000014901","<p> This time you are searching for treasure in the <b>ocean</b>.</p>","","instructions","","","","","","","","","","","","","",""
"learning-instructions","285","1184592","0.0-4.0-0.1-0.3","spark_pilot_2","7358","5","14","Male","","","","","","","614.5","<p><b>New</b> animals with <b>new</b> treasure chests live here. You need to explore to discover where the animal with the best treasure chest is.</p>
                    <p> Like before, once you figure out which animal has the chest with the most treasure, you should try to get to that animal and select that chest! </p>","","instructions","","","","","","","","","","","","","",""
"learning-instructions","286","1200959","0.0-4.0-1.1-0.1","spark_pilot_2","7358","5","14","Male","","","","","","","1632.8999999985099","<p> Remember, when you see a picture of the place, use the up and down keys to <b>find an animal</b>.</p>
            <p> When you encounter an animal, you should use the left and right keys to <b>select a treasure chest</b>.</p>
            <p> Don't forget to look out for the robber! </p>","","instructions","","","","","","","","","","","","","",""
"revaluation","287","1206988","0.0-4.0-2.1-0.50","spark_pilot_2","7358","5","14","Male","","false","","","","","[1098.5,343]","./assets/img/ocean/memory/1.jpg","[""ArrowDown"",""ArrowLeft""]","value training","ocean","8","{""ArrowUp,ArrowLeft"":23,""ArrowUp,ArrowRight"":10,""ArrowDown,ArrowLeft"":8,""ArrowDown,ArrowRight"":30}","false","ArrowDown,ArrowLeft","false","","","revaluation","2","0","","",""
"html-keyboard-response","288","1207500","0.0-4.0-2.1-1.50","spark_pilot_2","7358","5","14","Male","","","","","","","null","<div style=""font-size:60px;"">+</div>","null","fixation","","","","","","","","","","","1","","",""
"revaluation","289","1213532","0.0-4.0-2.1-0.51","spark_pilot_2","7358","5","14","Male","","false","","","","","[239.10000000149012,112.19999999552965]","./assets/img/ocean/memory/26.jpg","[""ArrowUp"",""ArrowRight""]","value training","ocean","10","{""ArrowUp,ArrowLeft"":23,""ArrowUp,ArrowRight"":10,""ArrowDown,ArrowLeft"":8,""ArrowDown,ArrowRight"":30}","false","ArrowUp,ArrowRight","false","","","revaluation","2","2","","",""
"html-keyboard-response","290","1214040","0.0-4.0-2.1-1.51","spark_pilot_2","7358","5","14","Male","","","","","","","null","<div style=""font-size:60px;"">+</div>","null","fixation","","","","","","","","","","","3","","",""
"revaluation","291","1220068","0.0-4.0-2.1-0.52","spark_pilot_2","7358","5","14","Male","","false","","","","","[432.3999999985099,348.69999999552965]","./assets/img/ocean/memory/29.jpg","[""ArrowUp"",""ArrowLeft""]","value training","ocean","23","{""ArrowUp,ArrowLeft"":23,""ArrowUp,ArrowRight"":10,""ArrowDown,ArrowLeft"":8,""ArrowDown,ArrowRight"":30}","false","ArrowUp,ArrowLeft","false","","","revaluation","2","4","","",""
"html-keyboard-response","292","1220580","0.0-4.0-2.1-1.52","spark_pilot_2","7358","5","14","Male","","","","","","","null","<div style=""font-size:60px;"">+</div>","null","fixation","","","","","","","","","","","5","","",""
"revaluation","293","1226608","0.0-4.0-2.1-0.53","spark_pilot_2","7358","5","14","Male","","false","","","","","[842.6999999955297,336]","./assets/img/ocean/memory/31.jpg","[""ArrowDown"",""ArrowLeft""]","value training","ocean","8","{""ArrowUp,ArrowLeft"":23,""ArrowUp,ArrowRight"":10,""ArrowDown,ArrowLeft"":8,""ArrowDown,ArrowRight"":30}","false","ArrowDown,ArrowLeft","false","","","revaluation","2","6","","",""
"html-keyboard-response","294","1227111","0.0-4.0-2.1-1.53","spark_pilot_2","7358","5","14","Male","","","","","","","null","<div style=""font-size:60px;"">+</div>","null","fixation","","","","","","","","","","","7","","",""
"revaluation","295","1231132","0.0-4.0-2.1-0.54","spark_pilot_2","7358","5","14","Male","","false","","","","","[1047.5]","./assets/img/ocean/catch/4.jpg","[""spaceBar""]","value training","ocean","0","{""ArrowUp,ArrowLeft"":23,""ArrowUp,ArrowRight"":10,""ArrowDown,ArrowLeft"":8,""ArrowDown,ArrowRight"":30}","true","spaceBar","true","","","revaluation","2","8","","",""
"html-keyboard-response","296","1231642","0.0-4.0-2.1-1.54","spark_pilot_2","7358","5","14","Male","","","","","","","null","<div style=""font-size:60px;"">+</div>","null","fixation","","","","","","","","","","","9","","",""
"revaluation","297","1237668","0.0-4.0-2.1-0.55","spark_pilot_2","7358","5","14","Male","","false","","","","","[1193,632.6999999955297]","./assets/img/ocean/memory/12.jpg","[""ArrowDown"",""ArrowRight""]","value training","ocean","30","{""ArrowUp,ArrowLeft"":23,""ArrowUp,ArrowRight"":10,""ArrowDown,ArrowLeft"":8,""ArrowDown,ArrowRight"":30}","true","ArrowDown,ArrowRight","false","","","revaluation","2","10","","",""
"html-keyboard-response","298","1238179","0.0-4.0-2.1-1.55","spark_pilot_2","7358","5","14","Male","","","","","","","null","<div style=""font-size:60px;"">+</div>","null","fixation","","","","","","","","","","","11","","",""
"revaluation","299","1244210","0.0-4.0-2.1-0.56","spark_pilot_2","7358","5","14","Male","","false","","","","","[1040.8000000044703,337.1000000014901]","./assets/img/ocean/memory/32.jpg","[""ArrowDown"",""ArrowRight""]","value training","ocean","30","{""ArrowUp,ArrowLeft"":23,""ArrowUp,ArrowRight"":10,""ArrowDown,ArrowLeft"":8,""ArrowDown,ArrowRight"":30}","true","ArrowDown,ArrowRight","false","","","revaluation","2","12","","",""
"html-keyboard-response","300","1244721","0.0-4.0-2.1-1.56","spark_pilot_2","7358","5","14","Male","","","","","","","null","<div style=""font-size:60px;"">+</div>","null","fixation","","","","","","","","","","","13","","",""
"revaluation","301","1248738","0.0-4.0-2.1-0.57","spark_pilot_2","7358","5","14","Male","","false","","","","","[797.7000000029802]","./assets/img/ocean/catch/2.jpg","[""spaceBar""]","value training","ocean","0","{""ArrowUp,ArrowLeft"":23,""ArrowUp,ArrowRight"":10,""ArrowDown,ArrowLeft"":8,""ArrowDown,ArrowRight"":30}","true","spaceBar","true","","","revaluation","2","14","","",""
"html-keyboard-response","302","1249248","0.0-4.0-2.1-1.57","spark_pilot_2","7358","5","14","Male","","","","","","","null","<div style=""font-size:60px;"">+</div>","null","fixation","","","","","","","","","","","15","","",""
"revaluation","303","1255274","0.0-4.0-2.1-0.58","spark_pilot_2","7358","5","14","Male","","false","","","","","[397.1000000014901,371.70000000298023]","./assets/img/ocean/memory/16.jpg","[""ArrowDown"",""ArrowRight""]","value training","ocean","30","{""ArrowUp,ArrowLeft"":23,""ArrowUp,ArrowRight"":10,""ArrowDown,ArrowLeft"":8,""ArrowDown,ArrowRight"":30}","true","ArrowDown,ArrowRight","false","","","revaluation","2","16","","",""
"html-keyboard-response","304","1255785","0.0-4.0-2.1-1.58","spark_pilot_2","7358","5","14","Male","","","","","","","null","<div style=""font-size:60px;"">+</div>","null","fixation","","","","","","","","","","","17","","",""
"revaluation","305","1259802","0.0-4.0-2.1-0.59","spark_pilot_2","7358","5","14","Male","","false","","","","","[983.5]","./assets/img/ocean/catch/7.jpg","[""spaceBar""]","value training","ocean","0","{""ArrowUp,ArrowLeft"":23,""ArrowUp,ArrowRight"":10,""ArrowDown,ArrowLeft"":8,""ArrowDown,ArrowRight"":30}","true","spaceBar","true","","","revaluation","2","18","","",""
"html-keyboard-response","306","1260313","0.0-4.0-2.1-1.59","spark_pilot_2","7358","5","14","Male","","","","","","","null","<div style=""font-size:60px;"">+</div>","null","fixation","","","","","","","","","","","19","","",""
"revaluation","307","1266339","0.0-4.0-2.1-0.60","spark_pilot_2","7358","5","14","Male","","false","","","","","[978.5,303.8999999985099]","./assets/img/ocean/memory/24.jpg","[""ArrowDown"",""ArrowRight""]","value training","ocean","30","{""ArrowUp,ArrowLeft"":23,""ArrowUp,ArrowRight"":10,""ArrowDown,ArrowLeft"":8,""ArrowDown,ArrowRight"":30}","true","ArrowDown,ArrowRight","false","","","revaluation","2","20","","",""
"html-keyboard-response","308","1266849","0.0-4.0-2.1-1.60","spark_pilot_2","7358","5","14","Male","","","","","","","null","<div style=""font-size:60px;"">+</div>","null","fixation","","","","","","","","","","","21","","",""
