"trial_type","trial_index","time_elapsed","internal_node_id","task_version","subject_id","assigned_condition","age","gender","browser_interaction","success","timeout","failed_images","failed_audio","failed_video","rt","stimulus","response","task_part","environment","score","rewardMap","correct","fullState","isCatch","numberMissed","duration","condition","order","trial_num","key_press","ground_truth","bonus"
"pavlovia","0","1721","0.0-0.0","spark_pilot_2","7802","1","15","Male","[{""event"":""blur"",""trial"":1,""time"":5448},{""event"":""focus"",""trial"":1,""time"":6761},{""event"":""fullscreenenter"",""trial"":2,""time"":39348},{""event"":""fullscreenexit"",""trial"":3,""time"":40714}]","","","","","","","","","","","","","","","","","","","","","","",""
"preload","1","36663","0.0-1.0","spark_pilot_2","7802","1","15","Male","[{""event"":""blur"",""trial"":1,""time"":5448},{""event"":""focus"",""trial"":1,""time"":6761},{""event"":""fullscreenenter"",""trial"":2,""time"":39348},{""event"":""fullscreenexit"",""trial"":3,""time"":40714}]","true","false","[]","[]","[]","","","","","","","","","","","","","","","","","",""
"fullscreen","2","40345","0.0-2.0","spark_pilot_2","7802","1","15","Male","[{""event"":""blur"",""trial"":1,""time"":5448},{""event"":""focus"",""trial"":1,""time"":6761},{""event"":""fullscreenenter"",""trial"":2,""time"":39348},{""event"":""fullscreenexit"",""trial"":3,""time"":40714}]","true","","","","","","","","","","","","","","","","","","","","","",""
"audio-button-response","3","42371","0.0-3.0-0.0-0.0","spark_pilot_2","7802","1","15","Male","","","","","","","1461","./assets/audio/audiotest/turtle.mp3","2","audio_test","","","","","","","","","","","","","",""
"learning-instructions","4","63061","0.0-3.0-1.0-0.0","spark_pilot_2","7802","1","15","Male","","","","","","","13251","<p> Welcome! Please remember to stay in fullscreen mode and don't click away from the experiment. </p>","","instructions","","","","","","","","","","","","","",""
"learning-instructions","5","73843","0.0-3.0-1.0-0.1","spark_pilot_2","7802","1","15","Male","","","","","","","1654.300000011921","<p> Today you will be playing a game to earn treasure. </p>
            <p> At the end of the experiment, you will earn a bonus based on how much treasure you find. </p>
            <img src='./assets/img/instructions/treasure.jpg' class='instructions-image'>","","instructions","","","","","","","","","","","","","",""
"learning-instructions","6","84238","0.0-3.0-1.0-0.2","spark_pilot_2","7802","1","15","Male","","","","","","","1338.699999988079","<p> Animals have hidden treasure in treasure chests. </p>
            <p> You need to first find an animal and then choose which of their treasure chests to search. </p>
            <img src='./assets/img/space/animals/cat.jpg' class='instructions-image'>","","instructions","","","","","","","","","","","","","",""
"learning-instructions","7","100174","0.0-3.0-1.0-0.3","spark_pilot_2","7802","1","15","Male","","","","","","","1968.300000011921","<p> In each round, you will search for treasure in a different place. In the real game, there will be two rounds. </p>
            <p> You will begin with a separate, practice round where you will search for treasure in outer space. </p>
            <img src='./assets/img/space/0.jpg' class='instructions-image'>","","instructions","","","","","","","","","","","","","",""
"learning-instructions","8","113135","0.0-3.0-1.0-0.4","spark_pilot_2","7802","1","15","Male","","","","","","","667.8999999761581","<p> On every turn, you will see a picture of the place that you are in, but the specific image may be different each time. </p>
            <p> For example, both of these images mean you are in outer space. </p>
            <img src='./assets/img/instructions/outerspace.jpg' class='instructions-image'>","","instructions","","","","","","","","","","","","","",""
"learning-instructions","9","122247","0.0-3.0-1.0-0.5","spark_pilot_2","7802","1","15","Male","","","","","","","552.8000000119209","<p> You need to decide which direction to travel in. </p>
            <p> You can choose between going <b>up or down</b> by using the arrow keys. </p>
            <img src='./assets/img/instructions/updown.jpg' class='instructions-image'>","","instructions","","","","","","","","","","","","","",""
"learning-instructions","10","132574","0.0-3.0-1.0-0.6","spark_pilot_2","7802","1","15","Male","","","","","","","789.8000000119209","<p> You will have <b>2 seconds</b> to make your choice. </p>
            <p> If you do not make a choice within 2 seconds, you will not find an animal or earn treasure. </p>
            <img src='./assets/img/instructions/2seconds.jpg' class='instructions-image'>","","instructions","","","","","","","","","","","","","",""
"learning-instructions","11","143654","0.0-3.0-1.0-0.7","spark_pilot_2","7802","1","15","Male","","","","","","","2738.699999988079","<p> Let’s try practicing that now! </p>
            <p> When you see a picture of the place you are in, press the <b>up</b> key to travel up. </p>
            <img src='./assets/img/instructions/pressUp.jpg' class='instructions-image'>","","instructions","","","","","","","","","","","","","",""
"revaluation","12","147678","0.0-3.0-2.0-0.0","spark_pilot_2","7802","1","15","Male","","","false","","","","[1202.8999999761581]","./assets/img/space/0.jpg","[""ArrowUp""]","first stage practice","space","0","null","null","ArrowUp","false","","","","","","","",""
"html-keyboard-response","13","148199","0.0-3.0-2.0-1.0","spark_pilot_2","7802","1","15","Male","","","","","","","null","<div style=""font-size:60px;"">+</div>","null","fixation","","","","","","","","","","","","","",""
"revaluation","14","152211","0.0-3.0-2.0-0.1","spark_pilot_2","7802","1","15","Male","","","false","","","","[760.3000000119209]","./assets/img/space/1.jpg","[""ArrowUp""]","first stage practice","space","0","null","null","ArrowUp","false","","","","","","","",""
"html-keyboard-response","15","152733","0.0-3.0-2.0-1.1","spark_pilot_2","7802","1","15","Male","","","","","","","null","<div style=""font-size:60px;"">+</div>","null","fixation","","","","","","","","","","","","","",""
"revaluation","16","156743","0.0-3.0-2.0-0.2","spark_pilot_2","7802","1","15","Male","","","false","","","","[323.2000000476837]","./assets/img/space/2.jpg","[""ArrowUp""]","first stage practice","space","0","null","null","ArrowUp","false","","","","","","","",""
"html-keyboard-response","17","157266","0.0-3.0-2.0-1.2","spark_pilot_2","7802","1","15","Male","","","","","","","null","<div style=""font-size:60px;"">+</div>","null","fixation","","","","","","","","","","","","","",""
"learning-instructions","18","166048","0.0-3.0-3.0-0.0","spark_pilot_2","7802","1","15","Male","","","","","","","3351.899999976158","<p> Great job! Now try pressing the <b>down</b> key to travel down. </p>
            <img src='./assets/img/instructions/pressDown.jpg' class='instructions-image'>","","instructions","","","","","","","","","","","","","",""
"revaluation","19","170065","0.0-3.0-4.0-0.0","spark_pilot_2","7802","1","15","Male","","","true","","","","[]","./assets/img/space/3.jpg","[]","first stage practice","space","-5","null","null","","false","","","","","","","",""
"html-keyboard-response","20","170578","0.0-3.0-4.0-1.0","spark_pilot_2","7802","1","15","Male","","","","","","","null","<div style=""font-size:60px;"">+</div>","null","fixation","","","","","","","","","","","","","",""
"revaluation","21","174591","0.0-3.0-4.0-0.1","spark_pilot_2","7802","1","15","Male","","","false","","","","[292.5]","./assets/img/space/4.jpg","[""ArrowDown""]","first stage practice","space","0","null","null","ArrowDown","false","","","","","","","",""
"html-keyboard-response","22","175111","0.0-3.0-4.0-1.1","spark_pilot_2","7802","1","15","Male","","","","","","","null","<div style=""font-size:60px;"">+</div>","null","fixation","","","","","","","","","","","","","",""
"revaluation","23","179121","0.0-3.0-4.0-0.2","spark_pilot_2","7802","1","15","Male","","","false","","","","[270.7999999523163]","./assets/img/space/5.jpg","[""ArrowDown""]","first stage practice","space","0","null","null","ArrowDown","false","","","","","","","",""
"html-keyboard-response","24","179623","0.0-3.0-4.0-1.2","spark_pilot_2","7802","1","15","Male","","","","","","","null","<div style=""font-size:60px;"">+</div>","null","fixation","","","","","","","","","","","","","",""
"learning-instructions","25","190646","0.0-3.0-5.0-0.0","spark_pilot_2","7802","1","15","Male","","","","","","","397.89999997615814","<p> The animals don’t move, so the animal in the upper part of a place will stay in the upper part of a place, and the animal in the lower part of a place will stay in the lower part of a place. </p>","","instructions","","","","","","","","","","","","","",""
"learning-instructions","26","201767","0.0-3.0-5.0-0.1","spark_pilot_2","7802","1","15","Male","","","","","","","618.1000000238419","<p> Each animal has two treasure chests for you to choose from. </p>
            <p> The amount of treasure in each chest can range from <b> 0 to 40 pieces.</b></p>","","instructions","","","","","","","","","","","","","",""
"learning-instructions","27","214853","0.0-3.0-5.0-0.2","spark_pilot_2","7802","1","15","Male","","","","","","","926.5999999642372","<p> You should decide which chest to search for treasure by using the <b>left</b> and <b>right</b> arrow keys. </p>
            <p><b> Pay attention to which animal is on the screen, as the animals have different treasure chests. </b></p>
            <img src='./assets/img/instructions/leftright.jpg' class='instructions-image'>","","instructions","","","","","","","","","","","","","",""
"learning-instructions","28","224316","0.0-3.0-5.0-0.3","spark_pilot_2","7802","1","15","Male","","","","","","","1952.1000000238419","<p> Let’s try practicing that now. </p>
            <p> When you see an animal, choose which chest to search for treasure. </p>
            <img src='./assets/img/instructions/chooseChest.jpg' class='instructions-image'>","","instructions","","","","","","","","","","","","","",""
"revaluation","29","228340","0.0-3.0-6.0-0.0","spark_pilot_2","7802","1","15","Male","","","false","","","","[1230.4000000357628]","./assets/img/space/animals/rabbit.jpg","[""ArrowRight""]","second stage practice","space","23","{""ArrowUp,ArrowLeft"":3,""ArrowUp,ArrowRight"":36,""ArrowDown,ArrowLeft"":15,""ArrowDown,ArrowRight"":23}","true","ArrowDown,ArrowRight","","","","","","","","",""
"html-keyboard-response","30","228860","0.0-3.0-6.0-1.0","spark_pilot_2","7802","1","15","Male","","","","","","","null","<div style=""font-size:60px;"">+</div>","null","fixation","","","","","","","","","","","","","",""
"revaluation","31","232881","0.0-3.0-6.0-0.1","spark_pilot_2","7802","1","15","Male","","","false","","","","[978.3000000119209]","./assets/img/space/animals/cat.jpg","[""ArrowLeft""]","second stage practice","space","3","{""ArrowUp,ArrowLeft"":3,""ArrowUp,ArrowRight"":36,""ArrowDown,ArrowLeft"":15,""ArrowDown,ArrowRight"":23}","false","ArrowUp,ArrowLeft","","","","","","","","",""
"html-keyboard-response","32","233404","0.0-3.0-6.0-1.1","spark_pilot_2","7802","1","15","Male","","","","","","","null","<div style=""font-size:60px;"">+</div>","null","fixation","","","","","","","","","","","","","",""
"revaluation","33","237415","0.0-3.0-6.0-0.2","spark_pilot_2","7802","1","15","Male","","","false","","","","[427.69999998807907]","./assets/img/space/animals/cat.jpg","[""ArrowRight""]","second stage practice","space","36","{""ArrowUp,ArrowLeft"":3,""ArrowUp,ArrowRight"":36,""ArrowDown,ArrowLeft"":15,""ArrowDown,ArrowRight"":23}","true","ArrowUp,ArrowRight","","","","","","","","",""
"html-keyboard-response","34","237937","0.0-3.0-6.0-1.2","spark_pilot_2","7802","1","15","Male","","","","","","","null","<div style=""font-size:60px;"">+</div>","null","fixation","","","","","","","","","","","","","",""
"revaluation","35","241948","0.0-3.0-6.0-0.3","spark_pilot_2","7802","1","15","Male","","","false","","","","[303.19999998807907]","./assets/img/space/animals/rabbit.jpg","[""ArrowRight""]","second stage practice","space","23","{""ArrowUp,ArrowLeft"":3,""ArrowUp,ArrowRight"":36,""ArrowDown,ArrowLeft"":15,""ArrowDown,ArrowRight"":23}","true","ArrowDown,ArrowRight","","","","","","","","",""
"html-keyboard-response","36","242470","0.0-3.0-6.0-1.3","spark_pilot_2","7802","1","15","Male","","","","","","","null","<div style=""font-size:60px;"">+</div>","null","fixation","","","","","","","","","","","","","",""
"learning-instructions","37","261061","0.0-3.0-7.0-0.0","spark_pilot_2","7802","1","15","Male","","","","","","","872.2999999523163","<p> Great job. Now let’s try putting it together. </p>
            <p> On each turn, you will first see a picture to remind you of the place you are in, and you need to choose whether to go up or down. </p>
            <p> Then you will see an animal and choose which of its chests to search for treasure. </p>","","instructions","","","","","","","","","","","","","",""
"learning-instructions","38","270823","0.0-3.0-7.0-0.1","spark_pilot_2","7802","1","15","Male","","","","","","","734.1999999880791","<p> When you choose whether to go up or down, try to go to the animal with the chest with the most treasure. </p>
            <p> Try practicing that now! </p>","","instructions","","","","","","","","","","","","","",""
"revaluation","39","276860","0.0-3.0-8.0-0.0","spark_pilot_2","7802","1","15","Male","","","false","","","","[1228.300000011921,1788.7999999523163]","./assets/img/space/6.jpg","[""ArrowDown"",""ArrowRight""]","full practice","space","23","{""ArrowUp,ArrowLeft"":3,""ArrowUp,ArrowRight"":36,""ArrowDown,ArrowLeft"":15,""ArrowDown,ArrowRight"":23}","false","ArrowDown,ArrowRight","false","","","","","","","",""
"html-keyboard-response","40","277362","0.0-3.0-8.0-1.0","spark_pilot_2","7802","1","15","Male","","","","","","","null","<div style=""font-size:60px;"">+</div>","null","fixation","","","","","","","","","","","","","",""
"revaluation","41","283379","0.0-3.0-8.0-0.1","spark_pilot_2","7802","1","15","Male","","","false","","","","[989.3999999761581,776.5999999642372]","./assets/img/space/7.jpg","[""ArrowUp"",""ArrowLeft""]","full practice","space","3","{""ArrowUp,ArrowLeft"":3,""ArrowUp,ArrowRight"":36,""ArrowDown,ArrowLeft"":15,""ArrowDown,ArrowRight"":23}","false","ArrowUp,ArrowLeft","false","","","","","","","",""
"html-keyboard-response","42","283890","0.0-3.0-8.0-1.1","spark_pilot_2","7802","1","15","Male","","","","","","","null","<div style=""font-size:60px;"">+</div>","null","fixation","","","","","","","","","","","","","",""
"revaluation","43","289912","0.0-3.0-8.0-0.2","spark_pilot_2","7802","1","15","Male","","","false","","","","[728.5999999642372,396.69999998807907]","./assets/img/space/8.jpg","[""ArrowUp"",""ArrowRight""]","full practice","space","36","{""ArrowUp,ArrowLeft"":3,""ArrowUp,ArrowRight"":36,""ArrowDown,ArrowLeft"":15,""ArrowDown,ArrowRight"":23}","true","ArrowUp,ArrowRight","false","","","","","","","",""
"html-keyboard-response","44","290430","0.0-3.0-8.0-1.2","spark_pilot_2","7802","1","15","Male","","","","","","","null","<div style=""font-size:60px;"">+</div>","null","fixation","","","","","","","","","","","","","",""
"revaluation","45","296450","0.0-3.0-8.0-0.3","spark_pilot_2","7802","1","15","Male","","","false","","","","[717.3999999761581,359.69999998807907]","./assets/img/space/9.jpg","[""ArrowUp"",""ArrowRight""]","full practice","space","36","{""ArrowUp,ArrowLeft"":3,""ArrowUp,ArrowRight"":36,""ArrowDown,ArrowLeft"":15,""ArrowDown,ArrowRight"":23}","true","ArrowUp,ArrowRight","false","","","","","","","",""
"html-keyboard-response","46","296968","0.0-3.0-8.0-1.3","spark_pilot_2","7802","1","15","Male","","","","","","","null","<div style=""font-size:60px;"">+</div>","null","fixation","","","","","","","","","","","","","",""
"revaluation","47","302975","0.0-3.0-8.0-0.4","spark_pilot_2","7802","1","15","Male","","","false","","","","[526.8999999761581,407.5999999642372]","./assets/img/space/10.jpg","[""ArrowUp"",""ArrowRight""]","full practice","space","36","{""ArrowUp,ArrowLeft"":3,""ArrowUp,ArrowRight"":36,""ArrowDown,ArrowLeft"":15,""ArrowDown,ArrowRight"":23}","true","ArrowUp,ArrowRight","false","","","","","","","",""
"html-keyboard-response","48","303478","0.0-3.0-8.0-1.4","spark_pilot_2","7802","1","15","Male","","","","","","","null","<div style=""font-size:60px;"">+</div>","null","fixation","","","","","","","","","","","","","",""
"learning-instructions","49","317399","0.0-3.0-9.0-0.0","spark_pilot_2","7802","1","15","Male","","","","","","","1341.199999988079","<p> One last thing: sometimes, you will see a robber. The robber can be anywhere in the picture. </p>
            <p> If you do not stop them, you will lose treasure. </p>
            <img src='./assets/img/instructions/robber.jpg' class='instructions-image'>","","instructions","","","","","","","","","","","","","",""
"learning-instructions","50","327727","0.0-3.0-9.0-0.1","spark_pilot_2","7802","1","15","Male","","","","","","","2293.300000011921","<p> If you see the robber, you should <b>press the space bar</b> rather than using the arrow keys. </p>
            <p> Try practicing that now! </p>","","instructions","","","","","","","","","","","","","",""
"revaluation","51","331733","0.0-3.0-10.0-0.0","spark_pilot_2","7802","1","15","Male","","","false","","","","[768]","./assets/img/space/catch/0.jpg","[""spaceBar""]","catch practice","space","0","{""ArrowUp,ArrowLeft"":3,""ArrowUp,ArrowRight"":36,""ArrowDown,ArrowLeft"":15,""ArrowDown,ArrowRight"":23}","true","spaceBar","true","","","","","","","",""
"html-keyboard-response","52","332234","0.0-3.0-10.0-1.0","spark_pilot_2","7802","1","15","Male","","","","","","","null","<div style=""font-size:60px;"">+</div>","null","fixation","","","","","","","","","","","","","",""
"revaluation","53","336247","0.0-3.0-10.0-0.1","spark_pilot_2","7802","1","15","Male","","","false","","","","[887.6999999880791]","./assets/img/space/catch/1.jpg","[""spaceBar""]","catch practice","space","0","{""ArrowUp,ArrowLeft"":3,""ArrowUp,ArrowRight"":36,""ArrowDown,ArrowLeft"":15,""ArrowDown,ArrowRight"":23}","true","spaceBar","true","","","","","","","",""
"html-keyboard-response","54","336749","0.0-3.0-10.0-1.1","spark_pilot_2","7802","1","15","Male","","","","","","","null","<div style=""font-size:60px;"">+</div>","null","fixation","","","","","","","","","","","","","",""
"revaluation","55","340771","0.0-3.0-10.0-0.2","spark_pilot_2","7802","1","15","Male","","","false","","","","[526.0999999642372]","./assets/img/space/catch/2.jpg","[""spaceBar""]","catch practice","space","0","{""ArrowUp,ArrowLeft"":3,""ArrowUp,ArrowRight"":36,""ArrowDown,ArrowLeft"":15,""ArrowDown,ArrowRight"":23}","true","spaceBar","true","","","","","","","",""
"html-keyboard-response","56","341284","0.0-3.0-10.0-1.2","spark_pilot_2","7802","1","15","Male","","","","","","","null","<div style=""font-size:60px;"">+</div>","null","fixation","","","","","","","","","","","","","",""
"learning-instructions","57","358102","0.0-3.0-11.0-0.0","spark_pilot_2","7802","1","15","Male","","","","","","","2513.699999988079","<p> After you explore a place to find treasure, it will be time to play a different game. </p>
            <p> During this game, red dots will appear on the screen and fall down slowly. </p>
            <p><b> You must click on them before they reach the bottom. </b></p>
            <img src='./assets/img/instructions/dotGame.jpg' class='instructions-image'>","","instructions","","","","","","","","","","","","","",""
"learning-instructions","58","365174","0.0-3.0-11.0-0.1","spark_pilot_2","7802","1","15","Male","","","","","","","615.3000000119209","<p> For every dot you click, you will earn additional treasure. </p>
            <p> Let’s try practicing that now. </p>","","instructions","","","","","","","","","","","","","",""
"revaluation","59","380182","0.0-3.0-12.0-0.0","spark_pilot_2","7802","1","15","Male","","","","","","","[84]","","","rest practice","","10","","","","","0","15000","","","","","",""
"learning-instructions","60","386990","0.0-3.0-13.0-0.0-0.0","spark_pilot_2","7802","1","15","Male","","","","","","","853.6000000238419","<p> Now, you will practice a shortened version of the game to get a sense of how it all fits together. </p>","","instructions","","","","","","","","","","","","","",""
"learning-instructions","61","392111","0.0-3.0-13.0-0.0-0.1","spark_pilot_2","7802","1","15","Male","","","","","","","960.6000000238419","<p>This time you are searching for treasure in outer space.</p>","","instructions","","","","","","","","","","","","","",""
"learning-instructions","62","408246","0.0-3.0-13.0-1.0-0.0","spark_pilot_2","7802","1","15","Male","","","","","","","1096","<p> Remember, when you see a picture of the place, use the up and down keys to <b>find an animal</b>.</p>
            <p> When you encounter an animal, you should use the left and right keys to <b>select a treasure chest</b>.</p>
            <p> Don't forget to look out for the robber! </p>","","instructions","","","","","","","","","","","","","",""
"revaluation","63","414264","0.0-3.0-13.0-2.0-0.0","spark_pilot_2","7802","1","15","Male","","","false","","","","[1424.300000011921,1331.5999999642372]","./assets/img/space/11.jpg","[""ArrowUp"",""ArrowRight""]","practice block","space","36","{""ArrowUp,ArrowLeft"":3,""ArrowUp,ArrowRight"":36,""ArrowDown,ArrowLeft"":15,""ArrowDown,ArrowRight"":23}","true","ArrowUp,ArrowRight","false","","","","","","","",""
"html-keyboard-response","64","414766","0.0-3.0-13.0-2.0-1.0","spark_pilot_2","7802","1","15","Male","","","","","","","null","<div style=""font-size:60px;"">+</div>","null","fixation","","","","","","","","","","","","","",""
"revaluation","65","420814","0.0-3.0-13.0-2.0-0.1","spark_pilot_2","7802","1","15","Male","","","false","","","","[893.5999999642372,606.8000000119209]","./assets/img/space/12.jpg","[""ArrowUp"",""ArrowRight""]","practice block","space","36","{""ArrowUp,ArrowLeft"":3,""ArrowUp,ArrowRight"":36,""ArrowDown,ArrowLeft"":15,""ArrowDown,ArrowRight"":23}","true","ArrowUp,ArrowRight","false","","","","","","","",""
"html-keyboard-response","66","421335","0.0-3.0-13.0-2.0-1.1","spark_pilot_2","7802","1","15","Male","","","","","","","null","<div style=""font-size:60px;"">+</div>","null","fixation","","","","","","","","","","","","","",""
"revaluation","67","427364","0.0-3.0-13.0-2.0-0.2","spark_pilot_2","7802","1","15","Male","","","false","","","","[741.6999999880791,560.6999999880791]","./assets/img/space/13.jpg","[""ArrowUp"",""ArrowRight""]","practice block","space","36","{""ArrowUp,ArrowLeft"":3,""ArrowUp,ArrowRight"":36,""ArrowDown,ArrowLeft"":15,""ArrowDown,ArrowRight"":23}","true","ArrowUp,ArrowRight","false","","","","","","","",""
"html-keyboard-response","68","427886","0.0-3.0-13.0-2.0-1.2","spark_pilot_2","7802","1","15","Male","","","","","","","null","<div style=""font-size:60px;"">+</div>","null","fixation","","","","","","","","","","","","","",""
"revaluation","69","433902","0.0-3.0-13.0-2.0-0.3","spark_pilot_2","7802","1","15","Male","","","false","","","","[536.3999999761581,586]","./assets/img/space/14.jpg","[""ArrowUp"",""ArrowRight""]","practice block","space","36","{""ArrowUp,ArrowLeft"":3,""ArrowUp,ArrowRight"":36,""ArrowDown,ArrowLeft"":15,""ArrowDown,ArrowRight"":23}","true","ArrowUp,ArrowRight","false","","","","","","","",""
"html-keyboard-response","70","434424","0.0-3.0-13.0-2.0-1.3","spark_pilot_2","7802","1","15","Male","","","","","","","null","<div style=""font-size:60px;"">+</div>","null","fixation","","","","","","","","","","","","","",""
"revaluation","71","440432","0.0-3.0-13.0-2.0-0.4","spark_pilot_2","7802","1","15","Male","","","false","","","","[810,276.7999999523163]","./assets/img/space/11.jpg","[""ArrowUp"",""ArrowRight""]","practice block","space","36","{""ArrowUp,ArrowLeft"":3,""ArrowUp,ArrowRight"":36,""ArrowDown,ArrowLeft"":15,""ArrowDown,ArrowRight"":23}","true","ArrowUp,ArrowRight","false","","","","","","","",""
"html-keyboard-response","72","440933","0.0-3.0-13.0-2.0-1.4","spark_pilot_2","7802","1","15","Male","","","","","","","null","<div style=""font-size:60px;"">+</div>","null","fixation","","","","","","","","","","","","","",""
"revaluation","73","446938","0.0-3.0-13.0-2.0-0.5","spark_pilot_2","7802","1","15","Male","","","false","","","","[755.3000000119209,237.30000001192093]","./assets/img/space/12.jpg","[""ArrowUp"",""ArrowRight""]","practice block","space","36","{""ArrowUp,ArrowLeft"":3,""ArrowUp,ArrowRight"":36,""ArrowDown,ArrowLeft"":15,""ArrowDown,ArrowRight"":23}","true","ArrowUp,ArrowRight","false","","","","","","","",""
"html-keyboard-response","74","447440","0.0-3.0-13.0-2.0-1.5","spark_pilot_2","7802","1","15","Male","","","","","","","null","<div style=""font-size:60px;"">+</div>","null","fixation","","","","","","","","","","","","","",""
"revaluation","75","453446","0.0-3.0-13.0-2.0-0.6","spark_pilot_2","7802","1","15","Male","","","false","","","","[632.9000000357628,257.10000002384186]","./assets/img/space/13.jpg","[""ArrowUp"",""ArrowRight""]","practice block","space","36","{""ArrowUp,ArrowLeft"":3,""ArrowUp,ArrowRight"":36,""ArrowDown,ArrowLeft"":15,""ArrowDown,ArrowRight"":23}","true","ArrowUp,ArrowRight","false","","","","","","","",""
"html-keyboard-response","76","453947","0.0-3.0-13.0-2.0-1.6","spark_pilot_2","7802","1","15","Male","","","","","","","null","<div style=""font-size:60px;"">+</div>","null","fixation","","","","","","","","","","","","","",""
"revaluation","77","459952","0.0-3.0-13.0-2.0-0.7","spark_pilot_2","7802","1","15","Male","","","false","","","","[640,418.5]","./assets/img/space/14.jpg","[""ArrowUp"",""ArrowRight""]","practice block","space","36","{""ArrowUp,ArrowLeft"":3,""ArrowUp,ArrowRight"":36,""ArrowDown,ArrowLeft"":15,""ArrowDown,ArrowRight"":23}","true","ArrowUp,ArrowRight","false","","","","","","","",""
"html-keyboard-response","78","460454","0.0-3.0-13.0-2.0-1.7","spark_pilot_2","7802","1","15","Male","","","","","","","null","<div style=""font-size:60px;"">+</div>","null","fixation","","","","","","","","","","","","","",""
"revaluation","79","464458","0.0-3.0-13.0-2.0-0.8","spark_pilot_2","7802","1","15","Male","","","false","","","","[689.5]","./assets/img/space/catch/3.jpg","[""spaceBar""]","practice block","space","0","{""ArrowUp,ArrowLeft"":3,""ArrowUp,ArrowRight"":36,""ArrowDown,ArrowLeft"":15,""ArrowDown,ArrowRight"":23}","true","spaceBar","true","","","","","","","",""
"html-keyboard-response","80","464960","0.0-3.0-13.0-2.0-1.8","spark_pilot_2","7802","1","15","Male","","","","","","","null","<div style=""font-size:60px;"">+</div>","null","fixation","","","","","","","","","","","","","",""
"learning-instructions","81","481166","0.0-3.0-13.0-3.0-0.0","spark_pilot_2","7802","1","15","Male","","","","","","","1903.699999988079","<p> Now, you will travel with a friend who will choose whether you go up or down first. </p>
            <p> On these turns, you will just see the animal that they found. You will still get to choose which chest to search for treasure.</p>","","instructions","","","","","","","","","","","","","",""
"revaluation","82","485203","0.0-3.0-13.0-4.0-0.0","spark_pilot_2","7802","1","15","Male","","","false","","","","[1104.800000011921]","./assets/img/space/animals/rabbit.jpg","[""ArrowRight""]","practice block","space","23","{""ArrowUp,ArrowLeft"":3,""ArrowUp,ArrowRight"":36,""ArrowDown,ArrowLeft"":15,""ArrowDown,ArrowRight"":23}","true","ArrowDown,ArrowRight","","","","","","","","",""
"html-keyboard-response","83","485715","0.0-3.0-13.0-4.0-1.0","spark_pilot_2","7802","1","15","Male","","","","","","","null","<div style=""font-size:60px;"">+</div>","null","fixation","","","","","","","","","","","","","",""
"revaluation","84","489726","0.0-3.0-13.0-4.0-0.1","spark_pilot_2","7802","1","15","Male","","","false","","","","[1558.800000011921]","./assets/img/space/animals/cat.jpg","[""ArrowRight""]","practice block","space","36","{""ArrowUp,ArrowLeft"":3,""ArrowUp,ArrowRight"":36,""ArrowDown,ArrowLeft"":15,""ArrowDown,ArrowRight"":23}","true","ArrowUp,ArrowRight","","","","","","","","",""
"html-keyboard-response","85","490245","0.0-3.0-13.0-4.0-1.1","spark_pilot_2","7802","1","15","Male","","","","","","","null","<div style=""font-size:60px;"">+</div>","null","fixation","","","","","","","","","","","","","",""
"revaluation","86","494255","0.0-3.0-13.0-4.0-0.2","spark_pilot_2","7802","1","15","Male","","","false","","","","[1867.7999999523163]","./assets/img/space/animals/rabbit.jpg","[""ArrowLeft""]","practice block","space","15","{""ArrowUp,ArrowLeft"":3,""ArrowUp,ArrowRight"":36,""ArrowDown,ArrowLeft"":15,""ArrowDown,ArrowRight"":23}","false","ArrowDown,ArrowLeft","","","","","","","","",""
"html-keyboard-response","87","494774","0.0-3.0-13.0-4.0-1.2","spark_pilot_2","7802","1","15","Male","","","","","","","null","<div style=""font-size:60px;"">+</div>","null","fixation","","","","","","","","","","","","","",""
"revaluation","88","498786","0.0-3.0-13.0-4.0-0.3","spark_pilot_2","7802","1","15","Male","","","false","","","","[878.3999999761581]","./assets/img/space/animals/cat.jpg","[""ArrowRight""]","practice block","space","36","{""ArrowUp,ArrowLeft"":3,""ArrowUp,ArrowRight"":36,""ArrowDown,ArrowLeft"":15,""ArrowDown,ArrowRight"":23}","true","ArrowUp,ArrowRight","","","","","","","","",""
"html-keyboard-response","89","499304","0.0-3.0-13.0-4.0-1.3","spark_pilot_2","7802","1","15","Male","","","","","","","null","<div style=""font-size:60px;"">+</div>","null","fixation","","","","","","","","","","","","","",""
"learning-instructions","90","509038","0.0-3.0-13.0-5.0-0.0","spark_pilot_2","7802","1","15","Male","","","","","","","1573.5999999642372","<p> Time to play the dot game! </p>
            <p> For 15 seconds, click the red dots on the following screen as they appear. </p>","","instructions","","","","","","","","","","","","","",""
"revaluation","91","524039","0.0-3.0-13.0-6.0-0.0","spark_pilot_2","7802","1","15","Male","","","","","","","[111]","","","rest practice","","10","","","","","0","15000","","","","","",""
"learning-instructions","92","532550","0.0-3.0-13.0-7.0-0.0","spark_pilot_2","7802","1","15","Male","","","","","","","1587.0999999642372","<p> You have almost finished this part of the game! </p>
            <p> We are going to ask you to make a few more choices. </p>","","instructions","","","","","","","","","","","","","",""
"learning-instructions","93","548926","0.0-3.0-13.0-7.0-0.1","spark_pilot_2","7802","1","15","Male","","","","","","","1301.800000011921","<p> First, you need to decide whether to go up or down. When you see each picture, use the arrow keys to make your choice. </p>
            <p><b>You will not see which animal you found, but try to get to the one that will give you the most treasure.</b></p>","","instructions","","","","","","","","","","","","","",""
"revaluation","94","551579","0.0-3.0-13.0-8.0","spark_pilot_2","7802","1","15","Male","","","false","","","","[2651.199999988079]","./assets/img/space/15.jpg","[""ArrowDown""]","practice block","space","0","{""ArrowUp,ArrowLeft"":3,""ArrowUp,ArrowRight"":36,""ArrowDown,ArrowLeft"":15,""ArrowDown,ArrowRight"":23}","false","ArrowDown","false","","","","","","","",""
"html-keyboard-response","95","552082","0.0-3.0-13.0-9.0","spark_pilot_2","7802","1","15","Male","","","","","","","null","<div style=""font-size:60px;"">+</div>","null","fixation","","","","","","","","","","","","","",""
"learning-instructions","96","568383","0.0-3.0-13.0-10.0-0.0","spark_pilot_2","7802","1","15","Male","","","","","","","3947.100000023842","<p> Now you will see the animals again and can search their chests for treasure. </p>
            <p> This time, you will not see how much treasure you earned, but you will earn more bonus money for making better choices. </p>","","instructions","","","","","","","","","","","","","",""
"revaluation","97","569947","0.0-3.0-13.0-11.0-0.0","spark_pilot_2","7802","1","15","Male","","","false","","","","[1562.5999999642372]","./assets/img/space/animals/cat.jpg","[""ArrowRight""]","practice block","space","0","{""ArrowUp,ArrowLeft"":3,""ArrowUp,ArrowRight"":36,""ArrowDown,ArrowLeft"":15,""ArrowDown,ArrowRight"":23}","true","ArrowUp,ArrowRight","","","","","","","","",""
"html-keyboard-response","98","570450","0.0-3.0-13.0-11.0-1.0","spark_pilot_2","7802","1","15","Male","","","","","","","null","<div style=""font-size:60px;"">+</div>","null","fixation","","","","","","","","","","","","","",""
"revaluation","99","571227","0.0-3.0-13.0-11.0-0.1","spark_pilot_2","7802","1","15","Male","","","false","","","","[773.6999999880791]","./assets/img/space/animals/rabbit.jpg","[""ArrowRight""]","practice block","space","0","{""ArrowUp,ArrowLeft"":3,""ArrowUp,ArrowRight"":36,""ArrowDown,ArrowLeft"":15,""ArrowDown,ArrowRight"":23}","true","ArrowDown,ArrowRight","","","","","","","","",""
"html-keyboard-response","100","571731","0.0-3.0-13.0-11.0-1.1","spark_pilot_2","7802","1","15","Male","","","","","","","null","<div style=""font-size:60px;"">+</div>","null","fixation","","","","","","","","","","","","","",""
"learning-instructions","101","579606","0.0-3.0-14.0-0.0","spark_pilot_2","7802","1","15","Male","","","","","","","2594.300000011921","<p> Before you start, we're going to ask you a few questions about how the game works. </p>","","instructions","","","","","","","","","","","","","",""
"comp-q","102","590513","0.0-3.0-15.0-0.0-0.0","spark_pilot_2","7802","1","15","Male","","","","","","","4218.399999976158","<p> <b> True or False? </b> </p>
            <p> There can be 50 pieces of treasure in a given animal's chest. </p>","1","comp_question","","","","true","","","","","","","","","",""
"comp-q","103","599047","0.0-3.0-15.0-0.0-1.0","spark_pilot_2","7802","1","15","Male","","","","","","","1064.7999999523163","<p> <b> That's right! </b> The amount of treasure in each chest can range from 0 to 40 pieces. </p>","0","comp_answer","","","","","","","","","","","","","",""
"comp-q","104","607446","0.0-3.0-15.0-0.1-0.1","spark_pilot_2","7802","1","15","Male","","","","","","","621.6000000238419","<p> <b> True or False? </b> </p><p> In this game, all animals have the same amount of treasure in their left and right chests. </p>","1","comp_question","","","","true","","","","","","","","","",""
"comp-q","105","614222","0.0-3.0-15.0-0.1-1.1","spark_pilot_2","7802","1","15","Male","","","","","","","773.6000000238419","<p> <b> That's right! </b> Animals have different amounts of treasure in their treasure chests. </p>","0","comp_answer","","","","","","","","","","","","","",""
"comp-q","106","621831","0.0-3.0-15.0-0.2-0.2","spark_pilot_2","7802","1","15","Male","","","","","","","499","<p> <b> True or False? </b> </p><p> The same animal will always be there if you go up in the same place. </p>","0","comp_question","","","","true","","","","","","","","","",""
"comp-q","107","629966","0.0-3.0-15.0-0.2-1.2","spark_pilot_2","7802","1","15","Male","","","","","","","943.6999999880791","<p> <b> That's right! </b> One animal lives in the upper part and one lives in the lower part of every place. </p>","0","comp_answer","","","","","","","","","","","","","",""
"comp-q","108","637013","0.0-3.0-15.0-0.3-0.3","spark_pilot_2","7802","1","15","Male","","","","","","","738.1999999880791","<p> <b> True or False? </b> </p><p> If you see a different picture, it means you are in a new place. </p>","0","comp_question","","","","false","","","","","","","","","",""
"comp-q","109","650438","0.0-3.0-15.0-0.3-1.3","spark_pilot_2","7802","1","15","Male","","","","","","","1608.5","<p> <b>Incorrect.</b> Lots of different images may show the same place. For example,  you may see three different images that all remind you that you are in outer space. </p>","0","comp_answer","","","","","","","","","","","","","",""
"comp-q","110","656702","0.0-3.0-15.0-0.4-0.4","spark_pilot_2","7802","1","15","Male","","","","","","","768.3000000119209","<p> <b> True or False? </b> </p><p> If you see a different picture, it means you are in a new place. </p>","1","comp_question","","","","true","","","","","","","","","",""
"comp-q","111","670645","0.0-3.0-15.0-0.4-1.4","spark_pilot_2","7802","1","15","Male","","","","","","","1890","<p> <b> That's right! </b> Lots of different images may show the same place. For example,  you may see three different images that all remind you that you are in outer space. </p>","0","comp_answer","","","","","","","","","","","","","",""
"learning-instructions","112","684006","0.0-3.0-16.0-0.0","spark_pilot_2","7802","1","15","Male","","","","","","","2685.899999976158","<p> Good job. Remember to do your best because the amount of treasure you earn will be converted into bonus money. </p>
            <p> It’s time to start the real game! </p>","","instructions","","","","","","","","","","","","","",""
"learning-instructions","113","689006","0.0-4.0-0.0-0.0","spark_pilot_2","7802","1","15","Male","","","","","","","1348.7000000476837","<p> This time you are searching for treasure in the <b>ocean</b>.</p>","","instructions","","","","","","","","","","","","","",""
"learning-instructions","114","708166","0.0-4.0-0.0-0.1","spark_pilot_2","7802","1","15","Male","","","","","","","1298.699999988079","<p><b>New</b> animals with <b>new</b> treasure chests live here. You need to explore to discover where the animal with the best treasure chest is.</p>
                    <p> Like before, once you figure out which animal has the chest with the most treasure, you should try to get to that animal and select that chest! </p>","","instructions","","","","","","","","","","","","","",""
"learning-instructions","115","723783","0.0-4.0-1.0-0.0","spark_pilot_2","7802","1","15","Male","","","","","","","893.8000000119209","<p> Remember, when you see a picture of the place, use the up and down keys to <b>find an animal</b>.</p>
            <p> When you encounter an animal, you should use the left and right keys to <b>select a treasure chest</b>.</p>
            <p> Don't forget to look out for the robber! </p>","","instructions","","","","","","","","","","","","","",""
"revaluation","116","729811","0.0-4.0-2.0-0.0","spark_pilot_2","7802","1","15","Male","","","false","","","","[1098.8999999761581,1291.1000000238419]","./assets/img/ocean/memory/17.jpg","[""ArrowUp"",""ArrowRight""]","value training","ocean","10","{""ArrowUp,ArrowLeft"":26,""ArrowUp,ArrowRight"":10,""ArrowDown,ArrowLeft"":5,""ArrowDown,ArrowRight"":17}","false","ArrowUp,ArrowRight","false","","","original","1","0","","",""
"html-keyboard-response","117","730334","0.0-4.0-2.0-1.0","spark_pilot_2","7802","1","15","Male","","","","","","","null","<div style=""font-size:60px;"">+</div>","null","fixation","","","","","","","","","","","1","","",""
"revaluation","118","736360","0.0-4.0-2.0-0.1","spark_pilot_2","7802","1","15","Male","","","false","","","","[1055.199999988079,1483.6000000238419]","./assets/img/ocean/memory/17.jpg","[""ArrowUp"",""ArrowLeft""]","value training","ocean","26","{""ArrowUp,ArrowLeft"":26,""ArrowUp,ArrowRight"":10,""ArrowDown,ArrowLeft"":5,""ArrowDown,ArrowRight"":17}","true","ArrowUp,ArrowLeft","false","","","original","1","2","","",""
"html-keyboard-response","119","736861","0.0-4.0-2.0-1.1","spark_pilot_2","7802","1","15","Male","","","","","","","null","<div style=""font-size:60px;"">+</div>","null","fixation","","","","","","","","","","","3","","",""
"revaluation","120","740872","0.0-4.0-2.0-0.2","spark_pilot_2","7802","1","15","Male","","","false","","","","[1208.800000011921]","./assets/img/ocean/catch/1.jpg","[""ArrowUp""]","value training","ocean","-10","{""ArrowUp,ArrowLeft"":26,""ArrowUp,ArrowRight"":10,""ArrowDown,ArrowLeft"":5,""ArrowDown,ArrowRight"":17}","false","ArrowUp","true","","","original","1","4","","",""
"html-keyboard-response","121","741384","0.0-4.0-2.0-1.2","spark_pilot_2","7802","1","15","Male","","","","","","","null","<div style=""font-size:60px;"">+</div>","null","fixation","","","","","","","","","","","5","","",""
"revaluation","122","747411","0.0-4.0-2.0-0.3","spark_pilot_2","7802","1","15","Male","","","false","","","","[515.2999999523163,834.0999999642372]","./assets/img/ocean/memory/8.jpg","[""ArrowUp"",""ArrowLeft""]","value training","ocean","26","{""ArrowUp,ArrowLeft"":26,""ArrowUp,ArrowRight"":10,""ArrowDown,ArrowLeft"":5,""ArrowDown,ArrowRight"":17}","true","ArrowUp,ArrowLeft","false","","","original","1","6","","",""
"html-keyboard-response","123","747933","0.0-4.0-2.0-1.3","spark_pilot_2","7802","1","15","Male","","","","","","","null","<div style=""font-size:60px;"">+</div>","null","fixation","","","","","","","","","","","7","","",""
"revaluation","124","753966","0.0-4.0-2.0-0.4","spark_pilot_2","7802","1","15","Male","","","false","","","","[757.7000000476837,670.1999999880791]","./assets/img/ocean/memory/37.jpg","[""ArrowUp"",""ArrowLeft""]","value training","ocean","26","{""ArrowUp,ArrowLeft"":26,""ArrowUp,ArrowRight"":10,""ArrowDown,ArrowLeft"":5,""ArrowDown,ArrowRight"":17}","true","ArrowUp,ArrowLeft","false","","","original","1","8","","",""
"html-keyboard-response","125","754467","0.0-4.0-2.0-1.4","spark_pilot_2","7802","1","15","Male","","","","","","","null","<div style=""font-size:60px;"">+</div>","null","fixation","","","","","","","","","","","9","","",""
"revaluation","126","760472","0.0-4.0-2.0-0.5","spark_pilot_2","7802","1","15","Male","","","true","","","","[889]","./assets/img/ocean/memory/20.jpg","[""ArrowDown""]","value training","ocean","-5","{""ArrowUp,ArrowLeft"":26,""ArrowUp,ArrowRight"":10,""ArrowDown,ArrowLeft"":5,""ArrowDown,ArrowRight"":17}","false","ArrowDown","false","","","original","1","10","","",""
"html-keyboard-response","127","760973","0.0-4.0-2.0-1.5","spark_pilot_2","7802","1","15","Male","","","","","","","null","<div style=""font-size:60px;"">+</div>","null","fixation","","","","","","","","","","","11","","",""
"revaluation","128","764976","0.0-4.0-2.0-0.6","spark_pilot_2","7802","1","15","Male","","","true","","","","[]","./assets/img/ocean/memory/19.jpg","[]","value training","ocean","-5","{""ArrowUp,ArrowLeft"":26,""ArrowUp,ArrowRight"":10,""ArrowDown,ArrowLeft"":5,""ArrowDown,ArrowRight"":17}","false","","false","","","original","1","12","","",""
"html-keyboard-response","129","765477","0.0-4.0-2.0-1.6","spark_pilot_2","7802","1","15","Male","","","","","","","null","<div style=""font-size:60px;"">+</div>","null","fixation","","","","","","","","","","","13","","",""
"revaluation","130","771484","0.0-4.0-2.0-0.7","spark_pilot_2","7802","1","15","Male","","","false","","","","[891.3000000119209,661.2999999523163]","./assets/img/ocean/memory/26.jpg","[""ArrowUp"",""ArrowLeft""]","value training","ocean","26","{""ArrowUp,ArrowLeft"":26,""ArrowUp,ArrowRight"":10,""ArrowDown,ArrowLeft"":5,""ArrowDown,ArrowRight"":17}","true","ArrowUp,ArrowLeft","false","","","original","1","14","","",""
"html-keyboard-response","131","771985","0.0-4.0-2.0-1.7","spark_pilot_2","7802","1","15","Male","","","","","","","null","<div style=""font-size:60px;"">+</div>","null","fixation","","","","","","","","","","","15","","",""
"revaluation","132","777991","0.0-4.0-2.0-0.8","spark_pilot_2","7802","1","15","Male","","","false","","","","[680.5999999642372,666.1000000238419]","./assets/img/ocean/memory/7.jpg","[""ArrowDown"",""ArrowLeft""]","value training","ocean","5","{""ArrowUp,ArrowLeft"":26,""ArrowUp,ArrowRight"":10,""ArrowDown,ArrowLeft"":5,""ArrowDown,ArrowRight"":17}","false","ArrowDown,ArrowLeft","false","","","original","1","16","","",""
"html-keyboard-response","133","778492","0.0-4.0-2.0-1.8","spark_pilot_2","7802","1","15","Male","","","","","","","null","<div style=""font-size:60px;"">+</div>","null","fixation","","","","","","","","","","","17","","",""
"revaluation","134","784498","0.0-4.0-2.0-0.9","spark_pilot_2","7802","1","15","Male","","","false","","","","[692.5,772.8999999761581]","./assets/img/ocean/memory/29.jpg","[""ArrowUp"",""ArrowLeft""]","value training","ocean","26","{""ArrowUp,ArrowLeft"":26,""ArrowUp,ArrowRight"":10,""ArrowDown,ArrowLeft"":5,""ArrowDown,ArrowRight"":17}","true","ArrowUp,ArrowLeft","false","","","original","1","18","","",""
"html-keyboard-response","135","785000","0.0-4.0-2.0-1.9","spark_pilot_2","7802","1","15","Male","","","","","","","null","<div style=""font-size:60px;"">+</div>","null","fixation","","","","","","","","","","","19","","",""
"revaluation","136","791005","0.0-4.0-2.0-0.10","spark_pilot_2","7802","1","15","Male","","","false","","","","[710.3000000119209,266.69999998807907]","./assets/img/ocean/memory/29.jpg","[""ArrowUp"",""ArrowLeft""]","value training","ocean","26","{""ArrowUp,ArrowLeft"":26,""ArrowUp,ArrowRight"":10,""ArrowDown,ArrowLeft"":5,""ArrowDown,ArrowRight"":17}","true","ArrowUp,ArrowLeft","false","","","original","1","20","","",""
"html-keyboard-response","137","791507","0.0-4.0-2.0-1.10","spark_pilot_2","7802","1","15","Male","","","","","","","null","<div style=""font-size:60px;"">+</div>","null","fixation","","","","","","","","","","","21","","",""
"revaluation","138","797513","0.0-4.0-2.0-0.11","spark_pilot_2","7802","1","15","Male","","","false","","","","[606.3000000119209,452.7999999523163]","./assets/img/ocean/memory/22.jpg","[""ArrowUp"",""ArrowLeft""]","value training","ocean","26","{""ArrowUp,ArrowLeft"":26,""ArrowUp,ArrowRight"":10,""ArrowDown,ArrowLeft"":5,""ArrowDown,ArrowRight"":17}","true","ArrowUp,ArrowLeft","false","","","original","1","22","","",""
"html-keyboard-response","139","798016","0.0-4.0-2.0-1.11","spark_pilot_2","7802","1","15","Male","","","","","","","null","<div style=""font-size:60px;"">+</div>","null","fixation","","","","","","","","","","","23","","",""
"revaluation","140","804021","0.0-4.0-2.0-0.12","spark_pilot_2","7802","1","15","Male","","","false","","","","[448.69999998807907,831.6000000238419]","./assets/img/ocean/memory/14.jpg","[""ArrowDown"",""ArrowRight""]","value training","ocean","17","{""ArrowUp,ArrowLeft"":26,""ArrowUp,ArrowRight"":10,""ArrowDown,ArrowLeft"":5,""ArrowDown,ArrowRight"":17}","false","ArrowDown,ArrowRight","false","","","original","1","24","","",""
"html-keyboard-response","141","804523","0.0-4.0-2.0-1.12","spark_pilot_2","7802","1","15","Male","","","","","","","null","<div style=""font-size:60px;"">+</div>","null","fixation","","","","","","","","","","","25","","",""
"revaluation","142","810527","0.0-4.0-2.0-0.13","spark_pilot_2","7802","1","15","Male","","","false","","","","[549.5,527]","./assets/img/ocean/memory/1.jpg","[""ArrowUp"",""ArrowLeft""]","value training","ocean","26","{""ArrowUp,ArrowLeft"":26,""ArrowUp,ArrowRight"":10,""ArrowDown,ArrowLeft"":5,""ArrowDown,ArrowRight"":17}","true","ArrowUp,ArrowLeft","false","","","original","1","26","","",""
"html-keyboard-response","143","811028","0.0-4.0-2.0-1.13","spark_pilot_2","7802","1","15","Male","","","","","","","null","<div style=""font-size:60px;"">+</div>","null","fixation","","","","","","","","","","","27","","",""
"revaluation","144","817033","0.0-4.0-2.0-0.14","spark_pilot_2","7802","1","15","Male","","","false","","","","[662,244.60000002384186]","./assets/img/ocean/memory/22.jpg","[""ArrowUp"",""ArrowLeft""]","value training","ocean","26","{""ArrowUp,ArrowLeft"":26,""ArrowUp,ArrowRight"":10,""ArrowDown,ArrowLeft"":5,""ArrowDown,ArrowRight"":17}","true","ArrowUp,ArrowLeft","false","","","original","1","28","","",""
"html-keyboard-response","145","817536","0.0-4.0-2.0-1.14","spark_pilot_2","7802","1","15","Male","","","","","","","null","<div style=""font-size:60px;"">+</div>","null","fixation","","","","","","","","","","","29","","",""
"revaluation","146","823544","0.0-4.0-2.0-0.15","spark_pilot_2","7802","1","15","Male","","","false","","","","[628.6999999880791,572.1999999880791]","./assets/img/ocean/memory/8.jpg","[""ArrowUp"",""ArrowLeft""]","value training","ocean","26","{""ArrowUp,ArrowLeft"":26,""ArrowUp,ArrowRight"":10,""ArrowDown,ArrowLeft"":5,""ArrowDown,ArrowRight"":17}","true","ArrowUp,ArrowLeft","false","","","original","1","30","","",""
"html-keyboard-response","147","824046","0.0-4.0-2.0-1.15","spark_pilot_2","7802","1","15","Male","","","","","","","null","<div style=""font-size:60px;"">+</div>","null","fixation","","","","","","","","","","","31","","",""
"revaluation","148","828050","0.0-4.0-2.0-0.16","spark_pilot_2","7802","1","15","Male","","","false","","","","[562.6999999880791]","./assets/img/ocean/catch/2.jpg","[""spaceBar""]","value training","ocean","0","{""ArrowUp,ArrowLeft"":26,""ArrowUp,ArrowRight"":10,""ArrowDown,ArrowLeft"":5,""ArrowDown,ArrowRight"":17}","true","spaceBar","true","","","original","1","32","","",""
"html-keyboard-response","149","828552","0.0-4.0-2.0-1.16","spark_pilot_2","7802","1","15","Male","","","","","","","null","<div style=""font-size:60px;"">+</div>","null","fixation","","","","","","","","","","","33","","",""
"revaluation","150","834557","0.0-4.0-2.0-0.17","spark_pilot_2","7802","1","15","Male","","","false","","","","[508.19999998807907,319.69999998807907]","./assets/img/ocean/memory/30.jpg","[""ArrowUp"",""ArrowLeft""]","value training","ocean","26","{""ArrowUp,ArrowLeft"":26,""ArrowUp,ArrowRight"":10,""ArrowDown,ArrowLeft"":5,""ArrowDown,ArrowRight"":17}","true","ArrowUp,ArrowLeft","false","","","original","1","34","","",""
"html-keyboard-response","151","835059","0.0-4.0-2.0-1.17","spark_pilot_2","7802","1","15","Male","","","","","","","null","<div style=""font-size:60px;"">+</div>","null","fixation","","","","","","","","","","","35","","",""
"revaluation","152","841063","0.0-4.0-2.0-0.18","spark_pilot_2","7802","1","15","Male","","","false","","","","[500.2000000476837,239]","./assets/img/ocean/memory/12.jpg","[""ArrowUp"",""ArrowLeft""]","value training","ocean","26","{""ArrowUp,ArrowLeft"":26,""ArrowUp,ArrowRight"":10,""ArrowDown,ArrowLeft"":5,""ArrowDown,ArrowRight"":17}","true","ArrowUp,ArrowLeft","false","","","original","1","36","","",""
"html-keyboard-response","153","841566","0.0-4.0-2.0-1.18","spark_pilot_2","7802","1","15","Male","","","","","","","null","<div style=""font-size:60px;"">+</div>","null","fixation","","","","","","","","","","","37","","",""
"revaluation","154","847571","0.0-4.0-2.0-0.19","spark_pilot_2","7802","1","15","Male","","","false","","","","[747.1999999880791,274.39999997615814]","./assets/img/ocean/memory/35.jpg","[""ArrowUp"",""ArrowLeft""]","value training","ocean","26","{""ArrowUp,ArrowLeft"":26,""ArrowUp,ArrowRight"":10,""ArrowDown,ArrowLeft"":5,""ArrowDown,ArrowRight"":17}","true","ArrowUp,ArrowLeft","false","","","original","1","38","","",""
"html-keyboard-response","155","848073","0.0-4.0-2.0-1.19","spark_pilot_2","7802","1","15","Male","","","","","","","null","<div style=""font-size:60px;"">+</div>","null","fixation","","","","","","","","","","","39","","",""
"revaluation","156","854080","0.0-4.0-2.0-0.20","spark_pilot_2","7802","1","15","Male","","","false","","","","[541.5999999642372,295.19999998807907]","./assets/img/ocean/memory/21.jpg","[""ArrowUp"",""ArrowLeft""]","value training","ocean","26","{""ArrowUp,ArrowLeft"":26,""ArrowUp,ArrowRight"":10,""ArrowDown,ArrowLeft"":5,""ArrowDown,ArrowRight"":17}","true","ArrowUp,ArrowLeft","false","","","original","1","40","","",""
"html-keyboard-response","157","854581","0.0-4.0-2.0-1.20","spark_pilot_2","7802","1","15","Male","","","","","","","null","<div style=""font-size:60px;"">+</div>","null","fixation","","","","","","","","","","","41","","",""
"revaluation","158","860587","0.0-4.0-2.0-0.21","spark_pilot_2","7802","1","15","Male","","","false","","","","[872.7000000476837,461.80000001192093]","./assets/img/ocean/memory/35.jpg","[""ArrowUp"",""ArrowLeft""]","value training","ocean","26","{""ArrowUp,ArrowLeft"":26,""ArrowUp,ArrowRight"":10,""ArrowDown,ArrowLeft"":5,""ArrowDown,ArrowRight"":17}","true","ArrowUp,ArrowLeft","false","","","original","1","42","","",""
"html-keyboard-response","159","861088","0.0-4.0-2.0-1.21","spark_pilot_2","7802","1","15","Male","","","","","","","null","<div style=""font-size:60px;"">+</div>","null","fixation","","","","","","","","","","","43","","",""
"revaluation","160","867093","0.0-4.0-2.0-0.22","spark_pilot_2","7802","1","15","Male","","","false","","","","[1015.4000000357628,400.69999998807907]","./assets/img/ocean/memory/14.jpg","[""ArrowUp"",""ArrowLeft""]","value training","ocean","26","{""ArrowUp,ArrowLeft"":26,""ArrowUp,ArrowRight"":10,""ArrowDown,ArrowLeft"":5,""ArrowDown,ArrowRight"":17}","true","ArrowUp,ArrowLeft","false","","","original","1","44","","",""
"html-keyboard-response","161","867594","0.0-4.0-2.0-1.22","spark_pilot_2","7802","1","15","Male","","","","","","","null","<div style=""font-size:60px;"">+</div>","null","fixation","","","","","","","","","","","45","","",""
"revaluation","162","871599","0.0-4.0-2.0-0.23","spark_pilot_2","7802","1","15","Male","","","false","","","","[649.0999999642372]","./assets/img/ocean/catch/4.jpg","[""spaceBar""]","value training","ocean","0","{""ArrowUp,ArrowLeft"":26,""ArrowUp,ArrowRight"":10,""ArrowDown,ArrowLeft"":5,""ArrowDown,ArrowRight"":17}","true","spaceBar","true","","","original","1","46","","",""
"html-keyboard-response","163","872101","0.0-4.0-2.0-1.23","spark_pilot_2","7802","1","15","Male","","","","","","","null","<div style=""font-size:60px;"">+</div>","null","fixation","","","","","","","","","","","47","","",""
"revaluation","164","878107","0.0-4.0-2.0-0.24","spark_pilot_2","7802","1","15","Male","","","false","","","","[487.4000000357628,239.89999997615814]","./assets/img/ocean/memory/32.jpg","[""ArrowUp"",""ArrowLeft""]","value training","ocean","26","{""ArrowUp,ArrowLeft"":26,""ArrowUp,ArrowRight"":10,""ArrowDown,ArrowLeft"":5,""ArrowDown,ArrowRight"":17}","true","ArrowUp,ArrowLeft","false","","","original","1","48","","",""
"html-keyboard-response","165","878609","0.0-4.0-2.0-1.24","spark_pilot_2","7802","1","15","Male","","","","","","","null","<div style=""font-size:60px;"">+</div>","null","fixation","","","","","","","","","","","49","","",""
"revaluation","166","884615","0.0-4.0-2.0-0.25","spark_pilot_2","7802","1","15","Male","","","false","","","","[507.0999999642372,332.69999998807907]","./assets/img/ocean/memory/19.jpg","[""ArrowUp"",""ArrowLeft""]","value training","ocean","26","{""ArrowUp,ArrowLeft"":26,""ArrowUp,ArrowRight"":10,""ArrowDown,ArrowLeft"":5,""ArrowDown,ArrowRight"":17}","true","ArrowUp,ArrowLeft","false","","","original","1","50","","",""
"html-keyboard-response","167","885116","0.0-4.0-2.0-1.25","spark_pilot_2","7802","1","15","Male","","","","","","","null","<div style=""font-size:60px;"">+</div>","null","fixation","","","","","","","","","","","51","","",""
"revaluation","168","891120","0.0-4.0-2.0-0.26","spark_pilot_2","7802","1","15","Male","","","false","","","","[495,354.5]","./assets/img/ocean/memory/26.jpg","[""ArrowUp"",""ArrowLeft""]","value training","ocean","26","{""ArrowUp,ArrowLeft"":26,""ArrowUp,ArrowRight"":10,""ArrowDown,ArrowLeft"":5,""ArrowDown,ArrowRight"":17}","true","ArrowUp,ArrowLeft","false","","","original","1","52","","",""
"html-keyboard-response","169","891621","0.0-4.0-2.0-1.26","spark_pilot_2","7802","1","15","Male","","","","","","","null","<div style=""font-size:60px;"">+</div>","null","fixation","","","","","","","","","","","53","","",""
"revaluation","170","895627","0.0-4.0-2.0-0.27","spark_pilot_2","7802","1","15","Male","","","false","","","","[856]","./assets/img/ocean/catch/0.jpg","[""spaceBar""]","value training","ocean","0","{""ArrowUp,ArrowLeft"":26,""ArrowUp,ArrowRight"":10,""ArrowDown,ArrowLeft"":5,""ArrowDown,ArrowRight"":17}","true","spaceBar","true","","","original","1","54","","",""
"html-keyboard-response","171","896128","0.0-4.0-2.0-1.27","spark_pilot_2","7802","1","15","Male","","","","","","","null","<div style=""font-size:60px;"">+</div>","null","fixation","","","","","","","","","","","55","","",""
"revaluation","172","902134","0.0-4.0-2.0-0.28","spark_pilot_2","7802","1","15","Male","","","false","","","","[578.8999999761581,481.5999999642372]","./assets/img/ocean/memory/25.jpg","[""ArrowUp"",""ArrowLeft""]","value training","ocean","26","{""ArrowUp,ArrowLeft"":26,""ArrowUp,ArrowRight"":10,""ArrowDown,ArrowLeft"":5,""ArrowDown,ArrowRight"":17}","true","ArrowUp,ArrowLeft","false","","","original","1","56","","",""
"html-keyboard-response","173","902636","0.0-4.0-2.0-1.28","spark_pilot_2","7802","1","15","Male","","","","","","","null","<div style=""font-size:60px;"">+</div>","null","fixation","","","","","","","","","","","57","","",""
"revaluation","174","906640","0.0-4.0-2.0-0.29","spark_pilot_2","7802","1","15","Male","","","false","","","","[979]","./assets/img/ocean/catch/5.jpg","[""spaceBar""]","value training","ocean","0","{""ArrowUp,ArrowLeft"":26,""ArrowUp,ArrowRight"":10,""ArrowDown,ArrowLeft"":5,""ArrowDown,ArrowRight"":17}","true","spaceBar","true","","","original","1","58","","",""
"html-keyboard-response","175","907141","0.0-4.0-2.0-1.29","spark_pilot_2","7802","1","15","Male","","","","","","","null","<div style=""font-size:60px;"">+</div>","null","fixation","","","","","","","","","","","59","","",""
"revaluation","176","913147","0.0-4.0-2.0-0.30","spark_pilot_2","7802","1","15","Male","","","false","","","","[540.6999999880791,284.89999997615814]","./assets/img/ocean/memory/38.jpg","[""ArrowUp"",""ArrowLeft""]","value training","ocean","26","{""ArrowUp,ArrowLeft"":26,""ArrowUp,ArrowRight"":10,""ArrowDown,ArrowLeft"":5,""ArrowDown,ArrowRight"":17}","true","ArrowUp,ArrowLeft","false","","","original","1","60","","",""
"html-keyboard-response","177","913648","0.0-4.0-2.0-1.30","spark_pilot_2","7802","1","15","Male","","","","","","","null","<div style=""font-size:60px;"">+</div>","null","fixation","","","","","","","","","","","61","","",""
"revaluation","178","917652","0.0-4.0-2.0-0.31","spark_pilot_2","7802","1","15","Male","","","false","","","","[864.5]","./assets/img/ocean/catch/3.jpg","[""spaceBar""]","value training","ocean","0","{""ArrowUp,ArrowLeft"":26,""ArrowUp,ArrowRight"":10,""ArrowDown,ArrowLeft"":5,""ArrowDown,ArrowRight"":17}","true","spaceBar","true","","","original","1","62","","",""
"html-keyboard-response","179","918155","0.0-4.0-2.0-1.31","spark_pilot_2","7802","1","15","Male","","","","","","","null","<div style=""font-size:60px;"">+</div>","null","fixation","","","","","","","","","","","63","","",""
"revaluation","180","922161","0.0-4.0-2.0-0.32","spark_pilot_2","7802","1","15","Male","","","false","","","","[1001.5]","./assets/img/ocean/catch/7.jpg","[""spaceBar""]","value training","ocean","0","{""ArrowUp,ArrowLeft"":26,""ArrowUp,ArrowRight"":10,""ArrowDown,ArrowLeft"":5,""ArrowDown,ArrowRight"":17}","true","spaceBar","true","","","original","1","64","","",""
"html-keyboard-response","181","922662","0.0-4.0-2.0-1.32","spark_pilot_2","7802","1","15","Male","","","","","","","null","<div style=""font-size:60px;"">+</div>","null","fixation","","","","","","","","","","","65","","",""
"revaluation","182","928669","0.0-4.0-2.0-0.33","spark_pilot_2","7802","1","15","Male","","","false","","","","[664.3000000119209,371.7000000476837]","./assets/img/ocean/memory/1.jpg","[""ArrowUp"",""ArrowLeft""]","value training","ocean","26","{""ArrowUp,ArrowLeft"":26,""ArrowUp,ArrowRight"":10,""ArrowDown,ArrowLeft"":5,""ArrowDown,ArrowRight"":17}","true","ArrowUp,ArrowLeft","false","","","original","1","66","","",""
"html-keyboard-response","183","929171","0.0-4.0-2.0-1.33","spark_pilot_2","7802","1","15","Male","","","","","","","null","<div style=""font-size:60px;"">+</div>","null","fixation","","","","","","","","","","","67","","",""
"revaluation","184","935174","0.0-4.0-2.0-0.34","spark_pilot_2","7802","1","15","Male","","","false","","","","[502.5,567.5]","./assets/img/ocean/memory/23.jpg","[""ArrowUp"",""ArrowLeft""]","value training","ocean","26","{""ArrowUp,ArrowLeft"":26,""ArrowUp,ArrowRight"":10,""ArrowDown,ArrowLeft"":5,""ArrowDown,ArrowRight"":17}","true","ArrowUp,ArrowLeft","false","","","original","1","68","","",""
"html-keyboard-response","185","935676","0.0-4.0-2.0-1.34","spark_pilot_2","7802","1","15","Male","","","","","","","null","<div style=""font-size:60px;"">+</div>","null","fixation","","","","","","","","","","","69","","",""
"revaluation","186","941681","0.0-4.0-2.0-0.35","spark_pilot_2","7802","1","15","Male","","","false","","","","[636.1000000238419,495.5999999642372]","./assets/img/ocean/memory/25.jpg","[""ArrowUp"",""ArrowLeft""]","value training","ocean","26","{""ArrowUp,ArrowLeft"":26,""ArrowUp,ArrowRight"":10,""ArrowDown,ArrowLeft"":5,""ArrowDown,ArrowRight"":17}","true","ArrowUp,ArrowLeft","false","","","original","1","70","","",""
"html-keyboard-response","187","942182","0.0-4.0-2.0-1.35","spark_pilot_2","7802","1","15","Male","","","","","","","null","<div style=""font-size:60px;"">+</div>","null","fixation","","","","","","","","","","","71","","",""
"revaluation","188","948189","0.0-4.0-2.0-0.36","spark_pilot_2","7802","1","15","Male","","","false","","","","[486.39999997615814,530]","./assets/img/ocean/memory/16.jpg","[""ArrowUp"",""ArrowLeft""]","value training","ocean","26","{""ArrowUp,ArrowLeft"":26,""ArrowUp,ArrowRight"":10,""ArrowDown,ArrowLeft"":5,""ArrowDown,ArrowRight"":17}","true","ArrowUp,ArrowLeft","false","","","original","1","72","","",""
"html-keyboard-response","189","948691","0.0-4.0-2.0-1.36","spark_pilot_2","7802","1","15","Male","","","","","","","null","<div style=""font-size:60px;"">+</div>","null","fixation","","","","","","","","","","","73","","",""
"revaluation","190","954697","0.0-4.0-2.0-0.37","spark_pilot_2","7802","1","15","Male","","","false","","","","[841.3999999761581,519.1999999880791]","./assets/img/ocean/memory/32.jpg","[""ArrowUp"",""ArrowLeft""]","value training","ocean","26","{""ArrowUp,ArrowLeft"":26,""ArrowUp,ArrowRight"":10,""ArrowDown,ArrowLeft"":5,""ArrowDown,ArrowRight"":17}","true","ArrowUp,ArrowLeft","false","","","original","1","74","","",""
"html-keyboard-response","191","955199","0.0-4.0-2.0-1.37","spark_pilot_2","7802","1","15","Male","","","","","","","null","<div style=""font-size:60px;"">+</div>","null","fixation","","","","","","","","","","","75","","",""
"revaluation","192","961205","0.0-4.0-2.0-0.38","spark_pilot_2","7802","1","15","Male","","","false","","","","[726.3999999761581,674.5]","./assets/img/ocean/memory/16.jpg","[""ArrowUp"",""ArrowLeft""]","value training","ocean","26","{""ArrowUp,ArrowLeft"":26,""ArrowUp,ArrowRight"":10,""ArrowDown,ArrowLeft"":5,""ArrowDown,ArrowRight"":17}","true","ArrowUp,ArrowLeft","false","","","original","1","76","","",""
"html-keyboard-response","193","961707","0.0-4.0-2.0-1.38","spark_pilot_2","7802","1","15","Male","","","","","","","null","<div style=""font-size:60px;"">+</div>","null","fixation","","","","","","","","","","","77","","",""
"revaluation","194","967712","0.0-4.0-2.0-0.39","spark_pilot_2","7802","1","15","Male","","","false","","","","[766.1999999880791,459.80000001192093]","./assets/img/ocean/memory/30.jpg","[""ArrowUp"",""ArrowLeft""]","value training","ocean","26","{""ArrowUp,ArrowLeft"":26,""ArrowUp,ArrowRight"":10,""ArrowDown,ArrowLeft"":5,""ArrowDown,ArrowRight"":17}","true","ArrowUp,ArrowLeft","false","","","original","1","78","","",""
"html-keyboard-response","195","968212","0.0-4.0-2.0-1.39","spark_pilot_2","7802","1","15","Male","","","","","","","null","<div style=""font-size:60px;"">+</div>","null","fixation","","","","","","","","","","","79","","",""
"revaluation","196","974219","0.0-4.0-2.0-0.40","spark_pilot_2","7802","1","15","Male","","","false","","","","[519.4000000357628,317.0999999642372]","./assets/img/ocean/memory/7.jpg","[""ArrowUp"",""ArrowLeft""]","value training","ocean","26","{""ArrowUp,ArrowLeft"":26,""ArrowUp,ArrowRight"":10,""ArrowDown,ArrowLeft"":5,""ArrowDown,ArrowRight"":17}","true","ArrowUp,ArrowLeft","false","","","original","1","80","","",""
"html-keyboard-response","197","974720","0.0-4.0-2.0-1.40","spark_pilot_2","7802","1","15","Male","","","","","","","null","<div style=""font-size:60px;"">+</div>","null","fixation","","","","","","","","","","","81","","",""
"revaluation","198","980740","0.0-4.0-2.0-0.41","spark_pilot_2","7802","1","15","Male","","","false","","","","[832.3000000119209,408.10000002384186]","./assets/img/ocean/memory/37.jpg","[""ArrowUp"",""ArrowLeft""]","value training","ocean","26","{""ArrowUp,ArrowLeft"":26,""ArrowUp,ArrowRight"":10,""ArrowDown,ArrowLeft"":5,""ArrowDown,ArrowRight"":17}","true","ArrowUp,ArrowLeft","false","","","original","1","82","","",""
"html-keyboard-response","199","981242","0.0-4.0-2.0-1.41","spark_pilot_2","7802","1","15","Male","","","","","","","null","<div style=""font-size:60px;"">+</div>","null","fixation","","","","","","","","","","","83","","",""
"revaluation","200","987248","0.0-4.0-2.0-0.42","spark_pilot_2","7802","1","15","Male","","","false","","","","[879.5,322.5999999642372]","./assets/img/ocean/memory/11.jpg","[""ArrowUp"",""ArrowLeft""]","value training","ocean","26","{""ArrowUp,ArrowLeft"":26,""ArrowUp,ArrowRight"":10,""ArrowDown,ArrowLeft"":5,""ArrowDown,ArrowRight"":17}","true","ArrowUp,ArrowLeft","false","","","original","1","84","","",""
"html-keyboard-response","201","987750","0.0-4.0-2.0-1.42","spark_pilot_2","7802","1","15","Male","","","","","","","null","<div style=""font-size:60px;"">+</div>","null","fixation","","","","","","","","","","","85","","",""
"revaluation","202","993755","0.0-4.0-2.0-0.43","spark_pilot_2","7802","1","15","Male","","","false","","","","[593.8999999761581,393.2999999523163]","./assets/img/ocean/memory/12.jpg","[""ArrowUp"",""ArrowLeft""]","value training","ocean","26","{""ArrowUp,ArrowLeft"":26,""ArrowUp,ArrowRight"":10,""ArrowDown,ArrowLeft"":5,""ArrowDown,ArrowRight"":17}","true","ArrowUp,ArrowLeft","false","","","original","1","86","","",""
"html-keyboard-response","203","994256","0.0-4.0-2.0-1.43","spark_pilot_2","7802","1","15","Male","","","","","","","null","<div style=""font-size:60px;"">+</div>","null","fixation","","","","","","","","","","","87","","",""
"revaluation","204","1000261","0.0-4.0-2.0-0.44","spark_pilot_2","7802","1","15","Male","","","false","","","","[887.7000000476837,624.5]","./assets/img/ocean/memory/21.jpg","[""ArrowUp"",""ArrowLeft""]","value training","ocean","26","{""ArrowUp,ArrowLeft"":26,""ArrowUp,ArrowRight"":10,""ArrowDown,ArrowLeft"":5,""ArrowDown,ArrowRight"":17}","true","ArrowUp,ArrowLeft","false","","","original","1","88","","",""
"html-keyboard-response","205","1000763","0.0-4.0-2.0-1.44","spark_pilot_2","7802","1","15","Male","","","","","","","null","<div style=""font-size:60px;"">+</div>","null","fixation","","","","","","","","","","","89","","",""
"revaluation","206","1004767","0.0-4.0-2.0-0.45","spark_pilot_2","7802","1","15","Male","","","false","","","","[911.0999999642372]","./assets/img/ocean/catch/6.jpg","[""spaceBar""]","value training","ocean","0","{""ArrowUp,ArrowLeft"":26,""ArrowUp,ArrowRight"":10,""ArrowDown,ArrowLeft"":5,""ArrowDown,ArrowRight"":17}","true","spaceBar","true","","","original","1","90","","",""
"html-keyboard-response","207","1005268","0.0-4.0-2.0-1.45","spark_pilot_2","7802","1","15","Male","","","","","","","null","<div style=""font-size:60px;"">+</div>","null","fixation","","","","","","","","","","","91","","",""
"revaluation","208","1011274","0.0-4.0-2.0-0.46","spark_pilot_2","7802","1","15","Male","","","false","","","","[589.2000000476837,296.5999999642372]","./assets/img/ocean/memory/23.jpg","[""ArrowUp"",""ArrowLeft""]","value training","ocean","26","{""ArrowUp,ArrowLeft"":26,""ArrowUp,ArrowRight"":10,""ArrowDown,ArrowLeft"":5,""ArrowDown,ArrowRight"":17}","true","ArrowUp,ArrowLeft","false","","","original","1","92","","",""
"html-keyboard-response","209","1011775","0.0-4.0-2.0-1.46","spark_pilot_2","7802","1","15","Male","","","","","","","null","<div style=""font-size:60px;"">+</div>","null","fixation","","","","","","","","","","","93","","",""
"revaluation","210","1017781","0.0-4.0-2.0-0.47","spark_pilot_2","7802","1","15","Male","","","false","","","","[534.8000000119209,517.3000000119209]","./assets/img/ocean/memory/20.jpg","[""ArrowUp"",""ArrowLeft""]","value training","ocean","26","{""ArrowUp,ArrowLeft"":26,""ArrowUp,ArrowRight"":10,""ArrowDown,ArrowLeft"":5,""ArrowDown,ArrowRight"":17}","true","ArrowUp,ArrowLeft","false","","","original","1","94","","",""
"html-keyboard-response","211","1018282","0.0-4.0-2.0-1.47","spark_pilot_2","7802","1","15","Male","","","","","","","null","<div style=""font-size:60px;"">+</div>","null","fixation","","","","","","","","","","","95","","",""
"revaluation","212","1024286","0.0-4.0-2.0-0.48","spark_pilot_2","7802","1","15","Male","","","false","","","","[552.8000000119209,426]","./assets/img/ocean/memory/11.jpg","[""ArrowUp"",""ArrowLeft""]","value training","ocean","26","{""ArrowUp,ArrowLeft"":26,""ArrowUp,ArrowRight"":10,""ArrowDown,ArrowLeft"":5,""ArrowDown,ArrowRight"":17}","true","ArrowUp,ArrowLeft","false","","","original","1","96","","",""
"html-keyboard-response","213","1024788","0.0-4.0-2.0-1.48","spark_pilot_2","7802","1","15","Male","","","","","","","null","<div style=""font-size:60px;"">+</div>","null","fixation","","","","","","","","","","","97","","",""
"revaluation","214","1030794","0.0-4.0-2.0-0.49","spark_pilot_2","7802","1","15","Male","","","false","","","","[631.3999999761581,247.60000002384186]","./assets/img/ocean/memory/38.jpg","[""ArrowUp"",""ArrowLeft""]","value training","ocean","26","{""ArrowUp,ArrowLeft"":26,""ArrowUp,ArrowRight"":10,""ArrowDown,ArrowLeft"":5,""ArrowDown,ArrowRight"":17}","true","ArrowUp,ArrowLeft","false","","","original","1","98","","",""
"html-keyboard-response","215","1031296","0.0-4.0-2.0-1.49","spark_pilot_2","7802","1","15","Male","","","","","","","null","<div style=""font-size:60px;"">+</div>","null","fixation","","","","","","","","","","","99","","",""
"learning-instructions","216","1048277","0.0-4.0-3.0-0.0","spark_pilot_2","7802","1","15","Male","","","","","","","3644.800000011921","<p> Now, you will travel with a friend who will choose whether you go up or down first. </p>
            <p> On these turns, you will just see the animal that they found. You will still get to choose which chest to search for treasure.</p>","","instructions","","","","","","","","","","","","","",""
"revaluation","217","1052313","0.0-4.0-4.0-0.0","spark_pilot_2","7802","1","15","Male","","","false","","","","[1341.699999988079]","./assets/img/ocean/animals/seahorse.jpg","[""ArrowLeft""]","revaluation","ocean","5","{""ArrowUp,ArrowLeft"":26,""ArrowUp,ArrowRight"":10,""ArrowDown,ArrowLeft"":5,""ArrowDown,ArrowRight"":17}","false","ArrowDown,ArrowLeft","","","","original","1","0","","",""
"html-keyboard-response","218","1052831","0.0-4.0-4.0-1.0","spark_pilot_2","7802","1","15","Male","","","","","","","null","<div style=""font-size:60px;"">+</div>","null","fixation","","","","","","","","","","","1","","",""
"revaluation","219","1056844","0.0-4.0-4.0-0.1","spark_pilot_2","7802","1","15","Male","","","false","","","","[1065.5]","./assets/img/ocean/animals/octopus.jpg","[""ArrowLeft""]","revaluation","ocean","26","{""ArrowUp,ArrowLeft"":26,""ArrowUp,ArrowRight"":10,""ArrowDown,ArrowLeft"":5,""ArrowDown,ArrowRight"":17}","true","ArrowUp,ArrowLeft","","","","original","1","2","","",""
"html-keyboard-response","220","1057361","0.0-4.0-4.0-1.1","spark_pilot_2","7802","1","15","Male","","","","","","","null","<div style=""font-size:60px;"">+</div>","null","fixation","","","","","","","","","","","3","","",""
"revaluation","221","1061373","0.0-4.0-4.0-0.2","spark_pilot_2","7802","1","15","Male","","","false","","","","[750.7000000476837]","./assets/img/ocean/animals/octopus.jpg","[""ArrowLeft""]","revaluation","ocean","26","{""ArrowUp,ArrowLeft"":26,""ArrowUp,ArrowRight"":10,""ArrowDown,ArrowLeft"":5,""ArrowDown,ArrowRight"":17}","true","ArrowUp,ArrowLeft","","","","original","1","4","","",""
"html-keyboard-response","222","1061891","0.0-4.0-4.0-1.2","spark_pilot_2","7802","1","15","Male","","","","","","","null","<div style=""font-size:60px;"">+</div>","null","fixation","","","","","","","","","","","5","","",""
"revaluation","223","1065913","0.0-4.0-4.0-0.3","spark_pilot_2","7802","1","15","Male","","","false","","","","[523.1000000238419]","./assets/img/ocean/animals/seahorse.jpg","[""ArrowRight""]","revaluation","ocean","17","{""ArrowUp,ArrowLeft"":26,""ArrowUp,ArrowRight"":10,""ArrowDown,ArrowLeft"":5,""ArrowDown,ArrowRight"":17}","true","ArrowDown,ArrowRight","","","","original","1","6","","",""
"html-keyboard-response","224","1066435","0.0-4.0-4.0-1.3","spark_pilot_2","7802","1","15","Male","","","","","","","null","<div style=""font-size:60px;"">+</div>","null","fixation","","","","","","","","","","","7","","",""
"revaluation","225","1070447","0.0-4.0-4.0-0.4","spark_pilot_2","7802","1","15","Male","","","false","","","","[754.1999999880791]","./assets/img/ocean/animals/octopus.jpg","[""ArrowLeft""]","revaluation","ocean","26","{""ArrowUp,ArrowLeft"":26,""ArrowUp,ArrowRight"":10,""ArrowDown,ArrowLeft"":5,""ArrowDown,ArrowRight"":17}","true","ArrowUp,ArrowLeft","","","","original","1","8","","",""
"html-keyboard-response","226","1070968","0.0-4.0-4.0-1.4","spark_pilot_2","7802","1","15","Male","","","","","","","null","<div style=""font-size:60px;"">+</div>","null","fixation","","","","","","","","","","","9","","",""
"revaluation","227","1074975","0.0-4.0-4.0-0.5","spark_pilot_2","7802","1","15","Male","","","false","","","","[453.60000002384186]","./assets/img/ocean/animals/seahorse.jpg","[""ArrowRight""]","revaluation","ocean","17","{""ArrowUp,ArrowLeft"":26,""ArrowUp,ArrowRight"":10,""ArrowDown,ArrowLeft"":5,""ArrowDown,ArrowRight"":17}","true","ArrowDown,ArrowRight","","","","original","1","10","","",""
"html-keyboard-response","228","1075477","0.0-4.0-4.0-1.5","spark_pilot_2","7802","1","15","Male","","","","","","","null","<div style=""font-size:60px;"">+</div>","null","fixation","","","","","","","","","","","11","","",""
"revaluation","229","1079482","0.0-4.0-4.0-0.6","spark_pilot_2","7802","1","15","Male","","","false","","","","[561.6999999880791]","./assets/img/ocean/animals/seahorse.jpg","[""ArrowRight""]","revaluation","ocean","17","{""ArrowUp,ArrowLeft"":26,""ArrowUp,ArrowRight"":10,""ArrowDown,ArrowLeft"":5,""ArrowDown,ArrowRight"":17}","true","ArrowDown,ArrowRight","","","","original","1","12","","",""
"html-keyboard-response","230","1079984","0.0-4.0-4.0-1.6","spark_pilot_2","7802","1","15","Male","","","","","","","null","<div style=""font-size:60px;"">+</div>","null","fixation","","","","","","","","","","","13","","",""
"revaluation","231","1083990","0.0-4.0-4.0-0.7","spark_pilot_2","7802","1","15","Male","","","false","","","","[416.19999998807907]","./assets/img/ocean/animals/seahorse.jpg","[""ArrowRight""]","revaluation","ocean","17","{""ArrowUp,ArrowLeft"":26,""ArrowUp,ArrowRight"":10,""ArrowDown,ArrowLeft"":5,""ArrowDown,ArrowRight"":17}","true","ArrowDown,ArrowRight","","","","original","1","14","","",""
"html-keyboard-response","232","1084491","0.0-4.0-4.0-1.7","spark_pilot_2","7802","1","15","Male","","","","","","","null","<div style=""font-size:60px;"">+</div>","null","fixation","","","","","","","","","","","15","","",""
"revaluation","233","1088495","0.0-4.0-4.0-0.8","spark_pilot_2","7802","1","15","Male","","","false","","","","[829.3000000119209]","./assets/img/ocean/animals/octopus.jpg","[""ArrowLeft""]","revaluation","ocean","26","{""ArrowUp,ArrowLeft"":26,""ArrowUp,ArrowRight"":10,""ArrowDown,ArrowLeft"":5,""ArrowDown,ArrowRight"":17}","true","ArrowUp,ArrowLeft","","","","original","1","16","","",""
"html-keyboard-response","234","1088997","0.0-4.0-4.0-1.8","spark_pilot_2","7802","1","15","Male","","","","","","","null","<div style=""font-size:60px;"">+</div>","null","fixation","","","","","","","","","","","17","","",""
"revaluation","235","1093002","0.0-4.0-4.0-0.9","spark_pilot_2","7802","1","15","Male","","","false","","","","[394.89999997615814]","./assets/img/ocean/animals/octopus.jpg","[""ArrowLeft""]","revaluation","ocean","26","{""ArrowUp,ArrowLeft"":26,""ArrowUp,ArrowRight"":10,""ArrowDown,ArrowLeft"":5,""ArrowDown,ArrowRight"":17}","true","ArrowUp,ArrowLeft","","","","original","1","18","","",""
"html-keyboard-response","236","1093504","0.0-4.0-4.0-1.9","spark_pilot_2","7802","1","15","Male","","","","","","","null","<div style=""font-size:60px;"">+</div>","null","fixation","","","","","","","","","","","19","","",""
"revaluation","237","1097509","0.0-4.0-4.0-0.10","spark_pilot_2","7802","1","15","Male","","","false","","","","[639.2999999523163]","./assets/img/ocean/animals/seahorse.jpg","[""ArrowRight""]","revaluation","ocean","17","{""ArrowUp,ArrowLeft"":26,""ArrowUp,ArrowRight"":10,""ArrowDown,ArrowLeft"":5,""ArrowDown,ArrowRight"":17}","true","ArrowDown,ArrowRight","","","","original","1","20","","",""
"html-keyboard-response","238","1098011","0.0-4.0-4.0-1.10","spark_pilot_2","7802","1","15","Male","","","","","","","null","<div style=""font-size:60px;"">+</div>","null","fixation","","","","","","","","","","","21","","",""
"revaluation","239","1102016","0.0-4.0-4.0-0.11","spark_pilot_2","7802","1","15","Male","","","false","","","","[550.8999999761581]","./assets/img/ocean/animals/seahorse.jpg","[""ArrowRight""]","revaluation","ocean","17","{""ArrowUp,ArrowLeft"":26,""ArrowUp,ArrowRight"":10,""ArrowDown,ArrowLeft"":5,""ArrowDown,ArrowRight"":17}","true","ArrowDown,ArrowRight","","","","original","1","22","","",""
"html-keyboard-response","240","1102518","0.0-4.0-4.0-1.11","spark_pilot_2","7802","1","15","Male","","","","","","","null","<div style=""font-size:60px;"">+</div>","null","fixation","","","","","","","","","","","23","","",""
"revaluation","241","1106523","0.0-4.0-4.0-0.12","spark_pilot_2","7802","1","15","Male","","","false","","","","[705.3000000119209]","./assets/img/ocean/animals/octopus.jpg","[""ArrowLeft""]","revaluation","ocean","26","{""ArrowUp,ArrowLeft"":26,""ArrowUp,ArrowRight"":10,""ArrowDown,ArrowLeft"":5,""ArrowDown,ArrowRight"":17}","true","ArrowUp,ArrowLeft","","","","original","1","24","","",""
"html-keyboard-response","242","1107025","0.0-4.0-4.0-1.12","spark_pilot_2","7802","1","15","Male","","","","","","","null","<div style=""font-size:60px;"">+</div>","null","fixation","","","","","","","","","","","25","","",""
"revaluation","243","1111028","0.0-4.0-4.0-0.13","spark_pilot_2","7802","1","15","Male","","","false","","","","[487.69999998807907]","./assets/img/ocean/animals/octopus.jpg","[""ArrowLeft""]","revaluation","ocean","26","{""ArrowUp,ArrowLeft"":26,""ArrowUp,ArrowRight"":10,""ArrowDown,ArrowLeft"":5,""ArrowDown,ArrowRight"":17}","true","ArrowUp,ArrowLeft","","","","original","1","26","","",""
"html-keyboard-response","244","1111529","0.0-4.0-4.0-1.13","spark_pilot_2","7802","1","15","Male","","","","","","","null","<div style=""font-size:60px;"">+</div>","null","fixation","","","","","","","","","","","27","","",""
"revaluation","245","1115534","0.0-4.0-4.0-0.14","spark_pilot_2","7802","1","15","Male","","","false","","","","[650.5999999642372]","./assets/img/ocean/animals/seahorse.jpg","[""ArrowRight""]","revaluation","ocean","17","{""ArrowUp,ArrowLeft"":26,""ArrowUp,ArrowRight"":10,""ArrowDown,ArrowLeft"":5,""ArrowDown,ArrowRight"":17}","true","ArrowDown,ArrowRight","","","","original","1","28","","",""
"html-keyboard-response","246","1116036","0.0-4.0-4.0-1.14","spark_pilot_2","7802","1","15","Male","","","","","","","null","<div style=""font-size:60px;"">+</div>","null","fixation","","","","","","","","","","","29","","",""
"revaluation","247","1120040","0.0-4.0-4.0-0.15","spark_pilot_2","7802","1","15","Male","","","false","","","","[623]","./assets/img/ocean/animals/octopus.jpg","[""ArrowLeft""]","revaluation","ocean","26","{""ArrowUp,ArrowLeft"":26,""ArrowUp,ArrowRight"":10,""ArrowDown,ArrowLeft"":5,""ArrowDown,ArrowRight"":17}","true","ArrowUp,ArrowLeft","","","","original","1","30","","",""
"html-keyboard-response","248","1120542","0.0-4.0-4.0-1.15","spark_pilot_2","7802","1","15","Male","","","","","","","null","<div style=""font-size:60px;"">+</div>","null","fixation","","","","","","","","","","","31","","",""
"revaluation","249","1124545","0.0-4.0-4.0-0.16","spark_pilot_2","7802","1","15","Male","","","false","","","","[516.7000000476837]","./assets/img/ocean/animals/octopus.jpg","[""ArrowRight""]","revaluation","ocean","10","{""ArrowUp,ArrowLeft"":26,""ArrowUp,ArrowRight"":10,""ArrowDown,ArrowLeft"":5,""ArrowDown,ArrowRight"":17}","false","ArrowUp,ArrowRight","","","","original","1","32","","",""
"html-keyboard-response","250","1125046","0.0-4.0-4.0-1.16","spark_pilot_2","7802","1","15","Male","","","","","","","null","<div style=""font-size:60px;"">+</div>","null","fixation","","","","","","","","","","","33","","",""
"revaluation","251","1129051","0.0-4.0-4.0-0.17","spark_pilot_2","7802","1","15","Male","","","false","","","","[898.6999999880791]","./assets/img/ocean/animals/seahorse.jpg","[""ArrowRight""]","revaluation","ocean","17","{""ArrowUp,ArrowLeft"":26,""ArrowUp,ArrowRight"":10,""ArrowDown,ArrowLeft"":5,""ArrowDown,ArrowRight"":17}","true","ArrowDown,ArrowRight","","","","original","1","34","","",""
"html-keyboard-response","252","1129553","0.0-4.0-4.0-1.17","spark_pilot_2","7802","1","15","Male","","","","","","","null","<div style=""font-size:60px;"">+</div>","null","fixation","","","","","","","","","","","35","","",""
"learning-instructions","253","1143614","0.0-4.0-5.0-0.0","spark_pilot_2","7802","1","15","Male","","","","","","","1428.5","<p> Time to play the dot game! </p>
            <p> For one minute, click the red dots on the following screen as they appear. </p>
            <p><b> Don't look away, as you will earn bonus for clicking dots</b>. </p>","","instructions","","","","","","","","","","","","","",""
"revaluation","254","1203616","0.0-4.0-6.0-0.0","spark_pilot_2","7802","1","15","Male","","","","","","","[99,91,136,140,95,68,59]","","","rest","","70","","","","","0","60000","","","","","",""
"learning-instructions","255","1210838","0.0-4.0-7.0-0.0","spark_pilot_2","7802","1","15","Male","","","","","","","660.0999999642372","<p> You have almost finished this part of the game! </p>
            <p> We are going to ask you to make a few more choices. </p>","","instructions","","","","","","","","","","","","","",""
"learning-instructions","256","1231438","0.0-4.0-7.0-0.1","spark_pilot_2","7802","1","15","Male","","","","","","","6625.099999964237","<p> First, you need to decide whether to go up or down. When you see each picture, use the arrow keys to make your choice. </p>
            <p><b>You will not see which animal you found, but try to get to the one that will give you the most treasure.</b></p>","","instructions","","","","","","","","","","","","","",""
"revaluation","257","1232618","0.0-4.0-8.0-0.0","spark_pilot_2","7802","1","15","Male","","","false","","","","[1178.1000000238419]","./assets/img/ocean/test/0.jpg","[""ArrowUp""]","first stage test","ocean","0","{""ArrowUp,ArrowLeft"":26,""ArrowUp,ArrowRight"":10,""ArrowDown,ArrowLeft"":5,""ArrowDown,ArrowRight"":17}","true","ArrowUp","false","","","original","1","","","",""
"html-keyboard-response","258","1233124","0.0-4.0-8.0-1.0","spark_pilot_2","7802","1","15","Male","","","","","","","null","<div style=""font-size:60px;"">+</div>","null","fixation","","","","","","","","","","","","","",""
"revaluation","259","1234442","0.0-4.0-8.0-0.1","spark_pilot_2","7802","1","15","Male","","","false","","","","[1314]","./assets/img/ocean/test/3.jpg","[""ArrowUp""]","first stage test","ocean","0","{""ArrowUp,ArrowLeft"":26,""ArrowUp,ArrowRight"":10,""ArrowDown,ArrowLeft"":5,""ArrowDown,ArrowRight"":17}","true","ArrowUp","false","","","original","1","","","",""
"html-keyboard-response","260","1234944","0.0-4.0-8.0-1.1","spark_pilot_2","7802","1","15","Male","","","","","","","null","<div style=""font-size:60px;"">+</div>","null","fixation","","","","","","","","","","","","","",""
"revaluation","261","1235890","0.0-4.0-8.0-0.2","spark_pilot_2","7802","1","15","Male","","","false","","","","[943]","./assets/img/ocean/test/1.jpg","[""ArrowUp""]","first stage test","ocean","0","{""ArrowUp,ArrowLeft"":26,""ArrowUp,ArrowRight"":10,""ArrowDown,ArrowLeft"":5,""ArrowDown,ArrowRight"":17}","true","ArrowUp","false","","","original","1","","","",""
"html-keyboard-response","262","1236396","0.0-4.0-8.0-1.2","spark_pilot_2","7802","1","15","Male","","","","","","","null","<div style=""font-size:60px;"">+</div>","null","fixation","","","","","","","","","","","","","",""
"revaluation","263","1237298","0.0-4.0-8.0-0.3","spark_pilot_2","7802","1","15","Male","","","false","","","","[898.6999999880791]","./assets/img/ocean/test/2.jpg","[""ArrowUp""]","first stage test","ocean","0","{""ArrowUp,ArrowLeft"":26,""ArrowUp,ArrowRight"":10,""ArrowDown,ArrowLeft"":5,""ArrowDown,ArrowRight"":17}","true","ArrowUp","false","","","original","1","","","",""
"html-keyboard-response","264","1237804","0.0-4.0-8.0-1.3","spark_pilot_2","7802","1","15","Male","","","","","","","null","<div style=""font-size:60px;"">+</div>","null","fixation","","","","","","","","","","","","","",""
"learning-instructions","265","1251679","0.0-4.0-9.0-0.0","spark_pilot_2","7802","1","15","Male","","","","","","","2524.400000035763","<p> Now you will see the animals again and can search their chests for treasure. </p>
            <p> This time, you will not see how much treasure you earned, but you will earn more bonus money for making better choices. </p>","","instructions","","","","","","","","","","","","","",""
"revaluation","266","1253360","0.0-4.0-10.0-0.0","spark_pilot_2","7802","1","15","Male","","","false","","","","[1679.4000000357628]","./assets/img/ocean/animals/octopus.jpg","[""ArrowRight""]","second stage test","ocean","0","{""ArrowUp,ArrowLeft"":26,""ArrowUp,ArrowRight"":10,""ArrowDown,ArrowLeft"":5,""ArrowDown,ArrowRight"":17}","false","ArrowUp,ArrowRight","","","","original","1","","","",""
"html-keyboard-response","267","1253868","0.0-4.0-10.0-1.0","spark_pilot_2","7802","1","15","Male","","","","","","","null","<div style=""font-size:60px;"">+</div>","null","fixation","","","","","","","","","","","","","",""
"revaluation","268","1255025","0.0-4.0-10.0-0.1","spark_pilot_2","7802","1","15","Male","","","false","","","","[1153.8999999761581]","./assets/img/ocean/animals/octopus.jpg","[""ArrowRight""]","second stage test","ocean","0","{""ArrowUp,ArrowLeft"":26,""ArrowUp,ArrowRight"":10,""ArrowDown,ArrowLeft"":5,""ArrowDown,ArrowRight"":17}","false","ArrowUp,ArrowRight","","","","original","1","","","",""
"html-keyboard-response","269","1255532","0.0-4.0-10.0-1.1","spark_pilot_2","7802","1","15","Male","","","","","","","null","<div style=""font-size:60px;"">+</div>","null","fixation","","","","","","","","","","","","","",""
"revaluation","270","1256760","0.0-4.0-10.0-0.2","spark_pilot_2","7802","1","15","Male","","","false","","","","[1224.5]","./assets/img/ocean/animals/octopus.jpg","[""ArrowLeft""]","second stage test","ocean","0","{""ArrowUp,ArrowLeft"":26,""ArrowUp,ArrowRight"":10,""ArrowDown,ArrowLeft"":5,""ArrowDown,ArrowRight"":17}","true","ArrowUp,ArrowLeft","","","","original","1","","","",""
"html-keyboard-response","271","1257277","0.0-4.0-10.0-1.2","spark_pilot_2","7802","1","15","Male","","","","","","","null","<div style=""font-size:60px;"">+</div>","null","fixation","","","","","","","","","","","","","",""
"revaluation","272","1258734","0.0-4.0-10.0-0.3","spark_pilot_2","7802","1","15","Male","","","false","","","","[1454.8999999761581]","./assets/img/ocean/animals/octopus.jpg","[""ArrowLeft""]","second stage test","ocean","0","{""ArrowUp,ArrowLeft"":26,""ArrowUp,ArrowRight"":10,""ArrowDown,ArrowLeft"":5,""ArrowDown,ArrowRight"":17}","true","ArrowUp,ArrowLeft","","","","original","1","","","",""
"html-keyboard-response","273","1259244","0.0-4.0-10.0-1.3","spark_pilot_2","7802","1","15","Male","","","","","","","null","<div style=""font-size:60px;"">+</div>","null","fixation","","","","","","","","","","","","","",""
"revaluation","274","1260605","0.0-4.0-10.0-0.4","spark_pilot_2","7802","1","15","Male","","","false","","","","[1358.0999999642372]","./assets/img/ocean/animals/seahorse.jpg","[""ArrowRight""]","second stage test","ocean","0","{""ArrowUp,ArrowLeft"":26,""ArrowUp,ArrowRight"":10,""ArrowDown,ArrowLeft"":5,""ArrowDown,ArrowRight"":17}","true","ArrowDown,ArrowRight","","","","original","1","","","",""
"html-keyboard-response","275","1261121","0.0-4.0-10.0-1.4","spark_pilot_2","7802","1","15","Male","","","","","","","null","<div style=""font-size:60px;"">+</div>","null","fixation","","","","","","","","","","","","","",""
"revaluation","276","1261700","0.0-4.0-10.0-0.5","spark_pilot_2","7802","1","15","Male","","","false","","","","[577.4000000357628]","./assets/img/ocean/animals/seahorse.jpg","[""ArrowRight""]","second stage test","ocean","0","{""ArrowUp,ArrowLeft"":26,""ArrowUp,ArrowRight"":10,""ArrowDown,ArrowLeft"":5,""ArrowDown,ArrowRight"":17}","true","ArrowDown,ArrowRight","","","","original","1","","","",""
"html-keyboard-response","277","1262210","0.0-4.0-10.0-1.5","spark_pilot_2","7802","1","15","Male","","","","","","","null","<div style=""font-size:60px;"">+</div>","null","fixation","","","","","","","","","","","","","",""
"revaluation","278","1262790","0.0-4.0-10.0-0.6","spark_pilot_2","7802","1","15","Male","","","false","","","","[577.5]","./assets/img/ocean/animals/seahorse.jpg","[""ArrowRight""]","second stage test","ocean","0","{""ArrowUp,ArrowLeft"":26,""ArrowUp,ArrowRight"":10,""ArrowDown,ArrowLeft"":5,""ArrowDown,ArrowRight"":17}","true","ArrowDown,ArrowRight","","","","original","1","","","",""
"html-keyboard-response","279","1263292","0.0-4.0-10.0-1.6","spark_pilot_2","7802","1","15","Male","","","","","","","null","<div style=""font-size:60px;"">+</div>","null","fixation","","","","","","","","","","","","","",""
"revaluation","280","1263820","0.0-4.0-10.0-0.7","spark_pilot_2","7802","1","15","Male","","","false","","","","[525.6999999880791]","./assets/img/ocean/animals/seahorse.jpg","[""ArrowRight""]","second stage test","ocean","0","{""ArrowUp,ArrowLeft"":26,""ArrowUp,ArrowRight"":10,""ArrowDown,ArrowLeft"":5,""ArrowDown,ArrowRight"":17}","true","ArrowDown,ArrowRight","","","","original","1","","","",""
"html-keyboard-response","281","1264332","0.0-4.0-10.0-1.7","spark_pilot_2","7802","1","15","Male","","","","","","","null","<div style=""font-size:60px;"">+</div>","null","fixation","","","","","","","","","","","","","",""
"learning-instructions","282","1270853","0.0-4.0-0.1-0.2","spark_pilot_2","7802","1","15","Male","","","","","","","2606","<p> This time you are searching for treasure in the <b>canyon</b>.</p>","","instructions","","","","","","","","","","","","","",""
"learning-instructions","283","1289070","0.0-4.0-0.1-0.3","spark_pilot_2","7802","1","15","Male","","","","","","","960.8999999761581","<p><b>New</b> animals with <b>new</b> treasure chests live here. You need to explore to discover where the animal with the best treasure chest is.</p>
                    <p> Like before, once you figure out which animal has the chest with the most treasure, you should try to get to that animal and select that chest! </p>","","instructions","","","","","","","","","","","","","",""
"learning-instructions","284","1307166","0.0-4.0-1.1-0.1","spark_pilot_2","7802","1","15","Male","","","","","","","3366.399999976158","<p> Remember, when you see a picture of the place, use the up and down keys to <b>find an animal</b>.</p>
            <p> When you encounter an animal, you should use the left and right keys to <b>select a treasure chest</b>.</p>
            <p> Don't forget to look out for the robber! </p>","","instructions","","","","","","","","","","","","","",""
"revaluation","285","1313182","0.0-4.0-2.1-0.50","spark_pilot_2","7802","1","15","Male","","","false","","","","[970.3999999761581,517.1999999880791]","./assets/img/canyon/memory/22.jpg","[""ArrowUp"",""ArrowLeft""]","value training","canyon","23","{""ArrowUp,ArrowLeft"":23,""ArrowUp,ArrowRight"":10,""ArrowDown,ArrowLeft"":8,""ArrowDown,ArrowRight"":30}","false","ArrowUp,ArrowLeft","false","","","revaluation","2","0","","",""
"html-keyboard-response","286","1313683","0.0-4.0-2.1-1.50","spark_pilot_2","7802","1","15","Male","","","","","","","null","<div style=""font-size:60px;"">+</div>","null","fixation","","","","","","","","","","","1","","",""
"revaluation","287","1319701","0.0-4.0-2.1-0.51","spark_pilot_2","7802","1","15","Male","","","false","","","","[401.10000002384186,276.89999997615814]","./assets/img/canyon/memory/32.jpg","[""ArrowUp"",""ArrowRight""]","value training","canyon","10","{""ArrowUp,ArrowLeft"":23,""ArrowUp,ArrowRight"":10,""ArrowDown,ArrowLeft"":8,""ArrowDown,ArrowRight"":30}","false","ArrowUp,ArrowRight","false","","","revaluation","2","2","","",""
"html-keyboard-response","288","1320203","0.0-4.0-2.1-1.51","spark_pilot_2","7802","1","15","Male","","","","","","","null","<div style=""font-size:60px;"">+</div>","null","fixation","","","","","","","","","","","3","","",""
"revaluation","289","1324213","0.0-4.0-2.1-0.52","spark_pilot_2","7802","1","15","Male","","","false","","","","[287.39999997615814]","./assets/img/canyon/catch/2.jpg","[""ArrowDown""]","value training","canyon","-10","{""ArrowUp,ArrowLeft"":23,""ArrowUp,ArrowRight"":10,""ArrowDown,ArrowLeft"":8,""ArrowDown,ArrowRight"":30}","false","ArrowDown","true","","","revaluation","2","4","","",""
"html-keyboard-response","290","1324730","0.0-4.0-2.1-1.52","spark_pilot_2","7802","1","15","Male","","","","","","","null","<div style=""font-size:60px;"">+</div>","null","fixation","","","","","","","","","","","5","","",""
"revaluation","291","1330753","0.0-4.0-2.1-0.53","spark_pilot_2","7802","1","15","Male","","","false","","","","[649.6000000238419,321.19999998807907]","./assets/img/canyon/memory/30.jpg","[""ArrowDown"",""ArrowLeft""]","value training","canyon","8","{""ArrowUp,ArrowLeft"":23,""ArrowUp,ArrowRight"":10,""ArrowDown,ArrowLeft"":8,""ArrowDown,ArrowRight"":30}","false","ArrowDown,ArrowLeft","false","","","revaluation","2","6","","",""
"html-keyboard-response","292","1331276","0.0-4.0-2.1-1.53","spark_pilot_2","7802","1","15","Male","","","","","","","null","<div style=""font-size:60px;"">+</div>","null","fixation","","","","","","","","","","","7","","",""
"revaluation","293","1337284","0.0-4.0-2.1-0.54","spark_pilot_2","7802","1","15","Male","","","false","","","","[435.5,272]","./assets/img/canyon/memory/38.jpg","[""ArrowDown"",""ArrowRight""]","value training","canyon","30","{""ArrowUp,ArrowLeft"":23,""ArrowUp,ArrowRight"":10,""ArrowDown,ArrowLeft"":8,""ArrowDown,ArrowRight"":30}","true","ArrowDown,ArrowRight","false","","","revaluation","2","8","","",""
"html-keyboard-response","294","1337785","0.0-4.0-2.1-1.54","spark_pilot_2","7802","1","15","Male","","","","","","","null","<div style=""font-size:60px;"">+</div>","null","fixation","","","","","","","","","","","9","","",""
"revaluation","295","1343790","0.0-4.0-2.1-0.55","spark_pilot_2","7802","1","15","Male","","","false","","","","[789,521.5]","./assets/img/canyon/memory/17.jpg","[""ArrowDown"",""ArrowRight""]","value training","canyon","30","{""ArrowUp,ArrowLeft"":23,""ArrowUp,ArrowRight"":10,""ArrowDown,ArrowLeft"":8,""ArrowDown,ArrowRight"":30}","true","ArrowDown,ArrowRight","false","","","revaluation","2","10","","",""
"html-keyboard-response","296","1344291","0.0-4.0-2.1-1.55","spark_pilot_2","7802","1","15","Male","","","","","","","null","<div style=""font-size:60px;"">+</div>","null","fixation","","","","","","","","","","","11","","",""
"revaluation","297","1350297","0.0-4.0-2.1-0.56","spark_pilot_2","7802","1","15","Male","","","false","","","","[490.80000001192093,308.30000001192093]","./assets/img/canyon/memory/37.jpg","[""ArrowDown"",""ArrowRight""]","value training","canyon","30","{""ArrowUp,ArrowLeft"":23,""ArrowUp,ArrowRight"":10,""ArrowDown,ArrowLeft"":8,""ArrowDown,ArrowRight"":30}","true","ArrowDown,ArrowRight","false","","","revaluation","2","12","","",""
"html-keyboard-response","298","1350798","0.0-4.0-2.1-1.56","spark_pilot_2","7802","1","15","Male","","","","","","","null","<div style=""font-size:60px;"">+</div>","null","fixation","","","","","","","","","","","13","","",""
"revaluation","299","1356803","0.0-4.0-2.1-0.57","spark_pilot_2","7802","1","15","Male","","","false","","","","[721.8999999761581,371.89999997615814]","./assets/img/canyon/memory/23.jpg","[""ArrowDown"",""ArrowRight""]","value training","canyon","30","{""ArrowUp,ArrowLeft"":23,""ArrowUp,ArrowRight"":10,""ArrowDown,ArrowLeft"":8,""ArrowDown,ArrowRight"":30}","true","ArrowDown,ArrowRight","false","","","revaluation","2","14","","",""
"html-keyboard-response","300","1357304","0.0-4.0-2.1-1.57","spark_pilot_2","7802","1","15","Male","","","","","","","null","<div style=""font-size:60px;"">+</div>","null","fixation","","","","","","","","","","","15","","",""
"revaluation","301","1363309","0.0-4.0-2.1-0.58","spark_pilot_2","7802","1","15","Male","","","false","","","","[562,325.5]","./assets/img/canyon/memory/29.jpg","[""ArrowDown"",""ArrowRight""]","value training","canyon","30","{""ArrowUp,ArrowLeft"":23,""ArrowUp,ArrowRight"":10,""ArrowDown,ArrowLeft"":8,""ArrowDown,ArrowRight"":30}","true","ArrowDown,ArrowRight","false","","","revaluation","2","16","","",""
"html-keyboard-response","302","1363811","0.0-4.0-2.1-1.58","spark_pilot_2","7802","1","15","Male","","","","","","","null","<div style=""font-size:60px;"">+</div>","null","fixation","","","","","","","","","","","17","","",""
"revaluation","303","1369817","0.0-4.0-2.1-0.59","spark_pilot_2","7802","1","15","Male","","","false","","","","[879.3000000119209,254.10000002384186]","./assets/img/canyon/memory/1.jpg","[""ArrowDown"",""ArrowRight""]","value training","canyon","30","{""ArrowUp,ArrowLeft"":23,""ArrowUp,ArrowRight"":10,""ArrowDown,ArrowLeft"":8,""ArrowDown,ArrowRight"":30}","true","ArrowDown,ArrowRight","false","","","revaluation","2","18","","",""
"html-keyboard-response","304","1370318","0.0-4.0-2.1-1.59","spark_pilot_2","7802","1","15","Male","","","","","","","null","<div style=""font-size:60px;"">+</div>","null","fixation","","","","","","","","","","","19","","",""
"revaluation","305","1376325","0.0-4.0-2.1-0.60","spark_pilot_2","7802","1","15","Male","","","false","","","","[581.6000000238419,137.10000002384186]","./assets/img/canyon/memory/17.jpg","[""ArrowDown"",""ArrowRight""]","value training","canyon","30","{""ArrowUp,ArrowLeft"":23,""ArrowUp,ArrowRight"":10,""ArrowDown,ArrowLeft"":8,""ArrowDown,ArrowRight"":30}","true","ArrowDown,ArrowRight","false","","","revaluation","2","20","","",""
"html-keyboard-response","306","1376826","0.0-4.0-2.1-1.60","spark_pilot_2","7802","1","15","Male","","","","","","","null","<div style=""font-size:60px;"">+</div>","null","fixation","","","","","","","","","","","21","","",""
