"trial_type","trial_index","time_elapsed","internal_node_id","task_version","subject_id","assigned_condition","age","gender","success","timeout","failed_images","failed_audio","failed_video","browser_interaction","rt","stimulus","response","task_part","environment","score","rewardMap","correct","fullState","isCatch","numberMissed","duration","condition","order","trial_num","key_press","ground_truth","bonus"
"pavlovia","0","1455","0.0-0.0","spark_pilot_2","7960","5","14","Male","","","","","","","","","","","","","","","","","","","","","","","",""
"preload","1","21852","0.0-1.0","spark_pilot_2","7960","5","14","Male","true","false","[]","[]","[]","[{""event"":""fullscreenenter"",""trial"":2,""time"":23314},{""event"":""fullscreenexit"",""trial"":5,""time"":36910},{""event"":""blur"",""trial"":252,""time"":1125849},{""event"":""focus"",""trial"":252,""time"":1125851}]","","","","","","","","","","","","","","","","","",""
"fullscreen","2","24312","0.0-2.0","spark_pilot_2","7960","5","14","Male","true","","","","","","","","","","","","","","","","","","","","","","",""
"audio-button-response","3","25538","0.0-3.0-0.0-0.0","spark_pilot_2","7960","5","14","Male","","","","","","","1120","./assets/audio/audiotest/turtle.mp3","2","audio_test","","","","","","","","","","","","","",""
"learning-instructions","4","33775","0.0-3.0-1.0-0.0","spark_pilot_2","7960","5","14","Male","","","","","","[{""event"":""fullscreenenter"",""trial"":2,""time"":23314},{""event"":""fullscreenexit"",""trial"":5,""time"":36910},{""event"":""blur"",""trial"":252,""time"":1125849},{""event"":""focus"",""trial"":252,""time"":1125851}]","1239.8000000000175","<p> Welcome! Please remember to stay in fullscreen mode and don't click away from the experiment. </p>","","instructions","","","","","","","","","","","","","",""
"learning-instructions","5","42643","0.0-3.0-1.0-0.1","spark_pilot_2","7960","5","14","Male","","","","","","","443.5999999999767","<p> Today you will be playing a game to earn treasure. </p>
            <p> At the end of the experiment, you will earn a bonus based on how much treasure you find. </p>
            <img src='./assets/img/instructions/treasure.jpg' class='instructions-image'>","","instructions","","","","","","","","","","","","","",""
"learning-instructions","6","51404","0.0-3.0-1.0-0.2","spark_pilot_2","7960","5","14","Male","","","","","","","490.8999999999942","<p> Animals have hidden treasure in treasure chests. </p>
            <p> You need to first find an animal and then choose which of their treasure chests to search. </p>
            <img src='./assets/img/space/animals/cat.jpg' class='instructions-image'>","","instructions","","","","","","","","","","","","","",""
"learning-instructions","7","66633","0.0-3.0-1.0-0.3","spark_pilot_2","7960","5","14","Male","","","","","","","2055.5","<p> In each round, you will search for treasure in a different place. In the real game, there will be two rounds. </p>
            <p> You will begin with a separate, practice round where you will search for treasure in outer space. </p>
            <img src='./assets/img/space/0.jpg' class='instructions-image'>","","instructions","","","","","","","","","","","","","",""
"learning-instructions","8","80418","0.0-3.0-1.0-0.4","spark_pilot_2","7960","5","14","Male","","","","","","","2357.3000000000175","<p> On every turn, you will see a picture of the place that you are in, but the specific image may be different each time. </p>
            <p> For example, both of these images mean you are in outer space. </p>
            <img src='./assets/img/instructions/outerspace.jpg' class='instructions-image'>","","instructions","","","","","","","","","","","","","",""
"learning-instructions","9","89896","0.0-3.0-1.0-0.5","spark_pilot_2","7960","5","14","Male","","","","","","","1616.8999999999942","<p> You need to decide which direction to travel in. </p>
            <p> You can choose between going <b>up or down</b> by using the arrow keys. </p>
            <img src='./assets/img/instructions/updown.jpg' class='instructions-image'>","","instructions","","","","","","","","","","","","","",""
"learning-instructions","10","99784","0.0-3.0-1.0-0.6","spark_pilot_2","7960","5","14","Male","","","","","","","1051.9000000000233","<p> You will have <b>2 seconds</b> to make your choice. </p>
            <p> If you do not make a choice within 2 seconds, you will not find an animal or earn treasure. </p>
            <img src='./assets/img/instructions/2seconds.jpg' class='instructions-image'>","","instructions","","","","","","","","","","","","","",""
"learning-instructions","11","107961","0.0-3.0-1.0-0.7","spark_pilot_2","7960","5","14","Male","","","","","","","1121.7999999999884","<p> Let’s try practicing that now! </p>
            <p> When you see a picture of the place you are in, press the <b>up</b> key to travel up. </p>
            <img src='./assets/img/instructions/pressUp.jpg' class='instructions-image'>","","instructions","","","","","","","","","","","","","",""
"revaluation","12","111993","0.0-3.0-2.0-0.0","spark_pilot_2","7960","5","14","Male","","false","","","","","[842.2999999999884]","./assets/img/space/0.jpg","[""ArrowUp""]","first stage practice","space","0","null","null","ArrowUp","false","","","","","","","",""
"html-keyboard-response","13","112496","0.0-3.0-2.0-1.0","spark_pilot_2","7960","5","14","Male","","","","","","","null","<div style=""font-size:60px;"">+</div>","null","fixation","","","","","","","","","","","","","",""
"revaluation","14","116513","0.0-3.0-2.0-0.1","spark_pilot_2","7960","5","14","Male","","false","","","","","[713.6000000000058]","./assets/img/space/1.jpg","[""ArrowUp""]","first stage practice","space","0","null","null","ArrowUp","false","","","","","","","",""
"html-keyboard-response","15","117016","0.0-3.0-2.0-1.1","spark_pilot_2","7960","5","14","Male","","","","","","","null","<div style=""font-size:60px;"">+</div>","null","fixation","","","","","","","","","","","","","",""
"revaluation","16","121033","0.0-3.0-2.0-0.2","spark_pilot_2","7960","5","14","Male","","false","","","","","[724.3000000000175]","./assets/img/space/2.jpg","[""ArrowUp""]","first stage practice","space","0","null","null","ArrowUp","false","","","","","","","",""
"html-keyboard-response","17","121536","0.0-3.0-2.0-1.2","spark_pilot_2","7960","5","14","Male","","","","","","","null","<div style=""font-size:60px;"">+</div>","null","fixation","","","","","","","","","","","","","",""
"learning-instructions","18","128936","0.0-3.0-3.0-0.0","spark_pilot_2","7960","5","14","Male","","","","","","","2684.100000000035","<p> Great job! Now try pressing the <b>down</b> key to travel down. </p>
            <img src='./assets/img/instructions/pressDown.jpg' class='instructions-image'>","","instructions","","","","","","","","","","","","","",""
"revaluation","19","132952","0.0-3.0-4.0-0.0","spark_pilot_2","7960","5","14","Male","","false","","","","","[868.5999999999767]","./assets/img/space/3.jpg","[""ArrowDown""]","first stage practice","space","0","null","null","ArrowDown","false","","","","","","","",""
"html-keyboard-response","20","133456","0.0-3.0-4.0-1.0","spark_pilot_2","7960","5","14","Male","","","","","","","null","<div style=""font-size:60px;"">+</div>","null","fixation","","","","","","","","","","","","","",""
"revaluation","21","137473","0.0-3.0-4.0-0.1","spark_pilot_2","7960","5","14","Male","","false","","","","","[471.8999999999651]","./assets/img/space/4.jpg","[""ArrowDown""]","first stage practice","space","0","null","null","ArrowDown","false","","","","","","","",""
"html-keyboard-response","22","137976","0.0-3.0-4.0-1.1","spark_pilot_2","7960","5","14","Male","","","","","","","null","<div style=""font-size:60px;"">+</div>","null","fixation","","","","","","","","","","","","","",""
"revaluation","23","141992","0.0-3.0-4.0-0.2","spark_pilot_2","7960","5","14","Male","","false","","","","","[1300.5]","./assets/img/space/5.jpg","[""ArrowDown""]","first stage practice","space","0","null","null","ArrowDown","false","","","","","","","",""
"html-keyboard-response","24","142496","0.0-3.0-4.0-1.2","spark_pilot_2","7960","5","14","Male","","","","","","","null","<div style=""font-size:60px;"">+</div>","null","fixation","","","","","","","","","","","","","",""
"learning-instructions","25","153395","0.0-3.0-5.0-0.0","spark_pilot_2","7960","5","14","Male","","","","","","","1031.1999999999534","<p> The animals don’t move, so the animal in the upper part of a place will stay in the upper part of a place, and the animal in the lower part of a place will stay in the lower part of a place. </p>","","instructions","","","","","","","","","","","","","",""
"learning-instructions","26","163506","0.0-3.0-5.0-0.1","spark_pilot_2","7960","5","14","Male","","","","","","","955.8999999999651","<p> Each animal has two treasure chests for you to choose from. </p>
            <p> The amount of treasure in each chest can range from <b> 0 to 40 pieces.</b></p>","","instructions","","","","","","","","","","","","","",""
"learning-instructions","27","176084","0.0-3.0-5.0-0.2","spark_pilot_2","7960","5","14","Male","","","","","","","1373.5","<p> You should decide which chest to search for treasure by using the <b>left</b> and <b>right</b> arrow keys. </p>
            <p><b> Pay attention to which animal is on the screen, as the animals have different treasure chests. </b></p>
            <img src='./assets/img/instructions/leftright.jpg' class='instructions-image'>","","instructions","","","","","","","","","","","","","",""
"learning-instructions","28","186136","0.0-3.0-5.0-0.3","spark_pilot_2","7960","5","14","Male","","","","","","","3670.5","<p> Let’s try practicing that now. </p>
            <p> When you see an animal, choose which chest to search for treasure. </p>
            <img src='./assets/img/instructions/chooseChest.jpg' class='instructions-image'>","","instructions","","","","","","","","","","","","","",""
"revaluation","29","190153","0.0-3.0-6.0-0.0","spark_pilot_2","7960","5","14","Male","","false","","","","","[549.3000000000466]","./assets/img/space/animals/rabbit.jpg","[""ArrowRight""]","second stage practice","space","23","{""ArrowUp,ArrowLeft"":3,""ArrowUp,ArrowRight"":36,""ArrowDown,ArrowLeft"":15,""ArrowDown,ArrowRight"":23}","true","ArrowDown,ArrowRight","","","","","","","","",""
"html-keyboard-response","30","190656","0.0-3.0-6.0-1.0","spark_pilot_2","7960","5","14","Male","","","","","","","null","<div style=""font-size:60px;"">+</div>","null","fixation","","","","","","","","","","","","","",""
"revaluation","31","194672","0.0-3.0-6.0-0.1","spark_pilot_2","7960","5","14","Male","","false","","","","","[803.2999999999884]","./assets/img/space/animals/cat.jpg","[""ArrowLeft""]","second stage practice","space","3","{""ArrowUp,ArrowLeft"":3,""ArrowUp,ArrowRight"":36,""ArrowDown,ArrowLeft"":15,""ArrowDown,ArrowRight"":23}","false","ArrowUp,ArrowLeft","","","","","","","","",""
"html-keyboard-response","32","195176","0.0-3.0-6.0-1.1","spark_pilot_2","7960","5","14","Male","","","","","","","null","<div style=""font-size:60px;"">+</div>","null","fixation","","","","","","","","","","","","","",""
"revaluation","33","199193","0.0-3.0-6.0-0.2","spark_pilot_2","7960","5","14","Male","","false","","","","","[1088]","./assets/img/space/animals/rabbit.jpg","[""ArrowRight""]","second stage practice","space","23","{""ArrowUp,ArrowLeft"":3,""ArrowUp,ArrowRight"":36,""ArrowDown,ArrowLeft"":15,""ArrowDown,ArrowRight"":23}","true","ArrowDown,ArrowRight","","","","","","","","",""
"html-keyboard-response","34","199696","0.0-3.0-6.0-1.2","spark_pilot_2","7960","5","14","Male","","","","","","","null","<div style=""font-size:60px;"">+</div>","null","fixation","","","","","","","","","","","","","",""
"revaluation","35","203713","0.0-3.0-6.0-0.3","spark_pilot_2","7960","5","14","Male","","false","","","","","[428.8999999999651]","./assets/img/space/animals/cat.jpg","[""ArrowRight""]","second stage practice","space","36","{""ArrowUp,ArrowLeft"":3,""ArrowUp,ArrowRight"":36,""ArrowDown,ArrowLeft"":15,""ArrowDown,ArrowRight"":23}","true","ArrowUp,ArrowRight","","","","","","","","",""
"html-keyboard-response","36","204216","0.0-3.0-6.0-1.3","spark_pilot_2","7960","5","14","Male","","","","","","","null","<div style=""font-size:60px;"">+</div>","null","fixation","","","","","","","","","","","","","",""
"learning-instructions","37","221994","0.0-3.0-7.0-0.0","spark_pilot_2","7960","5","14","Male","","","","","","","935.9000000000233","<p> Great job. Now let’s try putting it together. </p>
            <p> On each turn, you will first see a picture to remind you of the place you are in, and you need to choose whether to go up or down. </p>
            <p> Then you will see an animal and choose which of its chests to search for treasure. </p>","","instructions","","","","","","","","","","","","","",""
"learning-instructions","38","231547","0.0-3.0-7.0-0.1","spark_pilot_2","7960","5","14","Male","","","","","","","1273.0999999999767","<p> When you choose whether to go up or down, try to go to the animal with the chest with the most treasure. </p>
            <p> Try practicing that now! </p>","","instructions","","","","","","","","","","","","","",""
"revaluation","39","237569","0.0-3.0-8.0-0.0","spark_pilot_2","7960","5","14","Male","","false","","","","","[879.2999999999884,713.7999999999884]","./assets/img/space/6.jpg","[""ArrowUp"",""ArrowLeft""]","full practice","space","3","{""ArrowUp,ArrowLeft"":3,""ArrowUp,ArrowRight"":36,""ArrowDown,ArrowLeft"":15,""ArrowDown,ArrowRight"":23}","false","ArrowUp,ArrowLeft","false","","","","","","","",""
"html-keyboard-response","40","238072","0.0-3.0-8.0-1.0","spark_pilot_2","7960","5","14","Male","","","","","","","null","<div style=""font-size:60px;"">+</div>","null","fixation","","","","","","","","","","","","","",""
"revaluation","41","244097","0.0-3.0-8.0-0.1","spark_pilot_2","7960","5","14","Male","","false","","","","","[1038.5,568.8999999999651]","./assets/img/space/7.jpg","[""ArrowUp"",""ArrowRight""]","full practice","space","36","{""ArrowUp,ArrowLeft"":3,""ArrowUp,ArrowRight"":36,""ArrowDown,ArrowLeft"":15,""ArrowDown,ArrowRight"":23}","true","ArrowUp,ArrowRight","false","","","","","","","",""
"html-keyboard-response","42","244600","0.0-3.0-8.0-1.1","spark_pilot_2","7960","5","14","Male","","","","","","","null","<div style=""font-size:60px;"">+</div>","null","fixation","","","","","","","","","","","","","",""
"revaluation","43","250625","0.0-3.0-8.0-0.2","spark_pilot_2","7960","5","14","Male","","false","","","","","[1244.2000000000116,469.8999999999651]","./assets/img/space/8.jpg","[""ArrowUp"",""ArrowRight""]","full practice","space","36","{""ArrowUp,ArrowLeft"":3,""ArrowUp,ArrowRight"":36,""ArrowDown,ArrowLeft"":15,""ArrowDown,ArrowRight"":23}","true","ArrowUp,ArrowRight","false","","","","","","","",""
"html-keyboard-response","44","251128","0.0-3.0-8.0-1.2","spark_pilot_2","7960","5","14","Male","","","","","","","null","<div style=""font-size:60px;"">+</div>","null","fixation","","","","","","","","","","","","","",""
"revaluation","45","257153","0.0-3.0-8.0-0.3","spark_pilot_2","7960","5","14","Male","","false","","","","","[901.5,634.7999999999884]","./assets/img/space/9.jpg","[""ArrowUp"",""ArrowRight""]","full practice","space","36","{""ArrowUp,ArrowLeft"":3,""ArrowUp,ArrowRight"":36,""ArrowDown,ArrowLeft"":15,""ArrowDown,ArrowRight"":23}","true","ArrowUp,ArrowRight","false","","","","","","","",""
"html-keyboard-response","46","257657","0.0-3.0-8.0-1.3","spark_pilot_2","7960","5","14","Male","","","","","","","null","<div style=""font-size:60px;"">+</div>","null","fixation","","","","","","","","","","","","","",""
"revaluation","47","263681","0.0-3.0-8.0-0.4","spark_pilot_2","7960","5","14","Male","","false","","","","","[1179.399999999965,350.19999999998254]","./assets/img/space/10.jpg","[""ArrowUp"",""ArrowRight""]","full practice","space","36","{""ArrowUp,ArrowLeft"":3,""ArrowUp,ArrowRight"":36,""ArrowDown,ArrowLeft"":15,""ArrowDown,ArrowRight"":23}","true","ArrowUp,ArrowRight","false","","","","","","","",""
"html-keyboard-response","48","264184","0.0-3.0-8.0-1.4","spark_pilot_2","7960","5","14","Male","","","","","","","null","<div style=""font-size:60px;"">+</div>","null","fixation","","","","","","","","","","","","","",""
"learning-instructions","49","275089","0.0-3.0-9.0-0.0","spark_pilot_2","7960","5","14","Male","","","","","","","580.2999999999302","<p> One last thing: sometimes, you will see a robber. The robber can be anywhere in the picture. </p>
            <p> If you do not stop them, you will lose treasure. </p>
            <img src='./assets/img/instructions/robber.jpg' class='instructions-image'>","","instructions","","","","","","","","","","","","","",""
"learning-instructions","50","282727","0.0-3.0-9.0-0.1","spark_pilot_2","7960","5","14","Male","","","","","","","453.4000000000233","<p> If you see the robber, you should <b>press the space bar</b> rather than using the arrow keys. </p>
            <p> Try practicing that now! </p>","","instructions","","","","","","","","","","","","","",""
"revaluation","51","286745","0.0-3.0-10.0-0.0","spark_pilot_2","7960","5","14","Male","","false","","","","","[972.5999999999767]","./assets/img/space/catch/0.jpg","[""spaceBar""]","catch practice","space","0","{""ArrowUp,ArrowLeft"":3,""ArrowUp,ArrowRight"":36,""ArrowDown,ArrowLeft"":15,""ArrowDown,ArrowRight"":23}","true","spaceBar","true","","","","","","","",""
"html-keyboard-response","52","287248","0.0-3.0-10.0-1.0","spark_pilot_2","7960","5","14","Male","","","","","","","null","<div style=""font-size:60px;"">+</div>","null","fixation","","","","","","","","","","","","","",""
"revaluation","53","291265","0.0-3.0-10.0-0.1","spark_pilot_2","7960","5","14","Male","","false","","","","","[614.5]","./assets/img/space/catch/1.jpg","[""spaceBar""]","catch practice","space","0","{""ArrowUp,ArrowLeft"":3,""ArrowUp,ArrowRight"":36,""ArrowDown,ArrowLeft"":15,""ArrowDown,ArrowRight"":23}","true","spaceBar","true","","","","","","","",""
"html-keyboard-response","54","291768","0.0-3.0-10.0-1.1","spark_pilot_2","7960","5","14","Male","","","","","","","null","<div style=""font-size:60px;"">+</div>","null","fixation","","","","","","","","","","","","","",""
"revaluation","55","295785","0.0-3.0-10.0-0.2","spark_pilot_2","7960","5","14","Male","","false","","","","","[746.1999999999534]","./assets/img/space/catch/2.jpg","[""spaceBar""]","catch practice","space","0","{""ArrowUp,ArrowLeft"":3,""ArrowUp,ArrowRight"":36,""ArrowDown,ArrowLeft"":15,""ArrowDown,ArrowRight"":23}","true","spaceBar","true","","","","","","","",""
"html-keyboard-response","56","296288","0.0-3.0-10.0-1.2","spark_pilot_2","7960","5","14","Male","","","","","","","null","<div style=""font-size:60px;"">+</div>","null","fixation","","","","","","","","","","","","","",""
"learning-instructions","57","331916","0.0-3.0-11.0-0.0","spark_pilot_2","7960","5","14","Male","","","","","","","22025.300000000047","<p> After you explore a place to find treasure, it will be time to play a different game. </p>
            <p> During this game, red dots will appear on the screen and fall down slowly. </p>
            <p><b> You must click on them before they reach the bottom. </b></p>
            <img src='./assets/img/instructions/dotGame.jpg' class='instructions-image'>","","instructions","","","","","","","","","","","","","",""
"learning-instructions","58","338444","0.0-3.0-11.0-0.1","spark_pilot_2","7960","5","14","Male","","","","","","","767.2000000000698","<p> For every dot you click, you will earn additional treasure. </p>
            <p> Let’s try practicing that now. </p>","","instructions","","","","","","","","","","","","","",""
"revaluation","59","353459","0.0-3.0-12.0-0.0","spark_pilot_2","7960","5","14","Male","","","","","","","[76]","","","rest practice","","10","","","","","0","15000","","","","","",""
"learning-instructions","60","359946","0.0-3.0-13.0-0.0-0.0","spark_pilot_2","7960","5","14","Male","","","","","","","1202.5999999999767","<p> Now, you will practice a shortened version of the game to get a sense of how it all fits together. </p>","","instructions","","","","","","","","","","","","","",""
"learning-instructions","61","363554","0.0-3.0-13.0-0.0-0.1","spark_pilot_2","7960","5","14","Male","","","","","","","405.5999999999767","<p>This time you are searching for treasure in outer space.</p>","","instructions","","","","","","","","","","","","","",""
"learning-instructions","62","378982","0.0-3.0-13.0-1.0-0.0","spark_pilot_2","7960","5","14","Male","","","","","","","643.5","<p> Remember, when you see a picture of the place, use the up and down keys to <b>find an animal</b>.</p>
            <p> When you encounter an animal, you should use the left and right keys to <b>select a treasure chest</b>.</p>
            <p> Don't forget to look out for the robber! </p>","","instructions","","","","","","","","","","","","","",""
"revaluation","63","385009","0.0-3.0-13.0-2.0-0.0","spark_pilot_2","7960","5","14","Male","","false","","","","","[1324.6999999999534,417.80000000004657]","./assets/img/space/11.jpg","[""ArrowUp"",""ArrowRight""]","practice block","space","36","{""ArrowUp,ArrowLeft"":3,""ArrowUp,ArrowRight"":36,""ArrowDown,ArrowLeft"":15,""ArrowDown,ArrowRight"":23}","true","ArrowUp,ArrowRight","false","","","","","","","",""
"html-keyboard-response","64","385513","0.0-3.0-13.0-2.0-1.0","spark_pilot_2","7960","5","14","Male","","","","","","","null","<div style=""font-size:60px;"">+</div>","null","fixation","","","","","","","","","","","","","",""
"revaluation","65","391537","0.0-3.0-13.0-2.0-0.1","spark_pilot_2","7960","5","14","Male","","false","","","","","[1260.7999999999302,393.79999999993015]","./assets/img/space/12.jpg","[""ArrowUp"",""ArrowRight""]","practice block","space","36","{""ArrowUp,ArrowLeft"":3,""ArrowUp,ArrowRight"":36,""ArrowDown,ArrowLeft"":15,""ArrowDown,ArrowRight"":23}","true","ArrowUp,ArrowRight","false","","","","","","","",""
"html-keyboard-response","66","392040","0.0-3.0-13.0-2.0-1.1","spark_pilot_2","7960","5","14","Male","","","","","","","null","<div style=""font-size:60px;"">+</div>","null","fixation","","","","","","","","","","","","","",""
"revaluation","67","398065","0.0-3.0-13.0-2.0-0.2","spark_pilot_2","7960","5","14","Male","","false","","","","","[1169.2999999999302,317.69999999995343]","./assets/img/space/13.jpg","[""ArrowUp"",""ArrowRight""]","practice block","space","36","{""ArrowUp,ArrowLeft"":3,""ArrowUp,ArrowRight"":36,""ArrowDown,ArrowLeft"":15,""ArrowDown,ArrowRight"":23}","true","ArrowUp,ArrowRight","false","","","","","","","",""
"html-keyboard-response","68","398568","0.0-3.0-13.0-2.0-1.2","spark_pilot_2","7960","5","14","Male","","","","","","","null","<div style=""font-size:60px;"">+</div>","null","fixation","","","","","","","","","","","","","",""
"revaluation","69","404593","0.0-3.0-13.0-2.0-0.3","spark_pilot_2","7960","5","14","Male","","false","","","","","[1352.6000000000931,509.5999999999767]","./assets/img/space/14.jpg","[""ArrowUp"",""ArrowRight""]","practice block","space","36","{""ArrowUp,ArrowLeft"":3,""ArrowUp,ArrowRight"":36,""ArrowDown,ArrowLeft"":15,""ArrowDown,ArrowRight"":23}","true","ArrowUp,ArrowRight","false","","","","","","","",""
"html-keyboard-response","70","405096","0.0-3.0-13.0-2.0-1.3","spark_pilot_2","7960","5","14","Male","","","","","","","null","<div style=""font-size:60px;"">+</div>","null","fixation","","","","","","","","","","","","","",""
"revaluation","71","411121","0.0-3.0-13.0-2.0-0.4","spark_pilot_2","7960","5","14","Male","","false","","","","","[1288.6000000000931,289.19999999995343]","./assets/img/space/11.jpg","[""ArrowUp"",""ArrowRight""]","practice block","space","36","{""ArrowUp,ArrowLeft"":3,""ArrowUp,ArrowRight"":36,""ArrowDown,ArrowLeft"":15,""ArrowDown,ArrowRight"":23}","true","ArrowUp,ArrowRight","false","","","","","","","",""
"html-keyboard-response","72","411624","0.0-3.0-13.0-2.0-1.4","spark_pilot_2","7960","5","14","Male","","","","","","","null","<div style=""font-size:60px;"">+</div>","null","fixation","","","","","","","","","","","","","",""
"revaluation","73","417649","0.0-3.0-13.0-2.0-0.5","spark_pilot_2","7960","5","14","Male","","false","","","","","[1578,359.5]","./assets/img/space/12.jpg","[""ArrowUp"",""ArrowRight""]","practice block","space","36","{""ArrowUp,ArrowLeft"":3,""ArrowUp,ArrowRight"":36,""ArrowDown,ArrowLeft"":15,""ArrowDown,ArrowRight"":23}","true","ArrowUp,ArrowRight","false","","","","","","","",""
"html-keyboard-response","74","418153","0.0-3.0-13.0-2.0-1.5","spark_pilot_2","7960","5","14","Male","","","","","","","null","<div style=""font-size:60px;"">+</div>","null","fixation","","","","","","","","","","","","","",""
"revaluation","75","424185","0.0-3.0-13.0-2.0-0.6","spark_pilot_2","7960","5","14","Male","","false","","","","","[467.30000000004657,346.29999999993015]","./assets/img/space/13.jpg","[""ArrowUp"",""ArrowRight""]","practice block","space","36","{""ArrowUp,ArrowLeft"":3,""ArrowUp,ArrowRight"":36,""ArrowDown,ArrowLeft"":15,""ArrowDown,ArrowRight"":23}","true","ArrowUp,ArrowRight","false","","","","","","","",""
"html-keyboard-response","76","424688","0.0-3.0-13.0-2.0-1.6","spark_pilot_2","7960","5","14","Male","","","","","","","null","<div style=""font-size:60px;"">+</div>","null","fixation","","","","","","","","","","","","","",""
"revaluation","77","430712","0.0-3.0-13.0-2.0-0.7","spark_pilot_2","7960","5","14","Male","","false","","","","","[1153.4000000000233,406.5999999999767]","./assets/img/space/14.jpg","[""ArrowUp"",""ArrowRight""]","practice block","space","36","{""ArrowUp,ArrowLeft"":3,""ArrowUp,ArrowRight"":36,""ArrowDown,ArrowLeft"":15,""ArrowDown,ArrowRight"":23}","true","ArrowUp,ArrowRight","false","","","","","","","",""
"html-keyboard-response","78","431216","0.0-3.0-13.0-2.0-1.7","spark_pilot_2","7960","5","14","Male","","","","","","","null","<div style=""font-size:60px;"">+</div>","null","fixation","","","","","","","","","","","","","",""
"revaluation","79","435233","0.0-3.0-13.0-2.0-0.8","spark_pilot_2","7960","5","14","Male","","false","","","","","[565.2999999999302]","./assets/img/space/catch/3.jpg","[""spaceBar""]","practice block","space","0","{""ArrowUp,ArrowLeft"":3,""ArrowUp,ArrowRight"":36,""ArrowDown,ArrowLeft"":15,""ArrowDown,ArrowRight"":23}","true","spaceBar","true","","","","","","","",""
"html-keyboard-response","80","435736","0.0-3.0-13.0-2.0-1.8","spark_pilot_2","7960","5","14","Male","","","","","","","null","<div style=""font-size:60px;"">+</div>","null","fixation","","","","","","","","","","","","","",""
"learning-instructions","81","449590","0.0-3.0-13.0-3.0-0.0","spark_pilot_2","7960","5","14","Male","","","","","","","836.3999999999069","<p> Now, you will travel with a friend who will choose whether you go up or down first. </p>
            <p> On these turns, you will just see the animal that they found. You will still get to choose which chest to search for treasure.</p>","","instructions","","","","","","","","","","","","","",""
"revaluation","82","453608","0.0-3.0-13.0-4.0-0.0","spark_pilot_2","7960","5","14","Male","","false","","","","","[1330.2999999999302]","./assets/img/space/animals/rabbit.jpg","[""ArrowLeft""]","practice block","space","15","{""ArrowUp,ArrowLeft"":3,""ArrowUp,ArrowRight"":36,""ArrowDown,ArrowLeft"":15,""ArrowDown,ArrowRight"":23}","false","ArrowDown,ArrowLeft","","","","","","","","",""
"html-keyboard-response","83","454112","0.0-3.0-13.0-4.0-1.0","spark_pilot_2","7960","5","14","Male","","","","","","","null","<div style=""font-size:60px;"">+</div>","null","fixation","","","","","","","","","","","","","",""
"revaluation","84","458129","0.0-3.0-13.0-4.0-0.1","spark_pilot_2","7960","5","14","Male","","false","","","","","[412.30000000004657]","./assets/img/space/animals/cat.jpg","[""ArrowRight""]","practice block","space","36","{""ArrowUp,ArrowLeft"":3,""ArrowUp,ArrowRight"":36,""ArrowDown,ArrowLeft"":15,""ArrowDown,ArrowRight"":23}","true","ArrowUp,ArrowRight","","","","","","","","",""
"html-keyboard-response","85","458632","0.0-3.0-13.0-4.0-1.1","spark_pilot_2","7960","5","14","Male","","","","","","","null","<div style=""font-size:60px;"">+</div>","null","fixation","","","","","","","","","","","","","",""
"revaluation","86","462649","0.0-3.0-13.0-4.0-0.2","spark_pilot_2","7960","5","14","Male","","false","","","","","[398.39999999990687]","./assets/img/space/animals/rabbit.jpg","[""ArrowRight""]","practice block","space","23","{""ArrowUp,ArrowLeft"":3,""ArrowUp,ArrowRight"":36,""ArrowDown,ArrowLeft"":15,""ArrowDown,ArrowRight"":23}","true","ArrowDown,ArrowRight","","","","","","","","",""
"html-keyboard-response","87","463152","0.0-3.0-13.0-4.0-1.2","spark_pilot_2","7960","5","14","Male","","","","","","","null","<div style=""font-size:60px;"">+</div>","null","fixation","","","","","","","","","","","","","",""
"revaluation","88","467169","0.0-3.0-13.0-4.0-0.3","spark_pilot_2","7960","5","14","Male","","false","","","","","[333.5]","./assets/img/space/animals/cat.jpg","[""ArrowRight""]","practice block","space","36","{""ArrowUp,ArrowLeft"":3,""ArrowUp,ArrowRight"":36,""ArrowDown,ArrowLeft"":15,""ArrowDown,ArrowRight"":23}","true","ArrowUp,ArrowRight","","","","","","","","",""
"html-keyboard-response","89","467672","0.0-3.0-13.0-4.0-1.3","spark_pilot_2","7960","5","14","Male","","","","","","","null","<div style=""font-size:60px;"">+</div>","null","fixation","","","","","","","","","","","","","",""
"learning-instructions","90","475644","0.0-3.0-13.0-5.0-0.0","spark_pilot_2","7960","5","14","Male","","","","","","","586.5","<p> Time to play the dot game! </p>
            <p> For 15 seconds, click the red dots on the following screen as they appear. </p>","","instructions","","","","","","","","","","","","","",""
"revaluation","91","490648","0.0-3.0-13.0-6.0-0.0","spark_pilot_2","7960","5","14","Male","","","","","","","[53]","","","rest practice","","10","","","","","0","15000","","","","","",""
"learning-instructions","92","497570","0.0-3.0-13.0-7.0-0.0","spark_pilot_2","7960","5","14","Male","","","","","","","773.0999999999767","<p> You have almost finished this part of the game! </p>
            <p> We are going to ask you to make a few more choices. </p>","","instructions","","","","","","","","","","","","","",""
"learning-instructions","93","512406","0.0-3.0-13.0-7.0-0.1","spark_pilot_2","7960","5","14","Male","","","","","","","804.2000000000698","<p> First, you need to decide whether to go up or down. When you see each picture, use the arrow keys to make your choice. </p>
            <p><b>You will not see which animal you found, but try to get to the one that will give you the most treasure.</b></p>","","instructions","","","","","","","","","","","","","",""
"revaluation","94","513670","0.0-3.0-13.0-8.0","spark_pilot_2","7960","5","14","Male","","false","","","","","[1260.7000000000698]","./assets/img/space/15.jpg","[""ArrowUp""]","practice block","space","0","{""ArrowUp,ArrowLeft"":3,""ArrowUp,ArrowRight"":36,""ArrowDown,ArrowLeft"":15,""ArrowDown,ArrowRight"":23}","true","ArrowUp","false","","","","","","","",""
"html-keyboard-response","95","514176","0.0-3.0-13.0-9.0","spark_pilot_2","7960","5","14","Male","","","","","","","null","<div style=""font-size:60px;"">+</div>","null","fixation","","","","","","","","","","","","","",""
"learning-instructions","96","527260","0.0-3.0-13.0-10.0-0.0","spark_pilot_2","7960","5","14","Male","","","","","","","1642.4000000000233","<p> Now you will see the animals again and can search their chests for treasure. </p>
            <p> This time, you will not see how much treasure you earned, but you will earn more bonus money for making better choices. </p>","","instructions","","","","","","","","","","","","","",""
"revaluation","97","527880","0.0-3.0-13.0-11.0-0.0","spark_pilot_2","7960","5","14","Male","","false","","","","","[616.6000000000931]","./assets/img/space/animals/cat.jpg","[""ArrowRight""]","practice block","space","0","{""ArrowUp,ArrowLeft"":3,""ArrowUp,ArrowRight"":36,""ArrowDown,ArrowLeft"":15,""ArrowDown,ArrowRight"":23}","true","ArrowUp,ArrowRight","","","","","","","","",""
"html-keyboard-response","98","528384","0.0-3.0-13.0-11.0-1.0","spark_pilot_2","7960","5","14","Male","","","","","","","null","<div style=""font-size:60px;"">+</div>","null","fixation","","","","","","","","","","","","","",""
"revaluation","99","528979","0.0-3.0-13.0-11.0-0.1","spark_pilot_2","7960","5","14","Male","","false","","","","","[590.5]","./assets/img/space/animals/rabbit.jpg","[""ArrowRight""]","practice block","space","0","{""ArrowUp,ArrowLeft"":3,""ArrowUp,ArrowRight"":36,""ArrowDown,ArrowLeft"":15,""ArrowDown,ArrowRight"":23}","true","ArrowDown,ArrowRight","","","","","","","","",""
"html-keyboard-response","100","529489","0.0-3.0-13.0-11.0-1.1","spark_pilot_2","7960","5","14","Male","","","","","","","null","<div style=""font-size:60px;"">+</div>","null","fixation","","","","","","","","","","","","","",""
"learning-instructions","101","535328","0.0-3.0-14.0-0.0","spark_pilot_2","7960","5","14","Male","","","","","","","1251.4000000000233","<p> Before you start, we're going to ask you a few questions about how the game works. </p>","","instructions","","","","","","","","","","","","","",""
"comp-q","102","542340","0.0-3.0-15.0-0.0-0.0","spark_pilot_2","7960","5","14","Male","","","","","","","1402.4000000000233","<p> <b> True or False? </b> </p>
            <p> There can be 50 pieces of treasure in a given animal's chest. </p>","1","comp_question","","","","true","","","","","","","","","",""
"comp-q","103","549880","0.0-3.0-15.0-0.0-1.0","spark_pilot_2","7960","5","14","Male","","","","","","","870.8000000000466","<p> <b> That's right! </b> The amount of treasure in each chest can range from 0 to 40 pieces. </p>","0","comp_answer","","","","","","","","","","","","","",""
"comp-q","104","557246","0.0-3.0-15.0-0.1-0.1","spark_pilot_2","7960","5","14","Male","","","","","","","225.59999999997672","<p> <b> True or False? </b> </p><p> In this game, all animals have the same amount of treasure in their left and right chests. </p>","1","comp_question","","","","true","","","","","","","","","",""
"comp-q","105","563840","0.0-3.0-15.0-0.1-1.1","spark_pilot_2","7960","5","14","Male","","","","","","","1347.1999999999534","<p> <b> That's right! </b> Animals have different amounts of treasure in their treasure chests. </p>","0","comp_answer","","","","","","","","","","","","","",""
"comp-q","106","569826","0.0-3.0-15.0-0.2-0.2","spark_pilot_2","7960","5","14","Male","","","","","","","123.19999999995343","<p> <b> True or False? </b> </p><p> The same animal will always be there if you go up in the same place. </p>","0","comp_question","","","","true","","","","","","","","","",""
"comp-q","107","577276","0.0-3.0-15.0-0.2-1.2","spark_pilot_2","7960","5","14","Male","","","","","","","992","<p> <b> That's right! </b> One animal lives in the upper part and one lives in the lower part of every place. </p>","0","comp_answer","","","","","","","","","","","","","",""
"comp-q","108","583368","0.0-3.0-15.0-0.3-0.3","spark_pilot_2","7960","5","14","Male","","","","","","","555.5","<p> <b> True or False? </b> </p><p> If you see a different picture, it means you are in a new place. </p>","1","comp_question","","","","true","","","","","","","","","",""
"comp-q","109","596790","0.0-3.0-15.0-0.3-1.3","spark_pilot_2","7960","5","14","Male","","","","","","","2169.9000000000233","<p> <b> That's right! </b> Lots of different images may show the same place. For example,  you may see three different images that all remind you that you are in outer space. </p>","0","comp_answer","","","","","","","","","","","","","",""
"learning-instructions","110","607776","0.0-3.0-16.0-0.0","spark_pilot_2","7960","5","14","Male","","","","","","","1113.2000000000698","<p> Good job. Remember to do your best because the amount of treasure you earn will be converted into bonus money. </p>
            <p> It’s time to start the real game! </p>","","instructions","","","","","","","","","","","","","",""
"learning-instructions","111","611616","0.0-4.0-0.0-0.0","spark_pilot_2","7960","5","14","Male","","","","","","","1070.0999999999767","<p> This time you are searching for treasure in the <b>canyon</b>.</p>","","instructions","","","","","","","","","","","","","",""
"learning-instructions","112","629342","0.0-4.0-0.0-0.1","spark_pilot_2","7960","5","14","Male","","","","","","","407","<p><b>New</b> animals with <b>new</b> treasure chests live here. You need to explore to discover where the animal with the best treasure chest is.</p>
                    <p> Like before, once you figure out which animal has the chest with the most treasure, you should try to get to that animal and select that chest! </p>","","instructions","","","","","","","","","","","","","",""
"learning-instructions","113","644922","0.0-4.0-1.0-0.0","spark_pilot_2","7960","5","14","Male","","","","","","","850.4000000000233","<p> Remember, when you see a picture of the place, use the up and down keys to <b>find an animal</b>.</p>
            <p> When you encounter an animal, you should use the left and right keys to <b>select a treasure chest</b>.</p>
            <p> Don't forget to look out for the robber! </p>","","instructions","","","","","","","","","","","","","",""
"revaluation","114","648937","0.0-4.0-2.0-0.0","spark_pilot_2","7960","5","14","Male","","false","","","","","[1333.6000000000931]","./assets/img/canyon/catch/5.jpg","[""spaceBar""]","value training","canyon","0","{""ArrowUp,ArrowLeft"":26,""ArrowUp,ArrowRight"":10,""ArrowDown,ArrowLeft"":5,""ArrowDown,ArrowRight"":17}","true","spaceBar","true","","","original","1","0","","",""
"html-keyboard-response","115","649448","0.0-4.0-2.0-1.0","spark_pilot_2","7960","5","14","Male","","","","","","","null","<div style=""font-size:60px;"">+</div>","null","fixation","","","","","","","","","","","1","","",""
"revaluation","116","655473","0.0-4.0-2.0-0.1","spark_pilot_2","7960","5","14","Male","","false","","","","","[1293.2999999999302,1956.1999999999534]","./assets/img/canyon/memory/27.jpg","[""ArrowUp"",""ArrowLeft""]","value training","canyon","26","{""ArrowUp,ArrowLeft"":26,""ArrowUp,ArrowRight"":10,""ArrowDown,ArrowLeft"":5,""ArrowDown,ArrowRight"":17}","true","ArrowUp,ArrowLeft","false","","","original","1","2","","",""
"html-keyboard-response","117","655976","0.0-4.0-2.0-1.1","spark_pilot_2","7960","5","14","Male","","","","","","","null","<div style=""font-size:60px;"">+</div>","null","fixation","","","","","","","","","","","3","","",""
"revaluation","118","662001","0.0-4.0-2.0-0.2","spark_pilot_2","7960","5","14","Male","","false","","","","","[791.5,474.19999999995343]","./assets/img/canyon/memory/33.jpg","[""ArrowUp"",""ArrowRight""]","value training","canyon","10","{""ArrowUp,ArrowLeft"":26,""ArrowUp,ArrowRight"":10,""ArrowDown,ArrowLeft"":5,""ArrowDown,ArrowRight"":17}","false","ArrowUp,ArrowRight","false","","","original","1","4","","",""
"html-keyboard-response","119","662504","0.0-4.0-2.0-1.2","spark_pilot_2","7960","5","14","Male","","","","","","","null","<div style=""font-size:60px;"">+</div>","null","fixation","","","","","","","","","","","5","","",""
"revaluation","120","668529","0.0-4.0-2.0-0.3","spark_pilot_2","7960","5","14","Male","","false","","","","","[503.20000000006985,474.29999999993015]","./assets/img/canyon/memory/16.jpg","[""ArrowDown"",""ArrowLeft""]","value training","canyon","5","{""ArrowUp,ArrowLeft"":26,""ArrowUp,ArrowRight"":10,""ArrowDown,ArrowLeft"":5,""ArrowDown,ArrowRight"":17}","false","ArrowDown,ArrowLeft","false","","","original","1","6","","",""
"html-keyboard-response","121","669032","0.0-4.0-2.0-1.3","spark_pilot_2","7960","5","14","Male","","","","","","","null","<div style=""font-size:60px;"">+</div>","null","fixation","","","","","","","","","","","7","","",""
"revaluation","122","675057","0.0-4.0-2.0-0.4","spark_pilot_2","7960","5","14","Male","","false","","","","","[306.5999999999767,310.5]","./assets/img/canyon/memory/34.jpg","[""ArrowDown"",""ArrowRight""]","value training","canyon","17","{""ArrowUp,ArrowLeft"":26,""ArrowUp,ArrowRight"":10,""ArrowDown,ArrowLeft"":5,""ArrowDown,ArrowRight"":17}","false","ArrowDown,ArrowRight","false","","","original","1","8","","",""
"html-keyboard-response","123","675560","0.0-4.0-2.0-1.4","spark_pilot_2","7960","5","14","Male","","","","","","","null","<div style=""font-size:60px;"">+</div>","null","fixation","","","","","","","","","","","9","","",""
"revaluation","124","681585","0.0-4.0-2.0-0.5","spark_pilot_2","7960","5","14","Male","","false","","","","","[303,228.59999999997672]","./assets/img/canyon/memory/38.jpg","[""ArrowUp"",""ArrowLeft""]","value training","canyon","26","{""ArrowUp,ArrowLeft"":26,""ArrowUp,ArrowRight"":10,""ArrowDown,ArrowLeft"":5,""ArrowDown,ArrowRight"":17}","true","ArrowUp,ArrowLeft","false","","","original","1","10","","",""
"html-keyboard-response","125","682088","0.0-4.0-2.0-1.5","spark_pilot_2","7960","5","14","Male","","","","","","","null","<div style=""font-size:60px;"">+</div>","null","fixation","","","","","","","","","","","11","","",""
"revaluation","126","686104","0.0-4.0-2.0-0.6","spark_pilot_2","7960","5","14","Male","","false","","","","","[252.29999999993015]","./assets/img/canyon/catch/2.jpg","[""ArrowUp""]","value training","canyon","-10","{""ArrowUp,ArrowLeft"":26,""ArrowUp,ArrowRight"":10,""ArrowDown,ArrowLeft"":5,""ArrowDown,ArrowRight"":17}","false","ArrowUp","true","","","original","1","12","","",""
"html-keyboard-response","127","686608","0.0-4.0-2.0-1.6","spark_pilot_2","7960","5","14","Male","","","","","","","null","<div style=""font-size:60px;"">+</div>","null","fixation","","","","","","","","","","","13","","",""
"revaluation","128","692633","0.0-4.0-2.0-0.7","spark_pilot_2","7960","5","14","Male","","false","","","","","[762.8999999999069,206.19999999995343]","./assets/img/canyon/memory/5.jpg","[""ArrowUp"",""ArrowLeft""]","value training","canyon","26","{""ArrowUp,ArrowLeft"":26,""ArrowUp,ArrowRight"":10,""ArrowDown,ArrowLeft"":5,""ArrowDown,ArrowRight"":17}","true","ArrowUp,ArrowLeft","false","","","original","1","14","","",""
"html-keyboard-response","129","693136","0.0-4.0-2.0-1.7","spark_pilot_2","7960","5","14","Male","","","","","","","null","<div style=""font-size:60px;"">+</div>","null","fixation","","","","","","","","","","","15","","",""
"revaluation","130","697152","0.0-4.0-2.0-0.8","spark_pilot_2","7960","5","14","Male","","false","","","","","[668.3999999999069]","./assets/img/canyon/catch/3.jpg","[""spaceBar""]","value training","canyon","0","{""ArrowUp,ArrowLeft"":26,""ArrowUp,ArrowRight"":10,""ArrowDown,ArrowLeft"":5,""ArrowDown,ArrowRight"":17}","true","spaceBar","true","","","original","1","16","","",""
"html-keyboard-response","131","697656","0.0-4.0-2.0-1.8","spark_pilot_2","7960","5","14","Male","","","","","","","null","<div style=""font-size:60px;"">+</div>","null","fixation","","","","","","","","","","","17","","",""
"revaluation","132","703681","0.0-4.0-2.0-0.9","spark_pilot_2","7960","5","14","Male","","false","","","","","[744.0999999999767,290.5]","./assets/img/canyon/memory/30.jpg","[""ArrowUp"",""ArrowLeft""]","value training","canyon","26","{""ArrowUp,ArrowLeft"":26,""ArrowUp,ArrowRight"":10,""ArrowDown,ArrowLeft"":5,""ArrowDown,ArrowRight"":17}","true","ArrowUp,ArrowLeft","false","","","original","1","18","","",""
"html-keyboard-response","133","704184","0.0-4.0-2.0-1.9","spark_pilot_2","7960","5","14","Male","","","","","","","null","<div style=""font-size:60px;"">+</div>","null","fixation","","","","","","","","","","","19","","",""
"revaluation","134","710208","0.0-4.0-2.0-0.10","spark_pilot_2","7960","5","14","Male","","false","","","","","[534.6999999999534,233.79999999993015]","./assets/img/canyon/memory/20.jpg","[""ArrowUp"",""ArrowLeft""]","value training","canyon","26","{""ArrowUp,ArrowLeft"":26,""ArrowUp,ArrowRight"":10,""ArrowDown,ArrowLeft"":5,""ArrowDown,ArrowRight"":17}","true","ArrowUp,ArrowLeft","false","","","original","1","20","","",""
"html-keyboard-response","135","710712","0.0-4.0-2.0-1.10","spark_pilot_2","7960","5","14","Male","","","","","","","null","<div style=""font-size:60px;"">+</div>","null","fixation","","","","","","","","","","","21","","",""
"revaluation","136","716736","0.0-4.0-2.0-0.11","spark_pilot_2","7960","5","14","Male","","false","","","","","[596.8000000000466,965.2999999999302]","./assets/img/canyon/memory/15.jpg","[""ArrowUp"",""ArrowLeft""]","value training","canyon","26","{""ArrowUp,ArrowLeft"":26,""ArrowUp,ArrowRight"":10,""ArrowDown,ArrowLeft"":5,""ArrowDown,ArrowRight"":17}","true","ArrowUp,ArrowLeft","false","","","original","1","22","","",""
"html-keyboard-response","137","717240","0.0-4.0-2.0-1.11","spark_pilot_2","7960","5","14","Male","","","","","","","null","<div style=""font-size:60px;"">+</div>","null","fixation","","","","","","","","","","","23","","",""
"revaluation","138","723265","0.0-4.0-2.0-0.12","spark_pilot_2","7960","5","14","Male","","false","","","","","[1267.7999999999302,596.4000000000233]","./assets/img/canyon/memory/22.jpg","[""ArrowUp"",""ArrowLeft""]","value training","canyon","26","{""ArrowUp,ArrowLeft"":26,""ArrowUp,ArrowRight"":10,""ArrowDown,ArrowLeft"":5,""ArrowDown,ArrowRight"":17}","true","ArrowUp,ArrowLeft","false","","","original","1","24","","",""
"html-keyboard-response","139","723768","0.0-4.0-2.0-1.12","spark_pilot_2","7960","5","14","Male","","","","","","","null","<div style=""font-size:60px;"">+</div>","null","fixation","","","","","","","","","","","25","","",""
"revaluation","140","729792","0.0-4.0-2.0-0.13","spark_pilot_2","7960","5","14","Male","","false","","","","","[1308,484.5]","./assets/img/canyon/memory/22.jpg","[""ArrowUp"",""ArrowLeft""]","value training","canyon","26","{""ArrowUp,ArrowLeft"":26,""ArrowUp,ArrowRight"":10,""ArrowDown,ArrowLeft"":5,""ArrowDown,ArrowRight"":17}","true","ArrowUp,ArrowLeft","false","","","original","1","26","","",""
"html-keyboard-response","141","730296","0.0-4.0-2.0-1.13","spark_pilot_2","7960","5","14","Male","","","","","","","null","<div style=""font-size:60px;"">+</div>","null","fixation","","","","","","","","","","","27","","",""
"revaluation","142","736321","0.0-4.0-2.0-0.14","spark_pilot_2","7960","5","14","Male","","false","","","","","[956.3000000000466,279.19999999995343]","./assets/img/canyon/memory/7.jpg","[""ArrowUp"",""ArrowLeft""]","value training","canyon","26","{""ArrowUp,ArrowLeft"":26,""ArrowUp,ArrowRight"":10,""ArrowDown,ArrowLeft"":5,""ArrowDown,ArrowRight"":17}","true","ArrowUp,ArrowLeft","false","","","original","1","28","","",""
"html-keyboard-response","143","736824","0.0-4.0-2.0-1.14","spark_pilot_2","7960","5","14","Male","","","","","","","null","<div style=""font-size:60px;"">+</div>","null","fixation","","","","","","","","","","","29","","",""
"revaluation","144","742848","0.0-4.0-2.0-0.15","spark_pilot_2","7960","5","14","Male","","false","","","","","[718.4000000000233,238.59999999997672]","./assets/img/canyon/memory/35.jpg","[""ArrowUp"",""ArrowLeft""]","value training","canyon","26","{""ArrowUp,ArrowLeft"":26,""ArrowUp,ArrowRight"":10,""ArrowDown,ArrowLeft"":5,""ArrowDown,ArrowRight"":17}","true","ArrowUp,ArrowLeft","false","","","original","1","30","","",""
"html-keyboard-response","145","743352","0.0-4.0-2.0-1.15","spark_pilot_2","7960","5","14","Male","","","","","","","null","<div style=""font-size:60px;"">+</div>","null","fixation","","","","","","","","","","","31","","",""
"revaluation","146","749376","0.0-4.0-2.0-0.16","spark_pilot_2","7960","5","14","Male","","false","","","","","[1197.6999999999534,764.5999999999767]","./assets/img/canyon/memory/11.jpg","[""ArrowUp"",""ArrowLeft""]","value training","canyon","26","{""ArrowUp,ArrowLeft"":26,""ArrowUp,ArrowRight"":10,""ArrowDown,ArrowLeft"":5,""ArrowDown,ArrowRight"":17}","true","ArrowUp,ArrowLeft","false","","","original","1","32","","",""
"html-keyboard-response","147","749880","0.0-4.0-2.0-1.16","spark_pilot_2","7960","5","14","Male","","","","","","","null","<div style=""font-size:60px;"">+</div>","null","fixation","","","","","","","","","","","33","","",""
"revaluation","148","753896","0.0-4.0-2.0-0.17","spark_pilot_2","7960","5","14","Male","","false","","","","","[570.4000000000233]","./assets/img/canyon/catch/6.jpg","[""spaceBar""]","value training","canyon","0","{""ArrowUp,ArrowLeft"":26,""ArrowUp,ArrowRight"":10,""ArrowDown,ArrowLeft"":5,""ArrowDown,ArrowRight"":17}","true","spaceBar","true","","","original","1","34","","",""
"html-keyboard-response","149","754400","0.0-4.0-2.0-1.17","spark_pilot_2","7960","5","14","Male","","","","","","","null","<div style=""font-size:60px;"">+</div>","null","fixation","","","","","","","","","","","35","","",""
"revaluation","150","760425","0.0-4.0-2.0-0.18","spark_pilot_2","7960","5","14","Male","","false","","","","","[933.0999999999767,240]","./assets/img/canyon/memory/38.jpg","[""ArrowUp"",""ArrowLeft""]","value training","canyon","26","{""ArrowUp,ArrowLeft"":26,""ArrowUp,ArrowRight"":10,""ArrowDown,ArrowLeft"":5,""ArrowDown,ArrowRight"":17}","true","ArrowUp,ArrowLeft","false","","","original","1","36","","",""
"html-keyboard-response","151","760928","0.0-4.0-2.0-1.18","spark_pilot_2","7960","5","14","Male","","","","","","","null","<div style=""font-size:60px;"">+</div>","null","fixation","","","","","","","","","","","37","","",""
"revaluation","152","766952","0.0-4.0-2.0-0.19","spark_pilot_2","7960","5","14","Male","","false","","","","","[721.2999999999302,651.1999999999534]","./assets/img/canyon/memory/2.jpg","[""ArrowUp"",""ArrowLeft""]","value training","canyon","26","{""ArrowUp,ArrowLeft"":26,""ArrowUp,ArrowRight"":10,""ArrowDown,ArrowLeft"":5,""ArrowDown,ArrowRight"":17}","true","ArrowUp,ArrowLeft","false","","","original","1","38","","",""
"html-keyboard-response","153","767456","0.0-4.0-2.0-1.19","spark_pilot_2","7960","5","14","Male","","","","","","","null","<div style=""font-size:60px;"">+</div>","null","fixation","","","","","","","","","","","39","","",""
"revaluation","154","771472","0.0-4.0-2.0-0.20","spark_pilot_2","7960","5","14","Male","","false","","","","","[930.7000000000698]","./assets/img/canyon/catch/1.jpg","[""spaceBar""]","value training","canyon","0","{""ArrowUp,ArrowLeft"":26,""ArrowUp,ArrowRight"":10,""ArrowDown,ArrowLeft"":5,""ArrowDown,ArrowRight"":17}","true","spaceBar","true","","","original","1","40","","",""
"html-keyboard-response","155","771976","0.0-4.0-2.0-1.20","spark_pilot_2","7960","5","14","Male","","","","","","","null","<div style=""font-size:60px;"">+</div>","null","fixation","","","","","","","","","","","41","","",""
"revaluation","156","778000","0.0-4.0-2.0-0.21","spark_pilot_2","7960","5","14","Male","","false","","","","","[785.0999999999767,260.79999999993015]","./assets/img/canyon/memory/17.jpg","[""ArrowUp"",""ArrowLeft""]","value training","canyon","26","{""ArrowUp,ArrowLeft"":26,""ArrowUp,ArrowRight"":10,""ArrowDown,ArrowLeft"":5,""ArrowDown,ArrowRight"":17}","true","ArrowUp,ArrowLeft","false","","","original","1","42","","",""
"html-keyboard-response","157","778504","0.0-4.0-2.0-1.21","spark_pilot_2","7960","5","14","Male","","","","","","","null","<div style=""font-size:60px;"">+</div>","null","fixation","","","","","","","","","","","43","","",""
"revaluation","158","784528","0.0-4.0-2.0-0.22","spark_pilot_2","7960","5","14","Male","","false","","","","","[1017.5,319.5]","./assets/img/canyon/memory/32.jpg","[""ArrowUp"",""ArrowLeft""]","value training","canyon","26","{""ArrowUp,ArrowLeft"":26,""ArrowUp,ArrowRight"":10,""ArrowDown,ArrowLeft"":5,""ArrowDown,ArrowRight"":17}","true","ArrowUp,ArrowLeft","false","","","original","1","44","","",""
"html-keyboard-response","159","785032","0.0-4.0-2.0-1.22","spark_pilot_2","7960","5","14","Male","","","","","","","null","<div style=""font-size:60px;"">+</div>","null","fixation","","","","","","","","","","","45","","",""
"revaluation","160","791056","0.0-4.0-2.0-0.23","spark_pilot_2","7960","5","14","Male","","false","","","","","[968.5999999999767,274.39999999990687]","./assets/img/canyon/memory/28.jpg","[""ArrowUp"",""ArrowLeft""]","value training","canyon","26","{""ArrowUp,ArrowLeft"":26,""ArrowUp,ArrowRight"":10,""ArrowDown,ArrowLeft"":5,""ArrowDown,ArrowRight"":17}","true","ArrowUp,ArrowLeft","false","","","original","1","46","","",""
"html-keyboard-response","161","791560","0.0-4.0-2.0-1.23","spark_pilot_2","7960","5","14","Male","","","","","","","null","<div style=""font-size:60px;"">+</div>","null","fixation","","","","","","","","","","","47","","",""
"revaluation","162","797585","0.0-4.0-2.0-0.24","spark_pilot_2","7960","5","14","Male","","false","","","","","[308.10000000009313,303.69999999995343]","./assets/img/canyon/memory/4.jpg","[""ArrowUp"",""ArrowLeft""]","value training","canyon","26","{""ArrowUp,ArrowLeft"":26,""ArrowUp,ArrowRight"":10,""ArrowDown,ArrowLeft"":5,""ArrowDown,ArrowRight"":17}","true","ArrowUp,ArrowLeft","false","","","original","1","48","","",""
"html-keyboard-response","163","798088","0.0-4.0-2.0-1.24","spark_pilot_2","7960","5","14","Male","","","","","","","null","<div style=""font-size:60px;"">+</div>","null","fixation","","","","","","","","","","","49","","",""
"revaluation","164","804113","0.0-4.0-2.0-0.25","spark_pilot_2","7960","5","14","Male","","false","","","","","[525.3999999999069,563.1999999999534]","./assets/img/canyon/memory/24.jpg","[""ArrowUp"",""ArrowLeft""]","value training","canyon","26","{""ArrowUp,ArrowLeft"":26,""ArrowUp,ArrowRight"":10,""ArrowDown,ArrowLeft"":5,""ArrowDown,ArrowRight"":17}","true","ArrowUp,ArrowLeft","false","","","original","1","50","","",""
"html-keyboard-response","165","804616","0.0-4.0-2.0-1.25","spark_pilot_2","7960","5","14","Male","","","","","","","null","<div style=""font-size:60px;"">+</div>","null","fixation","","","","","","","","","","","51","","",""
"revaluation","166","810640","0.0-4.0-2.0-0.26","spark_pilot_2","7960","5","14","Male","","false","","","","","[794.5,117.29999999993015]","./assets/img/canyon/memory/15.jpg","[""ArrowUp"",""ArrowLeft""]","value training","canyon","26","{""ArrowUp,ArrowLeft"":26,""ArrowUp,ArrowRight"":10,""ArrowDown,ArrowLeft"":5,""ArrowDown,ArrowRight"":17}","true","ArrowUp,ArrowLeft","false","","","original","1","52","","",""
"html-keyboard-response","167","811144","0.0-4.0-2.0-1.26","spark_pilot_2","7960","5","14","Male","","","","","","","null","<div style=""font-size:60px;"">+</div>","null","fixation","","","","","","","","","","","53","","",""
"revaluation","168","817169","0.0-4.0-2.0-0.27","spark_pilot_2","7960","5","14","Male","","false","","","","","[846.3999999999069,324.80000000004657]","./assets/img/canyon/memory/17.jpg","[""ArrowUp"",""ArrowLeft""]","value training","canyon","26","{""ArrowUp,ArrowLeft"":26,""ArrowUp,ArrowRight"":10,""ArrowDown,ArrowLeft"":5,""ArrowDown,ArrowRight"":17}","true","ArrowUp,ArrowLeft","false","","","original","1","54","","",""
"html-keyboard-response","169","817672","0.0-4.0-2.0-1.27","spark_pilot_2","7960","5","14","Male","","","","","","","null","<div style=""font-size:60px;"">+</div>","null","fixation","","","","","","","","","","","55","","",""
"revaluation","170","823697","0.0-4.0-2.0-0.28","spark_pilot_2","7960","5","14","Male","","false","","","","","[517.7000000000698,286.89999999990687]","./assets/img/canyon/memory/41.jpg","[""ArrowUp"",""ArrowLeft""]","value training","canyon","26","{""ArrowUp,ArrowLeft"":26,""ArrowUp,ArrowRight"":10,""ArrowDown,ArrowLeft"":5,""ArrowDown,ArrowRight"":17}","true","ArrowUp,ArrowLeft","false","","","original","1","56","","",""
"html-keyboard-response","171","824200","0.0-4.0-2.0-1.28","spark_pilot_2","7960","5","14","Male","","","","","","","null","<div style=""font-size:60px;"">+</div>","null","fixation","","","","","","","","","","","57","","",""
"revaluation","172","830227","0.0-4.0-2.0-0.29","spark_pilot_2","7960","5","14","Male","","true","","","","","[427.9000000000233]","./assets/img/canyon/memory/35.jpg","[""ArrowUp""]","value training","canyon","-5","{""ArrowUp,ArrowLeft"":26,""ArrowUp,ArrowRight"":10,""ArrowDown,ArrowLeft"":5,""ArrowDown,ArrowRight"":17}","false","ArrowUp","false","","","original","1","58","","",""
"html-keyboard-response","173","830736","0.0-4.0-2.0-1.29","spark_pilot_2","7960","5","14","Male","","","","","","","null","<div style=""font-size:60px;"">+</div>","null","fixation","","","","","","","","","","","59","","",""
"revaluation","174","836761","0.0-4.0-2.0-0.30","spark_pilot_2","7960","5","14","Male","","false","","","","","[650.7999999999302,285.9000000000233]","./assets/img/canyon/memory/5.jpg","[""ArrowUp"",""ArrowLeft""]","value training","canyon","26","{""ArrowUp,ArrowLeft"":26,""ArrowUp,ArrowRight"":10,""ArrowDown,ArrowLeft"":5,""ArrowDown,ArrowRight"":17}","true","ArrowUp,ArrowLeft","false","","","original","1","60","","",""
"html-keyboard-response","175","837264","0.0-4.0-2.0-1.30","spark_pilot_2","7960","5","14","Male","","","","","","","null","<div style=""font-size:60px;"">+</div>","null","fixation","","","","","","","","","","","61","","",""
"revaluation","176","843289","0.0-4.0-2.0-0.31","spark_pilot_2","7960","5","14","Male","","false","","","","","[757.8000000000466,295.4000000000233]","./assets/img/canyon/memory/24.jpg","[""ArrowUp"",""ArrowLeft""]","value training","canyon","26","{""ArrowUp,ArrowLeft"":26,""ArrowUp,ArrowRight"":10,""ArrowDown,ArrowLeft"":5,""ArrowDown,ArrowRight"":17}","true","ArrowUp,ArrowLeft","false","","","original","1","62","","",""
"html-keyboard-response","177","843792","0.0-4.0-2.0-1.31","spark_pilot_2","7960","5","14","Male","","","","","","","null","<div style=""font-size:60px;"">+</div>","null","fixation","","","","","","","","","","","63","","",""
"revaluation","178","849817","0.0-4.0-2.0-0.32","spark_pilot_2","7960","5","14","Male","","false","","","","","[511.30000000004657,281.0999999999767]","./assets/img/canyon/memory/34.jpg","[""ArrowUp"",""ArrowLeft""]","value training","canyon","26","{""ArrowUp,ArrowLeft"":26,""ArrowUp,ArrowRight"":10,""ArrowDown,ArrowLeft"":5,""ArrowDown,ArrowRight"":17}","true","ArrowUp,ArrowLeft","false","","","original","1","64","","",""
"html-keyboard-response","179","850320","0.0-4.0-2.0-1.32","spark_pilot_2","7960","5","14","Male","","","","","","","null","<div style=""font-size:60px;"">+</div>","null","fixation","","","","","","","","","","","65","","",""
"revaluation","180","856345","0.0-4.0-2.0-0.33","spark_pilot_2","7960","5","14","Male","","false","","","","","[651.1999999999534,129.10000000009313]","./assets/img/canyon/memory/33.jpg","[""ArrowUp"",""ArrowLeft""]","value training","canyon","26","{""ArrowUp,ArrowLeft"":26,""ArrowUp,ArrowRight"":10,""ArrowDown,ArrowLeft"":5,""ArrowDown,ArrowRight"":17}","true","ArrowUp,ArrowLeft","false","","","original","1","66","","",""
"html-keyboard-response","181","856848","0.0-4.0-2.0-1.33","spark_pilot_2","7960","5","14","Male","","","","","","","null","<div style=""font-size:60px;"">+</div>","null","fixation","","","","","","","","","","","67","","",""
"revaluation","182","860864","0.0-4.0-2.0-0.34","spark_pilot_2","7960","5","14","Male","","false","","","","","[535.5]","./assets/img/canyon/catch/0.jpg","[""spaceBar""]","value training","canyon","0","{""ArrowUp,ArrowLeft"":26,""ArrowUp,ArrowRight"":10,""ArrowDown,ArrowLeft"":5,""ArrowDown,ArrowRight"":17}","true","spaceBar","true","","","original","1","68","","",""
"html-keyboard-response","183","861368","0.0-4.0-2.0-1.34","spark_pilot_2","7960","5","14","Male","","","","","","","null","<div style=""font-size:60px;"">+</div>","null","fixation","","","","","","","","","","","69","","",""
"revaluation","184","867392","0.0-4.0-2.0-0.35","spark_pilot_2","7960","5","14","Male","","false","","","","","[624.2000000000698,363.9000000000233]","./assets/img/canyon/memory/3.jpg","[""ArrowUp"",""ArrowLeft""]","value training","canyon","26","{""ArrowUp,ArrowLeft"":26,""ArrowUp,ArrowRight"":10,""ArrowDown,ArrowLeft"":5,""ArrowDown,ArrowRight"":17}","true","ArrowUp,ArrowLeft","false","","","original","1","70","","",""
"html-keyboard-response","185","867896","0.0-4.0-2.0-1.35","spark_pilot_2","7960","5","14","Male","","","","","","","null","<div style=""font-size:60px;"">+</div>","null","fixation","","","","","","","","","","","71","","",""
"revaluation","186","873920","0.0-4.0-2.0-0.36","spark_pilot_2","7960","5","14","Male","","false","","","","","[461,306]","./assets/img/canyon/memory/3.jpg","[""ArrowUp"",""ArrowLeft""]","value training","canyon","26","{""ArrowUp,ArrowLeft"":26,""ArrowUp,ArrowRight"":10,""ArrowDown,ArrowLeft"":5,""ArrowDown,ArrowRight"":17}","true","ArrowUp,ArrowLeft","false","","","original","1","72","","",""
"html-keyboard-response","187","874424","0.0-4.0-2.0-1.36","spark_pilot_2","7960","5","14","Male","","","","","","","null","<div style=""font-size:60px;"">+</div>","null","fixation","","","","","","","","","","","73","","",""
"revaluation","188","878441","0.0-4.0-2.0-0.37","spark_pilot_2","7960","5","14","Male","","false","","","","","[666.8999999999069]","./assets/img/canyon/catch/4.jpg","[""spaceBar""]","value training","canyon","0","{""ArrowUp,ArrowLeft"":26,""ArrowUp,ArrowRight"":10,""ArrowDown,ArrowLeft"":5,""ArrowDown,ArrowRight"":17}","true","spaceBar","true","","","original","1","74","","",""
"html-keyboard-response","189","878944","0.0-4.0-2.0-1.37","spark_pilot_2","7960","5","14","Male","","","","","","","null","<div style=""font-size:60px;"">+</div>","null","fixation","","","","","","","","","","","75","","",""
"revaluation","190","884968","0.0-4.0-2.0-0.38","spark_pilot_2","7960","5","14","Male","","false","","","","","[1127.5999999999767,353.5999999999767]","./assets/img/canyon/memory/32.jpg","[""ArrowUp"",""ArrowLeft""]","value training","canyon","26","{""ArrowUp,ArrowLeft"":26,""ArrowUp,ArrowRight"":10,""ArrowDown,ArrowLeft"":5,""ArrowDown,ArrowRight"":17}","true","ArrowUp,ArrowLeft","false","","","original","1","76","","",""
"html-keyboard-response","191","885472","0.0-4.0-2.0-1.38","spark_pilot_2","7960","5","14","Male","","","","","","","null","<div style=""font-size:60px;"">+</div>","null","fixation","","","","","","","","","","","77","","",""
"revaluation","192","891496","0.0-4.0-2.0-0.39","spark_pilot_2","7960","5","14","Male","","false","","","","","[803,337.69999999995343]","./assets/img/canyon/memory/30.jpg","[""ArrowUp"",""ArrowLeft""]","value training","canyon","26","{""ArrowUp,ArrowLeft"":26,""ArrowUp,ArrowRight"":10,""ArrowDown,ArrowLeft"":5,""ArrowDown,ArrowRight"":17}","true","ArrowUp,ArrowLeft","false","","","original","1","78","","",""
"html-keyboard-response","193","892000","0.0-4.0-2.0-1.39","spark_pilot_2","7960","5","14","Male","","","","","","","null","<div style=""font-size:60px;"">+</div>","null","fixation","","","","","","","","","","","79","","",""
"revaluation","194","898024","0.0-4.0-2.0-0.40","spark_pilot_2","7960","5","14","Male","","false","","","","","[505.29999999993015,282.39999999990687]","./assets/img/canyon/memory/2.jpg","[""ArrowUp"",""ArrowLeft""]","value training","canyon","26","{""ArrowUp,ArrowLeft"":26,""ArrowUp,ArrowRight"":10,""ArrowDown,ArrowLeft"":5,""ArrowDown,ArrowRight"":17}","true","ArrowUp,ArrowLeft","false","","","original","1","80","","",""
"html-keyboard-response","195","898528","0.0-4.0-2.0-1.40","spark_pilot_2","7960","5","14","Male","","","","","","","null","<div style=""font-size:60px;"">+</div>","null","fixation","","","","","","","","","","","81","","",""
"revaluation","196","904552","0.0-4.0-2.0-0.41","spark_pilot_2","7960","5","14","Male","","false","","","","","[603,331.39999999990687]","./assets/img/canyon/memory/41.jpg","[""ArrowUp"",""ArrowLeft""]","value training","canyon","26","{""ArrowUp,ArrowLeft"":26,""ArrowUp,ArrowRight"":10,""ArrowDown,ArrowLeft"":5,""ArrowDown,ArrowRight"":17}","true","ArrowUp,ArrowLeft","false","","","original","1","82","","",""
"html-keyboard-response","197","905056","0.0-4.0-2.0-1.41","spark_pilot_2","7960","5","14","Male","","","","","","","null","<div style=""font-size:60px;"">+</div>","null","fixation","","","","","","","","","","","83","","",""
"revaluation","198","911080","0.0-4.0-2.0-0.42","spark_pilot_2","7960","5","14","Male","","false","","","","","[468,1272.4000000000233]","./assets/img/canyon/memory/11.jpg","[""ArrowUp"",""ArrowLeft""]","value training","canyon","26","{""ArrowUp,ArrowLeft"":26,""ArrowUp,ArrowRight"":10,""ArrowDown,ArrowLeft"":5,""ArrowDown,ArrowRight"":17}","true","ArrowUp,ArrowLeft","false","","","original","1","84","","",""
"html-keyboard-response","199","911584","0.0-4.0-2.0-1.42","spark_pilot_2","7960","5","14","Male","","","","","","","null","<div style=""font-size:60px;"">+</div>","null","fixation","","","","","","","","","","","85","","",""
"revaluation","200","917609","0.0-4.0-2.0-0.43","spark_pilot_2","7960","5","14","Male","","false","","","","","[501.69999999995343,297.69999999995343]","./assets/img/canyon/memory/16.jpg","[""ArrowUp"",""ArrowLeft""]","value training","canyon","26","{""ArrowUp,ArrowLeft"":26,""ArrowUp,ArrowRight"":10,""ArrowDown,ArrowLeft"":5,""ArrowDown,ArrowRight"":17}","true","ArrowUp,ArrowLeft","false","","","original","1","86","","",""
"html-keyboard-response","201","918112","0.0-4.0-2.0-1.43","spark_pilot_2","7960","5","14","Male","","","","","","","null","<div style=""font-size:60px;"">+</div>","null","fixation","","","","","","","","","","","87","","",""
"revaluation","202","924137","0.0-4.0-2.0-0.44","spark_pilot_2","7960","5","14","Male","","false","","","","","[413.60000000009313,215]","./assets/img/canyon/memory/28.jpg","[""ArrowUp"",""ArrowLeft""]","value training","canyon","26","{""ArrowUp,ArrowLeft"":26,""ArrowUp,ArrowRight"":10,""ArrowDown,ArrowLeft"":5,""ArrowDown,ArrowRight"":17}","true","ArrowUp,ArrowLeft","false","","","original","1","88","","",""
"html-keyboard-response","203","924640","0.0-4.0-2.0-1.44","spark_pilot_2","7960","5","14","Male","","","","","","","null","<div style=""font-size:60px;"">+</div>","null","fixation","","","","","","","","","","","89","","",""
"revaluation","204","930664","0.0-4.0-2.0-0.45","spark_pilot_2","7960","5","14","Male","","false","","","","","[591.3000000000466,240.39999999990687]","./assets/img/canyon/memory/4.jpg","[""ArrowUp"",""ArrowLeft""]","value training","canyon","26","{""ArrowUp,ArrowLeft"":26,""ArrowUp,ArrowRight"":10,""ArrowDown,ArrowLeft"":5,""ArrowDown,ArrowRight"":17}","true","ArrowUp,ArrowLeft","false","","","original","1","90","","",""
"html-keyboard-response","205","931168","0.0-4.0-2.0-1.45","spark_pilot_2","7960","5","14","Male","","","","","","","null","<div style=""font-size:60px;"">+</div>","null","fixation","","","","","","","","","","","91","","",""
"revaluation","206","937192","0.0-4.0-2.0-0.46","spark_pilot_2","7960","5","14","Male","","false","","","","","[362.60000000009313,238.5]","./assets/img/canyon/memory/7.jpg","[""ArrowUp"",""ArrowLeft""]","value training","canyon","26","{""ArrowUp,ArrowLeft"":26,""ArrowUp,ArrowRight"":10,""ArrowDown,ArrowLeft"":5,""ArrowDown,ArrowRight"":17}","true","ArrowUp,ArrowLeft","false","","","original","1","92","","",""
"html-keyboard-response","207","937696","0.0-4.0-2.0-1.46","spark_pilot_2","7960","5","14","Male","","","","","","","null","<div style=""font-size:60px;"">+</div>","null","fixation","","","","","","","","","","","93","","",""
"revaluation","208","941713","0.0-4.0-2.0-0.47","spark_pilot_2","7960","5","14","Male","","false","","","","","[983.1000000000931]","./assets/img/canyon/catch/7.jpg","[""spaceBar""]","value training","canyon","0","{""ArrowUp,ArrowLeft"":26,""ArrowUp,ArrowRight"":10,""ArrowDown,ArrowLeft"":5,""ArrowDown,ArrowRight"":17}","true","spaceBar","true","","","original","1","94","","",""
"html-keyboard-response","209","942216","0.0-4.0-2.0-1.47","spark_pilot_2","7960","5","14","Male","","","","","","","null","<div style=""font-size:60px;"">+</div>","null","fixation","","","","","","","","","","","95","","",""
"revaluation","210","948240","0.0-4.0-2.0-0.48","spark_pilot_2","7960","5","14","Male","","false","","","","","[484.4000000001397,90.89999999990687]","./assets/img/canyon/memory/27.jpg","[""ArrowUp"",""ArrowLeft""]","value training","canyon","26","{""ArrowUp,ArrowLeft"":26,""ArrowUp,ArrowRight"":10,""ArrowDown,ArrowLeft"":5,""ArrowDown,ArrowRight"":17}","true","ArrowUp,ArrowLeft","false","","","original","1","96","","",""
"html-keyboard-response","211","948744","0.0-4.0-2.0-1.48","spark_pilot_2","7960","5","14","Male","","","","","","","null","<div style=""font-size:60px;"">+</div>","null","fixation","","","","","","","","","","","97","","",""
"revaluation","212","954769","0.0-4.0-2.0-0.49","spark_pilot_2","7960","5","14","Male","","false","","","","","[576.7999999998137,218.5]","./assets/img/canyon/memory/20.jpg","[""ArrowUp"",""ArrowLeft""]","value training","canyon","26","{""ArrowUp,ArrowLeft"":26,""ArrowUp,ArrowRight"":10,""ArrowDown,ArrowLeft"":5,""ArrowDown,ArrowRight"":17}","true","ArrowUp,ArrowLeft","false","","","original","1","98","","",""
"html-keyboard-response","213","955272","0.0-4.0-2.0-1.49","spark_pilot_2","7960","5","14","Male","","","","","","","null","<div style=""font-size:60px;"">+</div>","null","fixation","","","","","","","","","","","99","","",""
"learning-instructions","214","970778","0.0-4.0-3.0-0.0","spark_pilot_2","7960","5","14","Male","","","","","","","2530.9000000001397","<p> Now, you will travel with a friend who will choose whether you go up or down first. </p>
            <p> On these turns, you will just see the animal that they found. You will still get to choose which chest to search for treasure.</p>","","instructions","","","","","","","","","","","","","",""
"revaluation","215","974792","0.0-4.0-4.0-0.0","spark_pilot_2","7960","5","14","Male","","false","","","","","[1180.1000000000931]","./assets/img/canyon/animals/giraffe.jpg","[""ArrowLeft""]","revaluation","canyon","5","{""ArrowUp,ArrowLeft"":26,""ArrowUp,ArrowRight"":10,""ArrowDown,ArrowLeft"":5,""ArrowDown,ArrowRight"":17}","false","ArrowDown,ArrowLeft","","","","original","1","0","","",""
"html-keyboard-response","216","975304","0.0-4.0-4.0-1.0","spark_pilot_2","7960","5","14","Male","","","","","","","null","<div style=""font-size:60px;"">+</div>","null","fixation","","","","","","","","","","","1","","",""
"revaluation","217","979321","0.0-4.0-4.0-0.1","spark_pilot_2","7960","5","14","Male","","false","","","","","[799.1999999999534]","./assets/img/canyon/animals/lion.jpg","[""ArrowLeft""]","revaluation","canyon","26","{""ArrowUp,ArrowLeft"":26,""ArrowUp,ArrowRight"":10,""ArrowDown,ArrowLeft"":5,""ArrowDown,ArrowRight"":17}","true","ArrowUp,ArrowLeft","","","","original","1","2","","",""
"html-keyboard-response","218","979824","0.0-4.0-4.0-1.1","spark_pilot_2","7960","5","14","Male","","","","","","","null","<div style=""font-size:60px;"">+</div>","null","fixation","","","","","","","","","","","3","","",""
"revaluation","219","983841","0.0-4.0-4.0-0.2","spark_pilot_2","7960","5","14","Male","","false","","","","","[519.8999999999069]","./assets/img/canyon/animals/lion.jpg","[""ArrowLeft""]","revaluation","canyon","26","{""ArrowUp,ArrowLeft"":26,""ArrowUp,ArrowRight"":10,""ArrowDown,ArrowLeft"":5,""ArrowDown,ArrowRight"":17}","true","ArrowUp,ArrowLeft","","","","original","1","4","","",""
"html-keyboard-response","220","984344","0.0-4.0-4.0-1.2","spark_pilot_2","7960","5","14","Male","","","","","","","null","<div style=""font-size:60px;"">+</div>","null","fixation","","","","","","","","","","","5","","",""
"revaluation","221","988361","0.0-4.0-4.0-0.3","spark_pilot_2","7960","5","14","Male","","false","","","","","[554]","./assets/img/canyon/animals/lion.jpg","[""ArrowLeft""]","revaluation","canyon","26","{""ArrowUp,ArrowLeft"":26,""ArrowUp,ArrowRight"":10,""ArrowDown,ArrowLeft"":5,""ArrowDown,ArrowRight"":17}","true","ArrowUp,ArrowLeft","","","","original","1","6","","",""
"html-keyboard-response","222","988864","0.0-4.0-4.0-1.3","spark_pilot_2","7960","5","14","Male","","","","","","","null","<div style=""font-size:60px;"">+</div>","null","fixation","","","","","","","","","","","7","","",""
"revaluation","223","992881","0.0-4.0-4.0-0.4","spark_pilot_2","7960","5","14","Male","","false","","","","","[576]","./assets/img/canyon/animals/giraffe.jpg","[""ArrowRight""]","revaluation","canyon","17","{""ArrowUp,ArrowLeft"":26,""ArrowUp,ArrowRight"":10,""ArrowDown,ArrowLeft"":5,""ArrowDown,ArrowRight"":17}","true","ArrowDown,ArrowRight","","","","original","1","8","","",""
"html-keyboard-response","224","993384","0.0-4.0-4.0-1.4","spark_pilot_2","7960","5","14","Male","","","","","","","null","<div style=""font-size:60px;"">+</div>","null","fixation","","","","","","","","","","","9","","",""
"revaluation","225","997401","0.0-4.0-4.0-0.5","spark_pilot_2","7960","5","14","Male","","false","","","","","[578.5]","./assets/img/canyon/animals/giraffe.jpg","[""ArrowRight""]","revaluation","canyon","17","{""ArrowUp,ArrowLeft"":26,""ArrowUp,ArrowRight"":10,""ArrowDown,ArrowLeft"":5,""ArrowDown,ArrowRight"":17}","true","ArrowDown,ArrowRight","","","","original","1","10","","",""
"html-keyboard-response","226","997904","0.0-4.0-4.0-1.5","spark_pilot_2","7960","5","14","Male","","","","","","","null","<div style=""font-size:60px;"">+</div>","null","fixation","","","","","","","","","","","11","","",""
"revaluation","227","1001921","0.0-4.0-4.0-0.6","spark_pilot_2","7960","5","14","Male","","false","","","","","[491.0999999998603]","./assets/img/canyon/animals/giraffe.jpg","[""ArrowRight""]","revaluation","canyon","17","{""ArrowUp,ArrowLeft"":26,""ArrowUp,ArrowRight"":10,""ArrowDown,ArrowLeft"":5,""ArrowDown,ArrowRight"":17}","true","ArrowDown,ArrowRight","","","","original","1","12","","",""
"html-keyboard-response","228","1002424","0.0-4.0-4.0-1.6","spark_pilot_2","7960","5","14","Male","","","","","","","null","<div style=""font-size:60px;"">+</div>","null","fixation","","","","","","","","","","","13","","",""
"revaluation","229","1006441","0.0-4.0-4.0-0.7","spark_pilot_2","7960","5","14","Male","","false","","","","","[660.8000000000466]","./assets/img/canyon/animals/lion.jpg","[""ArrowLeft""]","revaluation","canyon","26","{""ArrowUp,ArrowLeft"":26,""ArrowUp,ArrowRight"":10,""ArrowDown,ArrowLeft"":5,""ArrowDown,ArrowRight"":17}","true","ArrowUp,ArrowLeft","","","","original","1","14","","",""
"html-keyboard-response","230","1006944","0.0-4.0-4.0-1.7","spark_pilot_2","7960","5","14","Male","","","","","","","null","<div style=""font-size:60px;"">+</div>","null","fixation","","","","","","","","","","","15","","",""
"revaluation","231","1010961","0.0-4.0-4.0-0.8","spark_pilot_2","7960","5","14","Male","","false","","","","","[634.8999999999069]","./assets/img/canyon/animals/giraffe.jpg","[""ArrowRight""]","revaluation","canyon","17","{""ArrowUp,ArrowLeft"":26,""ArrowUp,ArrowRight"":10,""ArrowDown,ArrowLeft"":5,""ArrowDown,ArrowRight"":17}","true","ArrowDown,ArrowRight","","","","original","1","16","","",""
"html-keyboard-response","232","1011464","0.0-4.0-4.0-1.8","spark_pilot_2","7960","5","14","Male","","","","","","","null","<div style=""font-size:60px;"">+</div>","null","fixation","","","","","","","","","","","17","","",""
"revaluation","233","1015481","0.0-4.0-4.0-0.9","spark_pilot_2","7960","5","14","Male","","false","","","","","[815]","./assets/img/canyon/animals/lion.jpg","[""ArrowLeft""]","revaluation","canyon","26","{""ArrowUp,ArrowLeft"":26,""ArrowUp,ArrowRight"":10,""ArrowDown,ArrowLeft"":5,""ArrowDown,ArrowRight"":17}","true","ArrowUp,ArrowLeft","","","","original","1","18","","",""
"html-keyboard-response","234","1015984","0.0-4.0-4.0-1.9","spark_pilot_2","7960","5","14","Male","","","","","","","null","<div style=""font-size:60px;"">+</div>","null","fixation","","","","","","","","","","","19","","",""
"revaluation","235","1020001","0.0-4.0-4.0-0.10","spark_pilot_2","7960","5","14","Male","","false","","","","","[444.89999999990687]","./assets/img/canyon/animals/giraffe.jpg","[""ArrowRight""]","revaluation","canyon","17","{""ArrowUp,ArrowLeft"":26,""ArrowUp,ArrowRight"":10,""ArrowDown,ArrowLeft"":5,""ArrowDown,ArrowRight"":17}","true","ArrowDown,ArrowRight","","","","original","1","20","","",""
"html-keyboard-response","236","1020504","0.0-4.0-4.0-1.10","spark_pilot_2","7960","5","14","Male","","","","","","","null","<div style=""font-size:60px;"">+</div>","null","fixation","","","","","","","","","","","21","","",""
"revaluation","237","1024521","0.0-4.0-4.0-0.11","spark_pilot_2","7960","5","14","Male","","false","","","","","[521.3000000000466]","./assets/img/canyon/animals/lion.jpg","[""ArrowLeft""]","revaluation","canyon","26","{""ArrowUp,ArrowLeft"":26,""ArrowUp,ArrowRight"":10,""ArrowDown,ArrowLeft"":5,""ArrowDown,ArrowRight"":17}","true","ArrowUp,ArrowLeft","","","","original","1","22","","",""
"html-keyboard-response","238","1025024","0.0-4.0-4.0-1.11","spark_pilot_2","7960","5","14","Male","","","","","","","null","<div style=""font-size:60px;"">+</div>","null","fixation","","","","","","","","","","","23","","",""
"revaluation","239","1029041","0.0-4.0-4.0-0.12","spark_pilot_2","7960","5","14","Male","","false","","","","","[679.3000000000466]","./assets/img/canyon/animals/giraffe.jpg","[""ArrowRight""]","revaluation","canyon","17","{""ArrowUp,ArrowLeft"":26,""ArrowUp,ArrowRight"":10,""ArrowDown,ArrowLeft"":5,""ArrowDown,ArrowRight"":17}","true","ArrowDown,ArrowRight","","","","original","1","24","","",""
"html-keyboard-response","240","1029544","0.0-4.0-4.0-1.12","spark_pilot_2","7960","5","14","Male","","","","","","","null","<div style=""font-size:60px;"">+</div>","null","fixation","","","","","","","","","","","25","","",""
"revaluation","241","1033568","0.0-4.0-4.0-0.13","spark_pilot_2","7960","5","14","Male","","false","","","","","[562.6000000000931]","./assets/img/canyon/animals/giraffe.jpg","[""ArrowRight""]","revaluation","canyon","17","{""ArrowUp,ArrowLeft"":26,""ArrowUp,ArrowRight"":10,""ArrowDown,ArrowLeft"":5,""ArrowDown,ArrowRight"":17}","true","ArrowDown,ArrowRight","","","","original","1","26","","",""
"html-keyboard-response","242","1034072","0.0-4.0-4.0-1.13","spark_pilot_2","7960","5","14","Male","","","","","","","null","<div style=""font-size:60px;"">+</div>","null","fixation","","","","","","","","","","","27","","",""
"revaluation","243","1038088","0.0-4.0-4.0-0.14","spark_pilot_2","7960","5","14","Male","","false","","","","","[529.9000000001397]","./assets/img/canyon/animals/lion.jpg","[""ArrowRight""]","revaluation","canyon","10","{""ArrowUp,ArrowLeft"":26,""ArrowUp,ArrowRight"":10,""ArrowDown,ArrowLeft"":5,""ArrowDown,ArrowRight"":17}","false","ArrowUp,ArrowRight","","","","original","1","28","","",""
"html-keyboard-response","244","1038592","0.0-4.0-4.0-1.14","spark_pilot_2","7960","5","14","Male","","","","","","","null","<div style=""font-size:60px;"">+</div>","null","fixation","","","","","","","","","","","29","","",""
"revaluation","245","1042609","0.0-4.0-4.0-0.15","spark_pilot_2","7960","5","14","Male","","false","","","","","[792.1000000000931]","./assets/img/canyon/animals/lion.jpg","[""ArrowLeft""]","revaluation","canyon","26","{""ArrowUp,ArrowLeft"":26,""ArrowUp,ArrowRight"":10,""ArrowDown,ArrowLeft"":5,""ArrowDown,ArrowRight"":17}","true","ArrowUp,ArrowLeft","","","","original","1","30","","",""
"html-keyboard-response","246","1043112","0.0-4.0-4.0-1.15","spark_pilot_2","7960","5","14","Male","","","","","","","null","<div style=""font-size:60px;"">+</div>","null","fixation","","","","","","","","","","","31","","",""
"revaluation","247","1047129","0.0-4.0-4.0-0.16","spark_pilot_2","7960","5","14","Male","","false","","","","","[920]","./assets/img/canyon/animals/lion.jpg","[""ArrowLeft""]","revaluation","canyon","26","{""ArrowUp,ArrowLeft"":26,""ArrowUp,ArrowRight"":10,""ArrowDown,ArrowLeft"":5,""ArrowDown,ArrowRight"":17}","true","ArrowUp,ArrowLeft","","","","original","1","32","","",""
"html-keyboard-response","248","1047632","0.0-4.0-4.0-1.16","spark_pilot_2","7960","5","14","Male","","","","","","","null","<div style=""font-size:60px;"">+</div>","null","fixation","","","","","","","","","","","33","","",""
"revaluation","249","1051649","0.0-4.0-4.0-0.17","spark_pilot_2","7960","5","14","Male","","false","","","","","[911]","./assets/img/canyon/animals/giraffe.jpg","[""ArrowRight""]","revaluation","canyon","17","{""ArrowUp,ArrowLeft"":26,""ArrowUp,ArrowRight"":10,""ArrowDown,ArrowLeft"":5,""ArrowDown,ArrowRight"":17}","true","ArrowDown,ArrowRight","","","","original","1","34","","",""
"html-keyboard-response","250","1052152","0.0-4.0-4.0-1.17","spark_pilot_2","7960","5","14","Male","","","","","","","null","<div style=""font-size:60px;"">+</div>","null","fixation","","","","","","","","","","","35","","",""
"learning-instructions","251","1064838","0.0-4.0-5.0-0.0","spark_pilot_2","7960","5","14","Male","","","","","","[{""event"":""fullscreenenter"",""trial"":2,""time"":23314},{""event"":""fullscreenexit"",""trial"":5,""time"":36910},{""event"":""blur"",""trial"":252,""time"":1125849},{""event"":""focus"",""trial"":252,""time"":1125851}]","1216.5999999998603","<p> Time to play the dot game! </p>
            <p> For one minute, click the red dots on the following screen as they appear. </p>
            <p><b> Don't look away, as you will earn bonus for clicking dots</b>. </p>","","instructions","","","","","","","","","","","","","",""
"revaluation","252","1125852","0.0-4.0-6.0-0.0","spark_pilot_2","7960","5","14","Male","","","","","","","[80,65,79,178,97,99]","","","rest","","60","","","","","0","60000","","","","","",""
"learning-instructions","253","1133197","0.0-4.0-7.0-0.0","spark_pilot_2","7960","5","14","Male","","","","","","","1152.1999999999534","<p> You have almost finished this part of the game! </p>
            <p> We are going to ask you to make a few more choices. </p>","","instructions","","","","","","","","","","","","","",""
"learning-instructions","254","1148205","0.0-4.0-7.0-0.1","spark_pilot_2","7960","5","14","Male","","","","","","","1036.1999999999534","<p> First, you need to decide whether to go up or down. When you see each picture, use the arrow keys to make your choice. </p>
            <p><b>You will not see which animal you found, but try to get to the one that will give you the most treasure.</b></p>","","instructions","","","","","","","","","","","","","",""
"revaluation","255","1148896","0.0-4.0-8.0-0.0","spark_pilot_2","7960","5","14","Male","","false","","","","","[687.8999999999069]","./assets/img/canyon/test/0.jpg","[""ArrowUp""]","first stage test","canyon","0","{""ArrowUp,ArrowLeft"":26,""ArrowUp,ArrowRight"":10,""ArrowDown,ArrowLeft"":5,""ArrowDown,ArrowRight"":17}","true","ArrowUp","false","","","original","1","","","",""
"html-keyboard-response","256","1149400","0.0-4.0-8.0-1.0","spark_pilot_2","7960","5","14","Male","","","","","","","null","<div style=""font-size:60px;"">+</div>","null","fixation","","","","","","","","","","","","","",""
"revaluation","257","1149904","0.0-4.0-8.0-0.1","spark_pilot_2","7960","5","14","Male","","false","","","","","[499.69999999995343]","./assets/img/canyon/test/2.jpg","[""ArrowUp""]","first stage test","canyon","0","{""ArrowUp,ArrowLeft"":26,""ArrowUp,ArrowRight"":10,""ArrowDown,ArrowLeft"":5,""ArrowDown,ArrowRight"":17}","true","ArrowUp","false","","","original","1","","","",""
"html-keyboard-response","258","1150408","0.0-4.0-8.0-1.1","spark_pilot_2","7960","5","14","Male","","","","","","","null","<div style=""font-size:60px;"">+</div>","null","fixation","","","","","","","","","","","","","",""
"revaluation","259","1151304","0.0-4.0-8.0-0.2","spark_pilot_2","7960","5","14","Male","","false","","","","","[891.9000000001397]","./assets/img/canyon/test/1.jpg","[""ArrowUp""]","first stage test","canyon","0","{""ArrowUp,ArrowLeft"":26,""ArrowUp,ArrowRight"":10,""ArrowDown,ArrowLeft"":5,""ArrowDown,ArrowRight"":17}","true","ArrowUp","false","","","original","1","","","",""
"html-keyboard-response","260","1151808","0.0-4.0-8.0-1.2","spark_pilot_2","7960","5","14","Male","","","","","","","null","<div style=""font-size:60px;"">+</div>","null","fixation","","","","","","","","","","","","","",""
"revaluation","261","1152267","0.0-4.0-8.0-0.3","spark_pilot_2","7960","5","14","Male","","false","","","","","[454]","./assets/img/canyon/test/3.jpg","[""ArrowUp""]","first stage test","canyon","0","{""ArrowUp,ArrowLeft"":26,""ArrowUp,ArrowRight"":10,""ArrowDown,ArrowLeft"":5,""ArrowDown,ArrowRight"":17}","true","ArrowUp","false","","","original","1","","","",""
"html-keyboard-response","262","1152768","0.0-4.0-8.0-1.3","spark_pilot_2","7960","5","14","Male","","","","","","","null","<div style=""font-size:60px;"">+</div>","null","fixation","","","","","","","","","","","","","",""
"learning-instructions","263","1165021","0.0-4.0-9.0-0.0","spark_pilot_2","7960","5","14","Male","","","","","","","902.6000000000931","<p> Now you will see the animals again and can search their chests for treasure. </p>
            <p> This time, you will not see how much treasure you earned, but you will earn more bonus money for making better choices. </p>","","instructions","","","","","","","","","","","","","",""
"revaluation","264","1165781","0.0-4.0-10.0-0.0","spark_pilot_2","7960","5","14","Male","","false","","","","","[756.9000000001397]","./assets/img/canyon/animals/lion.jpg","[""ArrowLeft""]","second stage test","canyon","0","{""ArrowUp,ArrowLeft"":26,""ArrowUp,ArrowRight"":10,""ArrowDown,ArrowLeft"":5,""ArrowDown,ArrowRight"":17}","true","ArrowUp,ArrowLeft","","","","original","1","","","",""
"html-keyboard-response","265","1166288","0.0-4.0-10.0-1.0","spark_pilot_2","7960","5","14","Male","","","","","","","null","<div style=""font-size:60px;"">+</div>","null","fixation","","","","","","","","","","","","","",""
"revaluation","266","1166767","0.0-4.0-10.0-0.1","spark_pilot_2","7960","5","14","Male","","false","","","","","[475.4000000001397]","./assets/img/canyon/animals/lion.jpg","[""ArrowLeft""]","second stage test","canyon","0","{""ArrowUp,ArrowLeft"":26,""ArrowUp,ArrowRight"":10,""ArrowDown,ArrowLeft"":5,""ArrowDown,ArrowRight"":17}","true","ArrowUp,ArrowLeft","","","","original","1","","","",""
"html-keyboard-response","267","1167272","0.0-4.0-10.0-1.1","spark_pilot_2","7960","5","14","Male","","","","","","","null","<div style=""font-size:60px;"">+</div>","null","fixation","","","","","","","","","","","","","",""
"revaluation","268","1167777","0.0-4.0-10.0-0.2","spark_pilot_2","7960","5","14","Male","","false","","","","","[499.89999999990687]","./assets/img/canyon/animals/lion.jpg","[""ArrowLeft""]","second stage test","canyon","0","{""ArrowUp,ArrowLeft"":26,""ArrowUp,ArrowRight"":10,""ArrowDown,ArrowLeft"":5,""ArrowDown,ArrowRight"":17}","true","ArrowUp,ArrowLeft","","","","original","1","","","",""
"html-keyboard-response","269","1168280","0.0-4.0-10.0-1.2","spark_pilot_2","7960","5","14","Male","","","","","","","null","<div style=""font-size:60px;"">+</div>","null","fixation","","","","","","","","","","","","","",""
"revaluation","270","1168671","0.0-4.0-10.0-0.3","spark_pilot_2","7960","5","14","Male","","false","","","","","[387.10000000009313]","./assets/img/canyon/animals/lion.jpg","[""ArrowLeft""]","second stage test","canyon","0","{""ArrowUp,ArrowLeft"":26,""ArrowUp,ArrowRight"":10,""ArrowDown,ArrowLeft"":5,""ArrowDown,ArrowRight"":17}","true","ArrowUp,ArrowLeft","","","","original","1","","","",""
"html-keyboard-response","271","1169176","0.0-4.0-10.0-1.3","spark_pilot_2","7960","5","14","Male","","","","","","","null","<div style=""font-size:60px;"">+</div>","null","fixation","","","","","","","","","","","","","",""
"revaluation","272","1170002","0.0-4.0-10.0-0.4","spark_pilot_2","7960","5","14","Male","","false","","","","","[822]","./assets/img/canyon/animals/giraffe.jpg","[""ArrowRight""]","second stage test","canyon","0","{""ArrowUp,ArrowLeft"":26,""ArrowUp,ArrowRight"":10,""ArrowDown,ArrowLeft"":5,""ArrowDown,ArrowRight"":17}","true","ArrowDown,ArrowRight","","","","original","1","","","",""
"html-keyboard-response","273","1170504","0.0-4.0-10.0-1.4","spark_pilot_2","7960","5","14","Male","","","","","","","null","<div style=""font-size:60px;"">+</div>","null","fixation","","","","","","","","","","","","","",""
"revaluation","274","1171182","0.0-4.0-10.0-0.5","spark_pilot_2","7960","5","14","Male","","false","","","","","[673]","./assets/img/canyon/animals/giraffe.jpg","[""ArrowRight""]","second stage test","canyon","0","{""ArrowUp,ArrowLeft"":26,""ArrowUp,ArrowRight"":10,""ArrowDown,ArrowLeft"":5,""ArrowDown,ArrowRight"":17}","true","ArrowDown,ArrowRight","","","","original","1","","","",""
"html-keyboard-response","275","1171688","0.0-4.0-10.0-1.5","spark_pilot_2","7960","5","14","Male","","","","","","","null","<div style=""font-size:60px;"">+</div>","null","fixation","","","","","","","","","","","","","",""
"revaluation","276","1172095","0.0-4.0-10.0-0.6","spark_pilot_2","7960","5","14","Male","","false","","","","","[402]","./assets/img/canyon/animals/giraffe.jpg","[""ArrowRight""]","second stage test","canyon","0","{""ArrowUp,ArrowLeft"":26,""ArrowUp,ArrowRight"":10,""ArrowDown,ArrowLeft"":5,""ArrowDown,ArrowRight"":17}","true","ArrowDown,ArrowRight","","","","original","1","","","",""
"html-keyboard-response","277","1172601","0.0-4.0-10.0-1.6","spark_pilot_2","7960","5","14","Male","","","","","","","null","<div style=""font-size:60px;"">+</div>","null","fixation","","","","","","","","","","","","","",""
"revaluation","278","1172992","0.0-4.0-10.0-0.7","spark_pilot_2","7960","5","14","Male","","false","","","","","[387.0999999998603]","./assets/img/canyon/animals/giraffe.jpg","[""ArrowRight""]","second stage test","canyon","0","{""ArrowUp,ArrowLeft"":26,""ArrowUp,ArrowRight"":10,""ArrowDown,ArrowLeft"":5,""ArrowDown,ArrowRight"":17}","true","ArrowDown,ArrowRight","","","","original","1","","","",""
"html-keyboard-response","279","1173496","0.0-4.0-10.0-1.7","spark_pilot_2","7960","5","14","Male","","","","","","","null","<div style=""font-size:60px;"">+</div>","null","fixation","","","","","","","","","","","","","",""
"learning-instructions","280","1176834","0.0-4.0-0.1-0.2","spark_pilot_2","7960","5","14","Male","","","","","","","619.5","<p> This time you are searching for treasure in the <b>ocean</b>.</p>","","instructions","","","","","","","","","","","","","",""
"learning-instructions","281","1194674","0.0-4.0-0.1-0.3","spark_pilot_2","7960","5","14","Male","","","","","","","581.8999999999069","<p><b>New</b> animals with <b>new</b> treasure chests live here. You need to explore to discover where the animal with the best treasure chest is.</p>
                    <p> Like before, once you figure out which animal has the chest with the most treasure, you should try to get to that animal and select that chest! </p>","","instructions","","","","","","","","","","","","","",""
"learning-instructions","282","1209869","0.0-4.0-1.1-0.1","spark_pilot_2","7960","5","14","Male","","","","","","","469.5999999998603","<p> Remember, when you see a picture of the place, use the up and down keys to <b>find an animal</b>.</p>
            <p> When you encounter an animal, you should use the left and right keys to <b>select a treasure chest</b>.</p>
            <p> Don't forget to look out for the robber! </p>","","instructions","","","","","","","","","","","","","",""
"revaluation","283","1213881","0.0-4.0-2.1-0.50","spark_pilot_2","7960","5","14","Male","","false","","","","","[1719.3999999999069]","./assets/img/ocean/catch/5.jpg","[""spaceBar""]","value training","ocean","0","{""ArrowUp,ArrowLeft"":23,""ArrowUp,ArrowRight"":10,""ArrowDown,ArrowLeft"":8,""ArrowDown,ArrowRight"":30}","true","spaceBar","true","","","revaluation","2","0","","",""
"html-keyboard-response","284","1214384","0.0-4.0-2.1-1.50","spark_pilot_2","7960","5","14","Male","","","","","","","null","<div style=""font-size:60px;"">+</div>","null","fixation","","","","","","","","","","","1","","",""
"revaluation","285","1220409","0.0-4.0-2.1-0.51","spark_pilot_2","7960","5","14","Male","","false","","","","","[542.3000000000466,1160.7999999998137]","./assets/img/ocean/memory/17.jpg","[""ArrowUp"",""ArrowLeft""]","value training","ocean","23","{""ArrowUp,ArrowLeft"":23,""ArrowUp,ArrowRight"":10,""ArrowDown,ArrowLeft"":8,""ArrowDown,ArrowRight"":30}","false","ArrowUp,ArrowLeft","false","","","revaluation","2","2","","",""
"html-keyboard-response","286","1220913","0.0-4.0-2.1-1.51","spark_pilot_2","7960","5","14","Male","","","","","","","null","<div style=""font-size:60px;"">+</div>","null","fixation","","","","","","","","","","","3","","",""
"revaluation","287","1226937","0.0-4.0-2.1-0.52","spark_pilot_2","7960","5","14","Male","","false","","","","","[644.5,251]","./assets/img/ocean/memory/30.jpg","[""ArrowUp"",""ArrowRight""]","value training","ocean","10","{""ArrowUp,ArrowLeft"":23,""ArrowUp,ArrowRight"":10,""ArrowDown,ArrowLeft"":8,""ArrowDown,ArrowRight"":30}","false","ArrowUp,ArrowRight","false","","","revaluation","2","4","","",""
"html-keyboard-response","288","1227440","0.0-4.0-2.1-1.52","spark_pilot_2","7960","5","14","Male","","","","","","","null","<div style=""font-size:60px;"">+</div>","null","fixation","","","","","","","","","","","5","","",""
"revaluation","289","1233465","0.0-4.0-2.1-0.53","spark_pilot_2","7960","5","14","Male","","false","","","","","[696.8000000000466,350.89999999990687]","./assets/img/ocean/memory/7.jpg","[""ArrowDown"",""ArrowLeft""]","value training","ocean","8","{""ArrowUp,ArrowLeft"":23,""ArrowUp,ArrowRight"":10,""ArrowDown,ArrowLeft"":8,""ArrowDown,ArrowRight"":30}","false","ArrowDown,ArrowLeft","false","","","revaluation","2","6","","",""
"html-keyboard-response","290","1233968","0.0-4.0-2.1-1.53","spark_pilot_2","7960","5","14","Male","","","","","","","null","<div style=""font-size:60px;"">+</div>","null","fixation","","","","","","","","","","","7","","",""
"revaluation","291","1237985","0.0-4.0-2.1-0.54","spark_pilot_2","7960","5","14","Male","","false","","","","","[926]","./assets/img/ocean/catch/0.jpg","[""spaceBar""]","value training","ocean","0","{""ArrowUp,ArrowLeft"":23,""ArrowUp,ArrowRight"":10,""ArrowDown,ArrowLeft"":8,""ArrowDown,ArrowRight"":30}","true","spaceBar","true","","","revaluation","2","8","","",""
"html-keyboard-response","292","1238488","0.0-4.0-2.1-1.54","spark_pilot_2","7960","5","14","Male","","","","","","","null","<div style=""font-size:60px;"">+</div>","null","fixation","","","","","","","","","","","9","","",""
"revaluation","293","1242504","0.0-4.0-2.1-0.55","spark_pilot_2","7960","5","14","Male","","false","","","","","[454.30000000004657]","./assets/img/ocean/catch/6.jpg","[""ArrowDown""]","value training","ocean","-10","{""ArrowUp,ArrowLeft"":23,""ArrowUp,ArrowRight"":10,""ArrowDown,ArrowLeft"":8,""ArrowDown,ArrowRight"":30}","false","ArrowDown","true","","","revaluation","2","10","","",""
"html-keyboard-response","294","1243008","0.0-4.0-2.1-1.55","spark_pilot_2","7960","5","14","Male","","","","","","","null","<div style=""font-size:60px;"">+</div>","null","fixation","","","","","","","","","","","11","","",""
"revaluation","295","1249033","0.0-4.0-2.1-0.56","spark_pilot_2","7960","5","14","Male","","false","","","","","[586.8999999999069,297.20000000018626]","./assets/img/ocean/memory/38.jpg","[""ArrowDown"",""ArrowRight""]","value training","ocean","30","{""ArrowUp,ArrowLeft"":23,""ArrowUp,ArrowRight"":10,""ArrowDown,ArrowLeft"":8,""ArrowDown,ArrowRight"":30}","true","ArrowDown,ArrowRight","false","","","revaluation","2","12","","",""
"html-keyboard-response","296","1249536","0.0-4.0-2.1-1.56","spark_pilot_2","7960","5","14","Male","","","","","","","null","<div style=""font-size:60px;"">+</div>","null","fixation","","","","","","","","","","","13","","",""
"revaluation","297","1255561","0.0-4.0-2.1-0.57","spark_pilot_2","7960","5","14","Male","","false","","","","","[652.1999999999534,263.9000000001397]","./assets/img/ocean/memory/28.jpg","[""ArrowDown"",""ArrowRight""]","value training","ocean","30","{""ArrowUp,ArrowLeft"":23,""ArrowUp,ArrowRight"":10,""ArrowDown,ArrowLeft"":8,""ArrowDown,ArrowRight"":30}","true","ArrowDown,ArrowRight","false","","","revaluation","2","14","","",""
"html-keyboard-response","298","1256064","0.0-4.0-2.1-1.57","spark_pilot_2","7960","5","14","Male","","","","","","","null","<div style=""font-size:60px;"">+</div>","null","fixation","","","","","","","","","","","15","","",""
"revaluation","299","1262088","0.0-4.0-2.1-0.58","spark_pilot_2","7960","5","14","Male","","false","","","","","[666,267.80000000004657]","./assets/img/ocean/memory/41.jpg","[""ArrowDown"",""ArrowRight""]","value training","ocean","30","{""ArrowUp,ArrowLeft"":23,""ArrowUp,ArrowRight"":10,""ArrowDown,ArrowLeft"":8,""ArrowDown,ArrowRight"":30}","true","ArrowDown,ArrowRight","false","","","revaluation","2","16","","",""
"html-keyboard-response","300","1262593","0.0-4.0-2.1-1.58","spark_pilot_2","7960","5","14","Male","","","","","","","null","<div style=""font-size:60px;"">+</div>","null","fixation","","","","","","","","","","","17","","",""
"revaluation","301","1268617","0.0-4.0-2.1-0.59","spark_pilot_2","7960","5","14","Male","","false","","","","","[477,270.10000000009313]","./assets/img/ocean/memory/4.jpg","[""ArrowDown"",""ArrowRight""]","value training","ocean","30","{""ArrowUp,ArrowLeft"":23,""ArrowUp,ArrowRight"":10,""ArrowDown,ArrowLeft"":8,""ArrowDown,ArrowRight"":30}","true","ArrowDown,ArrowRight","false","","","revaluation","2","18","","",""
"html-keyboard-response","302","1269120","0.0-4.0-2.1-1.59","spark_pilot_2","7960","5","14","Male","","","","","","","null","<div style=""font-size:60px;"">+</div>","null","fixation","","","","","","","","","","","19","","",""
"revaluation","303","1273137","0.0-4.0-2.1-0.60","spark_pilot_2","7960","5","14","Male","","false","","","","","[1366.1999999999534]","./assets/img/ocean/catch/7.jpg","[""spaceBar""]","value training","ocean","0","{""ArrowUp,ArrowLeft"":23,""ArrowUp,ArrowRight"":10,""ArrowDown,ArrowLeft"":8,""ArrowDown,ArrowRight"":30}","true","spaceBar","true","","","revaluation","2","20","","",""
"html-keyboard-response","304","1273640","0.0-4.0-2.1-1.60","spark_pilot_2","7960","5","14","Male","","","","","","","null","<div style=""font-size:60px;"">+</div>","null","fixation","","","","","","","","","","","21","","",""
"revaluation","305","1279665","0.0-4.0-2.1-0.61","spark_pilot_2","7960","5","14","Male","","false","","","","","[723.1999999999534,448.10000000009313]","./assets/img/ocean/memory/3.jpg","[""ArrowDown"",""ArrowRight""]","value training","ocean","30","{""ArrowUp,ArrowLeft"":23,""ArrowUp,ArrowRight"":10,""ArrowDown,ArrowLeft"":8,""ArrowDown,ArrowRight"":30}","true","ArrowDown,ArrowRight","false","","","revaluation","2","22","","",""
"html-keyboard-response","306","1280168","0.0-4.0-2.1-1.61","spark_pilot_2","7960","5","14","Male","","","","","","","null","<div style=""font-size:60px;"">+</div>","null","fixation","","","","","","","","","","","23","","",""
