"trial_type","trial_index","time_elapsed","internal_node_id","task_version","subject_id","assigned_condition","age","gender","success","timeout","failed_images","failed_audio","failed_video","browser_interaction","value","rt","stimulus","response","task_part","environment","score","rewardMap","correct","fullState","isCatch","numberMissed","duration","condition","order","trial_num","key_press","ground_truth","bonus"
"pavlovia","0","1925","0.0-0.0","spark_pilot_2","7123","1","8","Female","","","","","","","","","","","","","","","","","","","","","","","","",""
"preload","1","37200","0.0-1.0","spark_pilot_2","7123","1","8","Female","true","false","[]","[]","[]","[{""event"":""fullscreenenter"",""trial"":2,""time"":49916}]","","","","","","","","","","","","","","","","","","",""
"fullscreen","2","50878","0.0-2.0","spark_pilot_2","7123","1","8","Female","true","","","","","","","","","","","","","","","","","","","","","","","",""
"call-function","3","59651","0.0-3.0","spark_pilot_2","7123","1","8","Female","","","","","","","","","","","","","","","","","","","","","","","","",""
"audio-button-response","4","62023","0.0-4.0-0.0-0.0","spark_pilot_2","7123","1","8","Female","","","","","","","","2339","./assets/audio/audiotest/turtle.mp3","2","audio_test","","","","","","","","","","","","","",""
"learning-instructions","5","89323","0.0-4.0-1.0-0.0","spark_pilot_2","7123","1","8","Female","","","","","","","","20340","<p> Welcome! Please remember to stay in fullscreen mode and don't click away from the experiment. </p>","","instructions","","","","","","","","","","","","","",""
"learning-instructions","6","107990","0.0-4.0-1.0-0.1","spark_pilot_2","7123","1","8","Female","","","","","","","","10280","<p> Today you will be playing a game to earn treasure. </p>
            <p> At the end of the experiment, you will earn a bonus based on how much treasure you find. </p>
            <img src='./assets/img/instructions/treasure.jpg' class='instructions-image'>","","instructions","","","","","","","","","","","","","",""
"learning-instructions","7","118390","0.0-4.0-1.0-0.2","spark_pilot_2","7123","1","8","Female","","","","","","","","2160","<p> Animals have hidden treasure in treasure chests. </p>
            <p> You need to first find an animal and then choose which of their treasure chests to search. </p>
            <img src='./assets/img/space/animals/cat.jpg' class='instructions-image'>","","instructions","","","","","","","","","","","","","",""
"learning-instructions","8","132722","0.0-4.0-1.0-0.3","spark_pilot_2","7123","1","8","Female","","","","","","","","1204","<p> In each round, you will search for treasure in a different place. In the real game, there will be two rounds. </p>
            <p> You will begin with a separate, practice round where you will search for treasure in outer space. </p>
            <img src='./assets/img/space/0.jpg' class='instructions-image'>","","instructions","","","","","","","","","","","","","",""
"learning-instructions","9","145956","0.0-4.0-1.0-0.4","spark_pilot_2","7123","1","8","Female","","","","","","","","1841","<p> On every turn, you will see a picture of the place that you are in, but the specific image may be different each time. </p>
            <p> For example, both of these images mean you are in outer space. </p>
            <img src='./assets/img/instructions/outerspace.jpg' class='instructions-image'>","","instructions","","","","","","","","","","","","","",""
"learning-instructions","10","155422","0.0-4.0-1.0-0.5","spark_pilot_2","7123","1","8","Female","","","","","","","","1659.000000000029","<p> You need to decide which direction to travel in. </p>
            <p> You can choose between going <b>up or down</b> by using the arrow keys. </p>
            <img src='./assets/img/instructions/updown.jpg' class='instructions-image'>","","instructions","","","","","","","","","","","","","",""
"learning-instructions","11","166158","0.0-4.0-1.0-0.6","spark_pilot_2","7123","1","8","Female","","","","","","","","1948","<p> You will have <b>2 seconds</b> to make your choice. </p>
            <p> If you do not make a choice within 2 seconds, you will not find an animal or earn treasure. </p>
            <img src='./assets/img/instructions/2seconds.jpg' class='instructions-image'>","","instructions","","","","","","","","","","","","","",""
"learning-instructions","12","174706","0.0-4.0-1.0-0.7","spark_pilot_2","7123","1","8","Female","","","","","","","","1533","<p> Let’s try practicing that now! </p>
            <p> When you see a picture of the place you are in, press the <b>up</b> key to travel up. </p>
            <img src='./assets/img/instructions/pressUp.jpg' class='instructions-image'>","","instructions","","","","","","","","","","","","","",""
"revaluation","13","178723","0.0-4.0-2.0-0.0","spark_pilot_2","7123","1","8","Female","","false","","","","","","[1742]","./assets/img/space/0.jpg","[""ArrowUp""]","first stage practice","space","0","null","null","ArrowUp","false","","","","","","","",""
"html-keyboard-response","14","179227","0.0-4.0-2.0-1.0","spark_pilot_2","7123","1","8","Female","","","","","","","","null","<div style=""font-size:60px;"">+</div>","null","fixation","","","","","","","","","","","","","",""
"revaluation","15","183234","0.0-4.0-2.0-0.1","spark_pilot_2","7123","1","8","Female","","true","","","","","","[]","./assets/img/space/1.jpg","[]","first stage practice","space","-5","null","null","","false","","","","","","","",""
"html-keyboard-response","16","183737","0.0-4.0-2.0-1.1","spark_pilot_2","7123","1","8","Female","","","","","","","","null","<div style=""font-size:60px;"">+</div>","null","fixation","","","","","","","","","","","","","",""
"revaluation","17","187746","0.0-4.0-2.0-0.2","spark_pilot_2","7123","1","8","Female","","false","","","","","","[936]","./assets/img/space/2.jpg","[""ArrowUp""]","first stage practice","space","0","null","null","ArrowUp","false","","","","","","","",""
"html-keyboard-response","18","188249","0.0-4.0-2.0-1.2","spark_pilot_2","7123","1","8","Female","","","","","","","","null","<div style=""font-size:60px;"">+</div>","null","fixation","","","","","","","","","","","","","",""
"learning-instructions","19","194740","0.0-4.0-3.0-0.0","spark_pilot_2","7123","1","8","Female","","","","","","","","1804","<p> Great job! Now try pressing the <b>down</b> key to travel down. </p>
            <img src='./assets/img/instructions/pressDown.jpg' class='instructions-image'>","","instructions","","","","","","","","","","","","","",""
"revaluation","20","198746","0.0-4.0-4.0-0.0","spark_pilot_2","7123","1","8","Female","","false","","","","","","[756]","./assets/img/space/3.jpg","[""ArrowDown""]","first stage practice","space","0","null","null","ArrowDown","false","","","","","","","",""
"html-keyboard-response","21","199249","0.0-4.0-4.0-1.0","spark_pilot_2","7123","1","8","Female","","","","","","","","null","<div style=""font-size:60px;"">+</div>","null","fixation","","","","","","","","","","","","","",""
"revaluation","22","203257","0.0-4.0-4.0-0.1","spark_pilot_2","7123","1","8","Female","","false","","","","","","[446]","./assets/img/space/4.jpg","[""ArrowDown""]","first stage practice","space","0","null","null","ArrowDown","false","","","","","","","",""
"html-keyboard-response","23","203761","0.0-4.0-4.0-1.1","spark_pilot_2","7123","1","8","Female","","","","","","","","null","<div style=""font-size:60px;"">+</div>","null","fixation","","","","","","","","","","","","","",""
"revaluation","24","207768","0.0-4.0-4.0-0.2","spark_pilot_2","7123","1","8","Female","","false","","","","","","[684]","./assets/img/space/5.jpg","[""ArrowDown""]","first stage practice","space","0","null","null","ArrowDown","false","","","","","","","",""
"html-keyboard-response","25","208272","0.0-4.0-4.0-1.2","spark_pilot_2","7123","1","8","Female","","","","","","","","null","<div style=""font-size:60px;"">+</div>","null","fixation","","","","","","","","","","","","","",""
"learning-instructions","26","220744","0.0-4.0-5.0-0.0","spark_pilot_2","7123","1","8","Female","","","","","","","","2641","<p> The animals don’t move, so the animal in the upper part of a place will stay in the upper part of a place, and the animal in the lower part of a place will stay in the lower part of a place. </p>","","instructions","","","","","","","","","","","","","",""
"learning-instructions","27","231357","0.0-4.0-5.0-0.1","spark_pilot_2","7123","1","8","Female","","","","","","","","1511","<p> Each animal has two treasure chests for you to choose from. </p>
            <p> The amount of treasure in each chest can range from <b> 0 to 40 pieces.</b></p>","","instructions","","","","","","","","","","","","","",""
"learning-instructions","28","243957","0.0-4.0-5.0-0.2","spark_pilot_2","7123","1","8","Female","","","","","","","","1434","<p> You should decide which chest to search for treasure by using the <b>left</b> and <b>right</b> arrow keys. </p>
            <p><b> Pay attention to which animal is on the screen, as the animals have different treasure chests. </b></p>
            <img src='./assets/img/instructions/leftright.jpg' class='instructions-image'>","","instructions","","","","","","","","","","","","","",""
"learning-instructions","29","251974","0.0-4.0-5.0-0.3","spark_pilot_2","7123","1","8","Female","","","","","","","","1671","<p> Let’s try practicing that now. </p>
            <p> When you see an animal, choose which chest to search for treasure. </p>
            <img src='./assets/img/instructions/chooseChest.jpg' class='instructions-image'>","","instructions","","","","","","","","","","","","","",""
"revaluation","30","255985","0.0-4.0-6.0-0.0","spark_pilot_2","7123","1","8","Female","","false","","","","","","[1000]","./assets/img/space/animals/rabbit.jpg","[""ArrowLeft""]","second stage practice","space","15","{""ArrowUp,ArrowLeft"":3,""ArrowUp,ArrowRight"":36,""ArrowDown,ArrowLeft"":15,""ArrowDown,ArrowRight"":23}","false","ArrowDown,ArrowLeft","","","","","","","","",""
"html-keyboard-response","31","256489","0.0-4.0-6.0-1.0","spark_pilot_2","7123","1","8","Female","","","","","","","","null","<div style=""font-size:60px;"">+</div>","null","fixation","","","","","","","","","","","","","",""
"revaluation","32","260497","0.0-4.0-6.0-0.1","spark_pilot_2","7123","1","8","Female","","false","","","","","","[426]","./assets/img/space/animals/cat.jpg","[""ArrowRight""]","second stage practice","space","36","{""ArrowUp,ArrowLeft"":3,""ArrowUp,ArrowRight"":36,""ArrowDown,ArrowLeft"":15,""ArrowDown,ArrowRight"":23}","true","ArrowUp,ArrowRight","","","","","","","","",""
"html-keyboard-response","33","261000","0.0-4.0-6.0-1.1","spark_pilot_2","7123","1","8","Female","","","","","","","","null","<div style=""font-size:60px;"">+</div>","null","fixation","","","","","","","","","","","","","",""
"revaluation","34","265008","0.0-4.0-6.0-0.2","spark_pilot_2","7123","1","8","Female","","false","","","","","","[403]","./assets/img/space/animals/cat.jpg","[""ArrowLeft""]","second stage practice","space","3","{""ArrowUp,ArrowLeft"":3,""ArrowUp,ArrowRight"":36,""ArrowDown,ArrowLeft"":15,""ArrowDown,ArrowRight"":23}","false","ArrowUp,ArrowLeft","","","","","","","","",""
"html-keyboard-response","35","265512","0.0-4.0-6.0-1.2","spark_pilot_2","7123","1","8","Female","","","","","","","","null","<div style=""font-size:60px;"">+</div>","null","fixation","","","","","","","","","","","","","",""
"revaluation","36","269519","0.0-4.0-6.0-0.3","spark_pilot_2","7123","1","8","Female","","false","","","","","","[472.0000000000582]","./assets/img/space/animals/rabbit.jpg","[""ArrowRight""]","second stage practice","space","23","{""ArrowUp,ArrowLeft"":3,""ArrowUp,ArrowRight"":36,""ArrowDown,ArrowLeft"":15,""ArrowDown,ArrowRight"":23}","true","ArrowDown,ArrowRight","","","","","","","","",""
"html-keyboard-response","37","270022","0.0-4.0-6.0-1.3","spark_pilot_2","7123","1","8","Female","","","","","","","","null","<div style=""font-size:60px;"">+</div>","null","fixation","","","","","","","","","","","","","",""
"learning-instructions","38","288273","0.0-4.0-7.0-0.0","spark_pilot_2","7123","1","8","Female","","","","","","","","1463.0000000000582","<p> Great job. Now let’s try putting it together. </p>
            <p> On each turn, you will first see a picture to remind you of the place you are in, and you need to choose whether to go up or down. </p>
            <p> Then you will see an animal and choose which of its chests to search for treasure. </p>","","instructions","","","","","","","","","","","","","",""
"learning-instructions","39","297524","0.0-4.0-7.0-0.1","spark_pilot_2","7123","1","8","Female","","","","","","","","1012.9999999999418","<p> When you choose whether to go up or down, try to go to the animal with the chest with the most treasure. </p>
            <p> Try practicing that now! </p>","","instructions","","","","","","","","","","","","","",""
"revaluation","40","303532","0.0-4.0-8.0-0.0","spark_pilot_2","7123","1","8","Female","","false","","","","","","[787.0000000000582,726]","./assets/img/space/6.jpg","[""ArrowUp"",""ArrowLeft""]","full practice","space","3","{""ArrowUp,ArrowLeft"":3,""ArrowUp,ArrowRight"":36,""ArrowDown,ArrowLeft"":15,""ArrowDown,ArrowRight"":23}","false","ArrowUp,ArrowLeft","false","","","","","","","",""
"html-keyboard-response","41","304036","0.0-4.0-8.0-1.0","spark_pilot_2","7123","1","8","Female","","","","","","","","null","<div style=""font-size:60px;"">+</div>","null","fixation","","","","","","","","","","","","","",""
"revaluation","42","310044","0.0-4.0-8.0-0.1","spark_pilot_2","7123","1","8","Female","","false","","","","","","[632.9999999999418,553]","./assets/img/space/7.jpg","[""ArrowUp"",""ArrowRight""]","full practice","space","36","{""ArrowUp,ArrowLeft"":3,""ArrowUp,ArrowRight"":36,""ArrowDown,ArrowLeft"":15,""ArrowDown,ArrowRight"":23}","true","ArrowUp,ArrowRight","false","","","","","","","",""
"html-keyboard-response","43","310547","0.0-4.0-8.0-1.1","spark_pilot_2","7123","1","8","Female","","","","","","","","null","<div style=""font-size:60px;"">+</div>","null","fixation","","","","","","","","","","","","","",""
"revaluation","44","316557","0.0-4.0-8.0-0.2","spark_pilot_2","7123","1","8","Female","","false","","","","","","[540,542]","./assets/img/space/8.jpg","[""ArrowDown"",""ArrowLeft""]","full practice","space","15","{""ArrowUp,ArrowLeft"":3,""ArrowUp,ArrowRight"":36,""ArrowDown,ArrowLeft"":15,""ArrowDown,ArrowRight"":23}","false","ArrowDown,ArrowLeft","false","","","","","","","",""
"html-keyboard-response","45","317060","0.0-4.0-8.0-1.2","spark_pilot_2","7123","1","8","Female","","","","","","","","null","<div style=""font-size:60px;"">+</div>","null","fixation","","","","","","","","","","","","","",""
"revaluation","46","323067","0.0-4.0-8.0-0.3","spark_pilot_2","7123","1","8","Female","","false","","","","","","[327.9999999999418,457]","./assets/img/space/9.jpg","[""ArrowUp"",""ArrowLeft""]","full practice","space","3","{""ArrowUp,ArrowLeft"":3,""ArrowUp,ArrowRight"":36,""ArrowDown,ArrowLeft"":15,""ArrowDown,ArrowRight"":23}","false","ArrowUp,ArrowLeft","false","","","","","","","",""
"html-keyboard-response","47","323569","0.0-4.0-8.0-1.3","spark_pilot_2","7123","1","8","Female","","","","","","","","null","<div style=""font-size:60px;"">+</div>","null","fixation","","","","","","","","","","","","","",""
"revaluation","48","329577","0.0-4.0-8.0-0.4","spark_pilot_2","7123","1","8","Female","","false","","","","","","[379,386]","./assets/img/space/10.jpg","[""ArrowUp"",""ArrowRight""]","full practice","space","36","{""ArrowUp,ArrowLeft"":3,""ArrowUp,ArrowRight"":36,""ArrowDown,ArrowLeft"":15,""ArrowDown,ArrowRight"":23}","true","ArrowUp,ArrowRight","false","","","","","","","",""
"html-keyboard-response","49","330080","0.0-4.0-8.0-1.4","spark_pilot_2","7123","1","8","Female","","","","","","","","null","<div style=""font-size:60px;"">+</div>","null","fixation","","","","","","","","","","","","","",""
"learning-instructions","50","341923","0.0-4.0-9.0-0.0","spark_pilot_2","7123","1","8","Female","","","","","","","","1549.9999999999418","<p> One last thing: sometimes, you will see a robber. The robber can be anywhere in the picture. </p>
            <p> If you do not stop them, you will lose treasure. </p>
            <img src='./assets/img/instructions/robber.jpg' class='instructions-image'>","","instructions","","","","","","","","","","","","","",""
"learning-instructions","51","350272","0.0-4.0-9.0-0.1","spark_pilot_2","7123","1","8","Female","","","","","","","","1202","<p> If you see the robber, you should <b>press the space bar</b> rather than using the arrow keys. </p>
            <p> Try practicing that now! </p>","","instructions","","","","","","","","","","","","","",""
"revaluation","52","354277","0.0-4.0-10.0-0.0","spark_pilot_2","7123","1","8","Female","","true","","","","","","[]","./assets/img/space/catch/0.jpg","[]","catch practice","space","-5","{""ArrowUp,ArrowLeft"":3,""ArrowUp,ArrowRight"":36,""ArrowDown,ArrowLeft"":15,""ArrowDown,ArrowRight"":23}","false","","true","","","","","","","",""
"html-keyboard-response","53","354779","0.0-4.0-10.0-1.0","spark_pilot_2","7123","1","8","Female","","","","","","","","null","<div style=""font-size:60px;"">+</div>","null","fixation","","","","","","","","","","","","","",""
"revaluation","54","358784","0.0-4.0-10.0-0.1","spark_pilot_2","7123","1","8","Female","","false","","","","","","[512]","./assets/img/space/catch/1.jpg","[""spaceBar""]","catch practice","space","0","{""ArrowUp,ArrowLeft"":3,""ArrowUp,ArrowRight"":36,""ArrowDown,ArrowLeft"":15,""ArrowDown,ArrowRight"":23}","true","spaceBar","true","","","","","","","",""
"html-keyboard-response","55","359286","0.0-4.0-10.0-1.1","spark_pilot_2","7123","1","8","Female","","","","","","","","null","<div style=""font-size:60px;"">+</div>","null","fixation","","","","","","","","","","","","","",""
"revaluation","56","363291","0.0-4.0-10.0-0.2","spark_pilot_2","7123","1","8","Female","","false","","","","","","[560]","./assets/img/space/catch/2.jpg","[""spaceBar""]","catch practice","space","0","{""ArrowUp,ArrowLeft"":3,""ArrowUp,ArrowRight"":36,""ArrowDown,ArrowLeft"":15,""ArrowDown,ArrowRight"":23}","true","spaceBar","true","","","","","","","",""
"html-keyboard-response","57","363794","0.0-4.0-10.0-1.2","spark_pilot_2","7123","1","8","Female","","","","","","","","null","<div style=""font-size:60px;"">+</div>","null","fixation","","","","","","","","","","","","","",""
"learning-instructions","58","378972","0.0-4.0-11.0-0.0","spark_pilot_2","7123","1","8","Female","","","","","","","","1610","<p> After you explore a place to find treasure, it will be time to play a different game. </p>
            <p> During this game, red dots will appear on the screen and fall down slowly. </p>
            <p><b> You must click on them before they reach the bottom. </b></p>
            <img src='./assets/img/instructions/dotGame.jpg' class='instructions-image'>","","instructions","","","","","","","","","","","","","",""
"learning-instructions","59","386124","0.0-4.0-11.0-0.1","spark_pilot_2","7123","1","8","Female","","","","","","","","1493","<p> For every dot you click, you will earn additional treasure. </p>
            <p> Let’s try practicing that now. </p>","","instructions","","","","","","","","","","","","","",""
"revaluation","60","401129","0.0-4.0-12.0-0.0","spark_pilot_2","7123","1","8","Female","","","","","","","","[115]","","","rest practice","","10","","","","","0","15000","","","","","",""
"learning-instructions","61","408255","0.0-4.0-13.0-0.0-0.0","spark_pilot_2","7123","1","8","Female","","","","","","","","1895","<p> Now, you will practice a shortened version of the game to get a sense of how it all fits together. </p>","","instructions","","","","","","","","","","","","","",""
"learning-instructions","62","414923","0.0-4.0-13.0-0.0-0.1","spark_pilot_2","7123","1","8","Female","","","","","","","","3490.000000000058","<p>This time you are searching for treasure in outer space.</p>","","instructions","","","","","","","","","","","","","",""
"learning-instructions","63","430991","0.0-4.0-13.0-1.0-0.0","spark_pilot_2","7123","1","8","Female","","","","","","","","1320.0000000000582","<p> Remember, when you see a picture of the place, use the up and down keys to <b>find an animal</b>.</p>
            <p> When you encounter an animal, you should use the left and right keys to <b>select a treasure chest</b>.</p>
            <p> Don't forget to look out for the robber! </p>","","instructions","","","","","","","","","","","","","",""
"revaluation","64","436999","0.0-4.0-13.0-2.0-0.0","spark_pilot_2","7123","1","8","Female","","false","","","","","","[1084,1429.9999999999418]","./assets/img/space/11.jpg","[""ArrowUp"",""ArrowRight""]","practice block","space","36","{""ArrowUp,ArrowLeft"":3,""ArrowUp,ArrowRight"":36,""ArrowDown,ArrowLeft"":15,""ArrowDown,ArrowRight"":23}","true","ArrowUp,ArrowRight","false","","","","","","","",""
"html-keyboard-response","65","437502","0.0-4.0-13.0-2.0-1.0","spark_pilot_2","7123","1","8","Female","","","","","","","","null","<div style=""font-size:60px;"">+</div>","null","fixation","","","","","","","","","","","","","",""
"revaluation","66","443512","0.0-4.0-13.0-2.0-0.1","spark_pilot_2","7123","1","8","Female","","false","","","","","","[852,584.9999999999418]","./assets/img/space/12.jpg","[""ArrowUp"",""ArrowRight""]","practice block","space","36","{""ArrowUp,ArrowLeft"":3,""ArrowUp,ArrowRight"":36,""ArrowDown,ArrowLeft"":15,""ArrowDown,ArrowRight"":23}","true","ArrowUp,ArrowRight","false","","","","","","","",""
"html-keyboard-response","67","444016","0.0-4.0-13.0-2.0-1.1","spark_pilot_2","7123","1","8","Female","","","","","","","","null","<div style=""font-size:60px;"">+</div>","null","fixation","","","","","","","","","","","","","",""
"revaluation","68","450047","0.0-4.0-13.0-2.0-0.2","spark_pilot_2","7123","1","8","Female","","false","","","","","","[737,575]","./assets/img/space/13.jpg","[""ArrowUp"",""ArrowRight""]","practice block","space","36","{""ArrowUp,ArrowLeft"":3,""ArrowUp,ArrowRight"":36,""ArrowDown,ArrowLeft"":15,""ArrowDown,ArrowRight"":23}","true","ArrowUp,ArrowRight","false","","","","","","","",""
"html-keyboard-response","69","450551","0.0-4.0-13.0-2.0-1.2","spark_pilot_2","7123","1","8","Female","","","","","","","","null","<div style=""font-size:60px;"">+</div>","null","fixation","","","","","","","","","","","","","",""
"revaluation","70","456561","0.0-4.0-13.0-2.0-0.3","spark_pilot_2","7123","1","8","Female","","false","","","","","","[1049,612]","./assets/img/space/14.jpg","[""ArrowUp"",""ArrowRight""]","practice block","space","36","{""ArrowUp,ArrowLeft"":3,""ArrowUp,ArrowRight"":36,""ArrowDown,ArrowLeft"":15,""ArrowDown,ArrowRight"":23}","true","ArrowUp,ArrowRight","false","","","","","","","",""
"html-keyboard-response","71","457065","0.0-4.0-13.0-2.0-1.3","spark_pilot_2","7123","1","8","Female","","","","","","","","null","<div style=""font-size:60px;"">+</div>","null","fixation","","","","","","","","","","","","","",""
"revaluation","72","463074","0.0-4.0-13.0-2.0-0.4","spark_pilot_2","7123","1","8","Female","","false","","","","","","[922,555]","./assets/img/space/11.jpg","[""ArrowUp"",""ArrowRight""]","practice block","space","36","{""ArrowUp,ArrowLeft"":3,""ArrowUp,ArrowRight"":36,""ArrowDown,ArrowLeft"":15,""ArrowDown,ArrowRight"":23}","true","ArrowUp,ArrowRight","false","","","","","","","",""
"html-keyboard-response","73","463577","0.0-4.0-13.0-2.0-1.4","spark_pilot_2","7123","1","8","Female","","","","","","","","null","<div style=""font-size:60px;"">+</div>","null","fixation","","","","","","","","","","","","","",""
"revaluation","74","469586","0.0-4.0-13.0-2.0-0.5","spark_pilot_2","7123","1","8","Female","","false","","","","","","[639.0000000000582,566]","./assets/img/space/12.jpg","[""ArrowUp"",""ArrowRight""]","practice block","space","36","{""ArrowUp,ArrowLeft"":3,""ArrowUp,ArrowRight"":36,""ArrowDown,ArrowLeft"":15,""ArrowDown,ArrowRight"":23}","true","ArrowUp,ArrowRight","false","","","","","","","",""
"html-keyboard-response","75","470089","0.0-4.0-13.0-2.0-1.5","spark_pilot_2","7123","1","8","Female","","","","","","","","null","<div style=""font-size:60px;"">+</div>","null","fixation","","","","","","","","","","","","","",""
"revaluation","76","476096","0.0-4.0-13.0-2.0-0.6","spark_pilot_2","7123","1","8","Female","","false","","","","","","[447,425.0000000000582]","./assets/img/space/13.jpg","[""ArrowUp"",""ArrowRight""]","practice block","space","36","{""ArrowUp,ArrowLeft"":3,""ArrowUp,ArrowRight"":36,""ArrowDown,ArrowLeft"":15,""ArrowDown,ArrowRight"":23}","true","ArrowUp,ArrowRight","false","","","","","","","",""
"html-keyboard-response","77","476599","0.0-4.0-13.0-2.0-1.6","spark_pilot_2","7123","1","8","Female","","","","","","","","null","<div style=""font-size:60px;"">+</div>","null","fixation","","","","","","","","","","","","","",""
"revaluation","78","482607","0.0-4.0-13.0-2.0-0.7","spark_pilot_2","7123","1","8","Female","","false","","","","","","[653.0000000000582,603]","./assets/img/space/14.jpg","[""ArrowUp"",""ArrowRight""]","practice block","space","36","{""ArrowUp,ArrowLeft"":3,""ArrowUp,ArrowRight"":36,""ArrowDown,ArrowLeft"":15,""ArrowDown,ArrowRight"":23}","true","ArrowUp,ArrowRight","false","","","","","","","",""
"html-keyboard-response","79","483110","0.0-4.0-13.0-2.0-1.7","spark_pilot_2","7123","1","8","Female","","","","","","","","null","<div style=""font-size:60px;"">+</div>","null","fixation","","","","","","","","","","","","","",""
"revaluation","80","487117","0.0-4.0-13.0-2.0-0.8","spark_pilot_2","7123","1","8","Female","","false","","","","","","[899]","./assets/img/space/catch/3.jpg","[""spaceBar""]","practice block","space","0","{""ArrowUp,ArrowLeft"":3,""ArrowUp,ArrowRight"":36,""ArrowDown,ArrowLeft"":15,""ArrowDown,ArrowRight"":23}","true","spaceBar","true","","","","","","","",""
"html-keyboard-response","81","487620","0.0-4.0-13.0-2.0-1.8","spark_pilot_2","7123","1","8","Female","","","","","","","","null","<div style=""font-size:60px;"">+</div>","null","fixation","","","","","","","","","","","","","",""
"learning-instructions","82","502656","0.0-4.0-13.0-3.0-0.0","spark_pilot_2","7123","1","8","Female","","","","","","","","2141","<p> Now, you will travel with a friend who will choose whether you go up or down first. </p>
            <p> On these turns, you will just see the animal that they found. You will still get to choose which chest to search for treasure.</p>","","instructions","","","","","","","","","","","","","",""
"revaluation","83","506662","0.0-4.0-13.0-4.0-0.0","spark_pilot_2","7123","1","8","Female","","false","","","","","","[1108.9999999999418]","./assets/img/space/animals/rabbit.jpg","[""ArrowRight""]","practice block","space","23","{""ArrowUp,ArrowLeft"":3,""ArrowUp,ArrowRight"":36,""ArrowDown,ArrowLeft"":15,""ArrowDown,ArrowRight"":23}","true","ArrowDown,ArrowRight","","","","","","","","",""
"html-keyboard-response","84","507165","0.0-4.0-13.0-4.0-1.0","spark_pilot_2","7123","1","8","Female","","","","","","","","null","<div style=""font-size:60px;"">+</div>","null","fixation","","","","","","","","","","","","","",""
"revaluation","85","511173","0.0-4.0-13.0-4.0-0.1","spark_pilot_2","7123","1","8","Female","","false","","","","","","[524]","./assets/img/space/animals/cat.jpg","[""ArrowRight""]","practice block","space","36","{""ArrowUp,ArrowLeft"":3,""ArrowUp,ArrowRight"":36,""ArrowDown,ArrowLeft"":15,""ArrowDown,ArrowRight"":23}","true","ArrowUp,ArrowRight","","","","","","","","",""
"html-keyboard-response","86","511675","0.0-4.0-13.0-4.0-1.1","spark_pilot_2","7123","1","8","Female","","","","","","","","null","<div style=""font-size:60px;"">+</div>","null","fixation","","","","","","","","","","","","","",""
"revaluation","87","515681","0.0-4.0-13.0-4.0-0.2","spark_pilot_2","7123","1","8","Female","","false","","","","","","[522]","./assets/img/space/animals/cat.jpg","[""ArrowRight""]","practice block","space","36","{""ArrowUp,ArrowLeft"":3,""ArrowUp,ArrowRight"":36,""ArrowDown,ArrowLeft"":15,""ArrowDown,ArrowRight"":23}","true","ArrowUp,ArrowRight","","","","","","","","",""
"html-keyboard-response","88","516184","0.0-4.0-13.0-4.0-1.2","spark_pilot_2","7123","1","8","Female","","","","","","","","null","<div style=""font-size:60px;"">+</div>","null","fixation","","","","","","","","","","","","","",""
"revaluation","89","520191","0.0-4.0-13.0-4.0-0.3","spark_pilot_2","7123","1","8","Female","","false","","","","","","[456.0000000000582]","./assets/img/space/animals/rabbit.jpg","[""ArrowRight""]","practice block","space","23","{""ArrowUp,ArrowLeft"":3,""ArrowUp,ArrowRight"":36,""ArrowDown,ArrowLeft"":15,""ArrowDown,ArrowRight"":23}","true","ArrowDown,ArrowRight","","","","","","","","",""
"html-keyboard-response","90","520694","0.0-4.0-13.0-4.0-1.3","spark_pilot_2","7123","1","8","Female","","","","","","","","null","<div style=""font-size:60px;"">+</div>","null","fixation","","","","","","","","","","","","","",""
"learning-instructions","91","529656","0.0-4.0-13.0-5.0-0.0","spark_pilot_2","7123","1","8","Female","","","","","","","","1607","<p> Time to play the dot game! </p>
            <p> For 15 seconds, click the red dots on the following screen as they appear. </p>","","instructions","","","","","","","","","","","","","",""
"revaluation","92","544658","0.0-4.0-13.0-6.0-0.0","spark_pilot_2","7123","1","8","Female","","","","","","","","[91]","","","rest practice","","10","","","","","0","15000","","","","","",""
"learning-instructions","93","554423","0.0-4.0-13.0-7.0-0.0","spark_pilot_2","7123","1","8","Female","","","","","","","","3658","<p> You have almost finished this part of the game! </p>
            <p> We are going to ask you to make a few more choices. </p>","","instructions","","","","","","","","","","","","","",""
"learning-instructions","94","573227","0.0-4.0-13.0-7.0-0.1","spark_pilot_2","7123","1","8","Female","","","","","","","","4815","<p> First, you need to decide whether to go up or down. When you see each picture, use the arrow keys to make your choice. </p>
            <p><b>You will not see which animal you found, but try to get to the one that will give you the most treasure.</b></p>","","instructions","","","","","","","","","","","","","",""
"revaluation","95","574553","0.0-4.0-13.0-8.0","spark_pilot_2","7123","1","8","Female","","false","","","","","","[1322]","./assets/img/space/15.jpg","[""ArrowUp""]","practice block","space","0","{""ArrowUp,ArrowLeft"":3,""ArrowUp,ArrowRight"":36,""ArrowDown,ArrowLeft"":15,""ArrowDown,ArrowRight"":23}","true","ArrowUp","false","","","","","","","",""
"html-keyboard-response","96","575056","0.0-4.0-13.0-9.0","spark_pilot_2","7123","1","8","Female","","","","","","","","null","<div style=""font-size:60px;"">+</div>","null","fixation","","","","","","","","","","","","","",""
"learning-instructions","97","587973","0.0-4.0-13.0-10.0-0.0","spark_pilot_2","7123","1","8","Female","","","","","","","","1557","<p> Now you will see the animals again and can search their chests for treasure. </p>
            <p> This time, you will not see how much treasure you earned, but you will earn more bonus money for making better choices. </p>","","instructions","","","","","","","","","","","","","",""
"revaluation","98","588659","0.0-4.0-13.0-11.0-0.0","spark_pilot_2","7123","1","8","Female","","false","","","","","","[681]","./assets/img/space/animals/cat.jpg","[""ArrowRight""]","practice block","space","0","{""ArrowUp,ArrowLeft"":3,""ArrowUp,ArrowRight"":36,""ArrowDown,ArrowLeft"":15,""ArrowDown,ArrowRight"":23}","true","ArrowUp,ArrowRight","","","","","","","","",""
"html-keyboard-response","99","589162","0.0-4.0-13.0-11.0-1.0","spark_pilot_2","7123","1","8","Female","","","","","","","","null","<div style=""font-size:60px;"">+</div>","null","fixation","","","","","","","","","","","","","",""
"revaluation","100","589845","0.0-4.0-13.0-11.0-0.1","spark_pilot_2","7123","1","8","Female","","false","","","","","","[678]","./assets/img/space/animals/rabbit.jpg","[""ArrowRight""]","practice block","space","0","{""ArrowUp,ArrowLeft"":3,""ArrowUp,ArrowRight"":36,""ArrowDown,ArrowLeft"":15,""ArrowDown,ArrowRight"":23}","true","ArrowDown,ArrowRight","","","","","","","","",""
"html-keyboard-response","101","590348","0.0-4.0-13.0-11.0-1.1","spark_pilot_2","7123","1","8","Female","","","","","","","","null","<div style=""font-size:60px;"">+</div>","null","fixation","","","","","","","","","","","","","",""
"learning-instructions","102","596290","0.0-4.0-14.0-0.0","spark_pilot_2","7123","1","8","Female","","","","","","","","1373","<p> Before you start, we're going to ask you a few questions about how the game works. </p>","","instructions","","","","","","","","","","","","","",""
"comp-q","103","604460","0.0-4.0-15.0-0.0-0.0","spark_pilot_2","7123","1","8","Female","","","","","","","","2598.0000000001164","<p> <b> True or False? </b> </p>
            <p> There can be 50 pieces of treasure in a given animal's chest. </p>","1","comp_question","","","","true","","","","","","","","","",""
"comp-q","104","612741","0.0-4.0-15.0-0.0-1.0","spark_pilot_2","7123","1","8","Female","","","","","","","","1642","<p> <b> That's right! </b> The amount of treasure in each chest can range from 0 to 40 pieces. </p>","0","comp_answer","","","","","","","","","","","","","",""
"comp-q","105","622775","0.0-4.0-15.0-0.1-0.1","spark_pilot_2","7123","1","8","Female","","","","","","","","2934","<p> <b> True or False? </b> </p><p> In this game, all animals have the same amount of treasure in their left and right chests. </p>","0","comp_question","","","","false","","","","","","","","","",""
"comp-q","106","629971","0.0-4.0-15.0-0.1-1.1","spark_pilot_2","7123","1","8","Female","","","","","","","","2106","<p> <b>Incorrect.</b> Animals have different amounts of treasure in their treasure chests. </p>","0","comp_answer","","","","","","","","","","","","","",""
"comp-q","107","638306","0.0-4.0-15.0-0.2-0.2","spark_pilot_2","7123","1","8","Female","","","","","","","","1241.0000000001164","<p> <b> True or False? </b> </p><p> In this game, all animals have the same amount of treasure in their left and right chests. </p>","1","comp_question","","","","true","","","","","","","","","",""
"comp-q","108","645022","0.0-4.0-15.0-0.2-1.2","spark_pilot_2","7123","1","8","Female","","","","","","","","1498","<p> <b> That's right! </b> Animals have different amounts of treasure in their treasure chests. </p>","0","comp_answer","","","","","","","","","","","","","",""
"comp-q","109","654124","0.0-4.0-15.0-0.3-0.3","spark_pilot_2","7123","1","8","Female","","","","","","","","3271.9999999998836","<p> <b> True or False? </b> </p><p> The same animal will always be there if you go up in the same place. </p>","0","comp_question","","","","true","","","","","","","","","",""
"comp-q","110","662091","0.0-4.0-15.0-0.3-1.3","spark_pilot_2","7123","1","8","Female","","","","","","","","1537","<p> <b> That's right! </b> One animal lives in the upper part and one lives in the lower part of every place. </p>","0","comp_answer","","","","","","","","","","","","","",""
"comp-q","111","668641","0.0-4.0-15.0-0.4-0.4","spark_pilot_2","7123","1","8","Female","","","","","","","","1041","<p> <b> True or False? </b> </p><p> If you see a different picture, it means you are in a new place. </p>","0","comp_question","","","","false","","","","","","","","","",""
"comp-q","112","681911","0.0-4.0-15.0-0.4-1.4","spark_pilot_2","7123","1","8","Female","","","","","","","","2197","<p> <b>Incorrect.</b> Lots of different images may show the same place. For example,  you may see three different images that all remind you that you are in outer space. </p>","0","comp_answer","","","","","","","","","","","","","",""
"comp-q","113","688862","0.0-4.0-15.0-0.5-0.5","spark_pilot_2","7123","1","8","Female","","","","","","","","1449","<p> <b> True or False? </b> </p><p> If you see a different picture, it means you are in a new place. </p>","1","comp_question","","","","true","","","","","","","","","",""
"comp-q","114","701875","0.0-4.0-15.0-0.5-1.5","spark_pilot_2","7123","1","8","Female","","","","","","","","1811","<p> <b> That's right! </b> Lots of different images may show the same place. For example,  you may see three different images that all remind you that you are in outer space. </p>","0","comp_answer","","","","","","","","","","","","","",""
"learning-instructions","115","714488","0.0-4.0-16.0-0.0","spark_pilot_2","7123","1","8","Female","","","","","","","","2782","<p> Good job. Remember to do your best because the amount of treasure you earn will be converted into bonus money. </p>
            <p> It’s time to start the real game! </p>","","instructions","","","","","","","","","","","","","",""
"learning-instructions","116","718360","0.0-5.0-0.0-0.0","spark_pilot_2","7123","1","8","Female","","","","","","","","1176","<p> This time you are searching for treasure in the <b>ocean</b>.</p>","","instructions","","","","","","","","","","","","","",""
"learning-instructions","117","737856","0.0-5.0-0.0-0.1","spark_pilot_2","7123","1","8","Female","","","","","","","","2232.0000000001164","<p><b>New</b> animals with <b>new</b> treasure chests live here. You need to explore to discover where the animal with the best treasure chest is.</p>
                    <p> Like before, once you figure out which animal has the chest with the most treasure, you should try to get to that animal and select that chest! </p>","","instructions","","","","","","","","","","","","","",""
"learning-instructions","118","756255","0.0-5.0-1.0-0.0","spark_pilot_2","7123","1","8","Female","","","","","","","","3666","<p> Remember, when you see a picture of the place, use the up and down keys to <b>find an animal</b>.</p>
            <p> When you encounter an animal, you should use the left and right keys to <b>select a treasure chest</b>.</p>
            <p> Don't forget to look out for the robber! </p>","","instructions","","","","","","","","","","","","","",""
"revaluation","119","762267","0.0-5.0-2.0-0.0","spark_pilot_2","7123","1","8","Female","","false","","","","","","[981,489]","./assets/img/ocean/memory/30.jpg","[""ArrowUp"",""ArrowRight""]","value training","ocean","10","{""ArrowUp,ArrowLeft"":26,""ArrowUp,ArrowRight"":10,""ArrowDown,ArrowLeft"":5,""ArrowDown,ArrowRight"":17}","false","ArrowUp,ArrowRight","false","","","original","1","0","","",""
"html-keyboard-response","120","762771","0.0-5.0-2.0-1.0","spark_pilot_2","7123","1","8","Female","","","","","","","","null","<div style=""font-size:60px;"">+</div>","null","fixation","","","","","","","","","","","1","","",""
"revaluation","121","768782","0.0-5.0-2.0-0.1","spark_pilot_2","7123","1","8","Female","","false","","","","","","[538,524]","./assets/img/ocean/memory/34.jpg","[""ArrowUp"",""ArrowLeft""]","value training","ocean","26","{""ArrowUp,ArrowLeft"":26,""ArrowUp,ArrowRight"":10,""ArrowDown,ArrowLeft"":5,""ArrowDown,ArrowRight"":17}","true","ArrowUp,ArrowLeft","false","","","original","1","2","","",""
"html-keyboard-response","122","769285","0.0-5.0-2.0-1.1","spark_pilot_2","7123","1","8","Female","","","","","","","","null","<div style=""font-size:60px;"">+</div>","null","fixation","","","","","","","","","","","3","","",""
"revaluation","123","775295","0.0-5.0-2.0-0.2","spark_pilot_2","7123","1","8","Female","","false","","","","","","[622,956]","./assets/img/ocean/memory/28.jpg","[""ArrowDown"",""ArrowRight""]","value training","ocean","17","{""ArrowUp,ArrowLeft"":26,""ArrowUp,ArrowRight"":10,""ArrowDown,ArrowLeft"":5,""ArrowDown,ArrowRight"":17}","false","ArrowDown,ArrowRight","false","","","original","1","4","","",""
"html-keyboard-response","124","775798","0.0-5.0-2.0-1.2","spark_pilot_2","7123","1","8","Female","","","","","","","","null","<div style=""font-size:60px;"">+</div>","null","fixation","","","","","","","","","","","5","","",""
"revaluation","125","781807","0.0-5.0-2.0-0.3","spark_pilot_2","7123","1","8","Female","","false","","","","","","[910.9999999998836,758]","./assets/img/ocean/memory/21.jpg","[""ArrowUp"",""ArrowRight""]","value training","ocean","10","{""ArrowUp,ArrowLeft"":26,""ArrowUp,ArrowRight"":10,""ArrowDown,ArrowLeft"":5,""ArrowDown,ArrowRight"":17}","false","ArrowUp,ArrowRight","false","","","original","1","6","","",""
"html-keyboard-response","126","782310","0.0-5.0-2.0-1.3","spark_pilot_2","7123","1","8","Female","","","","","","","","null","<div style=""font-size:60px;"">+</div>","null","fixation","","","","","","","","","","","7","","",""
"revaluation","127","788318","0.0-5.0-2.0-0.4","spark_pilot_2","7123","1","8","Female","","false","","","","","","[840,697]","./assets/img/ocean/memory/35.jpg","[""ArrowUp"",""ArrowLeft""]","value training","ocean","26","{""ArrowUp,ArrowLeft"":26,""ArrowUp,ArrowRight"":10,""ArrowDown,ArrowLeft"":5,""ArrowDown,ArrowRight"":17}","true","ArrowUp,ArrowLeft","false","","","original","1","8","","",""
"html-keyboard-response","128","788822","0.0-5.0-2.0-1.4","spark_pilot_2","7123","1","8","Female","","","","","","","","null","<div style=""font-size:60px;"">+</div>","null","fixation","","","","","","","","","","","9","","",""
"revaluation","129","792829","0.0-5.0-2.0-0.5","spark_pilot_2","7123","1","8","Female","","false","","","","","","[594]","./assets/img/ocean/catch/2.jpg","[""spaceBar""]","value training","ocean","0","{""ArrowUp,ArrowLeft"":26,""ArrowUp,ArrowRight"":10,""ArrowDown,ArrowLeft"":5,""ArrowDown,ArrowRight"":17}","true","spaceBar","true","","","original","1","10","","",""
"html-keyboard-response","130","793332","0.0-5.0-2.0-1.5","spark_pilot_2","7123","1","8","Female","","","","","","","","null","<div style=""font-size:60px;"">+</div>","null","fixation","","","","","","","","","","","11","","",""
"revaluation","131","799340","0.0-5.0-2.0-0.6","spark_pilot_2","7123","1","8","Female","","false","","","","","","[751,524]","./assets/img/ocean/memory/2.jpg","[""ArrowUp"",""ArrowLeft""]","value training","ocean","26","{""ArrowUp,ArrowLeft"":26,""ArrowUp,ArrowRight"":10,""ArrowDown,ArrowLeft"":5,""ArrowDown,ArrowRight"":17}","true","ArrowUp,ArrowLeft","false","","","original","1","12","","",""
"html-keyboard-response","132","799843","0.0-5.0-2.0-1.6","spark_pilot_2","7123","1","8","Female","","","","","","","","null","<div style=""font-size:60px;"">+</div>","null","fixation","","","","","","","","","","","13","","",""
"revaluation","133","805852","0.0-5.0-2.0-0.7","spark_pilot_2","7123","1","8","Female","","false","","","","","","[492,848]","./assets/img/ocean/memory/37.jpg","[""ArrowUp"",""ArrowRight""]","value training","ocean","10","{""ArrowUp,ArrowLeft"":26,""ArrowUp,ArrowRight"":10,""ArrowDown,ArrowLeft"":5,""ArrowDown,ArrowRight"":17}","false","ArrowUp,ArrowRight","false","","","original","1","14","","",""
"html-keyboard-response","134","806355","0.0-5.0-2.0-1.7","spark_pilot_2","7123","1","8","Female","","","","","","","","null","<div style=""font-size:60px;"">+</div>","null","fixation","","","","","","","","","","","15","","",""
"revaluation","135","812362","0.0-5.0-2.0-0.8","spark_pilot_2","7123","1","8","Female","","false","","","","","","[1050,445]","./assets/img/ocean/memory/24.jpg","[""ArrowUp"",""ArrowLeft""]","value training","ocean","26","{""ArrowUp,ArrowLeft"":26,""ArrowUp,ArrowRight"":10,""ArrowDown,ArrowLeft"":5,""ArrowDown,ArrowRight"":17}","true","ArrowUp,ArrowLeft","false","","","original","1","16","","",""
"html-keyboard-response","136","812865","0.0-5.0-2.0-1.8","spark_pilot_2","7123","1","8","Female","","","","","","","","null","<div style=""font-size:60px;"">+</div>","null","fixation","","","","","","","","","","","17","","",""
"revaluation","137","818872","0.0-5.0-2.0-0.9","spark_pilot_2","7123","1","8","Female","","false","","","","","","[686,934]","./assets/img/ocean/memory/7.jpg","[""ArrowUp"",""ArrowRight""]","value training","ocean","10","{""ArrowUp,ArrowLeft"":26,""ArrowUp,ArrowRight"":10,""ArrowDown,ArrowLeft"":5,""ArrowDown,ArrowRight"":17}","false","ArrowUp,ArrowRight","false","","","original","1","18","","",""
"html-keyboard-response","138","819375","0.0-5.0-2.0-1.9","spark_pilot_2","7123","1","8","Female","","","","","","","","null","<div style=""font-size:60px;"">+</div>","null","fixation","","","","","","","","","","","19","","",""
"revaluation","139","825383","0.0-5.0-2.0-0.10","spark_pilot_2","7123","1","8","Female","","false","","","","","","[468,417]","./assets/img/ocean/memory/8.jpg","[""ArrowUp"",""ArrowLeft""]","value training","ocean","26","{""ArrowUp,ArrowLeft"":26,""ArrowUp,ArrowRight"":10,""ArrowDown,ArrowLeft"":5,""ArrowDown,ArrowRight"":17}","true","ArrowUp,ArrowLeft","false","","","original","1","20","","",""
"html-keyboard-response","140","825886","0.0-5.0-2.0-1.10","spark_pilot_2","7123","1","8","Female","","","","","","","","null","<div style=""font-size:60px;"">+</div>","null","fixation","","","","","","","","","","","21","","",""
"revaluation","141","831894","0.0-5.0-2.0-0.11","spark_pilot_2","7123","1","8","Female","","false","","","","","","[577,597.9999999998836]","./assets/img/ocean/memory/22.jpg","[""ArrowDown"",""ArrowLeft""]","value training","ocean","5","{""ArrowUp,ArrowLeft"":26,""ArrowUp,ArrowRight"":10,""ArrowDown,ArrowLeft"":5,""ArrowDown,ArrowRight"":17}","false","ArrowDown,ArrowLeft","false","","","original","1","22","","",""
"html-keyboard-response","142","832397","0.0-5.0-2.0-1.11","spark_pilot_2","7123","1","8","Female","","","","","","","","null","<div style=""font-size:60px;"">+</div>","null","fixation","","","","","","","","","","","23","","",""
"revaluation","143","838405","0.0-5.0-2.0-0.12","spark_pilot_2","7123","1","8","Female","","false","","","","","","[688,506.9999999998836]","./assets/img/ocean/memory/33.jpg","[""ArrowUp"",""ArrowRight""]","value training","ocean","10","{""ArrowUp,ArrowLeft"":26,""ArrowUp,ArrowRight"":10,""ArrowDown,ArrowLeft"":5,""ArrowDown,ArrowRight"":17}","false","ArrowUp,ArrowRight","false","","","original","1","24","","",""
"html-keyboard-response","144","838908","0.0-5.0-2.0-1.12","spark_pilot_2","7123","1","8","Female","","","","","","","","null","<div style=""font-size:60px;"">+</div>","null","fixation","","","","","","","","","","","25","","",""
"revaluation","145","844916","0.0-5.0-2.0-0.13","spark_pilot_2","7123","1","8","Female","","false","","","","","","[1135,679]","./assets/img/ocean/memory/38.jpg","[""ArrowUp"",""ArrowRight""]","value training","ocean","10","{""ArrowUp,ArrowLeft"":26,""ArrowUp,ArrowRight"":10,""ArrowDown,ArrowLeft"":5,""ArrowDown,ArrowRight"":17}","false","ArrowUp,ArrowRight","false","","","original","1","26","","",""
"html-keyboard-response","146","845419","0.0-5.0-2.0-1.13","spark_pilot_2","7123","1","8","Female","","","","","","","","null","<div style=""font-size:60px;"">+</div>","null","fixation","","","","","","","","","","","27","","",""
"revaluation","147","851427","0.0-5.0-2.0-0.14","spark_pilot_2","7123","1","8","Female","","false","","","","","","[926.0000000001164,655.0000000001164]","./assets/img/ocean/memory/20.jpg","[""ArrowUp"",""ArrowLeft""]","value training","ocean","26","{""ArrowUp,ArrowLeft"":26,""ArrowUp,ArrowRight"":10,""ArrowDown,ArrowLeft"":5,""ArrowDown,ArrowRight"":17}","true","ArrowUp,ArrowLeft","false","","","original","1","28","","",""
"html-keyboard-response","148","851930","0.0-5.0-2.0-1.14","spark_pilot_2","7123","1","8","Female","","","","","","","","null","<div style=""font-size:60px;"">+</div>","null","fixation","","","","","","","","","","","29","","",""
"revaluation","149","855936","0.0-5.0-2.0-0.15","spark_pilot_2","7123","1","8","Female","","false","","","","","","[682]","./assets/img/ocean/catch/0.jpg","[""spaceBar""]","value training","ocean","0","{""ArrowUp,ArrowLeft"":26,""ArrowUp,ArrowRight"":10,""ArrowDown,ArrowLeft"":5,""ArrowDown,ArrowRight"":17}","true","spaceBar","true","","","original","1","30","","",""
"html-keyboard-response","150","856439","0.0-5.0-2.0-1.15","spark_pilot_2","7123","1","8","Female","","","","","","","","null","<div style=""font-size:60px;"">+</div>","null","fixation","","","","","","","","","","","31","","",""
"revaluation","151","860446","0.0-5.0-2.0-0.16","spark_pilot_2","7123","1","8","Female","","false","","","","","","[1082]","./assets/img/ocean/catch/3.jpg","[""spaceBar""]","value training","ocean","0","{""ArrowUp,ArrowLeft"":26,""ArrowUp,ArrowRight"":10,""ArrowDown,ArrowLeft"":5,""ArrowDown,ArrowRight"":17}","true","spaceBar","true","","","original","1","32","","",""
"html-keyboard-response","152","860949","0.0-5.0-2.0-1.16","spark_pilot_2","7123","1","8","Female","","","","","","","","null","<div style=""font-size:60px;"">+</div>","null","fixation","","","","","","","","","","","33","","",""
"revaluation","153","866957","0.0-5.0-2.0-0.17","spark_pilot_2","7123","1","8","Female","","false","","","","","","[1266.9999999998836,616]","./assets/img/ocean/memory/39.jpg","[""ArrowUp"",""ArrowLeft""]","value training","ocean","26","{""ArrowUp,ArrowLeft"":26,""ArrowUp,ArrowRight"":10,""ArrowDown,ArrowLeft"":5,""ArrowDown,ArrowRight"":17}","true","ArrowUp,ArrowLeft","false","","","original","1","34","","",""
"html-keyboard-response","154","867460","0.0-5.0-2.0-1.17","spark_pilot_2","7123","1","8","Female","","","","","","","","null","<div style=""font-size:60px;"">+</div>","null","fixation","","","","","","","","","","","35","","",""
"revaluation","155","873468","0.0-5.0-2.0-0.18","spark_pilot_2","7123","1","8","Female","","false","","","","","","[1316,977]","./assets/img/ocean/memory/34.jpg","[""ArrowUp"",""ArrowLeft""]","value training","ocean","26","{""ArrowUp,ArrowLeft"":26,""ArrowUp,ArrowRight"":10,""ArrowDown,ArrowLeft"":5,""ArrowDown,ArrowRight"":17}","true","ArrowUp,ArrowLeft","false","","","original","1","36","","",""
"html-keyboard-response","156","873971","0.0-5.0-2.0-1.18","spark_pilot_2","7123","1","8","Female","","","","","","","","null","<div style=""font-size:60px;"">+</div>","null","fixation","","","","","","","","","","","37","","",""
"revaluation","157","879979","0.0-5.0-2.0-0.19","spark_pilot_2","7123","1","8","Female","","false","","","","","","[1436,562]","./assets/img/ocean/memory/7.jpg","[""ArrowUp"",""ArrowLeft""]","value training","ocean","26","{""ArrowUp,ArrowLeft"":26,""ArrowUp,ArrowRight"":10,""ArrowDown,ArrowLeft"":5,""ArrowDown,ArrowRight"":17}","true","ArrowUp,ArrowLeft","false","","","original","1","38","","",""
"html-keyboard-response","158","880482","0.0-5.0-2.0-1.19","spark_pilot_2","7123","1","8","Female","","","","","","","","null","<div style=""font-size:60px;"">+</div>","null","fixation","","","","","","","","","","","39","","",""
"revaluation","159","886491","0.0-5.0-2.0-0.20","spark_pilot_2","7123","1","8","Female","","false","","","","","","[663,521]","./assets/img/ocean/memory/26.jpg","[""ArrowUp"",""ArrowLeft""]","value training","ocean","26","{""ArrowUp,ArrowLeft"":26,""ArrowUp,ArrowRight"":10,""ArrowDown,ArrowLeft"":5,""ArrowDown,ArrowRight"":17}","true","ArrowUp,ArrowLeft","false","","","original","1","40","","",""
"html-keyboard-response","160","886994","0.0-5.0-2.0-1.20","spark_pilot_2","7123","1","8","Female","","","","","","","","null","<div style=""font-size:60px;"">+</div>","null","fixation","","","","","","","","","","","41","","",""
"revaluation","161","893002","0.0-5.0-2.0-0.21","spark_pilot_2","7123","1","8","Female","","false","","","","","","[1008,421]","./assets/img/ocean/memory/33.jpg","[""ArrowUp"",""ArrowLeft""]","value training","ocean","26","{""ArrowUp,ArrowLeft"":26,""ArrowUp,ArrowRight"":10,""ArrowDown,ArrowLeft"":5,""ArrowDown,ArrowRight"":17}","true","ArrowUp,ArrowLeft","false","","","original","1","42","","",""
"html-keyboard-response","162","893506","0.0-5.0-2.0-1.21","spark_pilot_2","7123","1","8","Female","","","","","","","","null","<div style=""font-size:60px;"">+</div>","null","fixation","","","","","","","","","","","43","","",""
"revaluation","163","897513","0.0-5.0-2.0-0.22","spark_pilot_2","7123","1","8","Female","","false","","","","","","[900]","./assets/img/ocean/catch/1.jpg","[""spaceBar""]","value training","ocean","0","{""ArrowUp,ArrowLeft"":26,""ArrowUp,ArrowRight"":10,""ArrowDown,ArrowLeft"":5,""ArrowDown,ArrowRight"":17}","true","spaceBar","true","","","original","1","44","","",""
"html-keyboard-response","164","898016","0.0-5.0-2.0-1.22","spark_pilot_2","7123","1","8","Female","","","","","","","","null","<div style=""font-size:60px;"">+</div>","null","fixation","","","","","","","","","","","45","","",""
"revaluation","165","904024","0.0-5.0-2.0-0.23","spark_pilot_2","7123","1","8","Female","","false","","","","","","[836.9999999998836,1444]","./assets/img/ocean/memory/37.jpg","[""ArrowUp"",""ArrowLeft""]","value training","ocean","26","{""ArrowUp,ArrowLeft"":26,""ArrowUp,ArrowRight"":10,""ArrowDown,ArrowLeft"":5,""ArrowDown,ArrowRight"":17}","true","ArrowUp,ArrowLeft","false","","","original","1","46","","",""
"html-keyboard-response","166","904527","0.0-5.0-2.0-1.23","spark_pilot_2","7123","1","8","Female","","","","","","","","null","<div style=""font-size:60px;"">+</div>","null","fixation","","","","","","","","","","","47","","",""
"revaluation","167","910535","0.0-5.0-2.0-0.24","spark_pilot_2","7123","1","8","Female","","false","","","","","","[942,672]","./assets/img/ocean/memory/8.jpg","[""ArrowUp"",""ArrowLeft""]","value training","ocean","26","{""ArrowUp,ArrowLeft"":26,""ArrowUp,ArrowRight"":10,""ArrowDown,ArrowLeft"":5,""ArrowDown,ArrowRight"":17}","true","ArrowUp,ArrowLeft","false","","","original","1","48","","",""
"html-keyboard-response","168","911038","0.0-5.0-2.0-1.24","spark_pilot_2","7123","1","8","Female","","","","","","","","null","<div style=""font-size:60px;"">+</div>","null","fixation","","","","","","","","","","","49","","",""
"revaluation","169","917046","0.0-5.0-2.0-0.25","spark_pilot_2","7123","1","8","Female","","false","","","","","","[1080,646.9999999998836]","./assets/img/ocean/memory/21.jpg","[""ArrowUp"",""ArrowLeft""]","value training","ocean","26","{""ArrowUp,ArrowLeft"":26,""ArrowUp,ArrowRight"":10,""ArrowDown,ArrowLeft"":5,""ArrowDown,ArrowRight"":17}","true","ArrowUp,ArrowLeft","false","","","original","1","50","","",""
"html-keyboard-response","170","917549","0.0-5.0-2.0-1.25","spark_pilot_2","7123","1","8","Female","","","","","","","","null","<div style=""font-size:60px;"">+</div>","null","fixation","","","","","","","","","","","51","","",""
"revaluation","171","923557","0.0-5.0-2.0-0.26","spark_pilot_2","7123","1","8","Female","","false","","","","","","[774.9999999998836,589]","./assets/img/ocean/memory/2.jpg","[""ArrowDown"",""ArrowLeft""]","value training","ocean","5","{""ArrowUp,ArrowLeft"":26,""ArrowUp,ArrowRight"":10,""ArrowDown,ArrowLeft"":5,""ArrowDown,ArrowRight"":17}","false","ArrowDown,ArrowLeft","false","","","original","1","52","","",""
"html-keyboard-response","172","924061","0.0-5.0-2.0-1.26","spark_pilot_2","7123","1","8","Female","","","","","","","","null","<div style=""font-size:60px;"">+</div>","null","fixation","","","","","","","","","","","53","","",""
"revaluation","173","930069","0.0-5.0-2.0-0.27","spark_pilot_2","7123","1","8","Female","","false","","","","","","[604,340]","./assets/img/ocean/memory/40.jpg","[""ArrowUp"",""ArrowLeft""]","value training","ocean","26","{""ArrowUp,ArrowLeft"":26,""ArrowUp,ArrowRight"":10,""ArrowDown,ArrowLeft"":5,""ArrowDown,ArrowRight"":17}","true","ArrowUp,ArrowLeft","false","","","original","1","54","","",""
"html-keyboard-response","174","930572","0.0-5.0-2.0-1.27","spark_pilot_2","7123","1","8","Female","","","","","","","","null","<div style=""font-size:60px;"">+</div>","null","fixation","","","","","","","","","","","55","","",""
"revaluation","175","936580","0.0-5.0-2.0-0.28","spark_pilot_2","7123","1","8","Female","","false","","","","","","[606,601]","./assets/img/ocean/memory/26.jpg","[""ArrowUp"",""ArrowRight""]","value training","ocean","10","{""ArrowUp,ArrowLeft"":26,""ArrowUp,ArrowRight"":10,""ArrowDown,ArrowLeft"":5,""ArrowDown,ArrowRight"":17}","false","ArrowUp,ArrowRight","false","","","original","1","56","","",""
"html-keyboard-response","176","937083","0.0-5.0-2.0-1.28","spark_pilot_2","7123","1","8","Female","","","","","","","","null","<div style=""font-size:60px;"">+</div>","null","fixation","","","","","","","","","","","57","","",""
"revaluation","177","943091","0.0-5.0-2.0-0.29","spark_pilot_2","7123","1","8","Female","","false","","","","","","[925,655]","./assets/img/ocean/memory/19.jpg","[""ArrowUp"",""ArrowLeft""]","value training","ocean","26","{""ArrowUp,ArrowLeft"":26,""ArrowUp,ArrowRight"":10,""ArrowDown,ArrowLeft"":5,""ArrowDown,ArrowRight"":17}","true","ArrowUp,ArrowLeft","false","","","original","1","58","","",""
"html-keyboard-response","178","943594","0.0-5.0-2.0-1.29","spark_pilot_2","7123","1","8","Female","","","","","","","","null","<div style=""font-size:60px;"">+</div>","null","fixation","","","","","","","","","","","59","","",""
"revaluation","179","949602","0.0-5.0-2.0-0.30","spark_pilot_2","7123","1","8","Female","","false","","","","","","[928,445]","./assets/img/ocean/memory/19.jpg","[""ArrowUp"",""ArrowLeft""]","value training","ocean","26","{""ArrowUp,ArrowLeft"":26,""ArrowUp,ArrowRight"":10,""ArrowDown,ArrowLeft"":5,""ArrowDown,ArrowRight"":17}","true","ArrowUp,ArrowLeft","false","","","original","1","60","","",""
"html-keyboard-response","180","950106","0.0-5.0-2.0-1.30","spark_pilot_2","7123","1","8","Female","","","","","","","","null","<div style=""font-size:60px;"">+</div>","null","fixation","","","","","","","","","","","61","","",""
"revaluation","181","956114","0.0-5.0-2.0-0.31","spark_pilot_2","7123","1","8","Female","","false","","","","","","[704,362]","./assets/img/ocean/memory/41.jpg","[""ArrowUp"",""ArrowLeft""]","value training","ocean","26","{""ArrowUp,ArrowLeft"":26,""ArrowUp,ArrowRight"":10,""ArrowDown,ArrowLeft"":5,""ArrowDown,ArrowRight"":17}","true","ArrowUp,ArrowLeft","false","","","original","1","62","","",""
"html-keyboard-response","182","956617","0.0-5.0-2.0-1.31","spark_pilot_2","7123","1","8","Female","","","","","","","","null","<div style=""font-size:60px;"">+</div>","null","fixation","","","","","","","","","","","63","","",""
"revaluation","183","962625","0.0-5.0-2.0-0.32","spark_pilot_2","7123","1","8","Female","","false","","","","","","[1823,845]","./assets/img/ocean/memory/30.jpg","[""ArrowUp"",""ArrowLeft""]","value training","ocean","26","{""ArrowUp,ArrowLeft"":26,""ArrowUp,ArrowRight"":10,""ArrowDown,ArrowLeft"":5,""ArrowDown,ArrowRight"":17}","true","ArrowUp,ArrowLeft","false","","","original","1","64","","",""
"html-keyboard-response","184","963128","0.0-5.0-2.0-1.32","spark_pilot_2","7123","1","8","Female","","","","","","","","null","<div style=""font-size:60px;"">+</div>","null","fixation","","","","","","","","","","","65","","",""
"revaluation","185","969136","0.0-5.0-2.0-0.33","spark_pilot_2","7123","1","8","Female","","false","","","","","","[964,519.9999999998836]","./assets/img/ocean/memory/22.jpg","[""ArrowUp"",""ArrowLeft""]","value training","ocean","26","{""ArrowUp,ArrowLeft"":26,""ArrowUp,ArrowRight"":10,""ArrowDown,ArrowLeft"":5,""ArrowDown,ArrowRight"":17}","true","ArrowUp,ArrowLeft","false","","","original","1","66","","",""
"html-keyboard-response","186","969640","0.0-5.0-2.0-1.33","spark_pilot_2","7123","1","8","Female","","","","","","","","null","<div style=""font-size:60px;"">+</div>","null","fixation","","","","","","","","","","","67","","",""
"revaluation","187","975648","0.0-5.0-2.0-0.34","spark_pilot_2","7123","1","8","Female","","false","","","","","","[1276,982]","./assets/img/ocean/memory/32.jpg","[""ArrowUp"",""ArrowLeft""]","value training","ocean","26","{""ArrowUp,ArrowLeft"":26,""ArrowUp,ArrowRight"":10,""ArrowDown,ArrowLeft"":5,""ArrowDown,ArrowRight"":17}","true","ArrowUp,ArrowLeft","false","","","original","1","68","","",""
"html-keyboard-response","188","976151","0.0-5.0-2.0-1.34","spark_pilot_2","7123","1","8","Female","","","","","","","","null","<div style=""font-size:60px;"">+</div>","null","fixation","","","","","","","","","","","69","","",""
"revaluation","189","980158","0.0-5.0-2.0-0.35","spark_pilot_2","7123","1","8","Female","","false","","","","","","[1215]","./assets/img/ocean/catch/5.jpg","[""spaceBar""]","value training","ocean","0","{""ArrowUp,ArrowLeft"":26,""ArrowUp,ArrowRight"":10,""ArrowDown,ArrowLeft"":5,""ArrowDown,ArrowRight"":17}","true","spaceBar","true","","","original","1","70","","",""
"html-keyboard-response","190","980661","0.0-5.0-2.0-1.35","spark_pilot_2","7123","1","8","Female","","","","","","","","null","<div style=""font-size:60px;"">+</div>","null","fixation","","","","","","","","","","","71","","",""
"revaluation","191","984666","0.0-5.0-2.0-0.36","spark_pilot_2","7123","1","8","Female","","false","","","","","","[836]","./assets/img/ocean/catch/4.jpg","[""spaceBar""]","value training","ocean","0","{""ArrowUp,ArrowLeft"":26,""ArrowUp,ArrowRight"":10,""ArrowDown,ArrowLeft"":5,""ArrowDown,ArrowRight"":17}","true","spaceBar","true","","","original","1","72","","",""
"html-keyboard-response","192","985169","0.0-5.0-2.0-1.36","spark_pilot_2","7123","1","8","Female","","","","","","","","null","<div style=""font-size:60px;"">+</div>","null","fixation","","","","","","","","","","","73","","",""
"revaluation","193","991177","0.0-5.0-2.0-0.37","spark_pilot_2","7123","1","8","Female","","false","","","","","","[986,671.0000000001164]","./assets/img/ocean/memory/28.jpg","[""ArrowUp"",""ArrowLeft""]","value training","ocean","26","{""ArrowUp,ArrowLeft"":26,""ArrowUp,ArrowRight"":10,""ArrowDown,ArrowLeft"":5,""ArrowDown,ArrowRight"":17}","true","ArrowUp,ArrowLeft","false","","","original","1","74","","",""
"html-keyboard-response","194","991680","0.0-5.0-2.0-1.37","spark_pilot_2","7123","1","8","Female","","","","","","","","null","<div style=""font-size:60px;"">+</div>","null","fixation","","","","","","","","","","","75","","",""
"revaluation","195","997687","0.0-5.0-2.0-0.38","spark_pilot_2","7123","1","8","Female","","false","","","","","","[947,551.9999999998836]","./assets/img/ocean/memory/41.jpg","[""ArrowUp"",""ArrowLeft""]","value training","ocean","26","{""ArrowUp,ArrowLeft"":26,""ArrowUp,ArrowRight"":10,""ArrowDown,ArrowLeft"":5,""ArrowDown,ArrowRight"":17}","true","ArrowUp,ArrowLeft","false","","","original","1","76","","",""
"html-keyboard-response","196","998190","0.0-5.0-2.0-1.38","spark_pilot_2","7123","1","8","Female","","","","","","","","null","<div style=""font-size:60px;"">+</div>","null","fixation","","","","","","","","","","","77","","",""
"revaluation","197","1004198","0.0-5.0-2.0-0.39","spark_pilot_2","7123","1","8","Female","","false","","","","","","[651,635.9999999998836]","./assets/img/ocean/memory/35.jpg","[""ArrowUp"",""ArrowLeft""]","value training","ocean","26","{""ArrowUp,ArrowLeft"":26,""ArrowUp,ArrowRight"":10,""ArrowDown,ArrowLeft"":5,""ArrowDown,ArrowRight"":17}","true","ArrowUp,ArrowLeft","false","","","original","1","78","","",""
"html-keyboard-response","198","1004701","0.0-5.0-2.0-1.39","spark_pilot_2","7123","1","8","Female","","","","","","","","null","<div style=""font-size:60px;"">+</div>","null","fixation","","","","","","","","","","","79","","",""
"revaluation","199","1010708","0.0-5.0-2.0-0.40","spark_pilot_2","7123","1","8","Female","","false","","","","","","[1042,543]","./assets/img/ocean/memory/39.jpg","[""ArrowUp"",""ArrowLeft""]","value training","ocean","26","{""ArrowUp,ArrowLeft"":26,""ArrowUp,ArrowRight"":10,""ArrowDown,ArrowLeft"":5,""ArrowDown,ArrowRight"":17}","true","ArrowUp,ArrowLeft","false","","","original","1","80","","",""
"html-keyboard-response","200","1011211","0.0-5.0-2.0-1.40","spark_pilot_2","7123","1","8","Female","","","","","","","","null","<div style=""font-size:60px;"">+</div>","null","fixation","","","","","","","","","","","81","","",""
"revaluation","201","1017218","0.0-5.0-2.0-0.41","spark_pilot_2","7123","1","8","Female","","false","","","","","","[1454.9999999998836,435]","./assets/img/ocean/memory/24.jpg","[""ArrowUp"",""ArrowLeft""]","value training","ocean","26","{""ArrowUp,ArrowLeft"":26,""ArrowUp,ArrowRight"":10,""ArrowDown,ArrowLeft"":5,""ArrowDown,ArrowRight"":17}","true","ArrowUp,ArrowLeft","false","","","original","1","82","","",""
"html-keyboard-response","202","1017721","0.0-5.0-2.0-1.41","spark_pilot_2","7123","1","8","Female","","","","","","","","null","<div style=""font-size:60px;"">+</div>","null","fixation","","","","","","","","","","","83","","",""
"revaluation","203","1023729","0.0-5.0-2.0-0.42","spark_pilot_2","7123","1","8","Female","","false","","","","","","[780,772]","./assets/img/ocean/memory/36.jpg","[""ArrowUp"",""ArrowLeft""]","value training","ocean","26","{""ArrowUp,ArrowLeft"":26,""ArrowUp,ArrowRight"":10,""ArrowDown,ArrowLeft"":5,""ArrowDown,ArrowRight"":17}","true","ArrowUp,ArrowLeft","false","","","original","1","84","","",""
"html-keyboard-response","204","1024232","0.0-5.0-2.0-1.42","spark_pilot_2","7123","1","8","Female","","","","","","","","null","<div style=""font-size:60px;"">+</div>","null","fixation","","","","","","","","","","","85","","",""
"revaluation","205","1030240","0.0-5.0-2.0-0.43","spark_pilot_2","7123","1","8","Female","","false","","","","","","[1246.9999999997672,496.99999999976717]","./assets/img/ocean/memory/36.jpg","[""ArrowUp"",""ArrowLeft""]","value training","ocean","26","{""ArrowUp,ArrowLeft"":26,""ArrowUp,ArrowRight"":10,""ArrowDown,ArrowLeft"":5,""ArrowDown,ArrowRight"":17}","true","ArrowUp,ArrowLeft","false","","","original","1","86","","",""
"html-keyboard-response","206","1030743","0.0-5.0-2.0-1.43","spark_pilot_2","7123","1","8","Female","","","","","","","","null","<div style=""font-size:60px;"">+</div>","null","fixation","","","","","","","","","","","87","","",""
"revaluation","207","1036752","0.0-5.0-2.0-0.44","spark_pilot_2","7123","1","8","Female","","false","","","","","","[2000,861.0000000001164]","./assets/img/ocean/memory/20.jpg","[""ArrowUp"",""ArrowLeft""]","value training","ocean","26","{""ArrowUp,ArrowLeft"":26,""ArrowUp,ArrowRight"":10,""ArrowDown,ArrowLeft"":5,""ArrowDown,ArrowRight"":17}","true","ArrowUp,ArrowLeft","false","","","original","1","88","","",""
"html-keyboard-response","208","1037255","0.0-5.0-2.0-1.44","spark_pilot_2","7123","1","8","Female","","","","","","","","null","<div style=""font-size:60px;"">+</div>","null","fixation","","","","","","","","","","","89","","",""
"revaluation","209","1041263","0.0-5.0-2.0-0.45","spark_pilot_2","7123","1","8","Female","","false","","","","","","[761]","./assets/img/ocean/catch/6.jpg","[""spaceBar""]","value training","ocean","0","{""ArrowUp,ArrowLeft"":26,""ArrowUp,ArrowRight"":10,""ArrowDown,ArrowLeft"":5,""ArrowDown,ArrowRight"":17}","true","spaceBar","true","","","original","1","90","","",""
"html-keyboard-response","210","1041768","0.0-5.0-2.0-1.45","spark_pilot_2","7123","1","8","Female","","","","","","","","null","<div style=""font-size:60px;"">+</div>","null","fixation","","","","","","","","","","","91","","",""
"revaluation","211","1047778","0.0-5.0-2.0-0.46","spark_pilot_2","7123","1","8","Female","","false","","","","","","[1072.9999999998836,580.9999999998836]","./assets/img/ocean/memory/40.jpg","[""ArrowUp"",""ArrowLeft""]","value training","ocean","26","{""ArrowUp,ArrowLeft"":26,""ArrowUp,ArrowRight"":10,""ArrowDown,ArrowLeft"":5,""ArrowDown,ArrowRight"":17}","true","ArrowUp,ArrowLeft","false","","","original","1","92","","",""
"html-keyboard-response","212","1048282","0.0-5.0-2.0-1.46","spark_pilot_2","7123","1","8","Female","","","","","","","","null","<div style=""font-size:60px;"">+</div>","null","fixation","","","","","","","","","","","93","","",""
"revaluation","213","1054292","0.0-5.0-2.0-0.47","spark_pilot_2","7123","1","8","Female","","false","","","","","","[638,354]","./assets/img/ocean/memory/38.jpg","[""ArrowUp"",""ArrowLeft""]","value training","ocean","26","{""ArrowUp,ArrowLeft"":26,""ArrowUp,ArrowRight"":10,""ArrowDown,ArrowLeft"":5,""ArrowDown,ArrowRight"":17}","true","ArrowUp,ArrowLeft","false","","","original","1","94","","",""
"html-keyboard-response","214","1054796","0.0-5.0-2.0-1.47","spark_pilot_2","7123","1","8","Female","","","","","","","","null","<div style=""font-size:60px;"">+</div>","null","fixation","","","","","","","","","","","95","","",""
"revaluation","215","1058804","0.0-5.0-2.0-0.48","spark_pilot_2","7123","1","8","Female","","false","","","","","","[1039.9999999997672]","./assets/img/ocean/catch/7.jpg","[""spaceBar""]","value training","ocean","0","{""ArrowUp,ArrowLeft"":26,""ArrowUp,ArrowRight"":10,""ArrowDown,ArrowLeft"":5,""ArrowDown,ArrowRight"":17}","true","spaceBar","true","","","original","1","96","","",""
"html-keyboard-response","216","1059308","0.0-5.0-2.0-1.48","spark_pilot_2","7123","1","8","Female","","","","","","","","null","<div style=""font-size:60px;"">+</div>","null","fixation","","","","","","","","","","","97","","",""
"revaluation","217","1065317","0.0-5.0-2.0-0.49","spark_pilot_2","7123","1","8","Female","","false","","","","","","[954,596]","./assets/img/ocean/memory/32.jpg","[""ArrowUp"",""ArrowLeft""]","value training","ocean","26","{""ArrowUp,ArrowLeft"":26,""ArrowUp,ArrowRight"":10,""ArrowDown,ArrowLeft"":5,""ArrowDown,ArrowRight"":17}","true","ArrowUp,ArrowLeft","false","","","original","1","98","","",""
"html-keyboard-response","218","1065820","0.0-5.0-2.0-1.49","spark_pilot_2","7123","1","8","Female","","","","","","","","null","<div style=""font-size:60px;"">+</div>","null","fixation","","","","","","","","","","","99","","",""
"learning-instructions","219","1081441","0.0-5.0-3.0-0.0","spark_pilot_2","7123","1","8","Female","","","","","","","","2733","<p> Now, you will travel with a friend who will choose whether you go up or down first. </p>
            <p> On these turns, you will just see the animal that they found. You will still get to choose which chest to search for treasure.</p>","","instructions","","","","","","","","","","","","","",""
"revaluation","220","1085448","0.0-5.0-4.0-0.0","spark_pilot_2","7123","1","8","Female","","false","","","","","","[909]","./assets/img/ocean/animals/octopus.jpg","[""ArrowRight""]","revaluation","ocean","17","{""ArrowUp,ArrowLeft"":26,""ArrowUp,ArrowRight"":10,""ArrowDown,ArrowLeft"":5,""ArrowDown,ArrowRight"":17}","true","ArrowDown,ArrowRight","","","","original","1","0","","",""
"html-keyboard-response","221","1085953","0.0-5.0-4.0-1.0","spark_pilot_2","7123","1","8","Female","","","","","","","","null","<div style=""font-size:60px;"">+</div>","null","fixation","","","","","","","","","","","1","","",""
"revaluation","222","1089960","0.0-5.0-4.0-0.1","spark_pilot_2","7123","1","8","Female","","false","","","","","","[644]","./assets/img/ocean/animals/octopus.jpg","[""ArrowLeft""]","revaluation","ocean","5","{""ArrowUp,ArrowLeft"":26,""ArrowUp,ArrowRight"":10,""ArrowDown,ArrowLeft"":5,""ArrowDown,ArrowRight"":17}","false","ArrowDown,ArrowLeft","","","","original","1","2","","",""
"html-keyboard-response","223","1090464","0.0-5.0-4.0-1.1","spark_pilot_2","7123","1","8","Female","","","","","","","","null","<div style=""font-size:60px;"">+</div>","null","fixation","","","","","","","","","","","3","","",""
"revaluation","224","1094471","0.0-5.0-4.0-0.2","spark_pilot_2","7123","1","8","Female","","false","","","","","","[579]","./assets/img/ocean/animals/octopus.jpg","[""ArrowRight""]","revaluation","ocean","17","{""ArrowUp,ArrowLeft"":26,""ArrowUp,ArrowRight"":10,""ArrowDown,ArrowLeft"":5,""ArrowDown,ArrowRight"":17}","true","ArrowDown,ArrowRight","","","","original","1","4","","",""
"html-keyboard-response","225","1094973","0.0-5.0-4.0-1.2","spark_pilot_2","7123","1","8","Female","","","","","","","","null","<div style=""font-size:60px;"">+</div>","null","fixation","","","","","","","","","","","5","","",""
"revaluation","226","1098980","0.0-5.0-4.0-0.3","spark_pilot_2","7123","1","8","Female","","false","","","","","","[1513]","./assets/img/ocean/animals/seahorse.jpg","[""ArrowLeft""]","revaluation","ocean","26","{""ArrowUp,ArrowLeft"":26,""ArrowUp,ArrowRight"":10,""ArrowDown,ArrowLeft"":5,""ArrowDown,ArrowRight"":17}","true","ArrowUp,ArrowLeft","","","","original","1","6","","",""
"html-keyboard-response","227","1099484","0.0-5.0-4.0-1.3","spark_pilot_2","7123","1","8","Female","","","","","","","","null","<div style=""font-size:60px;"">+</div>","null","fixation","","","","","","","","","","","7","","",""
"revaluation","228","1103490","0.0-5.0-4.0-0.4","spark_pilot_2","7123","1","8","Female","","false","","","","","","[498]","./assets/img/ocean/animals/octopus.jpg","[""ArrowRight""]","revaluation","ocean","17","{""ArrowUp,ArrowLeft"":26,""ArrowUp,ArrowRight"":10,""ArrowDown,ArrowLeft"":5,""ArrowDown,ArrowRight"":17}","true","ArrowDown,ArrowRight","","","","original","1","8","","",""
"html-keyboard-response","229","1103994","0.0-5.0-4.0-1.4","spark_pilot_2","7123","1","8","Female","","","","","","","","null","<div style=""font-size:60px;"">+</div>","null","fixation","","","","","","","","","","","9","","",""
"revaluation","230","1108001","0.0-5.0-4.0-0.5","spark_pilot_2","7123","1","8","Female","","false","","","","","","[774]","./assets/img/ocean/animals/octopus.jpg","[""ArrowLeft""]","revaluation","ocean","5","{""ArrowUp,ArrowLeft"":26,""ArrowUp,ArrowRight"":10,""ArrowDown,ArrowLeft"":5,""ArrowDown,ArrowRight"":17}","false","ArrowDown,ArrowLeft","","","","original","1","10","","",""
"html-keyboard-response","231","1108504","0.0-5.0-4.0-1.5","spark_pilot_2","7123","1","8","Female","","","","","","","","null","<div style=""font-size:60px;"">+</div>","null","fixation","","","","","","","","","","","11","","",""
"revaluation","232","1112512","0.0-5.0-4.0-0.6","spark_pilot_2","7123","1","8","Female","","false","","","","","","[826]","./assets/img/ocean/animals/octopus.jpg","[""ArrowRight""]","revaluation","ocean","17","{""ArrowUp,ArrowLeft"":26,""ArrowUp,ArrowRight"":10,""ArrowDown,ArrowLeft"":5,""ArrowDown,ArrowRight"":17}","true","ArrowDown,ArrowRight","","","","original","1","12","","",""
"html-keyboard-response","233","1113015","0.0-5.0-4.0-1.6","spark_pilot_2","7123","1","8","Female","","","","","","","","null","<div style=""font-size:60px;"">+</div>","null","fixation","","","","","","","","","","","13","","",""
"revaluation","234","1117021","0.0-5.0-4.0-0.7","spark_pilot_2","7123","1","8","Female","","false","","","","","","[861]","./assets/img/ocean/animals/seahorse.jpg","[""ArrowLeft""]","revaluation","ocean","26","{""ArrowUp,ArrowLeft"":26,""ArrowUp,ArrowRight"":10,""ArrowDown,ArrowLeft"":5,""ArrowDown,ArrowRight"":17}","true","ArrowUp,ArrowLeft","","","","original","1","14","","",""
"html-keyboard-response","235","1117524","0.0-5.0-4.0-1.7","spark_pilot_2","7123","1","8","Female","","","","","","","","null","<div style=""font-size:60px;"">+</div>","null","fixation","","","","","","","","","","","15","","",""
"revaluation","236","1121530","0.0-5.0-4.0-0.8","spark_pilot_2","7123","1","8","Female","","false","","","","","","[853]","./assets/img/ocean/animals/seahorse.jpg","[""ArrowLeft""]","revaluation","ocean","26","{""ArrowUp,ArrowLeft"":26,""ArrowUp,ArrowRight"":10,""ArrowDown,ArrowLeft"":5,""ArrowDown,ArrowRight"":17}","true","ArrowUp,ArrowLeft","","","","original","1","16","","",""
"html-keyboard-response","237","1122034","0.0-5.0-4.0-1.8","spark_pilot_2","7123","1","8","Female","","","","","","","","null","<div style=""font-size:60px;"">+</div>","null","fixation","","","","","","","","","","","17","","",""
"revaluation","238","1126041","0.0-5.0-4.0-0.9","spark_pilot_2","7123","1","8","Female","","false","","","","","","[576]","./assets/img/ocean/animals/seahorse.jpg","[""ArrowLeft""]","revaluation","ocean","26","{""ArrowUp,ArrowLeft"":26,""ArrowUp,ArrowRight"":10,""ArrowDown,ArrowLeft"":5,""ArrowDown,ArrowRight"":17}","true","ArrowUp,ArrowLeft","","","","original","1","18","","",""
"html-keyboard-response","239","1126544","0.0-5.0-4.0-1.9","spark_pilot_2","7123","1","8","Female","","","","","","","","null","<div style=""font-size:60px;"">+</div>","null","fixation","","","","","","","","","","","19","","",""
"revaluation","240","1130550","0.0-5.0-4.0-0.10","spark_pilot_2","7123","1","8","Female","","false","","","","","","[573]","./assets/img/ocean/animals/seahorse.jpg","[""ArrowLeft""]","revaluation","ocean","26","{""ArrowUp,ArrowLeft"":26,""ArrowUp,ArrowRight"":10,""ArrowDown,ArrowLeft"":5,""ArrowDown,ArrowRight"":17}","true","ArrowUp,ArrowLeft","","","","original","1","20","","",""
"html-keyboard-response","241","1131054","0.0-5.0-4.0-1.10","spark_pilot_2","7123","1","8","Female","","","","","","","","null","<div style=""font-size:60px;"">+</div>","null","fixation","","","","","","","","","","","21","","",""
"revaluation","242","1135060","0.0-5.0-4.0-0.11","spark_pilot_2","7123","1","8","Female","","false","","","","","","[840]","./assets/img/ocean/animals/octopus.jpg","[""ArrowRight""]","revaluation","ocean","17","{""ArrowUp,ArrowLeft"":26,""ArrowUp,ArrowRight"":10,""ArrowDown,ArrowLeft"":5,""ArrowDown,ArrowRight"":17}","true","ArrowDown,ArrowRight","","","","original","1","22","","",""
"html-keyboard-response","243","1135563","0.0-5.0-4.0-1.11","spark_pilot_2","7123","1","8","Female","","","","","","","","null","<div style=""font-size:60px;"">+</div>","null","fixation","","","","","","","","","","","23","","",""
"revaluation","244","1139570","0.0-5.0-4.0-0.12","spark_pilot_2","7123","1","8","Female","","false","","","","","","[823]","./assets/img/ocean/animals/octopus.jpg","[""ArrowRight""]","revaluation","ocean","17","{""ArrowUp,ArrowLeft"":26,""ArrowUp,ArrowRight"":10,""ArrowDown,ArrowLeft"":5,""ArrowDown,ArrowRight"":17}","true","ArrowDown,ArrowRight","","","","original","1","24","","",""
"html-keyboard-response","245","1140073","0.0-5.0-4.0-1.12","spark_pilot_2","7123","1","8","Female","","","","","","","","null","<div style=""font-size:60px;"">+</div>","null","fixation","","","","","","","","","","","25","","",""
"revaluation","246","1144080","0.0-5.0-4.0-0.13","spark_pilot_2","7123","1","8","Female","","false","","","","","","[831]","./assets/img/ocean/animals/seahorse.jpg","[""ArrowLeft""]","revaluation","ocean","26","{""ArrowUp,ArrowLeft"":26,""ArrowUp,ArrowRight"":10,""ArrowDown,ArrowLeft"":5,""ArrowDown,ArrowRight"":17}","true","ArrowUp,ArrowLeft","","","","original","1","26","","",""
"html-keyboard-response","247","1144583","0.0-5.0-4.0-1.13","spark_pilot_2","7123","1","8","Female","","","","","","","","null","<div style=""font-size:60px;"">+</div>","null","fixation","","","","","","","","","","","27","","",""
"revaluation","248","1148590","0.0-5.0-4.0-0.14","spark_pilot_2","7123","1","8","Female","","false","","","","","","[672.9999999997672]","./assets/img/ocean/animals/seahorse.jpg","[""ArrowLeft""]","revaluation","ocean","26","{""ArrowUp,ArrowLeft"":26,""ArrowUp,ArrowRight"":10,""ArrowDown,ArrowLeft"":5,""ArrowDown,ArrowRight"":17}","true","ArrowUp,ArrowLeft","","","","original","1","28","","",""
"html-keyboard-response","249","1149093","0.0-5.0-4.0-1.14","spark_pilot_2","7123","1","8","Female","","","","","","","","null","<div style=""font-size:60px;"">+</div>","null","fixation","","","","","","","","","","","29","","",""
"revaluation","250","1153100","0.0-5.0-4.0-0.15","spark_pilot_2","7123","1","8","Female","","false","","","","","","[651.9999999997672]","./assets/img/ocean/animals/seahorse.jpg","[""ArrowLeft""]","revaluation","ocean","26","{""ArrowUp,ArrowLeft"":26,""ArrowUp,ArrowRight"":10,""ArrowDown,ArrowLeft"":5,""ArrowDown,ArrowRight"":17}","true","ArrowUp,ArrowLeft","","","","original","1","30","","",""
"html-keyboard-response","251","1153602","0.0-5.0-4.0-1.15","spark_pilot_2","7123","1","8","Female","","","","","","","","null","<div style=""font-size:60px;"">+</div>","null","fixation","","","","","","","","","","","31","","",""
"revaluation","252","1157609","0.0-5.0-4.0-0.16","spark_pilot_2","7123","1","8","Female","","false","","","","","","[565]","./assets/img/ocean/animals/seahorse.jpg","[""ArrowLeft""]","revaluation","ocean","26","{""ArrowUp,ArrowLeft"":26,""ArrowUp,ArrowRight"":10,""ArrowDown,ArrowLeft"":5,""ArrowDown,ArrowRight"":17}","true","ArrowUp,ArrowLeft","","","","original","1","32","","",""
"html-keyboard-response","253","1158112","0.0-5.0-4.0-1.16","spark_pilot_2","7123","1","8","Female","","","","","","","","null","<div style=""font-size:60px;"">+</div>","null","fixation","","","","","","","","","","","33","","",""
"revaluation","254","1162119","0.0-5.0-4.0-0.17","spark_pilot_2","7123","1","8","Female","","false","","","","","","[488]","./assets/img/ocean/animals/octopus.jpg","[""ArrowRight""]","revaluation","ocean","17","{""ArrowUp,ArrowLeft"":26,""ArrowUp,ArrowRight"":10,""ArrowDown,ArrowLeft"":5,""ArrowDown,ArrowRight"":17}","true","ArrowDown,ArrowRight","","","","original","1","34","","",""
"html-keyboard-response","255","1162622","0.0-5.0-4.0-1.17","spark_pilot_2","7123","1","8","Female","","","","","","","","null","<div style=""font-size:60px;"">+</div>","null","fixation","","","","","","","","","","","35","","",""
"learning-instructions","256","1176071","0.0-5.0-5.0-0.0","spark_pilot_2","7123","1","8","Female","","","","","","","","2153","<p> Time to play the dot game! </p>
            <p> For one minute, click the red dots on the following screen as they appear. </p>
            <p><b> Don't look away, as you will earn bonus for clicking dots</b>. </p>","","instructions","","","","","","","","","","","","","",""
"revaluation","257","1236073","0.0-5.0-6.0-0.0","spark_pilot_2","7123","1","8","Female","","","","","","","","[104,80,68,95,83,84,81]","","","rest","","70","","","","","0","60000","","","","","",""
"learning-instructions","258","1245541","0.0-5.0-7.0-0.0","spark_pilot_2","7123","1","8","Female","","","","","","","","3360","<p> You have almost finished this part of the game! </p>
            <p> We are going to ask you to make a few more choices. </p>","","instructions","","","","","","","","","","","","","",""
"learning-instructions","259","1262888","0.0-5.0-7.0-0.1","spark_pilot_2","7123","1","8","Female","","","","","","","","3372","<p> First, you need to decide whether to go up or down. When you see each picture, use the arrow keys to make your choice. </p>
            <p><b>You will not see which animal you found, but try to get to the one that will give you the most treasure.</b></p>","","instructions","","","","","","","","","","","","","",""
"revaluation","260","1264023","0.0-5.0-8.0-0.0","spark_pilot_2","7123","1","8","Female","","false","","","","","","[1130]","./assets/img/ocean/test/0.jpg","[""ArrowUp""]","first stage test","ocean","0","{""ArrowUp,ArrowLeft"":26,""ArrowUp,ArrowRight"":10,""ArrowDown,ArrowLeft"":5,""ArrowDown,ArrowRight"":17}","true","ArrowUp","false","","","original","1","","","",""
"html-keyboard-response","261","1264526","0.0-5.0-8.0-1.0","spark_pilot_2","7123","1","8","Female","","","","","","","","null","<div style=""font-size:60px;"">+</div>","null","fixation","","","","","","","","","","","","","",""
"revaluation","262","1265718","0.0-5.0-8.0-0.1","spark_pilot_2","7123","1","8","Female","","false","","","","","","[1188]","./assets/img/ocean/test/2.jpg","[""ArrowUp""]","first stage test","ocean","0","{""ArrowUp,ArrowLeft"":26,""ArrowUp,ArrowRight"":10,""ArrowDown,ArrowLeft"":5,""ArrowDown,ArrowRight"":17}","true","ArrowUp","false","","","original","1","","","",""
"html-keyboard-response","263","1266222","0.0-5.0-8.0-1.1","spark_pilot_2","7123","1","8","Female","","","","","","","","null","<div style=""font-size:60px;"">+</div>","null","fixation","","","","","","","","","","","","","",""
"revaluation","264","1266940","0.0-5.0-8.0-0.2","spark_pilot_2","7123","1","8","Female","","false","","","","","","[714.0000000002328]","./assets/img/ocean/test/3.jpg","[""ArrowUp""]","first stage test","ocean","0","{""ArrowUp,ArrowLeft"":26,""ArrowUp,ArrowRight"":10,""ArrowDown,ArrowLeft"":5,""ArrowDown,ArrowRight"":17}","true","ArrowUp","false","","","original","1","","","",""
"html-keyboard-response","265","1267443","0.0-5.0-8.0-1.2","spark_pilot_2","7123","1","8","Female","","","","","","","","null","<div style=""font-size:60px;"">+</div>","null","fixation","","","","","","","","","","","","","",""
"revaluation","266","1267955","0.0-5.0-8.0-0.3","spark_pilot_2","7123","1","8","Female","","false","","","","","","[508]","./assets/img/ocean/test/1.jpg","[""ArrowUp""]","first stage test","ocean","0","{""ArrowUp,ArrowLeft"":26,""ArrowUp,ArrowRight"":10,""ArrowDown,ArrowLeft"":5,""ArrowDown,ArrowRight"":17}","true","ArrowUp","false","","","original","1","","","",""
"html-keyboard-response","267","1268459","0.0-5.0-8.0-1.3","spark_pilot_2","7123","1","8","Female","","","","","","","","null","<div style=""font-size:60px;"">+</div>","null","fixation","","","","","","","","","","","","","",""
"learning-instructions","268","1282804","0.0-5.0-9.0-0.0","spark_pilot_2","7123","1","8","Female","","","","","","","","3001.000000000233","<p> Now you will see the animals again and can search their chests for treasure. </p>
            <p> This time, you will not see how much treasure you earned, but you will earn more bonus money for making better choices. </p>","","instructions","","","","","","","","","","","","","",""
"revaluation","269","1283518","0.0-5.0-10.0-0.0","spark_pilot_2","7123","1","8","Female","","false","","","","","","[710]","./assets/img/ocean/animals/seahorse.jpg","[""ArrowLeft""]","second stage test","ocean","0","{""ArrowUp,ArrowLeft"":26,""ArrowUp,ArrowRight"":10,""ArrowDown,ArrowLeft"":5,""ArrowDown,ArrowRight"":17}","true","ArrowUp,ArrowLeft","","","","original","1","","","",""
"html-keyboard-response","270","1284021","0.0-5.0-10.0-1.0","spark_pilot_2","7123","1","8","Female","","","","","","","","null","<div style=""font-size:60px;"">+</div>","null","fixation","","","","","","","","","","","","","",""
"revaluation","271","1284711","0.0-5.0-10.0-0.1","spark_pilot_2","7123","1","8","Female","","false","","","","","","[683.9999999997672]","./assets/img/ocean/animals/seahorse.jpg","[""ArrowLeft""]","second stage test","ocean","0","{""ArrowUp,ArrowLeft"":26,""ArrowUp,ArrowRight"":10,""ArrowDown,ArrowLeft"":5,""ArrowDown,ArrowRight"":17}","true","ArrowUp,ArrowLeft","","","","original","1","","","",""
"html-keyboard-response","272","1285214","0.0-5.0-10.0-1.1","spark_pilot_2","7123","1","8","Female","","","","","","","","null","<div style=""font-size:60px;"">+</div>","null","fixation","","","","","","","","","","","","","",""
"revaluation","273","1285695","0.0-5.0-10.0-0.2","spark_pilot_2","7123","1","8","Female","","false","","","","","","[476.99999999976717]","./assets/img/ocean/animals/seahorse.jpg","[""ArrowLeft""]","second stage test","ocean","0","{""ArrowUp,ArrowLeft"":26,""ArrowUp,ArrowRight"":10,""ArrowDown,ArrowLeft"":5,""ArrowDown,ArrowRight"":17}","true","ArrowUp,ArrowLeft","","","","original","1","","","",""
"html-keyboard-response","274","1286199","0.0-5.0-10.0-1.2","spark_pilot_2","7123","1","8","Female","","","","","","","","null","<div style=""font-size:60px;"">+</div>","null","fixation","","","","","","","","","","","","","",""
"revaluation","275","1286577","0.0-5.0-10.0-0.3","spark_pilot_2","7123","1","8","Female","","false","","","","","","[373]","./assets/img/ocean/animals/seahorse.jpg","[""ArrowLeft""]","second stage test","ocean","0","{""ArrowUp,ArrowLeft"":26,""ArrowUp,ArrowRight"":10,""ArrowDown,ArrowLeft"":5,""ArrowDown,ArrowRight"":17}","true","ArrowUp,ArrowLeft","","","","original","1","","","",""
"html-keyboard-response","276","1287080","0.0-5.0-10.0-1.3","spark_pilot_2","7123","1","8","Female","","","","","","","","null","<div style=""font-size:60px;"">+</div>","null","fixation","","","","","","","","","","","","","",""
"revaluation","277","1287403","0.0-5.0-10.0-0.4","spark_pilot_2","7123","1","8","Female","","false","","","","","","[319]","./assets/img/ocean/animals/octopus.jpg","[""ArrowLeft""]","second stage test","ocean","0","{""ArrowUp,ArrowLeft"":26,""ArrowUp,ArrowRight"":10,""ArrowDown,ArrowLeft"":5,""ArrowDown,ArrowRight"":17}","false","ArrowDown,ArrowLeft","","","","original","1","","","",""
"html-keyboard-response","278","1287905","0.0-5.0-10.0-1.4","spark_pilot_2","7123","1","8","Female","","","","","","","","null","<div style=""font-size:60px;"">+</div>","null","fixation","","","","","","","","","","","","","",""
"revaluation","279","1288400","0.0-5.0-10.0-0.5","spark_pilot_2","7123","1","8","Female","","false","","","","","","[491]","./assets/img/ocean/animals/octopus.jpg","[""ArrowLeft""]","second stage test","ocean","0","{""ArrowUp,ArrowLeft"":26,""ArrowUp,ArrowRight"":10,""ArrowDown,ArrowLeft"":5,""ArrowDown,ArrowRight"":17}","false","ArrowDown,ArrowLeft","","","","original","1","","","",""
"html-keyboard-response","280","1288903","0.0-5.0-10.0-1.5","spark_pilot_2","7123","1","8","Female","","","","","","","","null","<div style=""font-size:60px;"">+</div>","null","fixation","","","","","","","","","","","","","",""
"revaluation","281","1289224","0.0-5.0-10.0-0.6","spark_pilot_2","7123","1","8","Female","","false","","","","","","[317]","./assets/img/ocean/animals/octopus.jpg","[""ArrowLeft""]","second stage test","ocean","0","{""ArrowUp,ArrowLeft"":26,""ArrowUp,ArrowRight"":10,""ArrowDown,ArrowLeft"":5,""ArrowDown,ArrowRight"":17}","false","ArrowDown,ArrowLeft","","","","original","1","","","",""
"html-keyboard-response","282","1289728","0.0-5.0-10.0-1.6","spark_pilot_2","7123","1","8","Female","","","","","","","","null","<div style=""font-size:60px;"">+</div>","null","fixation","","","","","","","","","","","","","",""
"revaluation","283","1290049","0.0-5.0-10.0-0.7","spark_pilot_2","7123","1","8","Female","","false","","","","","","[318]","./assets/img/ocean/animals/octopus.jpg","[""ArrowLeft""]","second stage test","ocean","0","{""ArrowUp,ArrowLeft"":26,""ArrowUp,ArrowRight"":10,""ArrowDown,ArrowLeft"":5,""ArrowDown,ArrowRight"":17}","false","ArrowDown,ArrowLeft","","","","original","1","","","",""
"html-keyboard-response","284","1290552","0.0-5.0-10.0-1.7","spark_pilot_2","7123","1","8","Female","","","","","","","","null","<div style=""font-size:60px;"">+</div>","null","fixation","","","","","","","","","","","","","",""
"learning-instructions","285","1294986","0.0-5.0-0.1-0.2","spark_pilot_2","7123","1","8","Female","","","","","","","","1674.0000000002328","<p> This time you are searching for treasure in the <b>canyon</b>.</p>","","instructions","","","","","","","","","","","","","",""
"learning-instructions","286","1314138","0.0-5.0-0.1-0.3","spark_pilot_2","7123","1","8","Female","","","","","","","","1900","<p><b>New</b> animals with <b>new</b> treasure chests live here. You need to explore to discover where the animal with the best treasure chest is.</p>
                    <p> Like before, once you figure out which animal has the chest with the most treasure, you should try to get to that animal and select that chest! </p>","","instructions","","","","","","","","","","","","","",""
"learning-instructions","287","1331056","0.0-5.0-1.1-0.1","spark_pilot_2","7123","1","8","Female","","","","","","","","2186","<p> Remember, when you see a picture of the place, use the up and down keys to <b>find an animal</b>.</p>
            <p> When you encounter an animal, you should use the left and right keys to <b>select a treasure chest</b>.</p>
            <p> Don't forget to look out for the robber! </p>","","instructions","","","","","","","","","","","","","",""
"revaluation","288","1337063","0.0-5.0-2.1-0.50","spark_pilot_2","7123","1","8","Female","","true","","","","","","[865]","./assets/img/canyon/memory/19.jpg","[""ArrowUp""]","value training","canyon","-5","{""ArrowUp,ArrowLeft"":23,""ArrowUp,ArrowRight"":10,""ArrowDown,ArrowLeft"":8,""ArrowDown,ArrowRight"":30}","false","ArrowUp","false","","","revaluation","2","0","","",""
"html-keyboard-response","289","1337567","0.0-5.0-2.1-1.50","spark_pilot_2","7123","1","8","Female","","","","","","","","null","<div style=""font-size:60px;"">+</div>","null","fixation","","","","","","","","","","","1","","",""
"revaluation","290","1341573","0.0-5.0-2.1-0.51","spark_pilot_2","7123","1","8","Female","","false","","","","","","[1400]","./assets/img/canyon/catch/3.jpg","[""spaceBar""]","value training","canyon","0","{""ArrowUp,ArrowLeft"":23,""ArrowUp,ArrowRight"":10,""ArrowDown,ArrowLeft"":8,""ArrowDown,ArrowRight"":30}","true","spaceBar","true","","","revaluation","2","2","","",""
"html-keyboard-response","291","1342075","0.0-5.0-2.1-1.51","spark_pilot_2","7123","1","8","Female","","","","","","","","null","<div style=""font-size:60px;"">+</div>","null","fixation","","","","","","","","","","","3","","",""
"revaluation","292","1348083","0.0-5.0-2.1-0.52","spark_pilot_2","7123","1","8","Female","","false","","","","","","[785,339.00000000023283]","./assets/img/canyon/memory/35.jpg","[""ArrowUp"",""ArrowLeft""]","value training","canyon","23","{""ArrowUp,ArrowLeft"":23,""ArrowUp,ArrowRight"":10,""ArrowDown,ArrowLeft"":8,""ArrowDown,ArrowRight"":30}","false","ArrowUp,ArrowLeft","false","","","revaluation","2","4","","",""
"html-keyboard-response","293","1348585","0.0-5.0-2.1-1.52","spark_pilot_2","7123","1","8","Female","","","","","","","","null","<div style=""font-size:60px;"">+</div>","null","fixation","","","","","","","","","","","5","","",""
"revaluation","294","1354590","0.0-5.0-2.1-0.53","spark_pilot_2","7123","1","8","Female","","false","","","","","","[403,393]","./assets/img/canyon/memory/33.jpg","[""ArrowDown"",""ArrowRight""]","value training","canyon","30","{""ArrowUp,ArrowLeft"":23,""ArrowUp,ArrowRight"":10,""ArrowDown,ArrowLeft"":8,""ArrowDown,ArrowRight"":30}","true","ArrowDown,ArrowRight","false","","","revaluation","2","6","","",""
"html-keyboard-response","295","1355093","0.0-5.0-2.1-1.53","spark_pilot_2","7123","1","8","Female","","","","","","","","null","<div style=""font-size:60px;"">+</div>","null","fixation","","","","","","","","","","","7","","",""
"revaluation","296","1361101","0.0-5.0-2.1-0.54","spark_pilot_2","7123","1","8","Female","","false","","","","","","[298,416.00000000023283]","./assets/img/canyon/memory/36.jpg","[""ArrowDown"",""ArrowRight""]","value training","canyon","30","{""ArrowUp,ArrowLeft"":23,""ArrowUp,ArrowRight"":10,""ArrowDown,ArrowLeft"":8,""ArrowDown,ArrowRight"":30}","true","ArrowDown,ArrowRight","false","","","revaluation","2","8","","",""
"html-keyboard-response","297","1361604","0.0-5.0-2.1-1.54","spark_pilot_2","7123","1","8","Female","","","","","","","","null","<div style=""font-size:60px;"">+</div>","null","fixation","","","","","","","","","","","9","","",""
"revaluation","298","1367612","0.0-5.0-2.1-0.55","spark_pilot_2","7123","1","8","Female","","false","","","","","","[429,364]","./assets/img/canyon/memory/37.jpg","[""ArrowDown"",""ArrowLeft""]","value training","canyon","8","{""ArrowUp,ArrowLeft"":23,""ArrowUp,ArrowRight"":10,""ArrowDown,ArrowLeft"":8,""ArrowDown,ArrowRight"":30}","false","ArrowDown,ArrowLeft","false","","","revaluation","2","10","","",""
"html-keyboard-response","299","1368115","0.0-5.0-2.1-1.55","spark_pilot_2","7123","1","8","Female","","","","","","","","null","<div style=""font-size:60px;"">+</div>","null","fixation","","","","","","","","","","","11","","",""
"revaluation","300","1374123","0.0-5.0-2.1-0.56","spark_pilot_2","7123","1","8","Female","","false","","","","","","[1573,550.9999999997672]","./assets/img/canyon/memory/26.jpg","[""ArrowDown"",""ArrowLeft""]","value training","canyon","8","{""ArrowUp,ArrowLeft"":23,""ArrowUp,ArrowRight"":10,""ArrowDown,ArrowLeft"":8,""ArrowDown,ArrowRight"":30}","false","ArrowDown,ArrowLeft","false","","","revaluation","2","12","","",""
"html-keyboard-response","301","1374626","0.0-5.0-2.1-1.56","spark_pilot_2","7123","1","8","Female","","","","","","","","null","<div style=""font-size:60px;"">+</div>","null","fixation","","","","","","","","","","","13","","",""
"revaluation","302","1380634","0.0-5.0-2.1-0.57","spark_pilot_2","7123","1","8","Female","","false","","","","","","[937,364]","./assets/img/canyon/memory/39.jpg","[""ArrowDown"",""ArrowRight""]","value training","canyon","30","{""ArrowUp,ArrowLeft"":23,""ArrowUp,ArrowRight"":10,""ArrowDown,ArrowLeft"":8,""ArrowDown,ArrowRight"":30}","true","ArrowDown,ArrowRight","false","","","revaluation","2","14","","",""
"html-keyboard-response","303","1381138","0.0-5.0-2.1-1.57","spark_pilot_2","7123","1","8","Female","","","","","","","","null","<div style=""font-size:60px;"">+</div>","null","fixation","","","","","","","","","","","15","","",""
"revaluation","304","1387145","0.0-5.0-2.1-0.58","spark_pilot_2","7123","1","8","Female","","false","","","","","","[1296,595]","./assets/img/canyon/memory/20.jpg","[""ArrowDown"",""ArrowRight""]","value training","canyon","30","{""ArrowUp,ArrowLeft"":23,""ArrowUp,ArrowRight"":10,""ArrowDown,ArrowLeft"":8,""ArrowDown,ArrowRight"":30}","true","ArrowDown,ArrowRight","false","","","revaluation","2","16","","",""
"html-keyboard-response","305","1387648","0.0-5.0-2.1-1.58","spark_pilot_2","7123","1","8","Female","","","","","","","","null","<div style=""font-size:60px;"">+</div>","null","fixation","","","","","","","","","","","17","","",""
"revaluation","306","1393655","0.0-5.0-2.1-0.59","spark_pilot_2","7123","1","8","Female","","false","","","","","","[563.0000000002328,371]","./assets/img/canyon/memory/2.jpg","[""ArrowUp"",""ArrowRight""]","value training","canyon","10","{""ArrowUp,ArrowLeft"":23,""ArrowUp,ArrowRight"":10,""ArrowDown,ArrowLeft"":8,""ArrowDown,ArrowRight"":30}","false","ArrowUp,ArrowRight","false","","","revaluation","2","18","","",""
"html-keyboard-response","307","1394158","0.0-5.0-2.1-1.59","spark_pilot_2","7123","1","8","Female","","","","","","","","null","<div style=""font-size:60px;"">+</div>","null","fixation","","","","","","","","","","","19","","",""
"revaluation","308","1400166","0.0-5.0-2.1-0.60","spark_pilot_2","7123","1","8","Female","","false","","","","","","[375,311.00000000023283]","./assets/img/canyon/memory/30.jpg","[""ArrowUp"",""ArrowLeft""]","value training","canyon","23","{""ArrowUp,ArrowLeft"":23,""ArrowUp,ArrowRight"":10,""ArrowDown,ArrowLeft"":8,""ArrowDown,ArrowRight"":30}","false","ArrowUp,ArrowLeft","false","","","revaluation","2","20","","",""
"html-keyboard-response","309","1400670","0.0-5.0-2.1-1.60","spark_pilot_2","7123","1","8","Female","","","","","","","","null","<div style=""font-size:60px;"">+</div>","null","fixation","","","","","","","","","","","21","","",""
"revaluation","310","1406677","0.0-5.0-2.1-0.61","spark_pilot_2","7123","1","8","Female","","false","","","","","","[476,340]","./assets/img/canyon/memory/38.jpg","[""ArrowDown"",""ArrowRight""]","value training","canyon","30","{""ArrowUp,ArrowLeft"":23,""ArrowUp,ArrowRight"":10,""ArrowDown,ArrowLeft"":8,""ArrowDown,ArrowRight"":30}","true","ArrowDown,ArrowRight","false","","","revaluation","2","22","","",""
"html-keyboard-response","311","1407181","0.0-5.0-2.1-1.61","spark_pilot_2","7123","1","8","Female","","","","","","","","null","<div style=""font-size:60px;"">+</div>","null","fixation","","","","","","","","","","","23","","",""
