"trial_type","trial_index","time_elapsed","internal_node_id","task_version","subject_id","assigned_condition","age","gender","success","timeout","failed_images","failed_audio","failed_video","browser_interaction","rt","stimulus","response","task_part","environment","score","rewardMap","correct","fullState","isCatch","numberMissed","duration","condition","order","trial_num","key_press","ground_truth","bonus"
"pavlovia","0","1677","0.0-0.0","spark_pilot_2","8929","1","7","Female","","","","","","","","","","","","","","","","","","","","","","","",""
"preload","1","28556","0.0-1.0","spark_pilot_2","8929","1","7","Female","true","false","[]","[]","[]","[{""event"":""fullscreenenter"",""trial"":2,""time"":72769},{""event"":""blur"",""trial"":208,""time"":1019227},{""event"":""focus"",""trial"":210,""time"":1024732}]","","","","","","","","","","","","","","","","","",""
"fullscreen","2","73721","0.0-2.0","spark_pilot_2","8929","1","7","Female","true","","","","","","","","","","","","","","","","","","","","","","",""
"audio-button-response","3","76276","0.0-3.0-0.0-0.0","spark_pilot_2","8929","1","7","Female","","","","","","","2240","./assets/audio/audiotest/turtle.mp3","2","audio_test","","","","","","","","","","","","","",""
"learning-instructions","4","85723","0.0-3.0-1.0-0.0","spark_pilot_2","8929","1","7","Female","","","","","","","2442.600000023842","<p> Welcome! Please remember to stay in fullscreen mode and don't click away from the experiment. </p>","","instructions","","","","","","","","","","","","","",""
"learning-instructions","5","96757","0.0-3.0-1.0-0.1","spark_pilot_2","8929","1","7","Female","","","","","","","2501.100000023842","<p> Today you will be playing a game to earn treasure. </p>
            <p> At the end of the experiment, you will earn a bonus based on how much treasure you find. </p>
            <img src='./assets/img/instructions/treasure.jpg' class='instructions-image'>","","instructions","","","","","","","","","","","","","",""
"learning-instructions","6","108113","0.0-3.0-1.0-0.2","spark_pilot_2","8929","1","7","Female","","","","","","","2977.2999999523163","<p> Animals have hidden treasure in treasure chests. </p>
            <p> You need to first find an animal and then choose which of their treasure chests to search. </p>
            <img src='./assets/img/space/animals/cat.jpg' class='instructions-image'>","","instructions","","","","","","","","","","","","","",""
"learning-instructions","7","123557","0.0-3.0-1.0-0.3","spark_pilot_2","8929","1","7","Female","","","","","","","2183.8000000715256","<p> In each round, you will search for treasure in a different place. In the real game, there will be two rounds. </p>
            <p> You will begin with a separate, practice round where you will search for treasure in outer space. </p>
            <img src='./assets/img/space/0.jpg' class='instructions-image'>","","instructions","","","","","","","","","","","","","",""
"learning-instructions","8","137809","0.0-3.0-1.0-0.4","spark_pilot_2","8929","1","7","Female","","","","","","","2716.2999999523163","<p> On every turn, you will see a picture of the place that you are in, but the specific image may be different each time. </p>
            <p> For example, both of these images mean you are in outer space. </p>
            <img src='./assets/img/instructions/outerspace.jpg' class='instructions-image'>","","instructions","","","","","","","","","","","","","",""
"learning-instructions","9","147675","0.0-3.0-1.0-0.5","spark_pilot_2","8929","1","7","Female","","","","","","","1261.5","<p> You need to decide which direction to travel in. </p>
            <p> You can choose between going <b>up or down</b> by using the arrow keys. </p>
            <img src='./assets/img/instructions/updown.jpg' class='instructions-image'>","","instructions","","","","","","","","","","","","","",""
"learning-instructions","10","159643","0.0-3.0-1.0-0.6","spark_pilot_2","8929","1","7","Female","","","","","","","3040","<p> You will have <b>2 seconds</b> to make your choice. </p>
            <p> If you do not make a choice within 2 seconds, you will not find an animal or earn treasure. </p>
            <img src='./assets/img/instructions/2seconds.jpg' class='instructions-image'>","","instructions","","","","","","","","","","","","","",""
"learning-instructions","11","169191","0.0-3.0-1.0-0.7","spark_pilot_2","8929","1","7","Female","","","","","","","2397.899999976158","<p> Let’s try practicing that now! </p>
            <p> When you see a picture of the place you are in, press the <b>up</b> key to travel up. </p>
            <img src='./assets/img/instructions/pressUp.jpg' class='instructions-image'>","","instructions","","","","","","","","","","","","","",""
"revaluation","12","173303","0.0-3.0-2.0-0.0","spark_pilot_2","8929","1","7","Female","","true","","","","","[]","./assets/img/space/0.jpg","[]","first stage practice","space","-5","null","null","","false","","","","","","","",""
"html-keyboard-response","13","173812","0.0-3.0-2.0-1.0","spark_pilot_2","8929","1","7","Female","","","","","","","null","<div style=""font-size:60px;"">+</div>","null","fixation","","","","","","","","","","","","","",""
"revaluation","14","177828","0.0-3.0-2.0-0.1","spark_pilot_2","8929","1","7","Female","","true","","","","","[]","./assets/img/space/1.jpg","[]","first stage practice","space","-5","null","null","","false","","","","","","","",""
"html-keyboard-response","15","178334","0.0-3.0-2.0-1.1","spark_pilot_2","8929","1","7","Female","","","","","","","null","<div style=""font-size:60px;"">+</div>","null","fixation","","","","","","","","","","","","","",""
"revaluation","16","182364","0.0-3.0-2.0-0.2","spark_pilot_2","8929","1","7","Female","","true","","","","","[]","./assets/img/space/2.jpg","[]","first stage practice","space","-5","null","null","","false","","","","","","","",""
"html-keyboard-response","17","182874","0.0-3.0-2.0-1.2","spark_pilot_2","8929","1","7","Female","","","","","","","null","<div style=""font-size:60px;"">+</div>","null","fixation","","","","","","","","","","","","","",""
"learning-instructions","18","194715","0.0-3.0-3.0-0.0","spark_pilot_2","8929","1","7","Female","","","","","","","7119","<p> Great job! Now try pressing the <b>down</b> key to travel down. </p>
            <img src='./assets/img/instructions/pressDown.jpg' class='instructions-image'>","","instructions","","","","","","","","","","","","","",""
"revaluation","19","198734","0.0-3.0-4.0-0.0","spark_pilot_2","8929","1","7","Female","","false","","","","","[698.8999999761581]","./assets/img/space/3.jpg","[""ArrowDown""]","first stage practice","space","0","null","null","ArrowDown","false","","","","","","","",""
"html-keyboard-response","20","199239","0.0-3.0-4.0-1.0","spark_pilot_2","8929","1","7","Female","","","","","","","null","<div style=""font-size:60px;"">+</div>","null","fixation","","","","","","","","","","","","","",""
"revaluation","21","203273","0.0-3.0-4.0-0.1","spark_pilot_2","8929","1","7","Female","","false","","","","","[1031.1000000238419]","./assets/img/space/4.jpg","[""ArrowDown""]","first stage practice","space","0","null","null","ArrowDown","false","","","","","","","",""
"html-keyboard-response","22","203782","0.0-3.0-4.0-1.1","spark_pilot_2","8929","1","7","Female","","","","","","","null","<div style=""font-size:60px;"">+</div>","null","fixation","","","","","","","","","","","","","",""
"revaluation","23","207804","0.0-3.0-4.0-0.2","spark_pilot_2","8929","1","7","Female","","false","","","","","[839.2000000476837]","./assets/img/space/5.jpg","[""ArrowDown""]","first stage practice","space","0","null","null","ArrowDown","false","","","","","","","",""
"html-keyboard-response","24","208318","0.0-3.0-4.0-1.2","spark_pilot_2","8929","1","7","Female","","","","","","","null","<div style=""font-size:60px;"">+</div>","null","fixation","","","","","","","","","","","","","",""
"learning-instructions","25","219750","0.0-3.0-5.0-0.0","spark_pilot_2","8929","1","7","Female","","","","","","","1575.8000000715256","<p> The animals don’t move, so the animal in the upper part of a place will stay in the upper part of a place, and the animal in the lower part of a place will stay in the lower part of a place. </p>","","instructions","","","","","","","","","","","","","",""
"learning-instructions","26","232794","0.0-3.0-5.0-0.1","spark_pilot_2","8929","1","7","Female","","","","","","","3880.100000023842","<p> Each animal has two treasure chests for you to choose from. </p>
            <p> The amount of treasure in each chest can range from <b> 0 to 40 pieces.</b></p>","","instructions","","","","","","","","","","","","","",""
"learning-instructions","27","245229","0.0-3.0-5.0-0.2","spark_pilot_2","8929","1","7","Female","","","","","","","1214.5999999046326","<p> You should decide which chest to search for treasure by using the <b>left</b> and <b>right</b> arrow keys. </p>
            <p><b> Pay attention to which animal is on the screen, as the animals have different treasure chests. </b></p>
            <img src='./assets/img/instructions/leftright.jpg' class='instructions-image'>","","instructions","","","","","","","","","","","","","",""
"learning-instructions","28","255339","0.0-3.0-5.0-0.3","spark_pilot_2","8929","1","7","Female","","","","","","","3724.600000023842","<p> Let’s try practicing that now. </p>
            <p> When you see an animal, choose which chest to search for treasure. </p>
            <img src='./assets/img/instructions/chooseChest.jpg' class='instructions-image'>","","instructions","","","","","","","","","","","","","",""
"revaluation","29","259357","0.0-3.0-6.0-0.0","spark_pilot_2","8929","1","7","Female","","false","","","","","[1962.7999999523163]","./assets/img/space/animals/cat.jpg","[""ArrowRight""]","second stage practice","space","36","{""ArrowUp,ArrowLeft"":3,""ArrowUp,ArrowRight"":36,""ArrowDown,ArrowLeft"":15,""ArrowDown,ArrowRight"":23}","true","ArrowUp,ArrowRight","","","","","","","","",""
"html-keyboard-response","30","259862","0.0-3.0-6.0-1.0","spark_pilot_2","8929","1","7","Female","","","","","","","null","<div style=""font-size:60px;"">+</div>","null","fixation","","","","","","","","","","","","","",""
"revaluation","31","263891","0.0-3.0-6.0-0.1","spark_pilot_2","8929","1","7","Female","","false","","","","","[2002]","./assets/img/space/animals/rabbit.jpg","[""ArrowRight""]","second stage practice","space","23","{""ArrowUp,ArrowLeft"":3,""ArrowUp,ArrowRight"":36,""ArrowDown,ArrowLeft"":15,""ArrowDown,ArrowRight"":23}","true","ArrowDown,ArrowRight","","","","","","","","",""
"html-keyboard-response","32","264401","0.0-3.0-6.0-1.1","spark_pilot_2","8929","1","7","Female","","","","","","","null","<div style=""font-size:60px;"">+</div>","null","fixation","","","","","","","","","","","","","",""
"revaluation","33","268418","0.0-3.0-6.0-0.2","spark_pilot_2","8929","1","7","Female","","true","","","","","[]","./assets/img/space/animals/rabbit.jpg","[]","second stage practice","space","-5","{""ArrowUp,ArrowLeft"":3,""ArrowUp,ArrowRight"":36,""ArrowDown,ArrowLeft"":15,""ArrowDown,ArrowRight"":23}","false","ArrowDown","","","","","","","","",""
"html-keyboard-response","34","268929","0.0-3.0-6.0-1.2","spark_pilot_2","8929","1","7","Female","","","","","","","null","<div style=""font-size:60px;"">+</div>","null","fixation","","","","","","","","","","","","","",""
"revaluation","35","272950","0.0-3.0-6.0-0.3","spark_pilot_2","8929","1","7","Female","","false","","","","","[1473.6000000238419]","./assets/img/space/animals/cat.jpg","[""ArrowRight""]","second stage practice","space","36","{""ArrowUp,ArrowLeft"":3,""ArrowUp,ArrowRight"":36,""ArrowDown,ArrowLeft"":15,""ArrowDown,ArrowRight"":23}","true","ArrowUp,ArrowRight","","","","","","","","",""
"html-keyboard-response","36","273458","0.0-3.0-6.0-1.3","spark_pilot_2","8929","1","7","Female","","","","","","","null","<div style=""font-size:60px;"">+</div>","null","fixation","","","","","","","","","","","","","",""
"learning-instructions","37","293745","0.0-3.0-7.0-0.0","spark_pilot_2","8929","1","7","Female","","","","","","","3351.899999976158","<p> Great job. Now let’s try putting it together. </p>
            <p> On each turn, you will first see a picture to remind you of the place you are in, and you need to choose whether to go up or down. </p>
            <p> Then you will see an animal and choose which of its chests to search for treasure. </p>","","instructions","","","","","","","","","","","","","",""
"learning-instructions","38","303117","0.0-3.0-7.0-0.1","spark_pilot_2","8929","1","7","Female","","","","","","","1072.5999999046326","<p> When you choose whether to go up or down, try to go to the animal with the chest with the most treasure. </p>
            <p> Try practicing that now! </p>","","instructions","","","","","","","","","","","","","",""
"revaluation","39","307129","0.0-3.0-8.0-0.0","spark_pilot_2","8929","1","7","Female","","true","","","","","[]","./assets/img/space/6.jpg","[]","full practice","space","-5","{""ArrowUp,ArrowLeft"":3,""ArrowUp,ArrowRight"":36,""ArrowDown,ArrowLeft"":15,""ArrowDown,ArrowRight"":23}","false","","false","","","","","","","",""
"html-keyboard-response","40","307645","0.0-3.0-8.0-1.0","spark_pilot_2","8929","1","7","Female","","","","","","","null","<div style=""font-size:60px;"">+</div>","null","fixation","","","","","","","","","","","","","",""
"revaluation","41","313689","0.0-3.0-8.0-0.1","spark_pilot_2","8929","1","7","Female","","true","","","","","[1265.2999999523163]","./assets/img/space/7.jpg","[""ArrowUp""]","full practice","space","-5","{""ArrowUp,ArrowLeft"":3,""ArrowUp,ArrowRight"":36,""ArrowDown,ArrowLeft"":15,""ArrowDown,ArrowRight"":23}","false","ArrowUp","false","","","","","","","",""
"html-keyboard-response","42","314199","0.0-3.0-8.0-1.1","spark_pilot_2","8929","1","7","Female","","","","","","","null","<div style=""font-size:60px;"">+</div>","null","fixation","","","","","","","","","","","","","",""
"revaluation","43","320239","0.0-3.0-8.0-0.2","spark_pilot_2","8929","1","7","Female","","false","","","","","[1296.7000000476837,607.6000000238419]","./assets/img/space/8.jpg","[""ArrowUp"",""ArrowRight""]","full practice","space","36","{""ArrowUp,ArrowLeft"":3,""ArrowUp,ArrowRight"":36,""ArrowDown,ArrowLeft"":15,""ArrowDown,ArrowRight"":23}","true","ArrowUp,ArrowRight","false","","","","","","","",""
"html-keyboard-response","44","320747","0.0-3.0-8.0-1.2","spark_pilot_2","8929","1","7","Female","","","","","","","null","<div style=""font-size:60px;"">+</div>","null","fixation","","","","","","","","","","","","","",""
"revaluation","45","324765","0.0-3.0-8.0-0.3","spark_pilot_2","8929","1","7","Female","","true","","","","","[]","./assets/img/space/9.jpg","[]","full practice","space","-5","{""ArrowUp,ArrowLeft"":3,""ArrowUp,ArrowRight"":36,""ArrowDown,ArrowLeft"":15,""ArrowDown,ArrowRight"":23}","false","","false","","","","","","","",""
"html-keyboard-response","46","325275","0.0-3.0-8.0-1.3","spark_pilot_2","8929","1","7","Female","","","","","","","null","<div style=""font-size:60px;"">+</div>","null","fixation","","","","","","","","","","","","","",""
"revaluation","47","331306","0.0-3.0-8.0-0.4","spark_pilot_2","8929","1","7","Female","","false","","","","","[643.6999999284744,538.6999999284744]","./assets/img/space/10.jpg","[""ArrowUp"",""ArrowRight""]","full practice","space","36","{""ArrowUp,ArrowLeft"":3,""ArrowUp,ArrowRight"":36,""ArrowDown,ArrowLeft"":15,""ArrowDown,ArrowRight"":23}","true","ArrowUp,ArrowRight","false","","","","","","","",""
"html-keyboard-response","48","331821","0.0-3.0-8.0-1.4","spark_pilot_2","8929","1","7","Female","","","","","","","null","<div style=""font-size:60px;"">+</div>","null","fixation","","","","","","","","","","","","","",""
"learning-instructions","49","347395","0.0-3.0-9.0-0.0","spark_pilot_2","8929","1","7","Female","","","","","","","5150.599999904633","<p> One last thing: sometimes, you will see a robber. The robber can be anywhere in the picture. </p>
            <p> If you do not stop them, you will lose treasure. </p>
            <img src='./assets/img/instructions/robber.jpg' class='instructions-image'>","","instructions","","","","","","","","","","","","","",""
"learning-instructions","50","357748","0.0-3.0-9.0-0.1","spark_pilot_2","8929","1","7","Female","","","","","","","3143.1999999284744","<p> If you see the robber, you should <b>press the space bar</b> rather than using the arrow keys. </p>
            <p> Try practicing that now! </p>","","instructions","","","","","","","","","","","","","",""
"revaluation","51","361775","0.0-3.0-10.0-0.0","spark_pilot_2","8929","1","7","Female","","true","","","","","[]","./assets/img/space/catch/0.jpg","[]","catch practice","space","-5","{""ArrowUp,ArrowLeft"":3,""ArrowUp,ArrowRight"":36,""ArrowDown,ArrowLeft"":15,""ArrowDown,ArrowRight"":23}","false","","true","","","","","","","",""
"html-keyboard-response","52","362285","0.0-3.0-10.0-1.0","spark_pilot_2","8929","1","7","Female","","","","","","","null","<div style=""font-size:60px;"">+</div>","null","fixation","","","","","","","","","","","","","",""
"revaluation","53","366302","0.0-3.0-10.0-0.1","spark_pilot_2","8929","1","7","Female","","false","","","","","[707.8999999761581]","./assets/img/space/catch/1.jpg","[""spaceBar""]","catch practice","space","0","{""ArrowUp,ArrowLeft"":3,""ArrowUp,ArrowRight"":36,""ArrowDown,ArrowLeft"":15,""ArrowDown,ArrowRight"":23}","true","spaceBar","true","","","","","","","",""
"html-keyboard-response","54","366811","0.0-3.0-10.0-1.1","spark_pilot_2","8929","1","7","Female","","","","","","","null","<div style=""font-size:60px;"">+</div>","null","fixation","","","","","","","","","","","","","",""
"revaluation","55","370823","0.0-3.0-10.0-0.2","spark_pilot_2","8929","1","7","Female","","false","","","","","[629.3999999761581]","./assets/img/space/catch/2.jpg","[""spaceBar""]","catch practice","space","0","{""ArrowUp,ArrowLeft"":3,""ArrowUp,ArrowRight"":36,""ArrowDown,ArrowLeft"":15,""ArrowDown,ArrowRight"":23}","true","spaceBar","true","","","","","","","",""
"html-keyboard-response","56","371334","0.0-3.0-10.0-1.2","spark_pilot_2","8929","1","7","Female","","","","","","","null","<div style=""font-size:60px;"">+</div>","null","fixation","","","","","","","","","","","","","",""
"learning-instructions","57","387122","0.0-3.0-11.0-0.0","spark_pilot_2","8929","1","7","Female","","","","","","","2077.0999999046326","<p> After you explore a place to find treasure, it will be time to play a different game. </p>
            <p> During this game, red dots will appear on the screen and fall down slowly. </p>
            <p><b> You must click on them before they reach the bottom. </b></p>
            <img src='./assets/img/instructions/dotGame.jpg' class='instructions-image'>","","instructions","","","","","","","","","","","","","",""
"learning-instructions","58","394498","0.0-3.0-11.0-0.1","spark_pilot_2","8929","1","7","Female","","","","","","","1604.5","<p> For every dot you click, you will earn additional treasure. </p>
            <p> Let’s try practicing that now. </p>","","instructions","","","","","","","","","","","","","",""
"revaluation","59","409515","0.0-3.0-12.0-0.0","spark_pilot_2","8929","1","7","Female","","","","","","","[231]","","","rest practice","","10","","","","","0","15000","","","","","",""
"learning-instructions","60","417698","0.0-3.0-13.0-0.0-0.0","spark_pilot_2","8929","1","7","Female","","","","","","","2893.7000000476837","<p> Now, you will practice a shortened version of the game to get a sense of how it all fits together. </p>","","instructions","","","","","","","","","","","","","",""
"learning-instructions","61","423739","0.0-3.0-13.0-0.0-0.1","spark_pilot_2","8929","1","7","Female","","","","","","","2825.2999999523163","<p>This time you are searching for treasure in outer space.</p>","","instructions","","","","","","","","","","","","","",""
"learning-instructions","62","439883","0.0-3.0-13.0-1.0-0.0","spark_pilot_2","8929","1","7","Female","","","","","","","1354.5999999046326","<p> Remember, when you see a picture of the place, use the up and down keys to <b>find an animal</b>.</p>
            <p> When you encounter an animal, you should use the left and right keys to <b>select a treasure chest</b>.</p>
            <p> Don't forget to look out for the robber! </p>","","instructions","","","","","","","","","","","","","",""
"revaluation","63","445901","0.0-3.0-13.0-2.0-0.0","spark_pilot_2","8929","1","7","Female","","false","","","","","[1530.2000000476837,1277.5999999046326]","./assets/img/space/11.jpg","[""ArrowUp"",""ArrowRight""]","practice block","space","36","{""ArrowUp,ArrowLeft"":3,""ArrowUp,ArrowRight"":36,""ArrowDown,ArrowLeft"":15,""ArrowDown,ArrowRight"":23}","true","ArrowUp,ArrowRight","false","","","","","","","",""
"html-keyboard-response","64","446408","0.0-3.0-13.0-2.0-1.0","spark_pilot_2","8929","1","7","Female","","","","","","","null","<div style=""font-size:60px;"">+</div>","null","fixation","","","","","","","","","","","","","",""
"revaluation","65","452443","0.0-3.0-13.0-2.0-0.1","spark_pilot_2","8929","1","7","Female","","false","","","","","[1449.7000000476837,543.7999999523163]","./assets/img/space/12.jpg","[""ArrowUp"",""ArrowRight""]","practice block","space","36","{""ArrowUp,ArrowLeft"":3,""ArrowUp,ArrowRight"":36,""ArrowDown,ArrowLeft"":15,""ArrowDown,ArrowRight"":23}","true","ArrowUp,ArrowRight","false","","","","","","","",""
"html-keyboard-response","66","452952","0.0-3.0-13.0-2.0-1.1","spark_pilot_2","8929","1","7","Female","","","","","","","null","<div style=""font-size:60px;"">+</div>","null","fixation","","","","","","","","","","","","","",""
"revaluation","67","458990","0.0-3.0-13.0-2.0-0.2","spark_pilot_2","8929","1","7","Female","","false","","","","","[1204.6999999284744,556.7000000476837]","./assets/img/space/13.jpg","[""ArrowUp"",""ArrowLeft""]","practice block","space","3","{""ArrowUp,ArrowLeft"":3,""ArrowUp,ArrowRight"":36,""ArrowDown,ArrowLeft"":15,""ArrowDown,ArrowRight"":23}","false","ArrowUp,ArrowLeft","false","","","","","","","",""
"html-keyboard-response","68","459500","0.0-3.0-13.0-2.0-1.2","spark_pilot_2","8929","1","7","Female","","","","","","","null","<div style=""font-size:60px;"">+</div>","null","fixation","","","","","","","","","","","","","",""
"revaluation","69","465525","0.0-3.0-13.0-2.0-0.3","spark_pilot_2","8929","1","7","Female","","false","","","","","[1647.7000000476837,1052.5]","./assets/img/space/14.jpg","[""ArrowUp"",""ArrowRight""]","practice block","space","36","{""ArrowUp,ArrowLeft"":3,""ArrowUp,ArrowRight"":36,""ArrowDown,ArrowLeft"":15,""ArrowDown,ArrowRight"":23}","true","ArrowUp,ArrowRight","false","","","","","","","",""
"html-keyboard-response","70","466034","0.0-3.0-13.0-2.0-1.3","spark_pilot_2","8929","1","7","Female","","","","","","","null","<div style=""font-size:60px;"">+</div>","null","fixation","","","","","","","","","","","","","",""
"revaluation","71","472074","0.0-3.0-13.0-2.0-0.4","spark_pilot_2","8929","1","7","Female","","false","","","","","[1070.3000000715256,996]","./assets/img/space/11.jpg","[""ArrowUp"",""ArrowRight""]","practice block","space","36","{""ArrowUp,ArrowLeft"":3,""ArrowUp,ArrowRight"":36,""ArrowDown,ArrowLeft"":15,""ArrowDown,ArrowRight"":23}","true","ArrowUp,ArrowRight","false","","","","","","","",""
"html-keyboard-response","72","472584","0.0-3.0-13.0-2.0-1.4","spark_pilot_2","8929","1","7","Female","","","","","","","null","<div style=""font-size:60px;"">+</div>","null","fixation","","","","","","","","","","","","","",""
"revaluation","73","478607","0.0-3.0-13.0-2.0-0.5","spark_pilot_2","8929","1","7","Female","","false","","","","","[1489.1999999284744,648.2000000476837]","./assets/img/space/12.jpg","[""ArrowUp"",""ArrowRight""]","practice block","space","36","{""ArrowUp,ArrowLeft"":3,""ArrowUp,ArrowRight"":36,""ArrowDown,ArrowLeft"":15,""ArrowDown,ArrowRight"":23}","true","ArrowUp,ArrowRight","false","","","","","","","",""
"html-keyboard-response","74","479118","0.0-3.0-13.0-2.0-1.5","spark_pilot_2","8929","1","7","Female","","","","","","","null","<div style=""font-size:60px;"">+</div>","null","fixation","","","","","","","","","","","","","",""
"revaluation","75","485154","0.0-3.0-13.0-2.0-0.6","spark_pilot_2","8929","1","7","Female","","false","","","","","[1153.8000000715256,664.7000000476837]","./assets/img/space/13.jpg","[""ArrowUp"",""ArrowRight""]","practice block","space","36","{""ArrowUp,ArrowLeft"":3,""ArrowUp,ArrowRight"":36,""ArrowDown,ArrowLeft"":15,""ArrowDown,ArrowRight"":23}","true","ArrowUp,ArrowRight","false","","","","","","","",""
"html-keyboard-response","76","485666","0.0-3.0-13.0-2.0-1.6","spark_pilot_2","8929","1","7","Female","","","","","","","null","<div style=""font-size:60px;"">+</div>","null","fixation","","","","","","","","","","","","","",""
"revaluation","77","491694","0.0-3.0-13.0-2.0-0.7","spark_pilot_2","8929","1","7","Female","","false","","","","","[1544.3999999761581,598]","./assets/img/space/14.jpg","[""ArrowUp"",""ArrowRight""]","practice block","space","36","{""ArrowUp,ArrowLeft"":3,""ArrowUp,ArrowRight"":36,""ArrowDown,ArrowLeft"":15,""ArrowDown,ArrowRight"":23}","true","ArrowUp,ArrowRight","false","","","","","","","",""
"html-keyboard-response","78","492204","0.0-3.0-13.0-2.0-1.7","spark_pilot_2","8929","1","7","Female","","","","","","","null","<div style=""font-size:60px;"">+</div>","null","fixation","","","","","","","","","","","","","",""
"revaluation","79","496227","0.0-3.0-13.0-2.0-0.8","spark_pilot_2","8929","1","7","Female","","false","","","","","[614.8999999761581]","./assets/img/space/catch/3.jpg","[""spaceBar""]","practice block","space","0","{""ArrowUp,ArrowLeft"":3,""ArrowUp,ArrowRight"":36,""ArrowDown,ArrowLeft"":15,""ArrowDown,ArrowRight"":23}","true","spaceBar","true","","","","","","","",""
"html-keyboard-response","80","496735","0.0-3.0-13.0-2.0-1.8","spark_pilot_2","8929","1","7","Female","","","","","","","null","<div style=""font-size:60px;"">+</div>","null","fixation","","","","","","","","","","","","","",""
"learning-instructions","81","513906","0.0-3.0-13.0-3.0-0.0","spark_pilot_2","8929","1","7","Female","","","","","","","3847.399999976158","<p> Now, you will travel with a friend who will choose whether you go up or down first. </p>
            <p> On these turns, you will just see the animal that they found. You will still get to choose which chest to search for treasure.</p>","","instructions","","","","","","","","","","","","","",""
"revaluation","82","517936","0.0-3.0-13.0-4.0-0.0","spark_pilot_2","8929","1","7","Female","","false","","","","","[1623.6000000238419]","./assets/img/space/animals/rabbit.jpg","[""ArrowRight""]","practice block","space","23","{""ArrowUp,ArrowLeft"":3,""ArrowUp,ArrowRight"":36,""ArrowDown,ArrowLeft"":15,""ArrowDown,ArrowRight"":23}","true","ArrowDown,ArrowRight","","","","","","","","",""
"html-keyboard-response","83","518449","0.0-3.0-13.0-4.0-1.0","spark_pilot_2","8929","1","7","Female","","","","","","","null","<div style=""font-size:60px;"">+</div>","null","fixation","","","","","","","","","","","","","",""
"revaluation","84","522474","0.0-3.0-13.0-4.0-0.1","spark_pilot_2","8929","1","7","Female","","false","","","","","[695.5]","./assets/img/space/animals/rabbit.jpg","[""ArrowRight""]","practice block","space","23","{""ArrowUp,ArrowLeft"":3,""ArrowUp,ArrowRight"":36,""ArrowDown,ArrowLeft"":15,""ArrowDown,ArrowRight"":23}","true","ArrowDown,ArrowRight","","","","","","","","",""
"html-keyboard-response","85","522984","0.0-3.0-13.0-4.0-1.1","spark_pilot_2","8929","1","7","Female","","","","","","","null","<div style=""font-size:60px;"">+</div>","null","fixation","","","","","","","","","","","","","",""
"revaluation","86","527002","0.0-3.0-13.0-4.0-0.2","spark_pilot_2","8929","1","7","Female","","false","","","","","[1662.6999999284744]","./assets/img/space/animals/cat.jpg","[""ArrowRight""]","practice block","space","36","{""ArrowUp,ArrowLeft"":3,""ArrowUp,ArrowRight"":36,""ArrowDown,ArrowLeft"":15,""ArrowDown,ArrowRight"":23}","true","ArrowUp,ArrowRight","","","","","","","","",""
"html-keyboard-response","87","527518","0.0-3.0-13.0-4.0-1.2","spark_pilot_2","8929","1","7","Female","","","","","","","null","<div style=""font-size:60px;"">+</div>","null","fixation","","","","","","","","","","","","","",""
"revaluation","88","531547","0.0-3.0-13.0-4.0-0.3","spark_pilot_2","8929","1","7","Female","","false","","","","","[628.1999999284744]","./assets/img/space/animals/cat.jpg","[""ArrowRight""]","practice block","space","36","{""ArrowUp,ArrowLeft"":3,""ArrowUp,ArrowRight"":36,""ArrowDown,ArrowLeft"":15,""ArrowDown,ArrowRight"":23}","true","ArrowUp,ArrowRight","","","","","","","","",""
"html-keyboard-response","89","532057","0.0-3.0-13.0-4.0-1.3","spark_pilot_2","8929","1","7","Female","","","","","","","null","<div style=""font-size:60px;"">+</div>","null","fixation","","","","","","","","","","","","","",""
"learning-instructions","90","541545","0.0-3.0-13.0-5.0-0.0","spark_pilot_2","8929","1","7","Female","","","","","","","2115.399999976158","<p> Time to play the dot game! </p>
            <p> For 15 seconds, click the red dots on the following screen as they appear. </p>","","instructions","","","","","","","","","","","","","",""
"revaluation","91","556554","0.0-3.0-13.0-6.0-0.0","spark_pilot_2","8929","1","7","Female","","","","","","","[109]","","","rest practice","","10","","","","","0","15000","","","","","",""
"learning-instructions","92","565764","0.0-3.0-13.0-7.0-0.0","spark_pilot_2","8929","1","7","Female","","","","","","","2984.8000000715256","<p> You have almost finished this part of the game! </p>
            <p> We are going to ask you to make a few more choices. </p>","","instructions","","","","","","","","","","","","","",""
"learning-instructions","93","582378","0.0-3.0-13.0-7.0-0.1","spark_pilot_2","8929","1","7","Female","","","","","","","2547.5","<p> First, you need to decide whether to go up or down. When you see each picture, use the arrow keys to make your choice. </p>
            <p><b>You will not see which animal you found, but try to get to the one that will give you the most treasure.</b></p>","","instructions","","","","","","","","","","","","","",""
"revaluation","94","583644","0.0-3.0-13.0-8.0","spark_pilot_2","8929","1","7","Female","","false","","","","","[1260.7999999523163]","./assets/img/space/15.jpg","[""ArrowUp""]","practice block","space","0","{""ArrowUp,ArrowLeft"":3,""ArrowUp,ArrowRight"":36,""ArrowDown,ArrowLeft"":15,""ArrowDown,ArrowRight"":23}","true","ArrowUp","false","","","","","","","",""
"html-keyboard-response","95","584147","0.0-3.0-13.0-9.0","spark_pilot_2","8929","1","7","Female","","","","","","","null","<div style=""font-size:60px;"">+</div>","null","fixation","","","","","","","","","","","","","",""
"learning-instructions","96","597392","0.0-3.0-13.0-10.0-0.0","spark_pilot_2","8929","1","7","Female","","","","","","","1741.9000000953674","<p> Now you will see the animals again and can search their chests for treasure. </p>
            <p> This time, you will not see how much treasure you earned, but you will earn more bonus money for making better choices. </p>","","instructions","","","","","","","","","","","","","",""
"revaluation","97","598860","0.0-3.0-13.0-11.0-0.0","spark_pilot_2","8929","1","7","Female","","false","","","","","[1463.8999999761581]","./assets/img/space/animals/cat.jpg","[""ArrowRight""]","practice block","space","0","{""ArrowUp,ArrowLeft"":3,""ArrowUp,ArrowRight"":36,""ArrowDown,ArrowLeft"":15,""ArrowDown,ArrowRight"":23}","true","ArrowUp,ArrowRight","","","","","","","","",""
"html-keyboard-response","98","599364","0.0-3.0-13.0-11.0-1.0","spark_pilot_2","8929","1","7","Female","","","","","","","null","<div style=""font-size:60px;"">+</div>","null","fixation","","","","","","","","","","","","","",""
"revaluation","99","600270","0.0-3.0-13.0-11.0-0.1","spark_pilot_2","8929","1","7","Female","","false","","","","","[899.7999999523163]","./assets/img/space/animals/rabbit.jpg","[""ArrowRight""]","practice block","space","0","{""ArrowUp,ArrowLeft"":3,""ArrowUp,ArrowRight"":36,""ArrowDown,ArrowLeft"":15,""ArrowDown,ArrowRight"":23}","true","ArrowDown,ArrowRight","","","","","","","","",""
"html-keyboard-response","100","600775","0.0-3.0-13.0-11.0-1.1","spark_pilot_2","8929","1","7","Female","","","","","","","null","<div style=""font-size:60px;"">+</div>","null","fixation","","","","","","","","","","","","","",""
"learning-instructions","101","609182","0.0-3.0-14.0-0.0","spark_pilot_2","8929","1","7","Female","","","","","","","3732.399999976158","<p> Before you start, we're going to ask you a few questions about how the game works. </p>","","instructions","","","","","","","","","","","","","",""
"comp-q","102","618333","0.0-3.0-15.0-0.0-0.0","spark_pilot_2","8929","1","7","Female","","","","","","","3458.7999999523163","<p> <b> True or False? </b> </p>
            <p> There can be 50 pieces of treasure in a given animal's chest. </p>","1","comp_question","","","","true","","","","","","","","","",""
"comp-q","103","626487","0.0-3.0-15.0-0.0-1.0","spark_pilot_2","8929","1","7","Female","","","","","","","1437.2999999523163","<p> <b> That's right! </b> The amount of treasure in each chest can range from 0 to 40 pieces. </p>","0","comp_answer","","","","","","","","","","","","","",""
"comp-q","104","635106","0.0-3.0-15.0-0.1-0.1","spark_pilot_2","8929","1","7","Female","","","","","","","1396.6000000238419","<p> <b> True or False? </b> </p><p> In this game, all animals have the same amount of treasure in their left and right chests. </p>","1","comp_question","","","","true","","","","","","","","","",""
"comp-q","105","642188","0.0-3.0-15.0-0.1-1.1","spark_pilot_2","8929","1","7","Female","","","","","","","1819.7999999523163","<p> <b> That's right! </b> Animals have different amounts of treasure in their treasure chests. </p>","0","comp_answer","","","","","","","","","","","","","",""
"comp-q","106","650688","0.0-3.0-15.0-0.2-0.2","spark_pilot_2","8929","1","7","Female","","","","","","","2549.5","<p> <b> True or False? </b> </p><p> The same animal will always be there if you go up in the same place. </p>","0","comp_question","","","","true","","","","","","","","","",""
"comp-q","107","659253","0.0-3.0-15.0-0.2-1.2","spark_pilot_2","8929","1","7","Female","","","","","","","2023.7000000476837","<p> <b> That's right! </b> One animal lives in the upper part and one lives in the lower part of every place. </p>","0","comp_answer","","","","","","","","","","","","","",""
"comp-q","108","668004","0.0-3.0-15.0-0.3-0.3","spark_pilot_2","8929","1","7","Female","","","","","","","3135.899999976158","<p> <b> True or False? </b> </p><p> If you see a different picture, it means you are in a new place. </p>","1","comp_question","","","","true","","","","","","","","","",""
"comp-q","109","683221","0.0-3.0-15.0-0.3-1.3","spark_pilot_2","8929","1","7","Female","","","","","","","3953.100000023842","<p> <b> That's right! </b> Lots of different images may show the same place. For example,  you may see three different images that all remind you that you are in outer space. </p>","0","comp_answer","","","","","","","","","","","","","",""
"learning-instructions","110","695939","0.0-3.0-16.0-0.0","spark_pilot_2","8929","1","7","Female","","","","","","","2758.7000000476837","<p> Good job. Remember to do your best because the amount of treasure you earn will be converted into bonus money. </p>
            <p> It’s time to start the real game! </p>","","instructions","","","","","","","","","","","","","",""
"learning-instructions","111","700066","0.0-4.0-0.0-0.0","spark_pilot_2","8929","1","7","Female","","","","","","","1375.7999999523163","<p> This time you are searching for treasure in the <b>ocean</b>.</p>","","instructions","","","","","","","","","","","","","",""
"learning-instructions","112","719145","0.0-4.0-0.0-0.1","spark_pilot_2","8929","1","7","Female","","","","","","","1735.1000000238419","<p><b>New</b> animals with <b>new</b> treasure chests live here. You need to explore to discover where the animal with the best treasure chest is.</p>
                    <p> Like before, once you figure out which animal has the chest with the most treasure, you should try to get to that animal and select that chest! </p>","","instructions","","","","","","","","","","","","","",""
"learning-instructions","113","736151","0.0-4.0-1.0-0.0","spark_pilot_2","8929","1","7","Female","","","","","","","2281.5","<p> Remember, when you see a picture of the place, use the up and down keys to <b>find an animal</b>.</p>
            <p> When you encounter an animal, you should use the left and right keys to <b>select a treasure chest</b>.</p>
            <p> Don't forget to look out for the robber! </p>","","instructions","","","","","","","","","","","","","",""
"revaluation","114","740161","0.0-4.0-2.0-0.0","spark_pilot_2","8929","1","7","Female","","true","","","","","[]","./assets/img/ocean/memory/36.jpg","[]","value training","ocean","-5","{""ArrowUp,ArrowLeft"":26,""ArrowUp,ArrowRight"":10,""ArrowDown,ArrowLeft"":5,""ArrowDown,ArrowRight"":17}","false","","false","","","original","1","0","","",""
"html-keyboard-response","115","740673","0.0-4.0-2.0-1.0","spark_pilot_2","8929","1","7","Female","","","","","","","null","<div style=""font-size:60px;"">+</div>","null","fixation","","","","","","","","","","","1","","",""
"revaluation","116","744696","0.0-4.0-2.0-0.1","spark_pilot_2","8929","1","7","Female","","false","","","","","[1670.1000000238419]","./assets/img/ocean/catch/7.jpg","[""ArrowDown""]","value training","ocean","-10","{""ArrowUp,ArrowLeft"":26,""ArrowUp,ArrowRight"":10,""ArrowDown,ArrowLeft"":5,""ArrowDown,ArrowRight"":17}","false","ArrowDown","true","","","original","1","2","","",""
"html-keyboard-response","117","745205","0.0-4.0-2.0-1.1","spark_pilot_2","8929","1","7","Female","","","","","","","null","<div style=""font-size:60px;"">+</div>","null","fixation","","","","","","","","","","","3","","",""
"revaluation","118","751229","0.0-4.0-2.0-0.2","spark_pilot_2","8929","1","7","Female","","false","","","","","[1264,1632.7999999523163]","./assets/img/ocean/memory/23.jpg","[""ArrowUp"",""ArrowRight""]","value training","ocean","10","{""ArrowUp,ArrowLeft"":26,""ArrowUp,ArrowRight"":10,""ArrowDown,ArrowLeft"":5,""ArrowDown,ArrowRight"":17}","false","ArrowUp,ArrowRight","false","","","original","1","4","","",""
"html-keyboard-response","119","751739","0.0-4.0-2.0-1.2","spark_pilot_2","8929","1","7","Female","","","","","","","null","<div style=""font-size:60px;"">+</div>","null","fixation","","","","","","","","","","","5","","",""
"revaluation","120","757778","0.0-4.0-2.0-0.3","spark_pilot_2","8929","1","7","Female","","true","","","","","[1508.2000000476837]","./assets/img/ocean/memory/0.jpg","[""ArrowUp""]","value training","ocean","-5","{""ArrowUp,ArrowLeft"":26,""ArrowUp,ArrowRight"":10,""ArrowDown,ArrowLeft"":5,""ArrowDown,ArrowRight"":17}","false","ArrowUp","false","","","original","1","6","","",""
"html-keyboard-response","121","758294","0.0-4.0-2.0-1.3","spark_pilot_2","8929","1","7","Female","","","","","","","null","<div style=""font-size:60px;"">+</div>","null","fixation","","","","","","","","","","","7","","",""
"revaluation","122","764328","0.0-4.0-2.0-0.4","spark_pilot_2","8929","1","7","Female","","false","","","","","[1070.2000000476837,1175.6000000238419]","./assets/img/ocean/memory/6.jpg","[""ArrowUp"",""ArrowRight""]","value training","ocean","10","{""ArrowUp,ArrowLeft"":26,""ArrowUp,ArrowRight"":10,""ArrowDown,ArrowLeft"":5,""ArrowDown,ArrowRight"":17}","false","ArrowUp,ArrowRight","false","","","original","1","8","","",""
"html-keyboard-response","123","764852","0.0-4.0-2.0-1.4","spark_pilot_2","8929","1","7","Female","","","","","","","null","<div style=""font-size:60px;"">+</div>","null","fixation","","","","","","","","","","","9","","",""
"revaluation","124","770907","0.0-4.0-2.0-0.5","spark_pilot_2","8929","1","7","Female","","false","","","","","[782.7999999523163,629.2999999523163]","./assets/img/ocean/memory/11.jpg","[""ArrowUp"",""ArrowLeft""]","value training","ocean","26","{""ArrowUp,ArrowLeft"":26,""ArrowUp,ArrowRight"":10,""ArrowDown,ArrowLeft"":5,""ArrowDown,ArrowRight"":17}","true","ArrowUp,ArrowLeft","false","","","original","1","10","","",""
"html-keyboard-response","125","771417","0.0-4.0-2.0-1.5","spark_pilot_2","8929","1","7","Female","","","","","","","null","<div style=""font-size:60px;"">+</div>","null","fixation","","","","","","","","","","","11","","",""
"revaluation","126","775428","0.0-4.0-2.0-0.6","spark_pilot_2","8929","1","7","Female","","false","","","","","[914.6999999284744]","./assets/img/ocean/catch/6.jpg","[""spaceBar""]","value training","ocean","0","{""ArrowUp,ArrowLeft"":26,""ArrowUp,ArrowRight"":10,""ArrowDown,ArrowLeft"":5,""ArrowDown,ArrowRight"":17}","true","spaceBar","true","","","original","1","12","","",""
"html-keyboard-response","127","775939","0.0-4.0-2.0-1.6","spark_pilot_2","8929","1","7","Female","","","","","","","null","<div style=""font-size:60px;"">+</div>","null","fixation","","","","","","","","","","","13","","",""
"revaluation","128","781980","0.0-4.0-2.0-0.7","spark_pilot_2","8929","1","7","Female","","false","","","","","[1475.5999999046326,684.8000000715256]","./assets/img/ocean/memory/5.jpg","[""ArrowUp"",""ArrowLeft""]","value training","ocean","26","{""ArrowUp,ArrowLeft"":26,""ArrowUp,ArrowRight"":10,""ArrowDown,ArrowLeft"":5,""ArrowDown,ArrowRight"":17}","true","ArrowUp,ArrowLeft","false","","","original","1","14","","",""
"html-keyboard-response","129","782523","0.0-4.0-2.0-1.7","spark_pilot_2","8929","1","7","Female","","","","","","","null","<div style=""font-size:60px;"">+</div>","null","fixation","","","","","","","","","","","15","","",""
"revaluation","130","788563","0.0-4.0-2.0-0.8","spark_pilot_2","8929","1","7","Female","","false","","","","","[1318.8999999761581,1470.7999999523163]","./assets/img/ocean/memory/38.jpg","[""ArrowDown"",""ArrowRight""]","value training","ocean","17","{""ArrowUp,ArrowLeft"":26,""ArrowUp,ArrowRight"":10,""ArrowDown,ArrowLeft"":5,""ArrowDown,ArrowRight"":17}","false","ArrowDown,ArrowRight","false","","","original","1","16","","",""
"html-keyboard-response","131","789088","0.0-4.0-2.0-1.8","spark_pilot_2","8929","1","7","Female","","","","","","","null","<div style=""font-size:60px;"">+</div>","null","fixation","","","","","","","","","","","17","","",""
"revaluation","132","795120","0.0-4.0-2.0-0.9","spark_pilot_2","8929","1","7","Female","","false","","","","","[1557.0999999046326,1484.2999999523163]","./assets/img/ocean/memory/29.jpg","[""ArrowUp"",""ArrowLeft""]","value training","ocean","26","{""ArrowUp,ArrowLeft"":26,""ArrowUp,ArrowRight"":10,""ArrowDown,ArrowLeft"":5,""ArrowDown,ArrowRight"":17}","true","ArrowUp,ArrowLeft","false","","","original","1","18","","",""
"html-keyboard-response","133","795629","0.0-4.0-2.0-1.9","spark_pilot_2","8929","1","7","Female","","","","","","","null","<div style=""font-size:60px;"">+</div>","null","fixation","","","","","","","","","","","19","","",""
"revaluation","134","799688","0.0-4.0-2.0-0.10","spark_pilot_2","8929","1","7","Female","","true","","","","","[]","./assets/img/ocean/memory/8.jpg","[]","value training","ocean","-5","{""ArrowUp,ArrowLeft"":26,""ArrowUp,ArrowRight"":10,""ArrowDown,ArrowLeft"":5,""ArrowDown,ArrowRight"":17}","false","","false","","","original","1","20","","",""
"html-keyboard-response","135","800194","0.0-4.0-2.0-1.10","spark_pilot_2","8929","1","7","Female","","","","","","","null","<div style=""font-size:60px;"">+</div>","null","fixation","","","","","","","","","","","21","","",""
"revaluation","136","806223","0.0-4.0-2.0-0.11","spark_pilot_2","8929","1","7","Female","","false","","","","","[1247.8999999761581,1234.2000000476837]","./assets/img/ocean/memory/26.jpg","[""ArrowUp"",""ArrowRight""]","value training","ocean","10","{""ArrowUp,ArrowLeft"":26,""ArrowUp,ArrowRight"":10,""ArrowDown,ArrowLeft"":5,""ArrowDown,ArrowRight"":17}","false","ArrowUp,ArrowRight","false","","","original","1","22","","",""
"html-keyboard-response","137","806730","0.0-4.0-2.0-1.11","spark_pilot_2","8929","1","7","Female","","","","","","","null","<div style=""font-size:60px;"">+</div>","null","fixation","","","","","","","","","","","23","","",""
"revaluation","138","812790","0.0-4.0-2.0-0.12","spark_pilot_2","8929","1","7","Female","","false","","","","","[837.5,706.5]","./assets/img/ocean/memory/3.jpg","[""ArrowUp"",""ArrowRight""]","value training","ocean","10","{""ArrowUp,ArrowLeft"":26,""ArrowUp,ArrowRight"":10,""ArrowDown,ArrowLeft"":5,""ArrowDown,ArrowRight"":17}","false","ArrowUp,ArrowRight","false","","","original","1","24","","",""
"html-keyboard-response","139","813296","0.0-4.0-2.0-1.12","spark_pilot_2","8929","1","7","Female","","","","","","","null","<div style=""font-size:60px;"">+</div>","null","fixation","","","","","","","","","","","25","","",""
"revaluation","140","819335","0.0-4.0-2.0-0.13","spark_pilot_2","8929","1","7","Female","","false","","","","","[933.2000000476837,1620.5]","./assets/img/ocean/memory/10.jpg","[""ArrowDown"",""ArrowRight""]","value training","ocean","17","{""ArrowUp,ArrowLeft"":26,""ArrowUp,ArrowRight"":10,""ArrowDown,ArrowLeft"":5,""ArrowDown,ArrowRight"":17}","false","ArrowDown,ArrowRight","false","","","original","1","26","","",""
"html-keyboard-response","141","819843","0.0-4.0-2.0-1.13","spark_pilot_2","8929","1","7","Female","","","","","","","null","<div style=""font-size:60px;"">+</div>","null","fixation","","","","","","","","","","","27","","",""
"revaluation","142","823882","0.0-4.0-2.0-0.14","spark_pilot_2","8929","1","7","Female","","false","","","","","[676.8999999761581]","./assets/img/ocean/catch/1.jpg","[""spaceBar""]","value training","ocean","0","{""ArrowUp,ArrowLeft"":26,""ArrowUp,ArrowRight"":10,""ArrowDown,ArrowLeft"":5,""ArrowDown,ArrowRight"":17}","true","spaceBar","true","","","original","1","28","","",""
"html-keyboard-response","143","824393","0.0-4.0-2.0-1.14","spark_pilot_2","8929","1","7","Female","","","","","","","null","<div style=""font-size:60px;"">+</div>","null","fixation","","","","","","","","","","","29","","",""
"revaluation","144","830428","0.0-4.0-2.0-0.15","spark_pilot_2","8929","1","7","Female","","false","","","","","[1281.8000000715256,1860.7000000476837]","./assets/img/ocean/memory/12.jpg","[""ArrowDown"",""ArrowLeft""]","value training","ocean","5","{""ArrowUp,ArrowLeft"":26,""ArrowUp,ArrowRight"":10,""ArrowDown,ArrowLeft"":5,""ArrowDown,ArrowRight"":17}","false","ArrowDown,ArrowLeft","false","","","original","1","30","","",""
"html-keyboard-response","145","830941","0.0-4.0-2.0-1.15","spark_pilot_2","8929","1","7","Female","","","","","","","null","<div style=""font-size:60px;"">+</div>","null","fixation","","","","","","","","","","","31","","",""
"revaluation","146","836972","0.0-4.0-2.0-0.16","spark_pilot_2","8929","1","7","Female","","false","","","","","[1511.9000000953674,848]","./assets/img/ocean/memory/11.jpg","[""ArrowUp"",""ArrowRight""]","value training","ocean","10","{""ArrowUp,ArrowLeft"":26,""ArrowUp,ArrowRight"":10,""ArrowDown,ArrowLeft"":5,""ArrowDown,ArrowRight"":17}","false","ArrowUp,ArrowRight","false","","","original","1","32","","",""
"html-keyboard-response","147","837474","0.0-4.0-2.0-1.16","spark_pilot_2","8929","1","7","Female","","","","","","","null","<div style=""font-size:60px;"">+</div>","null","fixation","","","","","","","","","","","33","","",""
"revaluation","148","843508","0.0-4.0-2.0-0.17","spark_pilot_2","8929","1","7","Female","","false","","","","","[1727.7000000476837,1010]","./assets/img/ocean/memory/27.jpg","[""ArrowUp"",""ArrowLeft""]","value training","ocean","26","{""ArrowUp,ArrowLeft"":26,""ArrowUp,ArrowRight"":10,""ArrowDown,ArrowLeft"":5,""ArrowDown,ArrowRight"":17}","true","ArrowUp,ArrowLeft","false","","","original","1","34","","",""
"html-keyboard-response","149","844018","0.0-4.0-2.0-1.17","spark_pilot_2","8929","1","7","Female","","","","","","","null","<div style=""font-size:60px;"">+</div>","null","fixation","","","","","","","","","","","35","","",""
"revaluation","150","850079","0.0-4.0-2.0-0.18","spark_pilot_2","8929","1","7","Female","","false","","","","","[1005.6999999284744,875.1000000238419]","./assets/img/ocean/memory/3.jpg","[""ArrowUp"",""ArrowRight""]","value training","ocean","10","{""ArrowUp,ArrowLeft"":26,""ArrowUp,ArrowRight"":10,""ArrowDown,ArrowLeft"":5,""ArrowDown,ArrowRight"":17}","false","ArrowUp,ArrowRight","false","","","original","1","36","","",""
"html-keyboard-response","151","850588","0.0-4.0-2.0-1.18","spark_pilot_2","8929","1","7","Female","","","","","","","null","<div style=""font-size:60px;"">+</div>","null","fixation","","","","","","","","","","","37","","",""
"revaluation","152","856620","0.0-4.0-2.0-0.19","spark_pilot_2","8929","1","7","Female","","false","","","","","[1128.2999999523163,932.7000000476837]","./assets/img/ocean/memory/8.jpg","[""ArrowUp"",""ArrowRight""]","value training","ocean","10","{""ArrowUp,ArrowLeft"":26,""ArrowUp,ArrowRight"":10,""ArrowDown,ArrowLeft"":5,""ArrowDown,ArrowRight"":17}","false","ArrowUp,ArrowRight","false","","","original","1","38","","",""
"html-keyboard-response","153","857160","0.0-4.0-2.0-1.19","spark_pilot_2","8929","1","7","Female","","","","","","","null","<div style=""font-size:60px;"">+</div>","null","fixation","","","","","","","","","","","39","","",""
"revaluation","154","863194","0.0-4.0-2.0-0.20","spark_pilot_2","8929","1","7","Female","","false","","","","","[1298.7999999523163,1010.8999999761581]","./assets/img/ocean/memory/5.jpg","[""ArrowUp"",""ArrowLeft""]","value training","ocean","26","{""ArrowUp,ArrowLeft"":26,""ArrowUp,ArrowRight"":10,""ArrowDown,ArrowLeft"":5,""ArrowDown,ArrowRight"":17}","true","ArrowUp,ArrowLeft","false","","","original","1","40","","",""
"html-keyboard-response","155","863736","0.0-4.0-2.0-1.20","spark_pilot_2","8929","1","7","Female","","","","","","","null","<div style=""font-size:60px;"">+</div>","null","fixation","","","","","","","","","","","41","","",""
"revaluation","156","869776","0.0-4.0-2.0-0.21","spark_pilot_2","8929","1","7","Female","","false","","","","","[1244.5,1082.8999999761581]","./assets/img/ocean/memory/29.jpg","[""ArrowUp"",""ArrowRight""]","value training","ocean","10","{""ArrowUp,ArrowLeft"":26,""ArrowUp,ArrowRight"":10,""ArrowDown,ArrowLeft"":5,""ArrowDown,ArrowRight"":17}","false","ArrowUp,ArrowRight","false","","","original","1","42","","",""
"html-keyboard-response","157","870302","0.0-4.0-2.0-1.21","spark_pilot_2","8929","1","7","Female","","","","","","","null","<div style=""font-size:60px;"">+</div>","null","fixation","","","","","","","","","","","43","","",""
"revaluation","158","876328","0.0-4.0-2.0-0.22","spark_pilot_2","8929","1","7","Female","","false","","","","","[1216,1439.3000000715256]","./assets/img/ocean/memory/19.jpg","[""ArrowDown"",""ArrowLeft""]","value training","ocean","5","{""ArrowUp,ArrowLeft"":26,""ArrowUp,ArrowRight"":10,""ArrowDown,ArrowLeft"":5,""ArrowDown,ArrowRight"":17}","false","ArrowDown,ArrowLeft","false","","","original","1","44","","",""
"html-keyboard-response","159","876837","0.0-4.0-2.0-1.22","spark_pilot_2","8929","1","7","Female","","","","","","","null","<div style=""font-size:60px;"">+</div>","null","fixation","","","","","","","","","","","45","","",""
"revaluation","160","882904","0.0-4.0-2.0-0.23","spark_pilot_2","8929","1","7","Female","","false","","","","","[825.9000000953674,866]","./assets/img/ocean/memory/35.jpg","[""ArrowUp"",""ArrowRight""]","value training","ocean","10","{""ArrowUp,ArrowLeft"":26,""ArrowUp,ArrowRight"":10,""ArrowDown,ArrowLeft"":5,""ArrowDown,ArrowRight"":17}","false","ArrowUp,ArrowRight","false","","","original","1","46","","",""
"html-keyboard-response","161","883443","0.0-4.0-2.0-1.23","spark_pilot_2","8929","1","7","Female","","","","","","","null","<div style=""font-size:60px;"">+</div>","null","fixation","","","","","","","","","","","47","","",""
"revaluation","162","887477","0.0-4.0-2.0-0.24","spark_pilot_2","8929","1","7","Female","","false","","","","","[821.7999999523163]","./assets/img/ocean/catch/4.jpg","[""spaceBar""]","value training","ocean","0","{""ArrowUp,ArrowLeft"":26,""ArrowUp,ArrowRight"":10,""ArrowDown,ArrowLeft"":5,""ArrowDown,ArrowRight"":17}","true","spaceBar","true","","","original","1","48","","",""
"html-keyboard-response","163","887988","0.0-4.0-2.0-1.24","spark_pilot_2","8929","1","7","Female","","","","","","","null","<div style=""font-size:60px;"">+</div>","null","fixation","","","","","","","","","","","49","","",""
"revaluation","164","894026","0.0-4.0-2.0-0.25","spark_pilot_2","8929","1","7","Female","","false","","","","","[1250.8999999761581,766.4000000953674]","./assets/img/ocean/memory/26.jpg","[""ArrowUp"",""ArrowRight""]","value training","ocean","10","{""ArrowUp,ArrowLeft"":26,""ArrowUp,ArrowRight"":10,""ArrowDown,ArrowLeft"":5,""ArrowDown,ArrowRight"":17}","false","ArrowUp,ArrowRight","false","","","original","1","50","","",""
"html-keyboard-response","165","894547","0.0-4.0-2.0-1.25","spark_pilot_2","8929","1","7","Female","","","","","","","null","<div style=""font-size:60px;"">+</div>","null","fixation","","","","","","","","","","","51","","",""
"revaluation","166","900607","0.0-4.0-2.0-0.26","spark_pilot_2","8929","1","7","Female","","false","","","","","[574.8000000715256,493.7000000476837]","./assets/img/ocean/memory/23.jpg","[""ArrowUp"",""ArrowLeft""]","value training","ocean","26","{""ArrowUp,ArrowLeft"":26,""ArrowUp,ArrowRight"":10,""ArrowDown,ArrowLeft"":5,""ArrowDown,ArrowRight"":17}","true","ArrowUp,ArrowLeft","false","","","original","1","52","","",""
"html-keyboard-response","167","901145","0.0-4.0-2.0-1.26","spark_pilot_2","8929","1","7","Female","","","","","","","null","<div style=""font-size:60px;"">+</div>","null","fixation","","","","","","","","","","","53","","",""
"revaluation","168","905178","0.0-4.0-2.0-0.27","spark_pilot_2","8929","1","7","Female","","false","","","","","[729.8000000715256]","./assets/img/ocean/catch/2.jpg","[""ArrowUp""]","value training","ocean","-10","{""ArrowUp,ArrowLeft"":26,""ArrowUp,ArrowRight"":10,""ArrowDown,ArrowLeft"":5,""ArrowDown,ArrowRight"":17}","false","ArrowUp","true","","","original","1","54","","",""
"html-keyboard-response","169","905679","0.0-4.0-2.0-1.27","spark_pilot_2","8929","1","7","Female","","","","","","","null","<div style=""font-size:60px;"">+</div>","null","fixation","","","","","","","","","","","55","","",""
"revaluation","170","911705","0.0-4.0-2.0-0.28","spark_pilot_2","8929","1","7","Female","","false","","","","","[1187.7000000476837,1317.6999999284744]","./assets/img/ocean/memory/6.jpg","[""ArrowUp"",""ArrowRight""]","value training","ocean","10","{""ArrowUp,ArrowLeft"":26,""ArrowUp,ArrowRight"":10,""ArrowDown,ArrowLeft"":5,""ArrowDown,ArrowRight"":17}","false","ArrowUp,ArrowRight","false","","","original","1","56","","",""
"html-keyboard-response","171","912242","0.0-4.0-2.0-1.28","spark_pilot_2","8929","1","7","Female","","","","","","","null","<div style=""font-size:60px;"">+</div>","null","fixation","","","","","","","","","","","57","","",""
"revaluation","172","918264","0.0-4.0-2.0-0.29","spark_pilot_2","8929","1","7","Female","","false","","","","","[702.6999999284744,1214.1000000238419]","./assets/img/ocean/memory/12.jpg","[""ArrowUp"",""ArrowRight""]","value training","ocean","10","{""ArrowUp,ArrowLeft"":26,""ArrowUp,ArrowRight"":10,""ArrowDown,ArrowLeft"":5,""ArrowDown,ArrowRight"":17}","false","ArrowUp,ArrowRight","false","","","original","1","58","","",""
"html-keyboard-response","173","918772","0.0-4.0-2.0-1.29","spark_pilot_2","8929","1","7","Female","","","","","","","null","<div style=""font-size:60px;"">+</div>","null","fixation","","","","","","","","","","","59","","",""
"revaluation","174","924814","0.0-4.0-2.0-0.30","spark_pilot_2","8929","1","7","Female","","false","","","","","[1053.9000000953674,1832.7999999523163]","./assets/img/ocean/memory/19.jpg","[""ArrowUp"",""ArrowLeft""]","value training","ocean","26","{""ArrowUp,ArrowLeft"":26,""ArrowUp,ArrowRight"":10,""ArrowDown,ArrowLeft"":5,""ArrowDown,ArrowRight"":17}","true","ArrowUp,ArrowLeft","false","","","original","1","60","","",""
"html-keyboard-response","175","925352","0.0-4.0-2.0-1.30","spark_pilot_2","8929","1","7","Female","","","","","","","null","<div style=""font-size:60px;"">+</div>","null","fixation","","","","","","","","","","","61","","",""
"revaluation","176","931407","0.0-4.0-2.0-0.31","spark_pilot_2","8929","1","7","Female","","false","","","","","[1190.5,1001.5]","./assets/img/ocean/memory/17.jpg","[""ArrowUp"",""ArrowRight""]","value training","ocean","10","{""ArrowUp,ArrowLeft"":26,""ArrowUp,ArrowRight"":10,""ArrowDown,ArrowLeft"":5,""ArrowDown,ArrowRight"":17}","false","ArrowUp,ArrowRight","false","","","original","1","62","","",""
"html-keyboard-response","177","931913","0.0-4.0-2.0-1.31","spark_pilot_2","8929","1","7","Female","","","","","","","null","<div style=""font-size:60px;"">+</div>","null","fixation","","","","","","","","","","","63","","",""
"revaluation","178","935936","0.0-4.0-2.0-0.32","spark_pilot_2","8929","1","7","Female","","false","","","","","[418.60000002384186]","./assets/img/ocean/catch/3.jpg","[""spaceBar""]","value training","ocean","0","{""ArrowUp,ArrowLeft"":26,""ArrowUp,ArrowRight"":10,""ArrowDown,ArrowLeft"":5,""ArrowDown,ArrowRight"":17}","true","spaceBar","true","","","original","1","64","","",""
"html-keyboard-response","179","936443","0.0-4.0-2.0-1.32","spark_pilot_2","8929","1","7","Female","","","","","","","null","<div style=""font-size:60px;"">+</div>","null","fixation","","","","","","","","","","","65","","",""
"revaluation","180","940454","0.0-4.0-2.0-0.33","spark_pilot_2","8929","1","7","Female","","false","","","","","[888]","./assets/img/ocean/catch/5.jpg","[""ArrowUp""]","value training","ocean","-10","{""ArrowUp,ArrowLeft"":26,""ArrowUp,ArrowRight"":10,""ArrowDown,ArrowLeft"":5,""ArrowDown,ArrowRight"":17}","false","ArrowUp","true","","","original","1","66","","",""
"html-keyboard-response","181","940964","0.0-4.0-2.0-1.33","spark_pilot_2","8929","1","7","Female","","","","","","","null","<div style=""font-size:60px;"">+</div>","null","fixation","","","","","","","","","","","67","","",""
"revaluation","182","947009","0.0-4.0-2.0-0.34","spark_pilot_2","8929","1","7","Female","","false","","","","","[971.3999999761581,1193.6000000238419]","./assets/img/ocean/memory/31.jpg","[""ArrowUp"",""ArrowRight""]","value training","ocean","10","{""ArrowUp,ArrowLeft"":26,""ArrowUp,ArrowRight"":10,""ArrowDown,ArrowLeft"":5,""ArrowDown,ArrowRight"":17}","false","ArrowUp,ArrowRight","false","","","original","1","68","","",""
"html-keyboard-response","183","947517","0.0-4.0-2.0-1.34","spark_pilot_2","8929","1","7","Female","","","","","","","null","<div style=""font-size:60px;"">+</div>","null","fixation","","","","","","","","","","","69","","",""
"revaluation","184","953590","0.0-4.0-2.0-0.35","spark_pilot_2","8929","1","7","Female","","false","","","","","[1344.5,975.2000000476837]","./assets/img/ocean/memory/17.jpg","[""ArrowUp"",""ArrowRight""]","value training","ocean","10","{""ArrowUp,ArrowLeft"":26,""ArrowUp,ArrowRight"":10,""ArrowDown,ArrowLeft"":5,""ArrowDown,ArrowRight"":17}","false","ArrowUp,ArrowRight","false","","","original","1","70","","",""
"html-keyboard-response","185","954096","0.0-4.0-2.0-1.35","spark_pilot_2","8929","1","7","Female","","","","","","","null","<div style=""font-size:60px;"">+</div>","null","fixation","","","","","","","","","","","71","","",""
"revaluation","186","958124","0.0-4.0-2.0-0.36","spark_pilot_2","8929","1","7","Female","","false","","","","","[542.7000000476837]","./assets/img/ocean/catch/0.jpg","[""spaceBar""]","value training","ocean","0","{""ArrowUp,ArrowLeft"":26,""ArrowUp,ArrowRight"":10,""ArrowDown,ArrowLeft"":5,""ArrowDown,ArrowRight"":17}","true","spaceBar","true","","","original","1","72","","",""
"html-keyboard-response","187","958631","0.0-4.0-2.0-1.36","spark_pilot_2","8929","1","7","Female","","","","","","","null","<div style=""font-size:60px;"">+</div>","null","fixation","","","","","","","","","","","73","","",""
"revaluation","188","962665","0.0-4.0-2.0-0.37","spark_pilot_2","8929","1","7","Female","","true","","","","","[]","./assets/img/ocean/memory/36.jpg","[]","value training","ocean","-5","{""ArrowUp,ArrowLeft"":26,""ArrowUp,ArrowRight"":10,""ArrowDown,ArrowLeft"":5,""ArrowDown,ArrowRight"":17}","false","","false","","","original","1","74","","",""
"html-keyboard-response","189","963172","0.0-4.0-2.0-1.37","spark_pilot_2","8929","1","7","Female","","","","","","","null","<div style=""font-size:60px;"">+</div>","null","fixation","","","","","","","","","","","75","","",""
"revaluation","190","969187","0.0-4.0-2.0-0.38","spark_pilot_2","8929","1","7","Female","","false","","","","","[1500.6000000238419,962]","./assets/img/ocean/memory/0.jpg","[""ArrowDown"",""ArrowRight""]","value training","ocean","17","{""ArrowUp,ArrowLeft"":26,""ArrowUp,ArrowRight"":10,""ArrowDown,ArrowLeft"":5,""ArrowDown,ArrowRight"":17}","false","ArrowDown,ArrowRight","false","","","original","1","76","","",""
"html-keyboard-response","191","969692","0.0-4.0-2.0-1.38","spark_pilot_2","8929","1","7","Female","","","","","","","null","<div style=""font-size:60px;"">+</div>","null","fixation","","","","","","","","","","","77","","",""
"revaluation","192","975752","0.0-4.0-2.0-0.39","spark_pilot_2","8929","1","7","Female","","false","","","","","[960.3999999761581,868]","./assets/img/ocean/memory/13.jpg","[""ArrowUp"",""ArrowRight""]","value training","ocean","10","{""ArrowUp,ArrowLeft"":26,""ArrowUp,ArrowRight"":10,""ArrowDown,ArrowLeft"":5,""ArrowDown,ArrowRight"":17}","false","ArrowUp,ArrowRight","false","","","original","1","78","","",""
"html-keyboard-response","193","976292","0.0-4.0-2.0-1.39","spark_pilot_2","8929","1","7","Female","","","","","","","null","<div style=""font-size:60px;"">+</div>","null","fixation","","","","","","","","","","","79","","",""
"revaluation","194","982326","0.0-4.0-2.0-0.40","spark_pilot_2","8929","1","7","Female","","false","","","","","[1123.1000000238419,938.1000000238419]","./assets/img/ocean/memory/10.jpg","[""ArrowUp"",""ArrowRight""]","value training","ocean","10","{""ArrowUp,ArrowLeft"":26,""ArrowUp,ArrowRight"":10,""ArrowDown,ArrowLeft"":5,""ArrowDown,ArrowRight"":17}","false","ArrowUp,ArrowRight","false","","","original","1","80","","",""
"html-keyboard-response","195","982862","0.0-4.0-2.0-1.40","spark_pilot_2","8929","1","7","Female","","","","","","","null","<div style=""font-size:60px;"">+</div>","null","fixation","","","","","","","","","","","81","","",""
"revaluation","196","986879","0.0-4.0-2.0-0.41","spark_pilot_2","8929","1","7","Female","","true","","","","","[]","./assets/img/ocean/memory/38.jpg","[]","value training","ocean","-5","{""ArrowUp,ArrowLeft"":26,""ArrowUp,ArrowRight"":10,""ArrowDown,ArrowLeft"":5,""ArrowDown,ArrowRight"":17}","false","","false","","","original","1","82","","",""
"html-keyboard-response","197","987385","0.0-4.0-2.0-1.41","spark_pilot_2","8929","1","7","Female","","","","","","","null","<div style=""font-size:60px;"">+</div>","null","fixation","","","","","","","","","","","83","","",""
"revaluation","198","991412","0.0-4.0-2.0-0.42","spark_pilot_2","8929","1","7","Female","","true","","","","","[]","./assets/img/ocean/memory/41.jpg","[]","value training","ocean","-5","{""ArrowUp,ArrowLeft"":26,""ArrowUp,ArrowRight"":10,""ArrowDown,ArrowLeft"":5,""ArrowDown,ArrowRight"":17}","false","","false","","","original","1","84","","",""
"html-keyboard-response","199","991918","0.0-4.0-2.0-1.42","spark_pilot_2","8929","1","7","Female","","","","","","","null","<div style=""font-size:60px;"">+</div>","null","fixation","","","","","","","","","","","85","","",""
"revaluation","200","997952","0.0-4.0-2.0-0.43","spark_pilot_2","8929","1","7","Female","","false","","","","","[468,807.1000000238419]","./assets/img/ocean/memory/31.jpg","[""ArrowUp"",""ArrowRight""]","value training","ocean","10","{""ArrowUp,ArrowLeft"":26,""ArrowUp,ArrowRight"":10,""ArrowDown,ArrowLeft"":5,""ArrowDown,ArrowRight"":17}","false","ArrowUp,ArrowRight","false","","","original","1","86","","",""
"html-keyboard-response","201","998460","0.0-4.0-2.0-1.43","spark_pilot_2","8929","1","7","Female","","","","","","","null","<div style=""font-size:60px;"">+</div>","null","fixation","","","","","","","","","","","87","","",""
"revaluation","202","1004531","0.0-4.0-2.0-0.44","spark_pilot_2","8929","1","7","Female","","false","","","","","[808.7999999523163,570.5]","./assets/img/ocean/memory/41.jpg","[""ArrowDown"",""ArrowRight""]","value training","ocean","17","{""ArrowUp,ArrowLeft"":26,""ArrowUp,ArrowRight"":10,""ArrowDown,ArrowLeft"":5,""ArrowDown,ArrowRight"":17}","false","ArrowDown,ArrowRight","false","","","original","1","88","","",""
"html-keyboard-response","203","1005046","0.0-4.0-2.0-1.44","spark_pilot_2","8929","1","7","Female","","","","","","","null","<div style=""font-size:60px;"">+</div>","null","fixation","","","","","","","","","","","89","","",""
"revaluation","204","1011089","0.0-4.0-2.0-0.45","spark_pilot_2","8929","1","7","Female","","false","","","","","[907.3999999761581,488.89999997615814]","./assets/img/ocean/memory/35.jpg","[""ArrowDown"",""ArrowLeft""]","value training","ocean","5","{""ArrowUp,ArrowLeft"":26,""ArrowUp,ArrowRight"":10,""ArrowDown,ArrowLeft"":5,""ArrowDown,ArrowRight"":17}","false","ArrowDown,ArrowLeft","false","","","original","1","90","","",""
"html-keyboard-response","205","1011597","0.0-4.0-2.0-1.45","spark_pilot_2","8929","1","7","Female","","","","","","","null","<div style=""font-size:60px;"">+</div>","null","fixation","","","","","","","","","","","91","","",""
"revaluation","206","1017658","0.0-4.0-2.0-0.46","spark_pilot_2","8929","1","7","Female","","false","","","","","[1551,1427.7000000476837]","./assets/img/ocean/memory/24.jpg","[""ArrowUp"",""ArrowLeft""]","value training","ocean","26","{""ArrowUp,ArrowLeft"":26,""ArrowUp,ArrowRight"":10,""ArrowDown,ArrowLeft"":5,""ArrowDown,ArrowRight"":17}","true","ArrowUp,ArrowLeft","false","","","original","1","92","","",""
"html-keyboard-response","207","1018167","0.0-4.0-2.0-1.46","spark_pilot_2","8929","1","7","Female","","","","","","[{""event"":""fullscreenenter"",""trial"":2,""time"":72769},{""event"":""blur"",""trial"":208,""time"":1019227},{""event"":""focus"",""trial"":210,""time"":1024732}]","null","<div style=""font-size:60px;"">+</div>","null","fixation","","","","","","","","","","","93","","",""
"revaluation","208","1022188","0.0-4.0-2.0-0.47","spark_pilot_2","8929","1","7","Female","","true","","","","","[]","./assets/img/ocean/memory/27.jpg","[]","value training","ocean","-5","{""ArrowUp,ArrowLeft"":26,""ArrowUp,ArrowRight"":10,""ArrowDown,ArrowLeft"":5,""ArrowDown,ArrowRight"":17}","false","","false","","","original","1","94","","",""
"html-keyboard-response","209","1022697","0.0-4.0-2.0-1.47","spark_pilot_2","8929","1","7","Female","","","","","","[{""event"":""fullscreenenter"",""trial"":2,""time"":72769},{""event"":""blur"",""trial"":208,""time"":1019227},{""event"":""focus"",""trial"":210,""time"":1024732}]","null","<div style=""font-size:60px;"">+</div>","null","fixation","","","","","","","","","","","95","","",""
"revaluation","210","1026711","0.0-4.0-2.0-0.48","spark_pilot_2","8929","1","7","Female","","true","","","","","[]","./assets/img/ocean/memory/13.jpg","[]","value training","ocean","-5","{""ArrowUp,ArrowLeft"":26,""ArrowUp,ArrowRight"":10,""ArrowDown,ArrowLeft"":5,""ArrowDown,ArrowRight"":17}","false","","false","","","original","1","96","","",""
"html-keyboard-response","211","1027216","0.0-4.0-2.0-1.48","spark_pilot_2","8929","1","7","Female","","","","","","","null","<div style=""font-size:60px;"">+</div>","null","fixation","","","","","","","","","","","97","","",""
"revaluation","212","1033246","0.0-4.0-2.0-0.49","spark_pilot_2","8929","1","7","Female","","false","","","","","[1132,903.7999999523163]","./assets/img/ocean/memory/24.jpg","[""ArrowUp"",""ArrowRight""]","value training","ocean","10","{""ArrowUp,ArrowLeft"":26,""ArrowUp,ArrowRight"":10,""ArrowDown,ArrowLeft"":5,""ArrowDown,ArrowRight"":17}","false","ArrowUp,ArrowRight","false","","","original","1","98","","",""
"html-keyboard-response","213","1033755","0.0-4.0-2.0-1.49","spark_pilot_2","8929","1","7","Female","","","","","","","null","<div style=""font-size:60px;"">+</div>","null","fixation","","","","","","","","","","","99","","",""
"learning-instructions","214","1049086","0.0-4.0-3.0-0.0","spark_pilot_2","8929","1","7","Female","","","","","","","2173.4000000953674","<p> Now, you will travel with a friend who will choose whether you go up or down first. </p>
            <p> On these turns, you will just see the animal that they found. You will still get to choose which chest to search for treasure.</p>","","instructions","","","","","","","","","","","","","",""
"revaluation","215","1053103","0.0-4.0-4.0-0.0","spark_pilot_2","8929","1","7","Female","","true","","","","","[]","./assets/img/ocean/animals/seahorse.jpg","[]","revaluation","ocean","-5","{""ArrowUp,ArrowLeft"":26,""ArrowUp,ArrowRight"":10,""ArrowDown,ArrowLeft"":5,""ArrowDown,ArrowRight"":17}","false","ArrowUp","","","","original","1","0","","",""
"html-keyboard-response","216","1053615","0.0-4.0-4.0-1.0","spark_pilot_2","8929","1","7","Female","","","","","","","null","<div style=""font-size:60px;"">+</div>","null","fixation","","","","","","","","","","","1","","",""
"revaluation","217","1057640","0.0-4.0-4.0-0.1","spark_pilot_2","8929","1","7","Female","","false","","","","","[610]","./assets/img/ocean/animals/seahorse.jpg","[""ArrowLeft""]","revaluation","ocean","26","{""ArrowUp,ArrowLeft"":26,""ArrowUp,ArrowRight"":10,""ArrowDown,ArrowLeft"":5,""ArrowDown,ArrowRight"":17}","true","ArrowUp,ArrowLeft","","","","original","1","2","","",""
"html-keyboard-response","218","1058144","0.0-4.0-4.0-1.1","spark_pilot_2","8929","1","7","Female","","","","","","","null","<div style=""font-size:60px;"">+</div>","null","fixation","","","","","","","","","","","3","","",""
"revaluation","219","1062175","0.0-4.0-4.0-0.2","spark_pilot_2","8929","1","7","Female","","false","","","","","[902.1000000238419]","./assets/img/ocean/animals/octopus.jpg","[""ArrowLeft""]","revaluation","ocean","5","{""ArrowUp,ArrowLeft"":26,""ArrowUp,ArrowRight"":10,""ArrowDown,ArrowLeft"":5,""ArrowDown,ArrowRight"":17}","false","ArrowDown,ArrowLeft","","","","original","1","4","","",""
"html-keyboard-response","220","1062688","0.0-4.0-4.0-1.2","spark_pilot_2","8929","1","7","Female","","","","","","","null","<div style=""font-size:60px;"">+</div>","null","fixation","","","","","","","","","","","5","","",""
"revaluation","221","1066706","0.0-4.0-4.0-0.3","spark_pilot_2","8929","1","7","Female","","false","","","","","[779.1000000238419]","./assets/img/ocean/animals/octopus.jpg","[""ArrowRight""]","revaluation","ocean","17","{""ArrowUp,ArrowLeft"":26,""ArrowUp,ArrowRight"":10,""ArrowDown,ArrowLeft"":5,""ArrowDown,ArrowRight"":17}","true","ArrowDown,ArrowRight","","","","original","1","6","","",""
"html-keyboard-response","222","1067213","0.0-4.0-4.0-1.3","spark_pilot_2","8929","1","7","Female","","","","","","","null","<div style=""font-size:60px;"">+</div>","null","fixation","","","","","","","","","","","7","","",""
"revaluation","223","1071237","0.0-4.0-4.0-0.4","spark_pilot_2","8929","1","7","Female","","true","","","","","[]","./assets/img/ocean/animals/seahorse.jpg","[]","revaluation","ocean","-5","{""ArrowUp,ArrowLeft"":26,""ArrowUp,ArrowRight"":10,""ArrowDown,ArrowLeft"":5,""ArrowDown,ArrowRight"":17}","false","ArrowUp","","","","original","1","8","","",""
"html-keyboard-response","224","1071748","0.0-4.0-4.0-1.4","spark_pilot_2","8929","1","7","Female","","","","","","","null","<div style=""font-size:60px;"">+</div>","null","fixation","","","","","","","","","","","9","","",""
"revaluation","225","1075776","0.0-4.0-4.0-0.5","spark_pilot_2","8929","1","7","Female","","true","","","","","[]","./assets/img/ocean/animals/octopus.jpg","[]","revaluation","ocean","-5","{""ArrowUp,ArrowLeft"":26,""ArrowUp,ArrowRight"":10,""ArrowDown,ArrowLeft"":5,""ArrowDown,ArrowRight"":17}","false","ArrowDown","","","","original","1","10","","",""
"html-keyboard-response","226","1076288","0.0-4.0-4.0-1.5","spark_pilot_2","8929","1","7","Female","","","","","","","null","<div style=""font-size:60px;"">+</div>","null","fixation","","","","","","","","","","","11","","",""
"revaluation","227","1080330","0.0-4.0-4.0-0.6","spark_pilot_2","8929","1","7","Female","","false","","","","","[1084.5]","./assets/img/ocean/animals/seahorse.jpg","[""ArrowLeft""]","revaluation","ocean","26","{""ArrowUp,ArrowLeft"":26,""ArrowUp,ArrowRight"":10,""ArrowDown,ArrowLeft"":5,""ArrowDown,ArrowRight"":17}","true","ArrowUp,ArrowLeft","","","","original","1","12","","",""
"html-keyboard-response","228","1080875","0.0-4.0-4.0-1.6","spark_pilot_2","8929","1","7","Female","","","","","","","null","<div style=""font-size:60px;"">+</div>","null","fixation","","","","","","","","","","","13","","",""
"revaluation","229","1084895","0.0-4.0-4.0-0.7","spark_pilot_2","8929","1","7","Female","","false","","","","","[424.7999999523163]","./assets/img/ocean/animals/octopus.jpg","[""ArrowRight""]","revaluation","ocean","17","{""ArrowUp,ArrowLeft"":26,""ArrowUp,ArrowRight"":10,""ArrowDown,ArrowLeft"":5,""ArrowDown,ArrowRight"":17}","true","ArrowDown,ArrowRight","","","","original","1","14","","",""
"html-keyboard-response","230","1085409","0.0-4.0-4.0-1.7","spark_pilot_2","8929","1","7","Female","","","","","","","null","<div style=""font-size:60px;"">+</div>","null","fixation","","","","","","","","","","","15","","",""
"revaluation","231","1089457","0.0-4.0-4.0-0.8","spark_pilot_2","8929","1","7","Female","","false","","","","","[312.7999999523163]","./assets/img/ocean/animals/octopus.jpg","[""ArrowLeft""]","revaluation","ocean","5","{""ArrowUp,ArrowLeft"":26,""ArrowUp,ArrowRight"":10,""ArrowDown,ArrowLeft"":5,""ArrowDown,ArrowRight"":17}","false","ArrowDown,ArrowLeft","","","","original","1","16","","",""
"html-keyboard-response","232","1089985","0.0-4.0-4.0-1.8","spark_pilot_2","8929","1","7","Female","","","","","","","null","<div style=""font-size:60px;"">+</div>","null","fixation","","","","","","","","","","","17","","",""
"revaluation","233","1094022","0.0-4.0-4.0-0.9","spark_pilot_2","8929","1","7","Female","","false","","","","","[401.7000000476837]","./assets/img/ocean/animals/octopus.jpg","[""ArrowRight""]","revaluation","ocean","17","{""ArrowUp,ArrowLeft"":26,""ArrowUp,ArrowRight"":10,""ArrowDown,ArrowLeft"":5,""ArrowDown,ArrowRight"":17}","true","ArrowDown,ArrowRight","","","","original","1","18","","",""
"html-keyboard-response","234","1094533","0.0-4.0-4.0-1.9","spark_pilot_2","8929","1","7","Female","","","","","","","null","<div style=""font-size:60px;"">+</div>","null","fixation","","","","","","","","","","","19","","",""
"revaluation","235","1098568","0.0-4.0-4.0-0.10","spark_pilot_2","8929","1","7","Female","","false","","","","","[326.3000000715256]","./assets/img/ocean/animals/seahorse.jpg","[""ArrowRight""]","revaluation","ocean","10","{""ArrowUp,ArrowLeft"":26,""ArrowUp,ArrowRight"":10,""ArrowDown,ArrowLeft"":5,""ArrowDown,ArrowRight"":17}","false","ArrowUp,ArrowRight","","","","original","1","20","","",""
"html-keyboard-response","236","1099081","0.0-4.0-4.0-1.10","spark_pilot_2","8929","1","7","Female","","","","","","","null","<div style=""font-size:60px;"">+</div>","null","fixation","","","","","","","","","","","21","","",""
"revaluation","237","1103111","0.0-4.0-4.0-0.11","spark_pilot_2","8929","1","7","Female","","false","","","","","[636.8000000715256]","./assets/img/ocean/animals/seahorse.jpg","[""ArrowLeft""]","revaluation","ocean","26","{""ArrowUp,ArrowLeft"":26,""ArrowUp,ArrowRight"":10,""ArrowDown,ArrowLeft"":5,""ArrowDown,ArrowRight"":17}","true","ArrowUp,ArrowLeft","","","","original","1","22","","",""
"html-keyboard-response","238","1103621","0.0-4.0-4.0-1.11","spark_pilot_2","8929","1","7","Female","","","","","","","null","<div style=""font-size:60px;"">+</div>","null","fixation","","","","","","","","","","","23","","",""
"revaluation","239","1107630","0.0-4.0-4.0-0.12","spark_pilot_2","8929","1","7","Female","","false","","","","","[1172.8999999761581]","./assets/img/ocean/animals/octopus.jpg","[""ArrowRight""]","revaluation","ocean","17","{""ArrowUp,ArrowLeft"":26,""ArrowUp,ArrowRight"":10,""ArrowDown,ArrowLeft"":5,""ArrowDown,ArrowRight"":17}","true","ArrowDown,ArrowRight","","","","original","1","24","","",""
"html-keyboard-response","240","1108135","0.0-4.0-4.0-1.12","spark_pilot_2","8929","1","7","Female","","","","","","","null","<div style=""font-size:60px;"">+</div>","null","fixation","","","","","","","","","","","25","","",""
"revaluation","241","1112161","0.0-4.0-4.0-0.13","spark_pilot_2","8929","1","7","Female","","false","","","","","[647]","./assets/img/ocean/animals/octopus.jpg","[""ArrowLeft""]","revaluation","ocean","5","{""ArrowUp,ArrowLeft"":26,""ArrowUp,ArrowRight"":10,""ArrowDown,ArrowLeft"":5,""ArrowDown,ArrowRight"":17}","false","ArrowDown,ArrowLeft","","","","original","1","26","","",""
"html-keyboard-response","242","1112673","0.0-4.0-4.0-1.13","spark_pilot_2","8929","1","7","Female","","","","","","","null","<div style=""font-size:60px;"">+</div>","null","fixation","","","","","","","","","","","27","","",""
"revaluation","243","1116693","0.0-4.0-4.0-0.14","spark_pilot_2","8929","1","7","Female","","false","","","","","[1433.3999999761581]","./assets/img/ocean/animals/seahorse.jpg","[""ArrowLeft""]","revaluation","ocean","26","{""ArrowUp,ArrowLeft"":26,""ArrowUp,ArrowRight"":10,""ArrowDown,ArrowLeft"":5,""ArrowDown,ArrowRight"":17}","true","ArrowUp,ArrowLeft","","","","original","1","28","","",""
"html-keyboard-response","244","1117232","0.0-4.0-4.0-1.14","spark_pilot_2","8929","1","7","Female","","","","","","","null","<div style=""font-size:60px;"">+</div>","null","fixation","","","","","","","","","","","29","","",""
"revaluation","245","1121264","0.0-4.0-4.0-0.15","spark_pilot_2","8929","1","7","Female","","false","","","","","[450.2000000476837]","./assets/img/ocean/animals/seahorse.jpg","[""ArrowRight""]","revaluation","ocean","10","{""ArrowUp,ArrowLeft"":26,""ArrowUp,ArrowRight"":10,""ArrowDown,ArrowLeft"":5,""ArrowDown,ArrowRight"":17}","false","ArrowUp,ArrowRight","","","","original","1","30","","",""
"html-keyboard-response","246","1121770","0.0-4.0-4.0-1.15","spark_pilot_2","8929","1","7","Female","","","","","","","null","<div style=""font-size:60px;"">+</div>","null","fixation","","","","","","","","","","","31","","",""
"revaluation","247","1125811","0.0-4.0-4.0-0.16","spark_pilot_2","8929","1","7","Female","","false","","","","","[678.5]","./assets/img/ocean/animals/octopus.jpg","[""ArrowLeft""]","revaluation","ocean","5","{""ArrowUp,ArrowLeft"":26,""ArrowUp,ArrowRight"":10,""ArrowDown,ArrowLeft"":5,""ArrowDown,ArrowRight"":17}","false","ArrowDown,ArrowLeft","","","","original","1","32","","",""
"html-keyboard-response","248","1126350","0.0-4.0-4.0-1.16","spark_pilot_2","8929","1","7","Female","","","","","","","null","<div style=""font-size:60px;"">+</div>","null","fixation","","","","","","","","","","","33","","",""
"revaluation","249","1130378","0.0-4.0-4.0-0.17","spark_pilot_2","8929","1","7","Female","","false","","","","","[943.7999999523163]","./assets/img/ocean/animals/seahorse.jpg","[""ArrowRight""]","revaluation","ocean","10","{""ArrowUp,ArrowLeft"":26,""ArrowUp,ArrowRight"":10,""ArrowDown,ArrowLeft"":5,""ArrowDown,ArrowRight"":17}","false","ArrowUp,ArrowRight","","","","original","1","34","","",""
"html-keyboard-response","250","1130884","0.0-4.0-4.0-1.17","spark_pilot_2","8929","1","7","Female","","","","","","","null","<div style=""font-size:60px;"">+</div>","null","fixation","","","","","","","","","","","35","","",""
"learning-instructions","251","1144762","0.0-4.0-5.0-0.0","spark_pilot_2","8929","1","7","Female","","","","","","","2224.100000023842","<p> Time to play the dot game! </p>
            <p> For one minute, click the red dots on the following screen as they appear. </p>
            <p><b> Don't look away, as you will earn bonus for clicking dots</b>. </p>","","instructions","","","","","","","","","","","","","",""
"revaluation","252","1204782","0.0-4.0-6.0-0.0","spark_pilot_2","8929","1","7","Female","","","","","","","[76,92,71,79,196,101]","","","rest","","60","","","","","0","60000","","","","","",""
"learning-instructions","253","1216481","0.0-4.0-7.0-0.0","spark_pilot_2","8929","1","7","Female","","","","","","","5303.299999952316","<p> You have almost finished this part of the game! </p>
            <p> We are going to ask you to make a few more choices. </p>","","instructions","","","","","","","","","","","","","",""
"learning-instructions","254","1236698","0.0-4.0-7.0-0.1","spark_pilot_2","8929","1","7","Female","","","","","","","6240.5","<p> First, you need to decide whether to go up or down. When you see each picture, use the arrow keys to make your choice. </p>
            <p><b>You will not see which animal you found, but try to get to the one that will give you the most treasure.</b></p>","","instructions","","","","","","","","","","","","","",""
"revaluation","255","1237809","0.0-4.0-8.0-0.0","spark_pilot_2","8929","1","7","Female","","false","","","","","[1105.1000000238419]","./assets/img/ocean/test/1.jpg","[""ArrowUp""]","first stage test","ocean","0","{""ArrowUp,ArrowLeft"":26,""ArrowUp,ArrowRight"":10,""ArrowDown,ArrowLeft"":5,""ArrowDown,ArrowRight"":17}","true","ArrowUp","false","","","original","1","","","",""
"html-keyboard-response","256","1238319","0.0-4.0-8.0-1.0","spark_pilot_2","8929","1","7","Female","","","","","","","null","<div style=""font-size:60px;"">+</div>","null","fixation","","","","","","","","","","","","","",""
"revaluation","257","1239297","0.0-4.0-8.0-0.1","spark_pilot_2","8929","1","7","Female","","false","","","","","[973.2999999523163]","./assets/img/ocean/test/0.jpg","[""ArrowDown""]","first stage test","ocean","0","{""ArrowUp,ArrowLeft"":26,""ArrowUp,ArrowRight"":10,""ArrowDown,ArrowLeft"":5,""ArrowDown,ArrowRight"":17}","false","ArrowDown","false","","","original","1","","","",""
"html-keyboard-response","258","1239802","0.0-4.0-8.0-1.1","spark_pilot_2","8929","1","7","Female","","","","","","","null","<div style=""font-size:60px;"">+</div>","null","fixation","","","","","","","","","","","","","",""
"revaluation","259","1240577","0.0-4.0-8.0-0.2","spark_pilot_2","8929","1","7","Female","","false","","","","","[770.7999999523163]","./assets/img/ocean/test/3.jpg","[""ArrowUp""]","first stage test","ocean","0","{""ArrowUp,ArrowLeft"":26,""ArrowUp,ArrowRight"":10,""ArrowDown,ArrowLeft"":5,""ArrowDown,ArrowRight"":17}","true","ArrowUp","false","","","original","1","","","",""
"html-keyboard-response","260","1241085","0.0-4.0-8.0-1.2","spark_pilot_2","8929","1","7","Female","","","","","","","null","<div style=""font-size:60px;"">+</div>","null","fixation","","","","","","","","","","","","","",""
"revaluation","261","1242110","0.0-4.0-8.0-0.3","spark_pilot_2","8929","1","7","Female","","false","","","","","[1019.1000000238419]","./assets/img/ocean/test/2.jpg","[""ArrowUp""]","first stage test","ocean","0","{""ArrowUp,ArrowLeft"":26,""ArrowUp,ArrowRight"":10,""ArrowDown,ArrowLeft"":5,""ArrowDown,ArrowRight"":17}","true","ArrowUp","false","","","original","1","","","",""
"html-keyboard-response","262","1242612","0.0-4.0-8.0-1.3","spark_pilot_2","8929","1","7","Female","","","","","","","null","<div style=""font-size:60px;"">+</div>","null","fixation","","","","","","","","","","","","","",""
"learning-instructions","263","1255758","0.0-4.0-9.0-0.0","spark_pilot_2","8929","1","7","Female","","","","","","","1810.5","<p> Now you will see the animals again and can search their chests for treasure. </p>
            <p> This time, you will not see how much treasure you earned, but you will earn more bonus money for making better choices. </p>","","instructions","","","","","","","","","","","","","",""
"revaluation","264","1256433","0.0-4.0-10.0-0.0","spark_pilot_2","8929","1","7","Female","","false","","","","","[670.6999999284744]","./assets/img/ocean/animals/seahorse.jpg","[""ArrowRight""]","second stage test","ocean","0","{""ArrowUp,ArrowLeft"":26,""ArrowUp,ArrowRight"":10,""ArrowDown,ArrowLeft"":5,""ArrowDown,ArrowRight"":17}","false","ArrowUp,ArrowRight","","","","original","1","","","",""
"html-keyboard-response","265","1256945","0.0-4.0-10.0-1.0","spark_pilot_2","8929","1","7","Female","","","","","","","null","<div style=""font-size:60px;"">+</div>","null","fixation","","","","","","","","","","","","","",""
"revaluation","266","1257751","0.0-4.0-10.0-0.1","spark_pilot_2","8929","1","7","Female","","false","","","","","[799.3999999761581]","./assets/img/ocean/animals/seahorse.jpg","[""ArrowRight""]","second stage test","ocean","0","{""ArrowUp,ArrowLeft"":26,""ArrowUp,ArrowRight"":10,""ArrowDown,ArrowLeft"":5,""ArrowDown,ArrowRight"":17}","false","ArrowUp,ArrowRight","","","","original","1","","","",""
"html-keyboard-response","267","1258265","0.0-4.0-10.0-1.1","spark_pilot_2","8929","1","7","Female","","","","","","","null","<div style=""font-size:60px;"">+</div>","null","fixation","","","","","","","","","","","","","",""
"revaluation","268","1258618","0.0-4.0-10.0-0.2","spark_pilot_2","8929","1","7","Female","","false","","","","","[346.59999990463257]","./assets/img/ocean/animals/seahorse.jpg","[""ArrowLeft""]","second stage test","ocean","0","{""ArrowUp,ArrowLeft"":26,""ArrowUp,ArrowRight"":10,""ArrowDown,ArrowLeft"":5,""ArrowDown,ArrowRight"":17}","true","ArrowUp,ArrowLeft","","","","original","1","","","",""
"html-keyboard-response","269","1259136","0.0-4.0-10.0-1.2","spark_pilot_2","8929","1","7","Female","","","","","","","null","<div style=""font-size:60px;"">+</div>","null","fixation","","","","","","","","","","","","","",""
"revaluation","270","1259526","0.0-4.0-10.0-0.3","spark_pilot_2","8929","1","7","Female","","false","","","","","[383.2999999523163]","./assets/img/ocean/animals/seahorse.jpg","[""ArrowLeft""]","second stage test","ocean","0","{""ArrowUp,ArrowLeft"":26,""ArrowUp,ArrowRight"":10,""ArrowDown,ArrowLeft"":5,""ArrowDown,ArrowRight"":17}","true","ArrowUp,ArrowLeft","","","","original","1","","","",""
"html-keyboard-response","271","1260034","0.0-4.0-10.0-1.3","spark_pilot_2","8929","1","7","Female","","","","","","","null","<div style=""font-size:60px;"">+</div>","null","fixation","","","","","","","","","","","","","",""
"revaluation","272","1260708","0.0-4.0-10.0-0.4","spark_pilot_2","8929","1","7","Female","","false","","","","","[669.0999999046326]","./assets/img/ocean/animals/octopus.jpg","[""ArrowRight""]","second stage test","ocean","0","{""ArrowUp,ArrowLeft"":26,""ArrowUp,ArrowRight"":10,""ArrowDown,ArrowLeft"":5,""ArrowDown,ArrowRight"":17}","true","ArrowDown,ArrowRight","","","","original","1","","","",""
"html-keyboard-response","273","1261223","0.0-4.0-10.0-1.4","spark_pilot_2","8929","1","7","Female","","","","","","","null","<div style=""font-size:60px;"">+</div>","null","fixation","","","","","","","","","","","","","",""
"revaluation","274","1261577","0.0-4.0-10.0-0.5","spark_pilot_2","8929","1","7","Female","","false","","","","","[348.2999999523163]","./assets/img/ocean/animals/octopus.jpg","[""ArrowRight""]","second stage test","ocean","0","{""ArrowUp,ArrowLeft"":26,""ArrowUp,ArrowRight"":10,""ArrowDown,ArrowLeft"":5,""ArrowDown,ArrowRight"":17}","true","ArrowDown,ArrowRight","","","","original","1","","","",""
"html-keyboard-response","275","1262086","0.0-4.0-10.0-1.5","spark_pilot_2","8929","1","7","Female","","","","","","","null","<div style=""font-size:60px;"">+</div>","null","fixation","","","","","","","","","","","","","",""
"revaluation","276","1262527","0.0-4.0-10.0-0.6","spark_pilot_2","8929","1","7","Female","","false","","","","","[434.2999999523163]","./assets/img/ocean/animals/octopus.jpg","[""ArrowRight""]","second stage test","ocean","0","{""ArrowUp,ArrowLeft"":26,""ArrowUp,ArrowRight"":10,""ArrowDown,ArrowLeft"":5,""ArrowDown,ArrowRight"":17}","true","ArrowDown,ArrowRight","","","","original","1","","","",""
"html-keyboard-response","277","1263029","0.0-4.0-10.0-1.6","spark_pilot_2","8929","1","7","Female","","","","","","","null","<div style=""font-size:60px;"">+</div>","null","fixation","","","","","","","","","","","","","",""
"revaluation","278","1263447","0.0-4.0-10.0-0.7","spark_pilot_2","8929","1","7","Female","","false","","","","","[412.89999997615814]","./assets/img/ocean/animals/octopus.jpg","[""ArrowRight""]","second stage test","ocean","0","{""ArrowUp,ArrowLeft"":26,""ArrowUp,ArrowRight"":10,""ArrowDown,ArrowLeft"":5,""ArrowDown,ArrowRight"":17}","true","ArrowDown,ArrowRight","","","","original","1","","","",""
"html-keyboard-response","279","1263960","0.0-4.0-10.0-1.7","spark_pilot_2","8929","1","7","Female","","","","","","","null","<div style=""font-size:60px;"">+</div>","null","fixation","","","","","","","","","","","","","",""
"learning-instructions","280","1268318","0.0-4.0-0.1-0.2","spark_pilot_2","8929","1","7","Female","","","","","","","1500.1999999284744","<p> This time you are searching for treasure in the <b>canyon</b>.</p>","","instructions","","","","","","","","","","","","","",""
"learning-instructions","281","1286654","0.0-4.0-0.1-0.3","spark_pilot_2","8929","1","7","Female","","","","","","","1085.8000000715256","<p><b>New</b> animals with <b>new</b> treasure chests live here. You need to explore to discover where the animal with the best treasure chest is.</p>
                    <p> Like before, once you figure out which animal has the chest with the most treasure, you should try to get to that animal and select that chest! </p>","","instructions","","","","","","","","","","","","","",""
"learning-instructions","282","1303671","0.0-4.0-1.1-0.1","spark_pilot_2","8929","1","7","Female","","","","","","","2291.7999999523163","<p> Remember, when you see a picture of the place, use the up and down keys to <b>find an animal</b>.</p>
            <p> When you encounter an animal, you should use the left and right keys to <b>select a treasure chest</b>.</p>
            <p> Don't forget to look out for the robber! </p>","","instructions","","","","","","","","","","","","","",""
"revaluation","283","1309700","0.0-4.0-2.1-0.50","spark_pilot_2","8929","1","7","Female","","false","","","","","[1383.6999999284744,670.7999999523163]","./assets/img/canyon/memory/26.jpg","[""ArrowDown"",""ArrowRight""]","value training","canyon","30","{""ArrowUp,ArrowLeft"":23,""ArrowUp,ArrowRight"":10,""ArrowDown,ArrowLeft"":8,""ArrowDown,ArrowRight"":30}","true","ArrowDown,ArrowRight","false","","","revaluation","2","0","","",""
"html-keyboard-response","284","1310212","0.0-4.0-2.1-1.50","spark_pilot_2","8929","1","7","Female","","","","","","","null","<div style=""font-size:60px;"">+</div>","null","fixation","","","","","","","","","","","1","","",""
"revaluation","285","1314225","0.0-4.0-2.1-0.51","spark_pilot_2","8929","1","7","Female","","false","","","","","[482.2000000476837]","./assets/img/canyon/catch/5.jpg","[""ArrowUp""]","value training","canyon","-10","{""ArrowUp,ArrowLeft"":23,""ArrowUp,ArrowRight"":10,""ArrowDown,ArrowLeft"":8,""ArrowDown,ArrowRight"":30}","false","ArrowUp","true","","","revaluation","2","2","","",""
"html-keyboard-response","286","1314738","0.0-4.0-2.1-1.51","spark_pilot_2","8929","1","7","Female","","","","","","","null","<div style=""font-size:60px;"">+</div>","null","fixation","","","","","","","","","","","3","","",""
"revaluation","287","1320765","0.0-4.0-2.1-0.52","spark_pilot_2","8929","1","7","Female","","false","","","","","[412,659]","./assets/img/canyon/memory/38.jpg","[""ArrowUp"",""ArrowRight""]","value training","canyon","10","{""ArrowUp,ArrowLeft"":23,""ArrowUp,ArrowRight"":10,""ArrowDown,ArrowLeft"":8,""ArrowDown,ArrowRight"":30}","false","ArrowUp,ArrowRight","false","","","revaluation","2","4","","",""
"html-keyboard-response","288","1321274","0.0-4.0-2.1-1.52","spark_pilot_2","8929","1","7","Female","","","","","","","null","<div style=""font-size:60px;"">+</div>","null","fixation","","","","","","","","","","","5","","",""
"revaluation","289","1327298","0.0-4.0-2.1-0.53","spark_pilot_2","8929","1","7","Female","","false","","","","","[708.1000000238419,371.89999997615814]","./assets/img/canyon/memory/23.jpg","[""ArrowUp"",""ArrowRight""]","value training","canyon","10","{""ArrowUp,ArrowLeft"":23,""ArrowUp,ArrowRight"":10,""ArrowDown,ArrowLeft"":8,""ArrowDown,ArrowRight"":30}","false","ArrowUp,ArrowRight","false","","","revaluation","2","6","","",""
"html-keyboard-response","290","1327807","0.0-4.0-2.1-1.53","spark_pilot_2","8929","1","7","Female","","","","","","","null","<div style=""font-size:60px;"">+</div>","null","fixation","","","","","","","","","","","7","","",""
"revaluation","291","1331832","0.0-4.0-2.1-0.54","spark_pilot_2","8929","1","7","Female","","false","","","","","[806]","./assets/img/canyon/catch/2.jpg","[""ArrowUp""]","value training","canyon","-10","{""ArrowUp,ArrowLeft"":23,""ArrowUp,ArrowRight"":10,""ArrowDown,ArrowLeft"":8,""ArrowDown,ArrowRight"":30}","false","ArrowUp","true","","","revaluation","2","8","","",""
"html-keyboard-response","292","1332342","0.0-4.0-2.1-1.54","spark_pilot_2","8929","1","7","Female","","","","","","","null","<div style=""font-size:60px;"">+</div>","null","fixation","","","","","","","","","","","9","","",""
"revaluation","293","1338383","0.0-4.0-2.1-0.55","spark_pilot_2","8929","1","7","Female","","false","","","","","[448.39999997615814,342.8000000715256]","./assets/img/canyon/memory/0.jpg","[""ArrowUp"",""ArrowLeft""]","value training","canyon","23","{""ArrowUp,ArrowLeft"":23,""ArrowUp,ArrowRight"":10,""ArrowDown,ArrowLeft"":8,""ArrowDown,ArrowRight"":30}","false","ArrowUp,ArrowLeft","false","","","revaluation","2","10","","",""
"html-keyboard-response","294","1338898","0.0-4.0-2.1-1.55","spark_pilot_2","8929","1","7","Female","","","","","","","null","<div style=""font-size:60px;"">+</div>","null","fixation","","","","","","","","","","","11","","",""
"revaluation","295","1344957","0.0-4.0-2.1-0.56","spark_pilot_2","8929","1","7","Female","","false","","","","","[646.6999999284744,351.8000000715256]","./assets/img/canyon/memory/35.jpg","[""ArrowDown"",""ArrowRight""]","value training","canyon","30","{""ArrowUp,ArrowLeft"":23,""ArrowUp,ArrowRight"":10,""ArrowDown,ArrowLeft"":8,""ArrowDown,ArrowRight"":30}","true","ArrowDown,ArrowRight","false","","","revaluation","2","12","","",""
"html-keyboard-response","296","1345467","0.0-4.0-2.1-1.56","spark_pilot_2","8929","1","7","Female","","","","","","","null","<div style=""font-size:60px;"">+</div>","null","fixation","","","","","","","","","","","13","","",""
"revaluation","297","1351525","0.0-4.0-2.1-0.57","spark_pilot_2","8929","1","7","Female","","false","","","","","[359.7999999523163,343]","./assets/img/canyon/memory/36.jpg","[""ArrowDown"",""ArrowRight""]","value training","canyon","30","{""ArrowUp,ArrowLeft"":23,""ArrowUp,ArrowRight"":10,""ArrowDown,ArrowLeft"":8,""ArrowDown,ArrowRight"":30}","true","ArrowDown,ArrowRight","false","","","revaluation","2","14","","",""
"html-keyboard-response","298","1352036","0.0-4.0-2.1-1.57","spark_pilot_2","8929","1","7","Female","","","","","","","null","<div style=""font-size:60px;"">+</div>","null","fixation","","","","","","","","","","","15","","",""
"revaluation","299","1358056","0.0-4.0-2.1-0.58","spark_pilot_2","8929","1","7","Female","","false","","","","","[255.29999995231628,291.7000000476837]","./assets/img/canyon/memory/23.jpg","[""ArrowDown"",""ArrowLeft""]","value training","canyon","8","{""ArrowUp,ArrowLeft"":23,""ArrowUp,ArrowRight"":10,""ArrowDown,ArrowLeft"":8,""ArrowDown,ArrowRight"":30}","false","ArrowDown,ArrowLeft","false","","","revaluation","2","16","","",""
"html-keyboard-response","300","1358565","0.0-4.0-2.1-1.58","spark_pilot_2","8929","1","7","Female","","","","","","","null","<div style=""font-size:60px;"">+</div>","null","fixation","","","","","","","","","","","17","","",""
"revaluation","301","1364609","0.0-4.0-2.1-0.59","spark_pilot_2","8929","1","7","Female","","false","","","","","[366.2000000476837,304.5]","./assets/img/canyon/memory/41.jpg","[""ArrowDown"",""ArrowRight""]","value training","canyon","30","{""ArrowUp,ArrowLeft"":23,""ArrowUp,ArrowRight"":10,""ArrowDown,ArrowLeft"":8,""ArrowDown,ArrowRight"":30}","true","ArrowDown,ArrowRight","false","","","revaluation","2","18","","",""
"html-keyboard-response","302","1365119","0.0-4.0-2.1-1.59","spark_pilot_2","8929","1","7","Female","","","","","","","null","<div style=""font-size:60px;"">+</div>","null","fixation","","","","","","","","","","","19","","",""
"revaluation","303","1371138","0.0-4.0-2.1-0.60","spark_pilot_2","8929","1","7","Female","","false","","","","","[388.2000000476837,336.89999997615814]","./assets/img/canyon/memory/10.jpg","[""ArrowDown"",""ArrowRight""]","value training","canyon","30","{""ArrowUp,ArrowLeft"":23,""ArrowUp,ArrowRight"":10,""ArrowDown,ArrowLeft"":8,""ArrowDown,ArrowRight"":30}","true","ArrowDown,ArrowRight","false","","","revaluation","2","20","","",""
"html-keyboard-response","304","1371649","0.0-4.0-2.1-1.60","spark_pilot_2","8929","1","7","Female","","","","","","","null","<div style=""font-size:60px;"">+</div>","null","fixation","","","","","","","","","","","21","","",""
"revaluation","305","1377698","0.0-4.0-2.1-0.61","spark_pilot_2","8929","1","7","Female","","false","","","","","[465.7000000476837,376.7000000476837]","./assets/img/canyon/memory/38.jpg","[""ArrowUp"",""ArrowLeft""]","value training","canyon","23","{""ArrowUp,ArrowLeft"":23,""ArrowUp,ArrowRight"":10,""ArrowDown,ArrowLeft"":8,""ArrowDown,ArrowRight"":30}","false","ArrowUp,ArrowLeft","false","","","revaluation","2","22","","",""
"html-keyboard-response","306","1378222","0.0-4.0-2.1-1.61","spark_pilot_2","8929","1","7","Female","","","","","","","null","<div style=""font-size:60px;"">+</div>","null","fixation","","","","","","","","","","","23","","",""
"revaluation","307","1384264","0.0-4.0-2.1-0.62","spark_pilot_2","8929","1","7","Female","","false","","","","","[450.7000000476837,313.59999990463257]","./assets/img/canyon/memory/27.jpg","[""ArrowDown"",""ArrowRight""]","value training","canyon","30","{""ArrowUp,ArrowLeft"":23,""ArrowUp,ArrowRight"":10,""ArrowDown,ArrowLeft"":8,""ArrowDown,ArrowRight"":30}","true","ArrowDown,ArrowRight","false","","","revaluation","2","24","","",""
"html-keyboard-response","308","1384793","0.0-4.0-2.1-1.62","spark_pilot_2","8929","1","7","Female","","","","","","","null","<div style=""font-size:60px;"">+</div>","null","fixation","","","","","","","","","","","25","","",""
