"trial_type","trial_index","time_elapsed","internal_node_id","task_version","subject_id","assigned_condition","age","gender","success","timeout","failed_images","failed_audio","failed_video","browser_interaction","rt","stimulus","response","task_part","environment","score","rewardMap","correct","fullState","isCatch","numberMissed","duration","condition","order","trial_num","key_press","ground_truth","bonus"
"pavlovia","0","864","0.0-0.0","spark_pilot_2","7411","6","17","Male","","","","","","","","","","","","","","","","","","","","","","","",""
"preload","1","36721","0.0-1.0","spark_pilot_2","7411","6","17","Male","true","false","[]","[]","[]","[{""event"":""fullscreenenter"",""trial"":2,""time"":39327},{""event"":""blur"",""trial"":214,""time"":1035967},{""event"":""focus"",""trial"":214,""time"":1096828},{""event"":""blur"",""trial"":251,""time"":1179920},{""event"":""focus"",""trial"":251,""time"":1181699},{""event"":""blur"",""trial"":637,""time"":2305225},{""event"":""focus"",""trial"":637,""time"":2319254}]","","","","","","","","","","","","","","","","","",""
"fullscreen","2","40317","0.0-2.0","spark_pilot_2","7411","6","17","Male","true","","","","","","","","","","","","","","","","","","","","","","",""
"audio-button-response","3","41701","0.0-3.0-0.0-0.0","spark_pilot_2","7411","6","17","Male","","","","","","","1371","./assets/audio/audiotest/turtle.mp3","2","audio_test","","","","","","","","","","","","","",""
"learning-instructions","4","51557","0.0-3.0-1.0-0.0","spark_pilot_2","7411","6","17","Male","","","","","","","2887","<p> Welcome! Please remember to stay in fullscreen mode and don't click away from the experiment. </p>","","instructions","","","","","","","","","","","","","",""
"learning-instructions","5","77951","0.0-3.0-1.0-0.1","spark_pilot_2","7411","6","17","Male","","","","","","","18001.200000047684","<p> Today you will be playing a game to earn treasure. </p>
            <p> At the end of the experiment, you will earn a bonus based on how much treasure you find. </p>
            <img src='./assets/img/instructions/treasure.jpg' class='instructions-image'>","","instructions","","","","","","","","","","","","","",""
"learning-instructions","6","89289","0.0-3.0-1.0-0.2","spark_pilot_2","7411","6","17","Male","","","","","","","3099.2999999523163","<p> Animals have hidden treasure in treasure chests. </p>
            <p> You need to first find an animal and then choose which of their treasure chests to search. </p>
            <img src='./assets/img/space/animals/cat.jpg' class='instructions-image'>","","instructions","","","","","","","","","","","","","",""
"learning-instructions","7","104363","0.0-3.0-1.0-0.3","spark_pilot_2","7411","6","17","Male","","","","","","","1943.6000000238419","<p> In each round, you will search for treasure in a different place. In the real game, there will be two rounds. </p>
            <p> You will begin with a separate, practice round where you will search for treasure in outer space. </p>
            <img src='./assets/img/space/0.jpg' class='instructions-image'>","","instructions","","","","","","","","","","","","","",""
"learning-instructions","8","116779","0.0-3.0-1.0-0.4","spark_pilot_2","7411","6","17","Male","","","","","","","1009.5","<p> On every turn, you will see a picture of the place that you are in, but the specific image may be different each time. </p>
            <p> For example, both of these images mean you are in outer space. </p>
            <img src='./assets/img/instructions/outerspace.jpg' class='instructions-image'>","","instructions","","","","","","","","","","","","","",""
"learning-instructions","9","127221","0.0-3.0-1.0-0.5","spark_pilot_2","7411","6","17","Male","","","","","","","2631.7000000476837","<p> You need to decide which direction to travel in. </p>
            <p> You can choose between going <b>up or down</b> by using the arrow keys. </p>
            <img src='./assets/img/instructions/updown.jpg' class='instructions-image'>","","instructions","","","","","","","","","","","","","",""
"learning-instructions","10","136593","0.0-3.0-1.0-0.6","spark_pilot_2","7411","6","17","Male","","","","","","","573.8000000715256","<p> You will have <b>2 seconds</b> to make your choice. </p>
            <p> If you do not make a choice within 2 seconds, you will not find an animal or earn treasure. </p>
            <img src='./assets/img/instructions/2seconds.jpg' class='instructions-image'>","","instructions","","","","","","","","","","","","","",""
"learning-instructions","11","144851","0.0-3.0-1.0-0.7","spark_pilot_2","7411","6","17","Male","","","","","","","1241.3999999761581","<p> Let’s try practicing that now! </p>
            <p> When you see a picture of the place you are in, press the <b>up</b> key to travel up. </p>
            <img src='./assets/img/instructions/pressUp.jpg' class='instructions-image'>","","instructions","","","","","","","","","","","","","",""
"revaluation","12","148871","0.0-3.0-2.0-0.0","spark_pilot_2","7411","6","17","Male","","false","","","","","[438]","./assets/img/space/0.jpg","[""ArrowUp""]","first stage practice","space","0","null","null","ArrowUp","false","","","","","","","",""
"html-keyboard-response","13","149386","0.0-3.0-2.0-1.0","spark_pilot_2","7411","6","17","Male","","","","","","","null","<div style=""font-size:60px;"">+</div>","null","fixation","","","","","","","","","","","","","",""
"revaluation","14","153412","0.0-3.0-2.0-0.1","spark_pilot_2","7411","6","17","Male","","false","","","","","[986.3999999761581]","./assets/img/space/1.jpg","[""ArrowUp""]","first stage practice","space","0","null","null","ArrowUp","false","","","","","","","",""
"html-keyboard-response","15","153915","0.0-3.0-2.0-1.1","spark_pilot_2","7411","6","17","Male","","","","","","","null","<div style=""font-size:60px;"">+</div>","null","fixation","","","","","","","","","","","","","",""
"revaluation","16","157942","0.0-3.0-2.0-0.2","spark_pilot_2","7411","6","17","Male","","false","","","","","[491.6999999284744]","./assets/img/space/2.jpg","[""ArrowUp""]","first stage practice","space","0","null","null","ArrowUp","false","","","","","","","",""
"html-keyboard-response","17","158443","0.0-3.0-2.0-1.2","spark_pilot_2","7411","6","17","Male","","","","","","","null","<div style=""font-size:60px;"">+</div>","null","fixation","","","","","","","","","","","","","",""
"learning-instructions","18","164453","0.0-3.0-3.0-0.0","spark_pilot_2","7411","6","17","Male","","","","","","","1323.1000000238419","<p> Great job! Now try pressing the <b>down</b> key to travel down. </p>
            <img src='./assets/img/instructions/pressDown.jpg' class='instructions-image'>","","instructions","","","","","","","","","","","","","",""
"revaluation","19","168468","0.0-3.0-4.0-0.0","spark_pilot_2","7411","6","17","Male","","false","","","","","[1006.2000000476837]","./assets/img/space/3.jpg","[""ArrowDown""]","first stage practice","space","0","null","null","ArrowDown","false","","","","","","","",""
"html-keyboard-response","20","168980","0.0-3.0-4.0-1.0","spark_pilot_2","7411","6","17","Male","","","","","","","null","<div style=""font-size:60px;"">+</div>","null","fixation","","","","","","","","","","","","","",""
"revaluation","21","172996","0.0-3.0-4.0-0.1","spark_pilot_2","7411","6","17","Male","","false","","","","","[284]","./assets/img/space/4.jpg","[""ArrowDown""]","first stage practice","space","0","null","null","ArrowDown","false","","","","","","","",""
"html-keyboard-response","22","173511","0.0-3.0-4.0-1.1","spark_pilot_2","7411","6","17","Male","","","","","","","null","<div style=""font-size:60px;"">+</div>","null","fixation","","","","","","","","","","","","","",""
"revaluation","23","177527","0.0-3.0-4.0-0.2","spark_pilot_2","7411","6","17","Male","","false","","","","","[314.2000000476837]","./assets/img/space/5.jpg","[""ArrowDown""]","first stage practice","space","0","null","null","ArrowDown","false","","","","","","","",""
"html-keyboard-response","24","178041","0.0-3.0-4.0-1.2","spark_pilot_2","7411","6","17","Male","","","","","","","null","<div style=""font-size:60px;"">+</div>","null","fixation","","","","","","","","","","","","","",""
"learning-instructions","25","190263","0.0-3.0-5.0-0.0","spark_pilot_2","7411","6","17","Male","","","","","","","2394.5","<p> The animals don’t move, so the animal in the upper part of a place will stay in the upper part of a place, and the animal in the lower part of a place will stay in the lower part of a place. </p>","","instructions","","","","","","","","","","","","","",""
"learning-instructions","26","201769","0.0-3.0-5.0-0.1","spark_pilot_2","7411","6","17","Male","","","","","","","2390.399999976158","<p> Each animal has two treasure chests for you to choose from. </p>
            <p> The amount of treasure in each chest can range from <b> 0 to 40 pieces.</b></p>","","instructions","","","","","","","","","","","","","",""
"learning-instructions","27","262575","0.0-3.0-5.0-0.2","spark_pilot_2","7411","6","17","Male","","","","","","","49636.39999997616","<p> You should decide which chest to search for treasure by using the <b>left</b> and <b>right</b> arrow keys. </p>
            <p><b> Pay attention to which animal is on the screen, as the animals have different treasure chests. </b></p>
            <img src='./assets/img/instructions/leftright.jpg' class='instructions-image'>","","instructions","","","","","","","","","","","","","",""
"learning-instructions","28","270027","0.0-3.0-5.0-0.3","spark_pilot_2","7411","6","17","Male","","","","","","","997.8000000715256","<p> Let’s try practicing that now. </p>
            <p> When you see an animal, choose which chest to search for treasure. </p>
            <img src='./assets/img/instructions/chooseChest.jpg' class='instructions-image'>","","instructions","","","","","","","","","","","","","",""
"revaluation","29","274051","0.0-3.0-6.0-0.0","spark_pilot_2","7411","6","17","Male","","false","","","","","[765.3999999761581]","./assets/img/space/animals/rabbit.jpg","[""ArrowRight""]","second stage practice","space","23","{""ArrowUp,ArrowLeft"":3,""ArrowUp,ArrowRight"":36,""ArrowDown,ArrowLeft"":15,""ArrowDown,ArrowRight"":23}","true","ArrowDown,ArrowRight","","","","","","","","",""
"html-keyboard-response","30","274565","0.0-3.0-6.0-1.0","spark_pilot_2","7411","6","17","Male","","","","","","","null","<div style=""font-size:60px;"">+</div>","null","fixation","","","","","","","","","","","","","",""
"revaluation","31","278597","0.0-3.0-6.0-0.1","spark_pilot_2","7411","6","17","Male","","false","","","","","[1003.5]","./assets/img/space/animals/cat.jpg","[""ArrowRight""]","second stage practice","space","36","{""ArrowUp,ArrowLeft"":3,""ArrowUp,ArrowRight"":36,""ArrowDown,ArrowLeft"":15,""ArrowDown,ArrowRight"":23}","true","ArrowUp,ArrowRight","","","","","","","","",""
"html-keyboard-response","32","279099","0.0-3.0-6.0-1.1","spark_pilot_2","7411","6","17","Male","","","","","","","null","<div style=""font-size:60px;"">+</div>","null","fixation","","","","","","","","","","","","","",""
"revaluation","33","283115","0.0-3.0-6.0-0.2","spark_pilot_2","7411","6","17","Male","","false","","","","","[787.6999999284744]","./assets/img/space/animals/rabbit.jpg","[""ArrowRight""]","second stage practice","space","23","{""ArrowUp,ArrowLeft"":3,""ArrowUp,ArrowRight"":36,""ArrowDown,ArrowLeft"":15,""ArrowDown,ArrowRight"":23}","true","ArrowDown,ArrowRight","","","","","","","","",""
"html-keyboard-response","34","283618","0.0-3.0-6.0-1.2","spark_pilot_2","7411","6","17","Male","","","","","","","null","<div style=""font-size:60px;"">+</div>","null","fixation","","","","","","","","","","","","","",""
"revaluation","35","287636","0.0-3.0-6.0-0.3","spark_pilot_2","7411","6","17","Male","","false","","","","","[930.5999999046326]","./assets/img/space/animals/cat.jpg","[""ArrowLeft""]","second stage practice","space","3","{""ArrowUp,ArrowLeft"":3,""ArrowUp,ArrowRight"":36,""ArrowDown,ArrowLeft"":15,""ArrowDown,ArrowRight"":23}","false","ArrowUp,ArrowLeft","","","","","","","","",""
"html-keyboard-response","36","288152","0.0-3.0-6.0-1.3","spark_pilot_2","7411","6","17","Male","","","","","","","null","<div style=""font-size:60px;"">+</div>","null","fixation","","","","","","","","","","","","","",""
"learning-instructions","37","306209","0.0-3.0-7.0-0.0","spark_pilot_2","7411","6","17","Male","","","","","","","1270.2000000476837","<p> Great job. Now let’s try putting it together. </p>
            <p> On each turn, you will first see a picture to remind you of the place you are in, and you need to choose whether to go up or down. </p>
            <p> Then you will see an animal and choose which of its chests to search for treasure. </p>","","instructions","","","","","","","","","","","","","",""
"learning-instructions","38","315753","0.0-3.0-7.0-0.1","spark_pilot_2","7411","6","17","Male","","","","","","","1294.4000000953674","<p> When you choose whether to go up or down, try to go to the animal with the chest with the most treasure. </p>
            <p> Try practicing that now! </p>","","instructions","","","","","","","","","","","","","",""
"revaluation","39","321786","0.0-3.0-8.0-0.0","spark_pilot_2","7411","6","17","Male","","false","","","","","[1266,1657.5]","./assets/img/space/6.jpg","[""ArrowDown"",""ArrowLeft""]","full practice","space","15","{""ArrowUp,ArrowLeft"":3,""ArrowUp,ArrowRight"":36,""ArrowDown,ArrowLeft"":15,""ArrowDown,ArrowRight"":23}","false","ArrowDown,ArrowLeft","false","","","","","","","",""
"html-keyboard-response","40","322301","0.0-3.0-8.0-1.0","spark_pilot_2","7411","6","17","Male","","","","","","","null","<div style=""font-size:60px;"">+</div>","null","fixation","","","","","","","","","","","","","",""
"revaluation","41","328324","0.0-3.0-8.0-0.1","spark_pilot_2","7411","6","17","Male","","false","","","","","[968.2999999523163,540.1999999284744]","./assets/img/space/7.jpg","[""ArrowDown"",""ArrowRight""]","full practice","space","23","{""ArrowUp,ArrowLeft"":3,""ArrowUp,ArrowRight"":36,""ArrowDown,ArrowLeft"":15,""ArrowDown,ArrowRight"":23}","false","ArrowDown,ArrowRight","false","","","","","","","",""
"html-keyboard-response","42","328826","0.0-3.0-8.0-1.1","spark_pilot_2","7411","6","17","Male","","","","","","","null","<div style=""font-size:60px;"">+</div>","null","fixation","","","","","","","","","","","","","",""
"revaluation","43","334840","0.0-3.0-8.0-0.2","spark_pilot_2","7411","6","17","Male","","false","","","","","[704.3000000715256,778.5]","./assets/img/space/8.jpg","[""ArrowUp"",""ArrowRight""]","full practice","space","36","{""ArrowUp,ArrowLeft"":3,""ArrowUp,ArrowRight"":36,""ArrowDown,ArrowLeft"":15,""ArrowDown,ArrowRight"":23}","true","ArrowUp,ArrowRight","false","","","","","","","",""
"html-keyboard-response","44","335342","0.0-3.0-8.0-1.2","spark_pilot_2","7411","6","17","Male","","","","","","","null","<div style=""font-size:60px;"">+</div>","null","fixation","","","","","","","","","","","","","",""
"revaluation","45","341370","0.0-3.0-8.0-0.3","spark_pilot_2","7411","6","17","Male","","false","","","","","[1998.7999999523163,650.8000000715256]","./assets/img/space/9.jpg","[""ArrowUp"",""ArrowRight""]","full practice","space","36","{""ArrowUp,ArrowLeft"":3,""ArrowUp,ArrowRight"":36,""ArrowDown,ArrowLeft"":15,""ArrowDown,ArrowRight"":23}","true","ArrowUp,ArrowRight","false","","","","","","","",""
"html-keyboard-response","46","341886","0.0-3.0-8.0-1.3","spark_pilot_2","7411","6","17","Male","","","","","","","null","<div style=""font-size:60px;"">+</div>","null","fixation","","","","","","","","","","","","","",""
"revaluation","47","347892","0.0-3.0-8.0-0.4","spark_pilot_2","7411","6","17","Male","","false","","","","","[328.5,257.39999997615814]","./assets/img/space/10.jpg","[""ArrowUp"",""ArrowRight""]","full practice","space","36","{""ArrowUp,ArrowLeft"":3,""ArrowUp,ArrowRight"":36,""ArrowDown,ArrowLeft"":15,""ArrowDown,ArrowRight"":23}","true","ArrowUp,ArrowRight","false","","","","","","","",""
"html-keyboard-response","48","348393","0.0-3.0-8.0-1.4","spark_pilot_2","7411","6","17","Male","","","","","","","null","<div style=""font-size:60px;"">+</div>","null","fixation","","","","","","","","","","","","","",""
"learning-instructions","49","360938","0.0-3.0-9.0-0.0","spark_pilot_2","7411","6","17","Male","","","","","","","2262","<p> One last thing: sometimes, you will see a robber. The robber can be anywhere in the picture. </p>
            <p> If you do not stop them, you will lose treasure. </p>
            <img src='./assets/img/instructions/robber.jpg' class='instructions-image'>","","instructions","","","","","","","","","","","","","",""
"learning-instructions","50","370941","0.0-3.0-9.0-0.1","spark_pilot_2","7411","6","17","Male","","","","","","","2846.8000000715256","<p> If you see the robber, you should <b>press the space bar</b> rather than using the arrow keys. </p>
            <p> Try practicing that now! </p>","","instructions","","","","","","","","","","","","","",""
"revaluation","51","374946","0.0-3.0-10.0-0.0","spark_pilot_2","7411","6","17","Male","","false","","","","","[733.6000000238419]","./assets/img/space/catch/0.jpg","[""spaceBar""]","catch practice","space","0","{""ArrowUp,ArrowLeft"":3,""ArrowUp,ArrowRight"":36,""ArrowDown,ArrowLeft"":15,""ArrowDown,ArrowRight"":23}","true","spaceBar","true","","","","","","","",""
"html-keyboard-response","52","375461","0.0-3.0-10.0-1.0","spark_pilot_2","7411","6","17","Male","","","","","","","null","<div style=""font-size:60px;"">+</div>","null","fixation","","","","","","","","","","","","","",""
"revaluation","53","379468","0.0-3.0-10.0-0.1","spark_pilot_2","7411","6","17","Male","","false","","","","","[488.89999997615814]","./assets/img/space/catch/1.jpg","[""spaceBar""]","catch practice","space","0","{""ArrowUp,ArrowLeft"":3,""ArrowUp,ArrowRight"":36,""ArrowDown,ArrowLeft"":15,""ArrowDown,ArrowRight"":23}","true","spaceBar","true","","","","","","","",""
"html-keyboard-response","54","379983","0.0-3.0-10.0-1.1","spark_pilot_2","7411","6","17","Male","","","","","","","null","<div style=""font-size:60px;"">+</div>","null","fixation","","","","","","","","","","","","","",""
"revaluation","55","384012","0.0-3.0-10.0-0.2","spark_pilot_2","7411","6","17","Male","","false","","","","","[398.2000000476837]","./assets/img/space/catch/2.jpg","[""spaceBar""]","catch practice","space","0","{""ArrowUp,ArrowLeft"":3,""ArrowUp,ArrowRight"":36,""ArrowDown,ArrowLeft"":15,""ArrowDown,ArrowRight"":23}","true","spaceBar","true","","","","","","","",""
"html-keyboard-response","56","384528","0.0-3.0-10.0-1.2","spark_pilot_2","7411","6","17","Male","","","","","","","null","<div style=""font-size:60px;"">+</div>","null","fixation","","","","","","","","","","","","","",""
"learning-instructions","57","400098","0.0-3.0-11.0-0.0","spark_pilot_2","7411","6","17","Male","","","","","","","1992.8999999761581","<p> After you explore a place to find treasure, it will be time to play a different game. </p>
            <p> During this game, red dots will appear on the screen and fall down slowly. </p>
            <p><b> You must click on them before they reach the bottom. </b></p>
            <img src='./assets/img/instructions/dotGame.jpg' class='instructions-image'>","","instructions","","","","","","","","","","","","","",""
"learning-instructions","58","406292","0.0-3.0-11.0-0.1","spark_pilot_2","7411","6","17","Male","","","","","","","527.1000000238419","<p> For every dot you click, you will earn additional treasure. </p>
            <p> Let’s try practicing that now. </p>","","instructions","","","","","","","","","","","","","",""
"revaluation","59","421295","0.0-3.0-12.0-0.0","spark_pilot_2","7411","6","17","Male","","","","","","","[60]","","","rest practice","","10","","","","","0","15000","","","","","",""
"learning-instructions","60","428320","0.0-3.0-13.0-0.0-0.0","spark_pilot_2","7411","6","17","Male","","","","","","","1785.3000000715256","<p> Now, you will practice a shortened version of the game to get a sense of how it all fits together. </p>","","instructions","","","","","","","","","","","","","",""
"learning-instructions","61","433830","0.0-3.0-13.0-0.0-0.1","spark_pilot_2","7411","6","17","Male","","","","","","","2335.3000000715256","<p>This time you are searching for treasure in outer space.</p>","","instructions","","","","","","","","","","","","","",""
"learning-instructions","62","449513","0.0-3.0-13.0-1.0-0.0","spark_pilot_2","7411","6","17","Male","","","","","","","939.1000000238419","<p> Remember, when you see a picture of the place, use the up and down keys to <b>find an animal</b>.</p>
            <p> When you encounter an animal, you should use the left and right keys to <b>select a treasure chest</b>.</p>
            <p> Don't forget to look out for the robber! </p>","","instructions","","","","","","","","","","","","","",""
"revaluation","63","455539","0.0-3.0-13.0-2.0-0.0","spark_pilot_2","7411","6","17","Male","","false","","","","","[1067.1000000238419,772]","./assets/img/space/11.jpg","[""ArrowDown"",""ArrowRight""]","practice block","space","23","{""ArrowUp,ArrowLeft"":3,""ArrowUp,ArrowRight"":36,""ArrowDown,ArrowLeft"":15,""ArrowDown,ArrowRight"":23}","false","ArrowDown,ArrowRight","false","","","","","","","",""
"html-keyboard-response","64","456041","0.0-3.0-13.0-2.0-1.0","spark_pilot_2","7411","6","17","Male","","","","","","","null","<div style=""font-size:60px;"">+</div>","null","fixation","","","","","","","","","","","","","",""
"revaluation","65","462078","0.0-3.0-13.0-2.0-0.1","spark_pilot_2","7411","6","17","Male","","false","","","","","[1260.3999999761581,404.89999997615814]","./assets/img/space/12.jpg","[""ArrowUp"",""ArrowRight""]","practice block","space","36","{""ArrowUp,ArrowLeft"":3,""ArrowUp,ArrowRight"":36,""ArrowDown,ArrowLeft"":15,""ArrowDown,ArrowRight"":23}","true","ArrowUp,ArrowRight","false","","","","","","","",""
"html-keyboard-response","66","462592","0.0-3.0-13.0-2.0-1.1","spark_pilot_2","7411","6","17","Male","","","","","","","null","<div style=""font-size:60px;"">+</div>","null","fixation","","","","","","","","","","","","","",""
"revaluation","67","468620","0.0-3.0-13.0-2.0-0.2","spark_pilot_2","7411","6","17","Male","","false","","","","","[912.2000000476837,287.89999997615814]","./assets/img/space/13.jpg","[""ArrowUp"",""ArrowRight""]","practice block","space","36","{""ArrowUp,ArrowLeft"":3,""ArrowUp,ArrowRight"":36,""ArrowDown,ArrowLeft"":15,""ArrowDown,ArrowRight"":23}","true","ArrowUp,ArrowRight","false","","","","","","","",""
"html-keyboard-response","68","469124","0.0-3.0-13.0-2.0-1.2","spark_pilot_2","7411","6","17","Male","","","","","","","null","<div style=""font-size:60px;"">+</div>","null","fixation","","","","","","","","","","","","","",""
"revaluation","69","475149","0.0-3.0-13.0-2.0-0.3","spark_pilot_2","7411","6","17","Male","","false","","","","","[488.39999997615814,335.60000002384186]","./assets/img/space/14.jpg","[""ArrowUp"",""ArrowRight""]","practice block","space","36","{""ArrowUp,ArrowLeft"":3,""ArrowUp,ArrowRight"":36,""ArrowDown,ArrowLeft"":15,""ArrowDown,ArrowRight"":23}","true","ArrowUp,ArrowRight","false","","","","","","","",""
"html-keyboard-response","70","475650","0.0-3.0-13.0-2.0-1.3","spark_pilot_2","7411","6","17","Male","","","","","","","null","<div style=""font-size:60px;"">+</div>","null","fixation","","","","","","","","","","","","","",""
"revaluation","71","481665","0.0-3.0-13.0-2.0-0.4","spark_pilot_2","7411","6","17","Male","","false","","","","","[954.8999999761581,490]","./assets/img/space/11.jpg","[""ArrowUp"",""ArrowRight""]","practice block","space","36","{""ArrowUp,ArrowLeft"":3,""ArrowUp,ArrowRight"":36,""ArrowDown,ArrowLeft"":15,""ArrowDown,ArrowRight"":23}","true","ArrowUp,ArrowRight","false","","","","","","","",""
"html-keyboard-response","72","482166","0.0-3.0-13.0-2.0-1.4","spark_pilot_2","7411","6","17","Male","","","","","","","null","<div style=""font-size:60px;"">+</div>","null","fixation","","","","","","","","","","","","","",""
"revaluation","73","488168","0.0-3.0-13.0-2.0-0.5","spark_pilot_2","7411","6","17","Male","","false","","","","","[815.5,332.3000000715256]","./assets/img/space/12.jpg","[""ArrowUp"",""ArrowRight""]","practice block","space","36","{""ArrowUp,ArrowLeft"":3,""ArrowUp,ArrowRight"":36,""ArrowDown,ArrowLeft"":15,""ArrowDown,ArrowRight"":23}","true","ArrowUp,ArrowRight","false","","","","","","","",""
"html-keyboard-response","74","488669","0.0-3.0-13.0-2.0-1.5","spark_pilot_2","7411","6","17","Male","","","","","","","null","<div style=""font-size:60px;"">+</div>","null","fixation","","","","","","","","","","","","","",""
"revaluation","75","494673","0.0-3.0-13.0-2.0-0.6","spark_pilot_2","7411","6","17","Male","","false","","","","","[504.90000009536743,391.60000002384186]","./assets/img/space/13.jpg","[""ArrowUp"",""ArrowRight""]","practice block","space","36","{""ArrowUp,ArrowLeft"":3,""ArrowUp,ArrowRight"":36,""ArrowDown,ArrowLeft"":15,""ArrowDown,ArrowRight"":23}","true","ArrowUp,ArrowRight","false","","","","","","","",""
"html-keyboard-response","76","495174","0.0-3.0-13.0-2.0-1.6","spark_pilot_2","7411","6","17","Male","","","","","","","null","<div style=""font-size:60px;"">+</div>","null","fixation","","","","","","","","","","","","","",""
"revaluation","77","501178","0.0-3.0-13.0-2.0-0.7","spark_pilot_2","7411","6","17","Male","","false","","","","","[820.9000000953674,648.8999999761581]","./assets/img/space/14.jpg","[""ArrowUp"",""ArrowRight""]","practice block","space","36","{""ArrowUp,ArrowLeft"":3,""ArrowUp,ArrowRight"":36,""ArrowDown,ArrowLeft"":15,""ArrowDown,ArrowRight"":23}","true","ArrowUp,ArrowRight","false","","","","","","","",""
"html-keyboard-response","78","501680","0.0-3.0-13.0-2.0-1.7","spark_pilot_2","7411","6","17","Male","","","","","","","null","<div style=""font-size:60px;"">+</div>","null","fixation","","","","","","","","","","","","","",""
"revaluation","79","505682","0.0-3.0-13.0-2.0-0.8","spark_pilot_2","7411","6","17","Male","","false","","","","","[648.3999999761581]","./assets/img/space/catch/3.jpg","[""spaceBar""]","practice block","space","0","{""ArrowUp,ArrowLeft"":3,""ArrowUp,ArrowRight"":36,""ArrowDown,ArrowLeft"":15,""ArrowDown,ArrowRight"":23}","true","spaceBar","true","","","","","","","",""
"html-keyboard-response","80","506183","0.0-3.0-13.0-2.0-1.8","spark_pilot_2","7411","6","17","Male","","","","","","","null","<div style=""font-size:60px;"">+</div>","null","fixation","","","","","","","","","","","","","",""
"learning-instructions","81","520460","0.0-3.0-13.0-3.0-0.0","spark_pilot_2","7411","6","17","Male","","","","","","","1369.1999999284744","<p> Now, you will travel with a friend who will choose whether you go up or down first. </p>
            <p> On these turns, you will just see the animal that they found. You will still get to choose which chest to search for treasure.</p>","","instructions","","","","","","","","","","","","","",""
"revaluation","82","524471","0.0-3.0-13.0-4.0-0.0","spark_pilot_2","7411","6","17","Male","","false","","","","","[960.2999999523163]","./assets/img/space/animals/rabbit.jpg","[""ArrowRight""]","practice block","space","23","{""ArrowUp,ArrowLeft"":3,""ArrowUp,ArrowRight"":36,""ArrowDown,ArrowLeft"":15,""ArrowDown,ArrowRight"":23}","true","ArrowDown,ArrowRight","","","","","","","","",""
"html-keyboard-response","83","524985","0.0-3.0-13.0-4.0-1.0","spark_pilot_2","7411","6","17","Male","","","","","","","null","<div style=""font-size:60px;"">+</div>","null","fixation","","","","","","","","","","","","","",""
"revaluation","84","529003","0.0-3.0-13.0-4.0-0.1","spark_pilot_2","7411","6","17","Male","","false","","","","","[780.3999999761581]","./assets/img/space/animals/rabbit.jpg","[""ArrowRight""]","practice block","space","23","{""ArrowUp,ArrowLeft"":3,""ArrowUp,ArrowRight"":36,""ArrowDown,ArrowLeft"":15,""ArrowDown,ArrowRight"":23}","true","ArrowDown,ArrowRight","","","","","","","","",""
"html-keyboard-response","85","529504","0.0-3.0-13.0-4.0-1.1","spark_pilot_2","7411","6","17","Male","","","","","","","null","<div style=""font-size:60px;"">+</div>","null","fixation","","","","","","","","","","","","","",""
"revaluation","86","533523","0.0-3.0-13.0-4.0-0.2","spark_pilot_2","7411","6","17","Male","","false","","","","","[651.1999999284744]","./assets/img/space/animals/cat.jpg","[""ArrowRight""]","practice block","space","36","{""ArrowUp,ArrowLeft"":3,""ArrowUp,ArrowRight"":36,""ArrowDown,ArrowLeft"":15,""ArrowDown,ArrowRight"":23}","true","ArrowUp,ArrowRight","","","","","","","","",""
"html-keyboard-response","87","534026","0.0-3.0-13.0-4.0-1.2","spark_pilot_2","7411","6","17","Male","","","","","","","null","<div style=""font-size:60px;"">+</div>","null","fixation","","","","","","","","","","","","","",""
"revaluation","88","538036","0.0-3.0-13.0-4.0-0.3","spark_pilot_2","7411","6","17","Male","","false","","","","","[433.10000002384186]","./assets/img/space/animals/cat.jpg","[""ArrowRight""]","practice block","space","36","{""ArrowUp,ArrowLeft"":3,""ArrowUp,ArrowRight"":36,""ArrowDown,ArrowLeft"":15,""ArrowDown,ArrowRight"":23}","true","ArrowUp,ArrowRight","","","","","","","","",""
"html-keyboard-response","89","538540","0.0-3.0-13.0-4.0-1.3","spark_pilot_2","7411","6","17","Male","","","","","","","null","<div style=""font-size:60px;"">+</div>","null","fixation","","","","","","","","","","","","","",""
"learning-instructions","90","548848","0.0-3.0-13.0-5.0-0.0","spark_pilot_2","7411","6","17","Male","","","","","","","2947","<p> Time to play the dot game! </p>
            <p> For 15 seconds, click the red dots on the following screen as they appear. </p>","","instructions","","","","","","","","","","","","","",""
"revaluation","91","563849","0.0-3.0-13.0-6.0-0.0","spark_pilot_2","7411","6","17","Male","","","","","","","[66]","","","rest practice","","10","","","","","0","15000","","","","","",""
"learning-instructions","92","571570","0.0-3.0-13.0-7.0-0.0","spark_pilot_2","7411","6","17","Male","","","","","","","1539.4000000953674","<p> You have almost finished this part of the game! </p>
            <p> We are going to ask you to make a few more choices. </p>","","instructions","","","","","","","","","","","","","",""
"learning-instructions","93","586825","0.0-3.0-13.0-7.0-0.1","spark_pilot_2","7411","6","17","Male","","","","","","","1275.4000000953674","<p> First, you need to decide whether to go up or down. When you see each picture, use the arrow keys to make your choice. </p>
            <p><b>You will not see which animal you found, but try to get to the one that will give you the most treasure.</b></p>","","instructions","","","","","","","","","","","","","",""
"revaluation","94","587428","0.0-3.0-13.0-8.0","spark_pilot_2","7411","6","17","Male","","false","","","","","[601.7999999523163]","./assets/img/space/15.jpg","[""ArrowUp""]","practice block","space","0","{""ArrowUp,ArrowLeft"":3,""ArrowUp,ArrowRight"":36,""ArrowDown,ArrowLeft"":15,""ArrowDown,ArrowRight"":23}","true","ArrowUp","false","","","","","","","",""
"html-keyboard-response","95","587933","0.0-3.0-13.0-9.0","spark_pilot_2","7411","6","17","Male","","","","","","","null","<div style=""font-size:60px;"">+</div>","null","fixation","","","","","","","","","","","","","",""
"learning-instructions","96","599739","0.0-3.0-13.0-10.0-0.0","spark_pilot_2","7411","6","17","Male","","","","","","","439.59999990463257","<p> Now you will see the animals again and can search their chests for treasure. </p>
            <p> This time, you will not see how much treasure you earned, but you will earn more bonus money for making better choices. </p>","","instructions","","","","","","","","","","","","","",""
"revaluation","97","600558","0.0-3.0-13.0-11.0-0.0","spark_pilot_2","7411","6","17","Male","","false","","","","","[817.5]","./assets/img/space/animals/cat.jpg","[""ArrowRight""]","practice block","space","0","{""ArrowUp,ArrowLeft"":3,""ArrowUp,ArrowRight"":36,""ArrowDown,ArrowLeft"":15,""ArrowDown,ArrowRight"":23}","true","ArrowUp,ArrowRight","","","","","","","","",""
"html-keyboard-response","98","601061","0.0-3.0-13.0-11.0-1.0","spark_pilot_2","7411","6","17","Male","","","","","","","null","<div style=""font-size:60px;"">+</div>","null","fixation","","","","","","","","","","","","","",""
"revaluation","99","601741","0.0-3.0-13.0-11.0-0.1","spark_pilot_2","7411","6","17","Male","","false","","","","","[678.2000000476837]","./assets/img/space/animals/rabbit.jpg","[""ArrowRight""]","practice block","space","0","{""ArrowUp,ArrowLeft"":3,""ArrowUp,ArrowRight"":36,""ArrowDown,ArrowLeft"":15,""ArrowDown,ArrowRight"":23}","true","ArrowDown,ArrowRight","","","","","","","","",""
"html-keyboard-response","100","602252","0.0-3.0-13.0-11.0-1.1","spark_pilot_2","7411","6","17","Male","","","","","","","null","<div style=""font-size:60px;"">+</div>","null","fixation","","","","","","","","","","","","","",""
"learning-instructions","101","607897","0.0-3.0-14.0-0.0","spark_pilot_2","7411","6","17","Male","","","","","","","1077.3999999761581","<p> Before you start, we're going to ask you a few questions about how the game works. </p>","","instructions","","","","","","","","","","","","","",""
"comp-q","102","614476","0.0-3.0-15.0-0.0-0.0","spark_pilot_2","7411","6","17","Male","","","","","","","1014.8999999761581","<p> <b> True or False? </b> </p>
            <p> There can be 50 pieces of treasure in a given animal's chest. </p>","1","comp_question","","","","true","","","","","","","","","",""
"comp-q","103","622675","0.0-3.0-15.0-0.0-1.0","spark_pilot_2","7411","6","17","Male","","","","","","","1565.7000000476837","<p> <b> That's right! </b> The amount of treasure in each chest can range from 0 to 40 pieces. </p>","0","comp_answer","","","","","","","","","","","","","",""
"comp-q","104","633111","0.0-3.0-15.0-0.1-0.1","spark_pilot_2","7411","6","17","Male","","","","","","","3341","<p> <b> True or False? </b> </p><p> In this game, all animals have the same amount of treasure in their left and right chests. </p>","1","comp_question","","","","true","","","","","","","","","",""
"comp-q","105","640783","0.0-3.0-15.0-0.1-1.1","spark_pilot_2","7411","6","17","Male","","","","","","","2453.7000000476837","<p> <b> That's right! </b> Animals have different amounts of treasure in their treasure chests. </p>","0","comp_answer","","","","","","","","","","","","","",""
"comp-q","106","647035","0.0-3.0-15.0-0.2-0.2","spark_pilot_2","7411","6","17","Male","","","","","","","416.1999999284744","<p> <b> True or False? </b> </p><p> The same animal will always be there if you go up in the same place. </p>","0","comp_question","","","","true","","","","","","","","","",""
"comp-q","107","655039","0.0-3.0-15.0-0.2-1.2","spark_pilot_2","7411","6","17","Male","","","","","","","1579.8999999761581","<p> <b> That's right! </b> One animal lives in the upper part and one lives in the lower part of every place. </p>","0","comp_answer","","","","","","","","","","","","","",""
"comp-q","108","661159","0.0-3.0-15.0-0.3-0.3","spark_pilot_2","7411","6","17","Male","","","","","","","609.8999999761581","<p> <b> True or False? </b> </p><p> If you see a different picture, it means you are in a new place. </p>","1","comp_question","","","","true","","","","","","","","","",""
"comp-q","109","674083","0.0-3.0-15.0-0.3-1.3","spark_pilot_2","7411","6","17","Male","","","","","","","1713.5999999046326","<p> <b> That's right! </b> Lots of different images may show the same place. For example,  you may see three different images that all remind you that you are in outer space. </p>","0","comp_answer","","","","","","","","","","","","","",""
"learning-instructions","110","685195","0.0-3.0-16.0-0.0","spark_pilot_2","7411","6","17","Male","","","","","","","1286.2000000476837","<p> Good job. Remember to do your best because the amount of treasure you earn will be converted into bonus money. </p>
            <p> It’s time to start the real game! </p>","","instructions","","","","","","","","","","","","","",""
"learning-instructions","111","688965","0.0-4.0-0.0-0.0","spark_pilot_2","7411","6","17","Male","","","","","","","1016.2999999523163","<p> This time you are searching for treasure in the <b>canyon</b>.</p>","","instructions","","","","","","","","","","","","","",""
"learning-instructions","112","707245","0.0-4.0-0.0-0.1","spark_pilot_2","7411","6","17","Male","","","","","","","996.5","<p><b>New</b> animals with <b>new</b> treasure chests live here. You need to explore to discover where the animal with the best treasure chest is.</p>
                    <p> Like before, once you figure out which animal has the chest with the most treasure, you should try to get to that animal and select that chest! </p>","","instructions","","","","","","","","","","","","","",""
"learning-instructions","113","723807","0.0-4.0-1.0-0.0","spark_pilot_2","7411","6","17","Male","","","","","","","1838.6999999284744","<p> Remember, when you see a picture of the place, use the up and down keys to <b>find an animal</b>.</p>
            <p> When you encounter an animal, you should use the left and right keys to <b>select a treasure chest</b>.</p>
            <p> Don't forget to look out for the robber! </p>","","instructions","","","","","","","","","","","","","",""
"revaluation","114","727822","0.0-4.0-2.0-0.0","spark_pilot_2","7411","6","17","Male","","false","","","","","[1070.2999999523163]","./assets/img/canyon/catch/0.jpg","[""spaceBar""]","value training","canyon","0","{""ArrowUp,ArrowLeft"":23,""ArrowUp,ArrowRight"":10,""ArrowDown,ArrowLeft"":8,""ArrowDown,ArrowRight"":30}","true","spaceBar","true","","","revaluation","1","0","","",""
"html-keyboard-response","115","728338","0.0-4.0-2.0-1.0","spark_pilot_2","7411","6","17","Male","","","","","","","null","<div style=""font-size:60px;"">+</div>","null","fixation","","","","","","","","","","","1","","",""
"revaluation","116","734359","0.0-4.0-2.0-0.1","spark_pilot_2","7411","6","17","Male","","false","","","","","[1157.7999999523163,655.7999999523163]","./assets/img/canyon/memory/39.jpg","[""ArrowUp"",""ArrowLeft""]","value training","canyon","23","{""ArrowUp,ArrowLeft"":23,""ArrowUp,ArrowRight"":10,""ArrowDown,ArrowLeft"":8,""ArrowDown,ArrowRight"":30}","false","ArrowUp,ArrowLeft","false","","","revaluation","1","2","","",""
"html-keyboard-response","117","734862","0.0-4.0-2.0-1.1","spark_pilot_2","7411","6","17","Male","","","","","","","null","<div style=""font-size:60px;"">+</div>","null","fixation","","","","","","","","","","","3","","",""
"revaluation","118","738877","0.0-4.0-2.0-0.2","spark_pilot_2","7411","6","17","Male","","false","","","","","[724.6000000238419]","./assets/img/canyon/catch/7.jpg","[""spaceBar""]","value training","canyon","0","{""ArrowUp,ArrowLeft"":23,""ArrowUp,ArrowRight"":10,""ArrowDown,ArrowLeft"":8,""ArrowDown,ArrowRight"":30}","true","spaceBar","true","","","revaluation","1","4","","",""
"html-keyboard-response","119","739391","0.0-4.0-2.0-1.2","spark_pilot_2","7411","6","17","Male","","","","","","","null","<div style=""font-size:60px;"">+</div>","null","fixation","","","","","","","","","","","5","","",""
"revaluation","120","745419","0.0-4.0-2.0-0.3","spark_pilot_2","7411","6","17","Male","","false","","","","","[757.1000000238419,433.7000000476837]","./assets/img/canyon/memory/14.jpg","[""ArrowDown"",""ArrowLeft""]","value training","canyon","8","{""ArrowUp,ArrowLeft"":23,""ArrowUp,ArrowRight"":10,""ArrowDown,ArrowLeft"":8,""ArrowDown,ArrowRight"":30}","false","ArrowDown,ArrowLeft","false","","","revaluation","1","6","","",""
"html-keyboard-response","121","745923","0.0-4.0-2.0-1.3","spark_pilot_2","7411","6","17","Male","","","","","","","null","<div style=""font-size:60px;"">+</div>","null","fixation","","","","","","","","","","","7","","",""
"revaluation","122","749930","0.0-4.0-2.0-0.4","spark_pilot_2","7411","6","17","Male","","false","","","","","[864.7999999523163]","./assets/img/canyon/catch/4.jpg","[""spaceBar""]","value training","canyon","0","{""ArrowUp,ArrowLeft"":23,""ArrowUp,ArrowRight"":10,""ArrowDown,ArrowLeft"":8,""ArrowDown,ArrowRight"":30}","true","spaceBar","true","","","revaluation","1","8","","",""
"html-keyboard-response","123","750436","0.0-4.0-2.0-1.4","spark_pilot_2","7411","6","17","Male","","","","","","","null","<div style=""font-size:60px;"">+</div>","null","fixation","","","","","","","","","","","9","","",""
"revaluation","124","756441","0.0-4.0-2.0-0.5","spark_pilot_2","7411","6","17","Male","","false","","","","","[640.5,241.80000007152557]","./assets/img/canyon/memory/1.jpg","[""ArrowDown"",""ArrowRight""]","value training","canyon","30","{""ArrowUp,ArrowLeft"":23,""ArrowUp,ArrowRight"":10,""ArrowDown,ArrowLeft"":8,""ArrowDown,ArrowRight"":30}","true","ArrowDown,ArrowRight","false","","","revaluation","1","10","","",""
"html-keyboard-response","125","756942","0.0-4.0-2.0-1.5","spark_pilot_2","7411","6","17","Male","","","","","","","null","<div style=""font-size:60px;"">+</div>","null","fixation","","","","","","","","","","","11","","",""
"revaluation","126","760946","0.0-4.0-2.0-0.6","spark_pilot_2","7411","6","17","Male","","false","","","","","[926.5]","./assets/img/canyon/catch/5.jpg","[""spaceBar""]","value training","canyon","0","{""ArrowUp,ArrowLeft"":23,""ArrowUp,ArrowRight"":10,""ArrowDown,ArrowLeft"":8,""ArrowDown,ArrowRight"":30}","true","spaceBar","true","","","revaluation","1","12","","",""
"html-keyboard-response","127","761447","0.0-4.0-2.0-1.6","spark_pilot_2","7411","6","17","Male","","","","","","","null","<div style=""font-size:60px;"">+</div>","null","fixation","","","","","","","","","","","13","","",""
"revaluation","128","767452","0.0-4.0-2.0-0.7","spark_pilot_2","7411","6","17","Male","","false","","","","","[682.6999999284744,255.20000004768372]","./assets/img/canyon/memory/7.jpg","[""ArrowUp"",""ArrowRight""]","value training","canyon","10","{""ArrowUp,ArrowLeft"":23,""ArrowUp,ArrowRight"":10,""ArrowDown,ArrowLeft"":8,""ArrowDown,ArrowRight"":30}","false","ArrowUp,ArrowRight","false","","","revaluation","1","14","","",""
"html-keyboard-response","129","767953","0.0-4.0-2.0-1.7","spark_pilot_2","7411","6","17","Male","","","","","","","null","<div style=""font-size:60px;"">+</div>","null","fixation","","","","","","","","","","","15","","",""
"revaluation","130","773957","0.0-4.0-2.0-0.8","spark_pilot_2","7411","6","17","Male","","false","","","","","[412.5,340.89999997615814]","./assets/img/canyon/memory/7.jpg","[""ArrowDown"",""ArrowRight""]","value training","canyon","30","{""ArrowUp,ArrowLeft"":23,""ArrowUp,ArrowRight"":10,""ArrowDown,ArrowLeft"":8,""ArrowDown,ArrowRight"":30}","true","ArrowDown,ArrowRight","false","","","revaluation","1","16","","",""
"html-keyboard-response","131","774458","0.0-4.0-2.0-1.8","spark_pilot_2","7411","6","17","Male","","","","","","","null","<div style=""font-size:60px;"">+</div>","null","fixation","","","","","","","","","","","17","","",""
"revaluation","132","780462","0.0-4.0-2.0-0.9","spark_pilot_2","7411","6","17","Male","","false","","","","","[484.7000000476837,528.3000000715256]","./assets/img/canyon/memory/31.jpg","[""ArrowDown"",""ArrowRight""]","value training","canyon","30","{""ArrowUp,ArrowLeft"":23,""ArrowUp,ArrowRight"":10,""ArrowDown,ArrowLeft"":8,""ArrowDown,ArrowRight"":30}","true","ArrowDown,ArrowRight","false","","","revaluation","1","18","","",""
"html-keyboard-response","133","780963","0.0-4.0-2.0-1.9","spark_pilot_2","7411","6","17","Male","","","","","","","null","<div style=""font-size:60px;"">+</div>","null","fixation","","","","","","","","","","","19","","",""
"revaluation","134","786972","0.0-4.0-2.0-0.10","spark_pilot_2","7411","6","17","Male","","false","","","","","[1145.2999999523163,341.5]","./assets/img/canyon/memory/40.jpg","[""ArrowDown"",""ArrowRight""]","value training","canyon","30","{""ArrowUp,ArrowLeft"":23,""ArrowUp,ArrowRight"":10,""ArrowDown,ArrowLeft"":8,""ArrowDown,ArrowRight"":30}","true","ArrowDown,ArrowRight","false","","","revaluation","1","20","","",""
"html-keyboard-response","135","787473","0.0-4.0-2.0-1.10","spark_pilot_2","7411","6","17","Male","","","","","","","null","<div style=""font-size:60px;"">+</div>","null","fixation","","","","","","","","","","","21","","",""
"revaluation","136","793478","0.0-4.0-2.0-0.11","spark_pilot_2","7411","6","17","Male","","false","","","","","[513.3999999761581,341]","./assets/img/canyon/memory/31.jpg","[""ArrowDown"",""ArrowRight""]","value training","canyon","30","{""ArrowUp,ArrowLeft"":23,""ArrowUp,ArrowRight"":10,""ArrowDown,ArrowLeft"":8,""ArrowDown,ArrowRight"":30}","true","ArrowDown,ArrowRight","false","","","revaluation","1","22","","",""
"html-keyboard-response","137","793980","0.0-4.0-2.0-1.11","spark_pilot_2","7411","6","17","Male","","","","","","","null","<div style=""font-size:60px;"">+</div>","null","fixation","","","","","","","","","","","23","","",""
"revaluation","138","799985","0.0-4.0-2.0-0.12","spark_pilot_2","7411","6","17","Male","","false","","","","","[540.8000000715256,253.89999997615814]","./assets/img/canyon/memory/12.jpg","[""ArrowDown"",""ArrowRight""]","value training","canyon","30","{""ArrowUp,ArrowLeft"":23,""ArrowUp,ArrowRight"":10,""ArrowDown,ArrowLeft"":8,""ArrowDown,ArrowRight"":30}","true","ArrowDown,ArrowRight","false","","","revaluation","1","24","","",""
"html-keyboard-response","139","800486","0.0-4.0-2.0-1.12","spark_pilot_2","7411","6","17","Male","","","","","","","null","<div style=""font-size:60px;"">+</div>","null","fixation","","","","","","","","","","","25","","",""
"revaluation","140","806488","0.0-4.0-2.0-0.13","spark_pilot_2","7411","6","17","Male","","false","","","","","[613.1000000238419,216.79999995231628]","./assets/img/canyon/memory/1.jpg","[""ArrowDown"",""ArrowRight""]","value training","canyon","30","{""ArrowUp,ArrowLeft"":23,""ArrowUp,ArrowRight"":10,""ArrowDown,ArrowLeft"":8,""ArrowDown,ArrowRight"":30}","true","ArrowDown,ArrowRight","false","","","revaluation","1","26","","",""
"html-keyboard-response","141","806989","0.0-4.0-2.0-1.13","spark_pilot_2","7411","6","17","Male","","","","","","","null","<div style=""font-size:60px;"">+</div>","null","fixation","","","","","","","","","","","27","","",""
"revaluation","142","812994","0.0-4.0-2.0-0.14","spark_pilot_2","7411","6","17","Male","","false","","","","","[519.1000000238419,476.3000000715256]","./assets/img/canyon/memory/13.jpg","[""ArrowDown"",""ArrowRight""]","value training","canyon","30","{""ArrowUp,ArrowLeft"":23,""ArrowUp,ArrowRight"":10,""ArrowDown,ArrowLeft"":8,""ArrowDown,ArrowRight"":30}","true","ArrowDown,ArrowRight","false","","","revaluation","1","28","","",""
"html-keyboard-response","143","813495","0.0-4.0-2.0-1.14","spark_pilot_2","7411","6","17","Male","","","","","","","null","<div style=""font-size:60px;"">+</div>","null","fixation","","","","","","","","","","","29","","",""
"revaluation","144","819500","0.0-4.0-2.0-0.15","spark_pilot_2","7411","6","17","Male","","false","","","","","[562.6000000238419,376.5]","./assets/img/canyon/memory/36.jpg","[""ArrowDown"",""ArrowRight""]","value training","canyon","30","{""ArrowUp,ArrowLeft"":23,""ArrowUp,ArrowRight"":10,""ArrowDown,ArrowLeft"":8,""ArrowDown,ArrowRight"":30}","true","ArrowDown,ArrowRight","false","","","revaluation","1","30","","",""
"html-keyboard-response","145","820001","0.0-4.0-2.0-1.15","spark_pilot_2","7411","6","17","Male","","","","","","","null","<div style=""font-size:60px;"">+</div>","null","fixation","","","","","","","","","","","31","","",""
"revaluation","146","826006","0.0-4.0-2.0-0.16","spark_pilot_2","7411","6","17","Male","","false","","","","","[647.6000000238419,450.09999990463257]","./assets/img/canyon/memory/36.jpg","[""ArrowDown"",""ArrowRight""]","value training","canyon","30","{""ArrowUp,ArrowLeft"":23,""ArrowUp,ArrowRight"":10,""ArrowDown,ArrowLeft"":8,""ArrowDown,ArrowRight"":30}","true","ArrowDown,ArrowRight","false","","","revaluation","1","32","","",""
"html-keyboard-response","147","826508","0.0-4.0-2.0-1.16","spark_pilot_2","7411","6","17","Male","","","","","","","null","<div style=""font-size:60px;"">+</div>","null","fixation","","","","","","","","","","","33","","",""
"revaluation","148","830510","0.0-4.0-2.0-0.17","spark_pilot_2","7411","6","17","Male","","false","","","","","[1535.4000000953674]","./assets/img/canyon/catch/1.jpg","[""spaceBar""]","value training","canyon","0","{""ArrowUp,ArrowLeft"":23,""ArrowUp,ArrowRight"":10,""ArrowDown,ArrowLeft"":8,""ArrowDown,ArrowRight"":30}","true","spaceBar","true","","","revaluation","1","34","","",""
"html-keyboard-response","149","831011","0.0-4.0-2.0-1.17","spark_pilot_2","7411","6","17","Male","","","","","","","null","<div style=""font-size:60px;"">+</div>","null","fixation","","","","","","","","","","","35","","",""
"revaluation","150","837018","0.0-4.0-2.0-0.18","spark_pilot_2","7411","6","17","Male","","false","","","","","[578.3999999761581,548.6000000238419]","./assets/img/canyon/memory/33.jpg","[""ArrowDown"",""ArrowRight""]","value training","canyon","30","{""ArrowUp,ArrowLeft"":23,""ArrowUp,ArrowRight"":10,""ArrowDown,ArrowLeft"":8,""ArrowDown,ArrowRight"":30}","true","ArrowDown,ArrowRight","false","","","revaluation","1","36","","",""
"html-keyboard-response","151","837518","0.0-4.0-2.0-1.18","spark_pilot_2","7411","6","17","Male","","","","","","","null","<div style=""font-size:60px;"">+</div>","null","fixation","","","","","","","","","","","37","","",""
"revaluation","152","843523","0.0-4.0-2.0-0.19","spark_pilot_2","7411","6","17","Male","","false","","","","","[461.60000002384186,577.1000000238419]","./assets/img/canyon/memory/0.jpg","[""ArrowDown"",""ArrowRight""]","value training","canyon","30","{""ArrowUp,ArrowLeft"":23,""ArrowUp,ArrowRight"":10,""ArrowDown,ArrowLeft"":8,""ArrowDown,ArrowRight"":30}","true","ArrowDown,ArrowRight","false","","","revaluation","1","38","","",""
"html-keyboard-response","153","844024","0.0-4.0-2.0-1.19","spark_pilot_2","7411","6","17","Male","","","","","","","null","<div style=""font-size:60px;"">+</div>","null","fixation","","","","","","","","","","","39","","",""
"revaluation","154","850028","0.0-4.0-2.0-0.20","spark_pilot_2","7411","6","17","Male","","false","","","","","[677,437.39999997615814]","./assets/img/canyon/memory/0.jpg","[""ArrowDown"",""ArrowRight""]","value training","canyon","30","{""ArrowUp,ArrowLeft"":23,""ArrowUp,ArrowRight"":10,""ArrowDown,ArrowLeft"":8,""ArrowDown,ArrowRight"":30}","true","ArrowDown,ArrowRight","false","","","revaluation","1","40","","",""
"html-keyboard-response","155","850529","0.0-4.0-2.0-1.20","spark_pilot_2","7411","6","17","Male","","","","","","","null","<div style=""font-size:60px;"">+</div>","null","fixation","","","","","","","","","","","41","","",""
"revaluation","156","856533","0.0-4.0-2.0-0.21","spark_pilot_2","7411","6","17","Male","","false","","","","","[565.5,393.7000000476837]","./assets/img/canyon/memory/38.jpg","[""ArrowDown"",""ArrowRight""]","value training","canyon","30","{""ArrowUp,ArrowLeft"":23,""ArrowUp,ArrowRight"":10,""ArrowDown,ArrowLeft"":8,""ArrowDown,ArrowRight"":30}","true","ArrowDown,ArrowRight","false","","","revaluation","1","42","","",""
"html-keyboard-response","157","857035","0.0-4.0-2.0-1.21","spark_pilot_2","7411","6","17","Male","","","","","","","null","<div style=""font-size:60px;"">+</div>","null","fixation","","","","","","","","","","","43","","",""
"revaluation","158","861038","0.0-4.0-2.0-0.22","spark_pilot_2","7411","6","17","Male","","false","","","","","[823.5]","./assets/img/canyon/catch/3.jpg","[""spaceBar""]","value training","canyon","0","{""ArrowUp,ArrowLeft"":23,""ArrowUp,ArrowRight"":10,""ArrowDown,ArrowLeft"":8,""ArrowDown,ArrowRight"":30}","true","spaceBar","true","","","revaluation","1","44","","",""
"html-keyboard-response","159","861543","0.0-4.0-2.0-1.22","spark_pilot_2","7411","6","17","Male","","","","","","","null","<div style=""font-size:60px;"">+</div>","null","fixation","","","","","","","","","","","45","","",""
"revaluation","160","867558","0.0-4.0-2.0-0.23","spark_pilot_2","7411","6","17","Male","","false","","","","","[762.6000000238419,762.6000000238419]","./assets/img/canyon/memory/3.jpg","[""ArrowDown"",""ArrowRight""]","value training","canyon","30","{""ArrowUp,ArrowLeft"":23,""ArrowUp,ArrowRight"":10,""ArrowDown,ArrowLeft"":8,""ArrowDown,ArrowRight"":30}","true","ArrowDown,ArrowRight","false","","","revaluation","1","46","","",""
"html-keyboard-response","161","868060","0.0-4.0-2.0-1.23","spark_pilot_2","7411","6","17","Male","","","","","","","null","<div style=""font-size:60px;"">+</div>","null","fixation","","","","","","","","","","","47","","",""
"revaluation","162","874074","0.0-4.0-2.0-0.24","spark_pilot_2","7411","6","17","Male","","false","","","","","[736.2999999523163,409.39999997615814]","./assets/img/canyon/memory/38.jpg","[""ArrowDown"",""ArrowRight""]","value training","canyon","30","{""ArrowUp,ArrowLeft"":23,""ArrowUp,ArrowRight"":10,""ArrowDown,ArrowLeft"":8,""ArrowDown,ArrowRight"":30}","true","ArrowDown,ArrowRight","false","","","revaluation","1","48","","",""
"html-keyboard-response","163","874576","0.0-4.0-2.0-1.24","spark_pilot_2","7411","6","17","Male","","","","","","","null","<div style=""font-size:60px;"">+</div>","null","fixation","","","","","","","","","","","49","","",""
"revaluation","164","880581","0.0-4.0-2.0-0.25","spark_pilot_2","7411","6","17","Male","","false","","","","","[1413.6999999284744,883.6000000238419]","./assets/img/canyon/memory/28.jpg","[""ArrowDown"",""ArrowRight""]","value training","canyon","30","{""ArrowUp,ArrowLeft"":23,""ArrowUp,ArrowRight"":10,""ArrowDown,ArrowLeft"":8,""ArrowDown,ArrowRight"":30}","true","ArrowDown,ArrowRight","false","","","revaluation","1","50","","",""
"html-keyboard-response","165","881082","0.0-4.0-2.0-1.25","spark_pilot_2","7411","6","17","Male","","","","","","","null","<div style=""font-size:60px;"">+</div>","null","fixation","","","","","","","","","","","51","","",""
"revaluation","166","887087","0.0-4.0-2.0-0.26","spark_pilot_2","7411","6","17","Male","","false","","","","","[742.2000000476837,469.3000000715256]","./assets/img/canyon/memory/27.jpg","[""ArrowDown"",""ArrowRight""]","value training","canyon","30","{""ArrowUp,ArrowLeft"":23,""ArrowUp,ArrowRight"":10,""ArrowDown,ArrowLeft"":8,""ArrowDown,ArrowRight"":30}","true","ArrowDown,ArrowRight","false","","","revaluation","1","52","","",""
"html-keyboard-response","167","887588","0.0-4.0-2.0-1.26","spark_pilot_2","7411","6","17","Male","","","","","","","null","<div style=""font-size:60px;"">+</div>","null","fixation","","","","","","","","","","","53","","",""
"revaluation","168","891592","0.0-4.0-2.0-0.27","spark_pilot_2","7411","6","17","Male","","false","","","","","[439.5]","./assets/img/canyon/catch/6.jpg","[""spaceBar""]","value training","canyon","0","{""ArrowUp,ArrowLeft"":23,""ArrowUp,ArrowRight"":10,""ArrowDown,ArrowLeft"":8,""ArrowDown,ArrowRight"":30}","true","spaceBar","true","","","revaluation","1","54","","",""
"html-keyboard-response","169","892094","0.0-4.0-2.0-1.27","spark_pilot_2","7411","6","17","Male","","","","","","","null","<div style=""font-size:60px;"">+</div>","null","fixation","","","","","","","","","","","55","","",""
"revaluation","170","898099","0.0-4.0-2.0-0.28","spark_pilot_2","7411","6","17","Male","","false","","","","","[595.8999999761581,596.1000000238419]","./assets/img/canyon/memory/41.jpg","[""ArrowDown"",""ArrowRight""]","value training","canyon","30","{""ArrowUp,ArrowLeft"":23,""ArrowUp,ArrowRight"":10,""ArrowDown,ArrowLeft"":8,""ArrowDown,ArrowRight"":30}","true","ArrowDown,ArrowRight","false","","","revaluation","1","56","","",""
"html-keyboard-response","171","898600","0.0-4.0-2.0-1.28","spark_pilot_2","7411","6","17","Male","","","","","","","null","<div style=""font-size:60px;"">+</div>","null","fixation","","","","","","","","","","","57","","",""
"revaluation","172","904606","0.0-4.0-2.0-0.29","spark_pilot_2","7411","6","17","Male","","true","","","","","[695.7999999523163]","./assets/img/canyon/memory/12.jpg","[""ArrowDown""]","value training","canyon","-5","{""ArrowUp,ArrowLeft"":23,""ArrowUp,ArrowRight"":10,""ArrowDown,ArrowLeft"":8,""ArrowDown,ArrowRight"":30}","false","ArrowDown","false","","","revaluation","1","58","","",""
"html-keyboard-response","173","905107","0.0-4.0-2.0-1.29","spark_pilot_2","7411","6","17","Male","","","","","","","null","<div style=""font-size:60px;"">+</div>","null","fixation","","","","","","","","","","","59","","",""
"revaluation","174","911110","0.0-4.0-2.0-0.30","spark_pilot_2","7411","6","17","Male","","false","","","","","[980.3999999761581,309.60000002384186]","./assets/img/canyon/memory/29.jpg","[""ArrowDown"",""ArrowRight""]","value training","canyon","30","{""ArrowUp,ArrowLeft"":23,""ArrowUp,ArrowRight"":10,""ArrowDown,ArrowLeft"":8,""ArrowDown,ArrowRight"":30}","true","ArrowDown,ArrowRight","false","","","revaluation","1","60","","",""
"html-keyboard-response","175","911611","0.0-4.0-2.0-1.30","spark_pilot_2","7411","6","17","Male","","","","","","","null","<div style=""font-size:60px;"">+</div>","null","fixation","","","","","","","","","","","61","","",""
"revaluation","176","917615","0.0-4.0-2.0-0.31","spark_pilot_2","7411","6","17","Male","","false","","","","","[1042.2999999523163,314.8000000715256]","./assets/img/canyon/memory/9.jpg","[""ArrowDown"",""ArrowRight""]","value training","canyon","30","{""ArrowUp,ArrowLeft"":23,""ArrowUp,ArrowRight"":10,""ArrowDown,ArrowLeft"":8,""ArrowDown,ArrowRight"":30}","true","ArrowDown,ArrowRight","false","","","revaluation","1","62","","",""
"html-keyboard-response","177","918116","0.0-4.0-2.0-1.31","spark_pilot_2","7411","6","17","Male","","","","","","","null","<div style=""font-size:60px;"">+</div>","null","fixation","","","","","","","","","","","63","","",""
"revaluation","178","924121","0.0-4.0-2.0-0.32","spark_pilot_2","7411","6","17","Male","","false","","","","","[612.3999999761581,300.5]","./assets/img/canyon/memory/6.jpg","[""ArrowDown"",""ArrowRight""]","value training","canyon","30","{""ArrowUp,ArrowLeft"":23,""ArrowUp,ArrowRight"":10,""ArrowDown,ArrowLeft"":8,""ArrowDown,ArrowRight"":30}","true","ArrowDown,ArrowRight","false","","","revaluation","1","64","","",""
"html-keyboard-response","179","924622","0.0-4.0-2.0-1.32","spark_pilot_2","7411","6","17","Male","","","","","","","null","<div style=""font-size:60px;"">+</div>","null","fixation","","","","","","","","","","","65","","",""
"revaluation","180","930629","0.0-4.0-2.0-0.33","spark_pilot_2","7411","6","17","Male","","false","","","","","[500.1999999284744,370.5]","./assets/img/canyon/memory/14.jpg","[""ArrowDown"",""ArrowRight""]","value training","canyon","30","{""ArrowUp,ArrowLeft"":23,""ArrowUp,ArrowRight"":10,""ArrowDown,ArrowLeft"":8,""ArrowDown,ArrowRight"":30}","true","ArrowDown,ArrowRight","false","","","revaluation","1","66","","",""
"html-keyboard-response","181","931130","0.0-4.0-2.0-1.33","spark_pilot_2","7411","6","17","Male","","","","","","","null","<div style=""font-size:60px;"">+</div>","null","fixation","","","","","","","","","","","67","","",""
"revaluation","182","937134","0.0-4.0-2.0-0.34","spark_pilot_2","7411","6","17","Male","","false","","","","","[497.09999990463257,382.39999997615814]","./assets/img/canyon/memory/3.jpg","[""ArrowDown"",""ArrowRight""]","value training","canyon","30","{""ArrowUp,ArrowLeft"":23,""ArrowUp,ArrowRight"":10,""ArrowDown,ArrowLeft"":8,""ArrowDown,ArrowRight"":30}","true","ArrowDown,ArrowRight","false","","","revaluation","1","68","","",""
"html-keyboard-response","183","937634","0.0-4.0-2.0-1.34","spark_pilot_2","7411","6","17","Male","","","","","","","null","<div style=""font-size:60px;"">+</div>","null","fixation","","","","","","","","","","","69","","",""
"revaluation","184","943637","0.0-4.0-2.0-0.35","spark_pilot_2","7411","6","17","Male","","false","","","","","[584.1000000238419,473.7999999523163]","./assets/img/canyon/memory/30.jpg","[""ArrowDown"",""ArrowRight""]","value training","canyon","30","{""ArrowUp,ArrowLeft"":23,""ArrowUp,ArrowRight"":10,""ArrowDown,ArrowLeft"":8,""ArrowDown,ArrowRight"":30}","true","ArrowDown,ArrowRight","false","","","revaluation","1","70","","",""
"html-keyboard-response","185","944139","0.0-4.0-2.0-1.35","spark_pilot_2","7411","6","17","Male","","","","","","","null","<div style=""font-size:60px;"">+</div>","null","fixation","","","","","","","","","","","71","","",""
"revaluation","186","950143","0.0-4.0-2.0-0.36","spark_pilot_2","7411","6","17","Male","","false","","","","","[688.6000000238419,502.7999999523163]","./assets/img/canyon/memory/26.jpg","[""ArrowDown"",""ArrowRight""]","value training","canyon","30","{""ArrowUp,ArrowLeft"":23,""ArrowUp,ArrowRight"":10,""ArrowDown,ArrowLeft"":8,""ArrowDown,ArrowRight"":30}","true","ArrowDown,ArrowRight","false","","","revaluation","1","72","","",""
"html-keyboard-response","187","950644","0.0-4.0-2.0-1.36","spark_pilot_2","7411","6","17","Male","","","","","","","null","<div style=""font-size:60px;"">+</div>","null","fixation","","","","","","","","","","","73","","",""
"revaluation","188","956650","0.0-4.0-2.0-0.37","spark_pilot_2","7411","6","17","Male","","false","","","","","[545.5999999046326,359.40000009536743]","./assets/img/canyon/memory/26.jpg","[""ArrowDown"",""ArrowRight""]","value training","canyon","30","{""ArrowUp,ArrowLeft"":23,""ArrowUp,ArrowRight"":10,""ArrowDown,ArrowLeft"":8,""ArrowDown,ArrowRight"":30}","true","ArrowDown,ArrowRight","false","","","revaluation","1","74","","",""
"html-keyboard-response","189","957151","0.0-4.0-2.0-1.37","spark_pilot_2","7411","6","17","Male","","","","","","","null","<div style=""font-size:60px;"">+</div>","null","fixation","","","","","","","","","","","75","","",""
"revaluation","190","963156","0.0-4.0-2.0-0.38","spark_pilot_2","7411","6","17","Male","","false","","","","","[586.5,431.7000000476837]","./assets/img/canyon/memory/9.jpg","[""ArrowDown"",""ArrowRight""]","value training","canyon","30","{""ArrowUp,ArrowLeft"":23,""ArrowUp,ArrowRight"":10,""ArrowDown,ArrowLeft"":8,""ArrowDown,ArrowRight"":30}","true","ArrowDown,ArrowRight","false","","","revaluation","1","76","","",""
"html-keyboard-response","191","963658","0.0-4.0-2.0-1.38","spark_pilot_2","7411","6","17","Male","","","","","","","null","<div style=""font-size:60px;"">+</div>","null","fixation","","","","","","","","","","","77","","",""
"revaluation","192","969662","0.0-4.0-2.0-0.39","spark_pilot_2","7411","6","17","Male","","false","","","","","[516.6999999284744,373.5]","./assets/img/canyon/memory/29.jpg","[""ArrowDown"",""ArrowRight""]","value training","canyon","30","{""ArrowUp,ArrowLeft"":23,""ArrowUp,ArrowRight"":10,""ArrowDown,ArrowLeft"":8,""ArrowDown,ArrowRight"":30}","true","ArrowDown,ArrowRight","false","","","revaluation","1","78","","",""
"html-keyboard-response","193","970163","0.0-4.0-2.0-1.39","spark_pilot_2","7411","6","17","Male","","","","","","","null","<div style=""font-size:60px;"">+</div>","null","fixation","","","","","","","","","","","79","","",""
"revaluation","194","974166","0.0-4.0-2.0-0.40","spark_pilot_2","7411","6","17","Male","","false","","","","","[832]","./assets/img/canyon/catch/2.jpg","[""spaceBar""]","value training","canyon","0","{""ArrowUp,ArrowLeft"":23,""ArrowUp,ArrowRight"":10,""ArrowDown,ArrowLeft"":8,""ArrowDown,ArrowRight"":30}","true","spaceBar","true","","","revaluation","1","80","","",""
"html-keyboard-response","195","974667","0.0-4.0-2.0-1.40","spark_pilot_2","7411","6","17","Male","","","","","","","null","<div style=""font-size:60px;"">+</div>","null","fixation","","","","","","","","","","","81","","",""
"revaluation","196","980676","0.0-4.0-2.0-0.41","spark_pilot_2","7411","6","17","Male","","false","","","","","[531.5,588.5]","./assets/img/canyon/memory/41.jpg","[""ArrowDown"",""ArrowRight""]","value training","canyon","30","{""ArrowUp,ArrowLeft"":23,""ArrowUp,ArrowRight"":10,""ArrowDown,ArrowLeft"":8,""ArrowDown,ArrowRight"":30}","true","ArrowDown,ArrowRight","false","","","revaluation","1","82","","",""
"html-keyboard-response","197","981178","0.0-4.0-2.0-1.41","spark_pilot_2","7411","6","17","Male","","","","","","","null","<div style=""font-size:60px;"">+</div>","null","fixation","","","","","","","","","","","83","","",""
"revaluation","198","987183","0.0-4.0-2.0-0.42","spark_pilot_2","7411","6","17","Male","","false","","","","","[425.89999997615814,755.3999999761581]","./assets/img/canyon/memory/27.jpg","[""ArrowDown"",""ArrowRight""]","value training","canyon","30","{""ArrowUp,ArrowLeft"":23,""ArrowUp,ArrowRight"":10,""ArrowDown,ArrowLeft"":8,""ArrowDown,ArrowRight"":30}","true","ArrowDown,ArrowRight","false","","","revaluation","1","84","","",""
"html-keyboard-response","199","987684","0.0-4.0-2.0-1.42","spark_pilot_2","7411","6","17","Male","","","","","","","null","<div style=""font-size:60px;"">+</div>","null","fixation","","","","","","","","","","","85","","",""
"revaluation","200","993689","0.0-4.0-2.0-0.43","spark_pilot_2","7411","6","17","Male","","false","","","","","[686.6999999284744,1027.5]","./assets/img/canyon/memory/40.jpg","[""ArrowDown"",""ArrowRight""]","value training","canyon","30","{""ArrowUp,ArrowLeft"":23,""ArrowUp,ArrowRight"":10,""ArrowDown,ArrowLeft"":8,""ArrowDown,ArrowRight"":30}","true","ArrowDown,ArrowRight","false","","","revaluation","1","86","","",""
"html-keyboard-response","201","994191","0.0-4.0-2.0-1.43","spark_pilot_2","7411","6","17","Male","","","","","","","null","<div style=""font-size:60px;"">+</div>","null","fixation","","","","","","","","","","","87","","",""
"revaluation","202","1000196","0.0-4.0-2.0-0.44","spark_pilot_2","7411","6","17","Male","","false","","","","","[500.2999999523163,527.7000000476837]","./assets/img/canyon/memory/33.jpg","[""ArrowDown"",""ArrowRight""]","value training","canyon","30","{""ArrowUp,ArrowLeft"":23,""ArrowUp,ArrowRight"":10,""ArrowDown,ArrowLeft"":8,""ArrowDown,ArrowRight"":30}","true","ArrowDown,ArrowRight","false","","","revaluation","1","88","","",""
"html-keyboard-response","203","1000697","0.0-4.0-2.0-1.44","spark_pilot_2","7411","6","17","Male","","","","","","","null","<div style=""font-size:60px;"">+</div>","null","fixation","","","","","","","","","","","89","","",""
"revaluation","204","1006702","0.0-4.0-2.0-0.45","spark_pilot_2","7411","6","17","Male","","false","","","","","[455.7999999523163,684]","./assets/img/canyon/memory/28.jpg","[""ArrowDown"",""ArrowRight""]","value training","canyon","30","{""ArrowUp,ArrowLeft"":23,""ArrowUp,ArrowRight"":10,""ArrowDown,ArrowLeft"":8,""ArrowDown,ArrowRight"":30}","true","ArrowDown,ArrowRight","false","","","revaluation","1","90","","",""
"html-keyboard-response","205","1007202","0.0-4.0-2.0-1.45","spark_pilot_2","7411","6","17","Male","","","","","","","null","<div style=""font-size:60px;"">+</div>","null","fixation","","","","","","","","","","","91","","",""
"revaluation","206","1013207","0.0-4.0-2.0-0.46","spark_pilot_2","7411","6","17","Male","","false","","","","","[445.40000009536743,488.7999999523163]","./assets/img/canyon/memory/13.jpg","[""ArrowDown"",""ArrowRight""]","value training","canyon","30","{""ArrowUp,ArrowLeft"":23,""ArrowUp,ArrowRight"":10,""ArrowDown,ArrowLeft"":8,""ArrowDown,ArrowRight"":30}","true","ArrowDown,ArrowRight","false","","","revaluation","1","92","","",""
"html-keyboard-response","207","1013716","0.0-4.0-2.0-1.46","spark_pilot_2","7411","6","17","Male","","","","","","","null","<div style=""font-size:60px;"">+</div>","null","fixation","","","","","","","","","","","93","","",""
"revaluation","208","1019727","0.0-4.0-2.0-0.47","spark_pilot_2","7411","6","17","Male","","false","","","","","[551.8999999761581,494.2000000476837]","./assets/img/canyon/memory/6.jpg","[""ArrowDown"",""ArrowRight""]","value training","canyon","30","{""ArrowUp,ArrowLeft"":23,""ArrowUp,ArrowRight"":10,""ArrowDown,ArrowLeft"":8,""ArrowDown,ArrowRight"":30}","true","ArrowDown,ArrowRight","false","","","revaluation","1","94","","",""
"html-keyboard-response","209","1020228","0.0-4.0-2.0-1.47","spark_pilot_2","7411","6","17","Male","","","","","","","null","<div style=""font-size:60px;"">+</div>","null","fixation","","","","","","","","","","","95","","",""
"revaluation","210","1026246","0.0-4.0-2.0-0.48","spark_pilot_2","7411","6","17","Male","","false","","","","","[776.2000000476837,834.3000000715256]","./assets/img/canyon/memory/39.jpg","[""ArrowDown"",""ArrowRight""]","value training","canyon","30","{""ArrowUp,ArrowLeft"":23,""ArrowUp,ArrowRight"":10,""ArrowDown,ArrowLeft"":8,""ArrowDown,ArrowRight"":30}","true","ArrowDown,ArrowRight","false","","","revaluation","1","96","","",""
"html-keyboard-response","211","1026748","0.0-4.0-2.0-1.48","spark_pilot_2","7411","6","17","Male","","","","","","","null","<div style=""font-size:60px;"">+</div>","null","fixation","","","","","","","","","","","97","","",""
"revaluation","212","1032753","0.0-4.0-2.0-0.49","spark_pilot_2","7411","6","17","Male","","false","","","","","[478.5,392]","./assets/img/canyon/memory/30.jpg","[""ArrowDown"",""ArrowRight""]","value training","canyon","30","{""ArrowUp,ArrowLeft"":23,""ArrowUp,ArrowRight"":10,""ArrowDown,ArrowLeft"":8,""ArrowDown,ArrowRight"":30}","true","ArrowDown,ArrowRight","false","","","revaluation","1","98","","",""
"html-keyboard-response","213","1033254","0.0-4.0-2.0-1.49","spark_pilot_2","7411","6","17","Male","","","","","","[{""event"":""fullscreenenter"",""trial"":2,""time"":39327},{""event"":""blur"",""trial"":214,""time"":1035967},{""event"":""focus"",""trial"":214,""time"":1096828},{""event"":""blur"",""trial"":251,""time"":1179920},{""event"":""focus"",""trial"":251,""time"":1181699},{""event"":""blur"",""trial"":637,""time"":2305225},{""event"":""focus"",""trial"":637,""time"":2319254}]","null","<div style=""font-size:60px;"">+</div>","null","fixation","","","","","","","","","","","99","","",""
"learning-instructions","214","1096928","0.0-4.0-3.0-0.0","spark_pilot_2","7411","6","17","Male","","","","","","","50791.299999952316","<p> Now, you will travel with a friend who will choose whether you go up or down first. </p>
            <p> On these turns, you will just see the animal that they found. You will still get to choose which chest to search for treasure.</p>","","instructions","","","","","","","","","","","","","",""
"revaluation","215","1100932","0.0-4.0-4.0-0.0","spark_pilot_2","7411","6","17","Male","","false","","","","","[970.6000000238419]","./assets/img/canyon/animals/lion.jpg","[""ArrowRight""]","revaluation","canyon","7","{""ArrowUp,ArrowLeft"":27,""ArrowUp,ArrowRight"":15,""ArrowDown,ArrowLeft"":21,""ArrowDown,ArrowRight"":7}","false","ArrowDown,ArrowRight","","","","revaluation","1","0","","",""
"html-keyboard-response","216","1101434","0.0-4.0-4.0-1.0","spark_pilot_2","7411","6","17","Male","","","","","","","null","<div style=""font-size:60px;"">+</div>","null","fixation","","","","","","","","","","","1","","",""
"revaluation","217","1105439","0.0-4.0-4.0-0.1","spark_pilot_2","7411","6","17","Male","","false","","","","","[1011.2000000476837]","./assets/img/canyon/animals/giraffe.jpg","[""ArrowRight""]","revaluation","canyon","15","{""ArrowUp,ArrowLeft"":27,""ArrowUp,ArrowRight"":15,""ArrowDown,ArrowLeft"":21,""ArrowDown,ArrowRight"":7}","false","ArrowUp,ArrowRight","","","","revaluation","1","2","","",""
"html-keyboard-response","218","1105940","0.0-4.0-4.0-1.1","spark_pilot_2","7411","6","17","Male","","","","","","","null","<div style=""font-size:60px;"">+</div>","null","fixation","","","","","","","","","","","3","","",""
"revaluation","219","1109943","0.0-4.0-4.0-0.2","spark_pilot_2","7411","6","17","Male","","false","","","","","[637.1000000238419]","./assets/img/canyon/animals/giraffe.jpg","[""ArrowLeft""]","revaluation","canyon","27","{""ArrowUp,ArrowLeft"":27,""ArrowUp,ArrowRight"":15,""ArrowDown,ArrowLeft"":21,""ArrowDown,ArrowRight"":7}","true","ArrowUp,ArrowLeft","","","","revaluation","1","4","","",""
"html-keyboard-response","220","1110443","0.0-4.0-4.0-1.2","spark_pilot_2","7411","6","17","Male","","","","","","","null","<div style=""font-size:60px;"">+</div>","null","fixation","","","","","","","","","","","5","","",""
"revaluation","221","1114446","0.0-4.0-4.0-0.3","spark_pilot_2","7411","6","17","Male","","false","","","","","[366]","./assets/img/canyon/animals/giraffe.jpg","[""ArrowLeft""]","revaluation","canyon","27","{""ArrowUp,ArrowLeft"":27,""ArrowUp,ArrowRight"":15,""ArrowDown,ArrowLeft"":21,""ArrowDown,ArrowRight"":7}","true","ArrowUp,ArrowLeft","","","","revaluation","1","6","","",""
"html-keyboard-response","222","1114947","0.0-4.0-4.0-1.3","spark_pilot_2","7411","6","17","Male","","","","","","","null","<div style=""font-size:60px;"">+</div>","null","fixation","","","","","","","","","","","7","","",""
"revaluation","223","1118952","0.0-4.0-4.0-0.4","spark_pilot_2","7411","6","17","Male","","false","","","","","[412.89999997615814]","./assets/img/canyon/animals/lion.jpg","[""ArrowLeft""]","revaluation","canyon","21","{""ArrowUp,ArrowLeft"":27,""ArrowUp,ArrowRight"":15,""ArrowDown,ArrowLeft"":21,""ArrowDown,ArrowRight"":7}","true","ArrowDown,ArrowLeft","","","","revaluation","1","8","","",""
"html-keyboard-response","224","1119453","0.0-4.0-4.0-1.4","spark_pilot_2","7411","6","17","Male","","","","","","","null","<div style=""font-size:60px;"">+</div>","null","fixation","","","","","","","","","","","9","","",""
"revaluation","225","1123455","0.0-4.0-4.0-0.5","spark_pilot_2","7411","6","17","Male","","false","","","","","[297.39999997615814]","./assets/img/canyon/animals/giraffe.jpg","[""ArrowLeft""]","revaluation","canyon","27","{""ArrowUp,ArrowLeft"":27,""ArrowUp,ArrowRight"":15,""ArrowDown,ArrowLeft"":21,""ArrowDown,ArrowRight"":7}","true","ArrowUp,ArrowLeft","","","","revaluation","1","10","","",""
"html-keyboard-response","226","1123962","0.0-4.0-4.0-1.5","spark_pilot_2","7411","6","17","Male","","","","","","","null","<div style=""font-size:60px;"">+</div>","null","fixation","","","","","","","","","","","11","","",""
"revaluation","227","1127966","0.0-4.0-4.0-0.6","spark_pilot_2","7411","6","17","Male","","false","","","","","[378]","./assets/img/canyon/animals/lion.jpg","[""ArrowLeft""]","revaluation","canyon","21","{""ArrowUp,ArrowLeft"":27,""ArrowUp,ArrowRight"":15,""ArrowDown,ArrowLeft"":21,""ArrowDown,ArrowRight"":7}","true","ArrowDown,ArrowLeft","","","","revaluation","1","12","","",""
"html-keyboard-response","228","1128468","0.0-4.0-4.0-1.6","spark_pilot_2","7411","6","17","Male","","","","","","","null","<div style=""font-size:60px;"">+</div>","null","fixation","","","","","","","","","","","13","","",""
"revaluation","229","1132472","0.0-4.0-4.0-0.7","spark_pilot_2","7411","6","17","Male","","false","","","","","[363.5]","./assets/img/canyon/animals/giraffe.jpg","[""ArrowLeft""]","revaluation","canyon","27","{""ArrowUp,ArrowLeft"":27,""ArrowUp,ArrowRight"":15,""ArrowDown,ArrowLeft"":21,""ArrowDown,ArrowRight"":7}","true","ArrowUp,ArrowLeft","","","","revaluation","1","14","","",""
"html-keyboard-response","230","1132972","0.0-4.0-4.0-1.7","spark_pilot_2","7411","6","17","Male","","","","","","","null","<div style=""font-size:60px;"">+</div>","null","fixation","","","","","","","","","","","15","","",""
"revaluation","231","1136975","0.0-4.0-4.0-0.8","spark_pilot_2","7411","6","17","Male","","false","","","","","[392.09999990463257]","./assets/img/canyon/animals/lion.jpg","[""ArrowLeft""]","revaluation","canyon","21","{""ArrowUp,ArrowLeft"":27,""ArrowUp,ArrowRight"":15,""ArrowDown,ArrowLeft"":21,""ArrowDown,ArrowRight"":7}","true","ArrowDown,ArrowLeft","","","","revaluation","1","16","","",""
"html-keyboard-response","232","1137476","0.0-4.0-4.0-1.8","spark_pilot_2","7411","6","17","Male","","","","","","","null","<div style=""font-size:60px;"">+</div>","null","fixation","","","","","","","","","","","17","","",""
"revaluation","233","1141481","0.0-4.0-4.0-0.9","spark_pilot_2","7411","6","17","Male","","false","","","","","[334.8000000715256]","./assets/img/canyon/animals/lion.jpg","[""ArrowLeft""]","revaluation","canyon","21","{""ArrowUp,ArrowLeft"":27,""ArrowUp,ArrowRight"":15,""ArrowDown,ArrowLeft"":21,""ArrowDown,ArrowRight"":7}","true","ArrowDown,ArrowLeft","","","","revaluation","1","18","","",""
"html-keyboard-response","234","1141982","0.0-4.0-4.0-1.9","spark_pilot_2","7411","6","17","Male","","","","","","","null","<div style=""font-size:60px;"">+</div>","null","fixation","","","","","","","","","","","19","","",""
"revaluation","235","1145998","0.0-4.0-4.0-0.10","spark_pilot_2","7411","6","17","Male","","false","","","","","[376]","./assets/img/canyon/animals/lion.jpg","[""ArrowLeft""]","revaluation","canyon","21","{""ArrowUp,ArrowLeft"":27,""ArrowUp,ArrowRight"":15,""ArrowDown,ArrowLeft"":21,""ArrowDown,ArrowRight"":7}","true","ArrowDown,ArrowLeft","","","","revaluation","1","20","","",""
"html-keyboard-response","236","1146499","0.0-4.0-4.0-1.10","spark_pilot_2","7411","6","17","Male","","","","","","","null","<div style=""font-size:60px;"">+</div>","null","fixation","","","","","","","","","","","21","","",""
"revaluation","237","1150503","0.0-4.0-4.0-0.11","spark_pilot_2","7411","6","17","Male","","false","","","","","[434.7000000476837]","./assets/img/canyon/animals/giraffe.jpg","[""ArrowLeft""]","revaluation","canyon","27","{""ArrowUp,ArrowLeft"":27,""ArrowUp,ArrowRight"":15,""ArrowDown,ArrowLeft"":21,""ArrowDown,ArrowRight"":7}","true","ArrowUp,ArrowLeft","","","","revaluation","1","22","","",""
"html-keyboard-response","238","1151004","0.0-4.0-4.0-1.11","spark_pilot_2","7411","6","17","Male","","","","","","","null","<div style=""font-size:60px;"">+</div>","null","fixation","","","","","","","","","","","23","","",""
"revaluation","239","1155007","0.0-4.0-4.0-0.12","spark_pilot_2","7411","6","17","Male","","false","","","","","[491.90000009536743]","./assets/img/canyon/animals/lion.jpg","[""ArrowLeft""]","revaluation","canyon","21","{""ArrowUp,ArrowLeft"":27,""ArrowUp,ArrowRight"":15,""ArrowDown,ArrowLeft"":21,""ArrowDown,ArrowRight"":7}","true","ArrowDown,ArrowLeft","","","","revaluation","1","24","","",""
"html-keyboard-response","240","1155508","0.0-4.0-4.0-1.12","spark_pilot_2","7411","6","17","Male","","","","","","","null","<div style=""font-size:60px;"">+</div>","null","fixation","","","","","","","","","","","25","","",""
"revaluation","241","1159513","0.0-4.0-4.0-0.13","spark_pilot_2","7411","6","17","Male","","false","","","","","[607.3999999761581]","./assets/img/canyon/animals/giraffe.jpg","[""ArrowLeft""]","revaluation","canyon","27","{""ArrowUp,ArrowLeft"":27,""ArrowUp,ArrowRight"":15,""ArrowDown,ArrowLeft"":21,""ArrowDown,ArrowRight"":7}","true","ArrowUp,ArrowLeft","","","","revaluation","1","26","","",""
"html-keyboard-response","242","1160014","0.0-4.0-4.0-1.13","spark_pilot_2","7411","6","17","Male","","","","","","","null","<div style=""font-size:60px;"">+</div>","null","fixation","","","","","","","","","","","27","","",""
"revaluation","243","1164018","0.0-4.0-4.0-0.14","spark_pilot_2","7411","6","17","Male","","false","","","","","[620.5]","./assets/img/canyon/animals/giraffe.jpg","[""ArrowLeft""]","revaluation","canyon","27","{""ArrowUp,ArrowLeft"":27,""ArrowUp,ArrowRight"":15,""ArrowDown,ArrowLeft"":21,""ArrowDown,ArrowRight"":7}","true","ArrowUp,ArrowLeft","","","","revaluation","1","28","","",""
"html-keyboard-response","244","1164519","0.0-4.0-4.0-1.14","spark_pilot_2","7411","6","17","Male","","","","","","","null","<div style=""font-size:60px;"">+</div>","null","fixation","","","","","","","","","","","29","","",""
"revaluation","245","1168522","0.0-4.0-4.0-0.15","spark_pilot_2","7411","6","17","Male","","false","","","","","[461.60000002384186]","./assets/img/canyon/animals/lion.jpg","[""ArrowLeft""]","revaluation","canyon","21","{""ArrowUp,ArrowLeft"":27,""ArrowUp,ArrowRight"":15,""ArrowDown,ArrowLeft"":21,""ArrowDown,ArrowRight"":7}","true","ArrowDown,ArrowLeft","","","","revaluation","1","30","","",""
"html-keyboard-response","246","1169023","0.0-4.0-4.0-1.15","spark_pilot_2","7411","6","17","Male","","","","","","","null","<div style=""font-size:60px;"">+</div>","null","fixation","","","","","","","","","","","31","","",""
"revaluation","247","1173025","0.0-4.0-4.0-0.16","spark_pilot_2","7411","6","17","Male","","false","","","","","[289.60000002384186]","./assets/img/canyon/animals/giraffe.jpg","[""ArrowLeft""]","revaluation","canyon","27","{""ArrowUp,ArrowLeft"":27,""ArrowUp,ArrowRight"":15,""ArrowDown,ArrowLeft"":21,""ArrowDown,ArrowRight"":7}","true","ArrowUp,ArrowLeft","","","","revaluation","1","32","","",""
"html-keyboard-response","248","1173526","0.0-4.0-4.0-1.16","spark_pilot_2","7411","6","17","Male","","","","","","","null","<div style=""font-size:60px;"">+</div>","null","fixation","","","","","","","","","","","33","","",""
"revaluation","249","1177530","0.0-4.0-4.0-0.17","spark_pilot_2","7411","6","17","Male","","false","","","","","[349.5]","./assets/img/canyon/animals/lion.jpg","[""ArrowLeft""]","revaluation","canyon","21","{""ArrowUp,ArrowLeft"":27,""ArrowUp,ArrowRight"":15,""ArrowDown,ArrowLeft"":21,""ArrowDown,ArrowRight"":7}","true","ArrowDown,ArrowLeft","","","","revaluation","1","34","","",""
"html-keyboard-response","250","1178030","0.0-4.0-4.0-1.17","spark_pilot_2","7411","6","17","Male","","","","","","[{""event"":""fullscreenenter"",""trial"":2,""time"":39327},{""event"":""blur"",""trial"":214,""time"":1035967},{""event"":""focus"",""trial"":214,""time"":1096828},{""event"":""blur"",""trial"":251,""time"":1179920},{""event"":""focus"",""trial"":251,""time"":1181699},{""event"":""blur"",""trial"":637,""time"":2305225},{""event"":""focus"",""trial"":637,""time"":2319254}]","null","<div style=""font-size:60px;"">+</div>","null","fixation","","","","","","","","","","","35","","",""
"learning-instructions","251","1190168","0.0-4.0-5.0-0.0","spark_pilot_2","7411","6","17","Male","","","","","","","763.7000000476837","<p> Time to play the dot game! </p>
            <p> For one minute, click the red dots on the following screen as they appear. </p>
            <p><b> Don't look away, as you will earn bonus for clicking dots</b>. </p>","","instructions","","","","","","","","","","","","","",""
"revaluation","252","1250171","0.0-4.0-6.0-0.0","spark_pilot_2","7411","6","17","Male","","","","","","","[71,70,60,100,48,62,62]","","","rest","","70","","","","","0","60000","","","","","",""
"learning-instructions","253","1268126","0.0-4.0-7.0-0.0","spark_pilot_2","7411","6","17","Male","","","","","","","11851.799999952316","<p> You have almost finished this part of the game! </p>
            <p> We are going to ask you to make a few more choices. </p>","","instructions","","","","","","","","","","","","","",""
"learning-instructions","254","1293461","0.0-4.0-7.0-0.1","spark_pilot_2","7411","6","17","Male","","","","","","","11368.200000047684","<p> First, you need to decide whether to go up or down. When you see each picture, use the arrow keys to make your choice. </p>
            <p><b>You will not see which animal you found, but try to get to the one that will give you the most treasure.</b></p>","","instructions","","","","","","","","","","","","","",""
"revaluation","255","1295043","0.0-4.0-8.0-0.0","spark_pilot_2","7411","6","17","Male","","false","","","","","[1580.8999999761581]","./assets/img/canyon/test/2.jpg","[""ArrowDown""]","first stage test","canyon","0","{""ArrowUp,ArrowLeft"":27,""ArrowUp,ArrowRight"":15,""ArrowDown,ArrowLeft"":21,""ArrowDown,ArrowRight"":7}","false","ArrowDown","false","","","revaluation","1","","","",""
"html-keyboard-response","256","1295559","0.0-4.0-8.0-1.0","spark_pilot_2","7411","6","17","Male","","","","","","","null","<div style=""font-size:60px;"">+</div>","null","fixation","","","","","","","","","","","","","",""
"revaluation","257","1297547","0.0-4.0-8.0-0.1","spark_pilot_2","7411","6","17","Male","","false","","","","","[1987.2000000476837]","./assets/img/canyon/test/0.jpg","[""ArrowDown""]","first stage test","canyon","0","{""ArrowUp,ArrowLeft"":27,""ArrowUp,ArrowRight"":15,""ArrowDown,ArrowLeft"":21,""ArrowDown,ArrowRight"":7}","false","ArrowDown","false","","","revaluation","1","","","",""
"html-keyboard-response","258","1298062","0.0-4.0-8.0-1.1","spark_pilot_2","7411","6","17","Male","","","","","","","null","<div style=""font-size:60px;"">+</div>","null","fixation","","","","","","","","","","","","","",""
"revaluation","259","1300323","0.0-4.0-8.0-0.2","spark_pilot_2","7411","6","17","Male","","false","","","","","[2259.100000023842]","./assets/img/canyon/test/1.jpg","[""ArrowDown""]","first stage test","canyon","0","{""ArrowUp,ArrowLeft"":27,""ArrowUp,ArrowRight"":15,""ArrowDown,ArrowLeft"":21,""ArrowDown,ArrowRight"":7}","false","ArrowDown","false","","","revaluation","1","","","",""
"html-keyboard-response","260","1300839","0.0-4.0-8.0-1.2","spark_pilot_2","7411","6","17","Male","","","","","","","null","<div style=""font-size:60px;"">+</div>","null","fixation","","","","","","","","","","","","","",""
"revaluation","261","1302037","0.0-4.0-8.0-0.3","spark_pilot_2","7411","6","17","Male","","false","","","","","[1197.1000000238419]","./assets/img/canyon/test/3.jpg","[""ArrowDown""]","first stage test","canyon","0","{""ArrowUp,ArrowLeft"":27,""ArrowUp,ArrowRight"":15,""ArrowDown,ArrowLeft"":21,""ArrowDown,ArrowRight"":7}","false","ArrowDown","false","","","revaluation","1","","","",""
"html-keyboard-response","262","1302540","0.0-4.0-8.0-1.3","spark_pilot_2","7411","6","17","Male","","","","","","","null","<div style=""font-size:60px;"">+</div>","null","fixation","","","","","","","","","","","","","",""
"learning-instructions","263","1315221","0.0-4.0-9.0-0.0","spark_pilot_2","7411","6","17","Male","","","","","","","1338.3999999761581","<p> Now you will see the animals again and can search their chests for treasure. </p>
            <p> This time, you will not see how much treasure you earned, but you will earn more bonus money for making better choices. </p>","","instructions","","","","","","","","","","","","","",""
"revaluation","264","1316738","0.0-4.0-10.0-0.0","spark_pilot_2","7411","6","17","Male","","false","","","","","[1515.6999999284744]","./assets/img/canyon/animals/giraffe.jpg","[""ArrowLeft""]","second stage test","canyon","0","{""ArrowUp,ArrowLeft"":27,""ArrowUp,ArrowRight"":15,""ArrowDown,ArrowLeft"":21,""ArrowDown,ArrowRight"":7}","true","ArrowUp,ArrowLeft","","","","revaluation","1","","","",""
"html-keyboard-response","265","1317240","0.0-4.0-10.0-1.0","spark_pilot_2","7411","6","17","Male","","","","","","","null","<div style=""font-size:60px;"">+</div>","null","fixation","","","","","","","","","","","","","",""
"revaluation","266","1318054","0.0-4.0-10.0-0.1","spark_pilot_2","7411","6","17","Male","","false","","","","","[813.3999999761581]","./assets/img/canyon/animals/giraffe.jpg","[""ArrowLeft""]","second stage test","canyon","0","{""ArrowUp,ArrowLeft"":27,""ArrowUp,ArrowRight"":15,""ArrowDown,ArrowLeft"":21,""ArrowDown,ArrowRight"":7}","true","ArrowUp,ArrowLeft","","","","revaluation","1","","","",""
"html-keyboard-response","267","1318567","0.0-4.0-10.0-1.1","spark_pilot_2","7411","6","17","Male","","","","","","","null","<div style=""font-size:60px;"">+</div>","null","fixation","","","","","","","","","","","","","",""
"revaluation","268","1319041","0.0-4.0-10.0-0.2","spark_pilot_2","7411","6","17","Male","","false","","","","","[472.39999997615814]","./assets/img/canyon/animals/giraffe.jpg","[""ArrowLeft""]","second stage test","canyon","0","{""ArrowUp,ArrowLeft"":27,""ArrowUp,ArrowRight"":15,""ArrowDown,ArrowLeft"":21,""ArrowDown,ArrowRight"":7}","true","ArrowUp,ArrowLeft","","","","revaluation","1","","","",""
"html-keyboard-response","269","1319542","0.0-4.0-10.0-1.2","spark_pilot_2","7411","6","17","Male","","","","","","","null","<div style=""font-size:60px;"">+</div>","null","fixation","","","","","","","","","","","","","",""
"revaluation","270","1319973","0.0-4.0-10.0-0.3","spark_pilot_2","7411","6","17","Male","","false","","","","","[430.2000000476837]","./assets/img/canyon/animals/giraffe.jpg","[""ArrowLeft""]","second stage test","canyon","0","{""ArrowUp,ArrowLeft"":27,""ArrowUp,ArrowRight"":15,""ArrowDown,ArrowLeft"":21,""ArrowDown,ArrowRight"":7}","true","ArrowUp,ArrowLeft","","","","revaluation","1","","","",""
"html-keyboard-response","271","1320481","0.0-4.0-10.0-1.3","spark_pilot_2","7411","6","17","Male","","","","","","","null","<div style=""font-size:60px;"">+</div>","null","fixation","","","","","","","","","","","","","",""
"revaluation","272","1321817","0.0-4.0-10.0-0.4","spark_pilot_2","7411","6","17","Male","","false","","","","","[1334.3999999761581]","./assets/img/canyon/animals/lion.jpg","[""ArrowRight""]","second stage test","canyon","0","{""ArrowUp,ArrowLeft"":27,""ArrowUp,ArrowRight"":15,""ArrowDown,ArrowLeft"":21,""ArrowDown,ArrowRight"":7}","false","ArrowDown,ArrowRight","","","","revaluation","1","","","",""
"html-keyboard-response","273","1322330","0.0-4.0-10.0-1.4","spark_pilot_2","7411","6","17","Male","","","","","","","null","<div style=""font-size:60px;"">+</div>","null","fixation","","","","","","","","","","","","","",""
"revaluation","274","1322889","0.0-4.0-10.0-0.5","spark_pilot_2","7411","6","17","Male","","false","","","","","[557.5]","./assets/img/canyon/animals/lion.jpg","[""ArrowRight""]","second stage test","canyon","0","{""ArrowUp,ArrowLeft"":27,""ArrowUp,ArrowRight"":15,""ArrowDown,ArrowLeft"":21,""ArrowDown,ArrowRight"":7}","false","ArrowDown,ArrowRight","","","","revaluation","1","","","",""
"html-keyboard-response","275","1323393","0.0-4.0-10.0-1.5","spark_pilot_2","7411","6","17","Male","","","","","","","null","<div style=""font-size:60px;"">+</div>","null","fixation","","","","","","","","","","","","","",""
"revaluation","276","1325751","0.0-4.0-10.0-0.6","spark_pilot_2","7411","6","17","Male","","false","","","","","[2356.5]","./assets/img/canyon/animals/lion.jpg","[""ArrowLeft""]","second stage test","canyon","0","{""ArrowUp,ArrowLeft"":27,""ArrowUp,ArrowRight"":15,""ArrowDown,ArrowLeft"":21,""ArrowDown,ArrowRight"":7}","true","ArrowDown,ArrowLeft","","","","revaluation","1","","","",""
"html-keyboard-response","277","1326263","0.0-4.0-10.0-1.6","spark_pilot_2","7411","6","17","Male","","","","","","","null","<div style=""font-size:60px;"">+</div>","null","fixation","","","","","","","","","","","","","",""
"revaluation","278","1327208","0.0-4.0-10.0-0.7","spark_pilot_2","7411","6","17","Male","","false","","","","","[943.5]","./assets/img/canyon/animals/lion.jpg","[""ArrowLeft""]","second stage test","canyon","0","{""ArrowUp,ArrowLeft"":27,""ArrowUp,ArrowRight"":15,""ArrowDown,ArrowLeft"":21,""ArrowDown,ArrowRight"":7}","true","ArrowDown,ArrowLeft","","","","revaluation","1","","","",""
"html-keyboard-response","279","1327710","0.0-4.0-10.0-1.7","spark_pilot_2","7411","6","17","Male","","","","","","","null","<div style=""font-size:60px;"">+</div>","null","fixation","","","","","","","","","","","","","",""
"learning-instructions","280","1333192","0.0-4.0-0.1-0.2","spark_pilot_2","7411","6","17","Male","","","","","","","2788.5","<p> This time you are searching for treasure in the <b>ocean</b>.</p>","","instructions","","","","","","","","","","","","","",""
"learning-instructions","281","1352660","0.0-4.0-0.1-0.3","spark_pilot_2","7411","6","17","Male","","","","","","","2226.2000000476837","<p><b>New</b> animals with <b>new</b> treasure chests live here. You need to explore to discover where the animal with the best treasure chest is.</p>
                    <p> Like before, once you figure out which animal has the chest with the most treasure, you should try to get to that animal and select that chest! </p>","","instructions","","","","","","","","","","","","","",""
"learning-instructions","282","1369832","0.0-4.0-1.1-0.1","spark_pilot_2","7411","6","17","Male","","","","","","","2438.600000023842","<p> Remember, when you see a picture of the place, use the up and down keys to <b>find an animal</b>.</p>
            <p> When you encounter an animal, you should use the left and right keys to <b>select a treasure chest</b>.</p>
            <p> Don't forget to look out for the robber! </p>","","instructions","","","","","","","","","","","","","",""
"revaluation","283","1375862","0.0-4.0-2.1-0.50","spark_pilot_2","7411","6","17","Male","","false","","","","","[1164.3999999761581,465.8000000715256]","./assets/img/ocean/memory/40.jpg","[""ArrowDown"",""ArrowRight""]","value training","ocean","17","{""ArrowUp,ArrowLeft"":26,""ArrowUp,ArrowRight"":10,""ArrowDown,ArrowLeft"":5,""ArrowDown,ArrowRight"":17}","false","ArrowDown,ArrowRight","false","","","original","2","0","","",""
"html-keyboard-response","284","1376377","0.0-4.0-2.1-1.50","spark_pilot_2","7411","6","17","Male","","","","","","","null","<div style=""font-size:60px;"">+</div>","null","fixation","","","","","","","","","","","1","","",""
"revaluation","285","1382403","0.0-4.0-2.1-0.51","spark_pilot_2","7411","6","17","Male","","false","","","","","[612.5,317.89999997615814]","./assets/img/ocean/memory/7.jpg","[""ArrowDown"",""ArrowLeft""]","value training","ocean","5","{""ArrowUp,ArrowLeft"":26,""ArrowUp,ArrowRight"":10,""ArrowDown,ArrowLeft"":5,""ArrowDown,ArrowRight"":17}","false","ArrowDown,ArrowLeft","false","","","original","2","2","","",""
"html-keyboard-response","286","1382904","0.0-4.0-2.1-1.51","spark_pilot_2","7411","6","17","Male","","","","","","","null","<div style=""font-size:60px;"">+</div>","null","fixation","","","","","","","","","","","3","","",""
"revaluation","287","1386933","0.0-4.0-2.1-0.52","spark_pilot_2","7411","6","17","Male","","false","","","","","[289.10000002384186]","./assets/img/ocean/catch/3.jpg","[""ArrowUp""]","value training","ocean","-10","{""ArrowUp,ArrowLeft"":26,""ArrowUp,ArrowRight"":10,""ArrowDown,ArrowLeft"":5,""ArrowDown,ArrowRight"":17}","false","ArrowUp","true","","","original","2","4","","",""
"html-keyboard-response","288","1387449","0.0-4.0-2.1-1.52","spark_pilot_2","7411","6","17","Male","","","","","","","null","<div style=""font-size:60px;"">+</div>","null","fixation","","","","","","","","","","","5","","",""
"revaluation","289","1393477","0.0-4.0-2.1-0.53","spark_pilot_2","7411","6","17","Male","","false","","","","","[606.5999999046326,497.60000002384186]","./assets/img/ocean/memory/28.jpg","[""ArrowUp"",""ArrowRight""]","value training","ocean","10","{""ArrowUp,ArrowLeft"":26,""ArrowUp,ArrowRight"":10,""ArrowDown,ArrowLeft"":5,""ArrowDown,ArrowRight"":17}","false","ArrowUp,ArrowRight","false","","","original","2","6","","",""
"html-keyboard-response","290","1393992","0.0-4.0-2.1-1.53","spark_pilot_2","7411","6","17","Male","","","","","","","null","<div style=""font-size:60px;"">+</div>","null","fixation","","","","","","","","","","","7","","",""
"revaluation","291","1399995","0.0-4.0-2.1-0.54","spark_pilot_2","7411","6","17","Male","","false","","","","","[300.7999999523163,459.60000002384186]","./assets/img/ocean/memory/40.jpg","[""ArrowUp"",""ArrowLeft""]","value training","ocean","26","{""ArrowUp,ArrowLeft"":26,""ArrowUp,ArrowRight"":10,""ArrowDown,ArrowLeft"":5,""ArrowDown,ArrowRight"":17}","true","ArrowUp,ArrowLeft","false","","","original","2","8","","",""
"html-keyboard-response","292","1400496","0.0-4.0-2.1-1.54","spark_pilot_2","7411","6","17","Male","","","","","","","null","<div style=""font-size:60px;"">+</div>","null","fixation","","","","","","","","","","","9","","",""
"revaluation","293","1406499","0.0-4.0-2.1-0.55","spark_pilot_2","7411","6","17","Male","","false","","","","","[475.2999999523163,246.10000002384186]","./assets/img/ocean/memory/12.jpg","[""ArrowUp"",""ArrowLeft""]","value training","ocean","26","{""ArrowUp,ArrowLeft"":26,""ArrowUp,ArrowRight"":10,""ArrowDown,ArrowLeft"":5,""ArrowDown,ArrowRight"":17}","true","ArrowUp,ArrowLeft","false","","","original","2","10","","",""
"html-keyboard-response","294","1407001","0.0-4.0-2.1-1.55","spark_pilot_2","7411","6","17","Male","","","","","","","null","<div style=""font-size:60px;"">+</div>","null","fixation","","","","","","","","","","","11","","",""
"revaluation","295","1413007","0.0-4.0-2.1-0.56","spark_pilot_2","7411","6","17","Male","","false","","","","","[979.1999999284744,834.7000000476837]","./assets/img/ocean/memory/30.jpg","[""ArrowUp"",""ArrowLeft""]","value training","ocean","26","{""ArrowUp,ArrowLeft"":26,""ArrowUp,ArrowRight"":10,""ArrowDown,ArrowLeft"":5,""ArrowDown,ArrowRight"":17}","true","ArrowUp,ArrowLeft","false","","","original","2","12","","",""
"html-keyboard-response","296","1413508","0.0-4.0-2.1-1.56","spark_pilot_2","7411","6","17","Male","","","","","","","null","<div style=""font-size:60px;"">+</div>","null","fixation","","","","","","","","","","","13","","",""
"revaluation","297","1419511","0.0-4.0-2.1-0.57","spark_pilot_2","7411","6","17","Male","","false","","","","","[435.6999999284744,978.3000000715256]","./assets/img/ocean/memory/38.jpg","[""ArrowUp"",""ArrowLeft""]","value training","ocean","26","{""ArrowUp,ArrowLeft"":26,""ArrowUp,ArrowRight"":10,""ArrowDown,ArrowLeft"":5,""ArrowDown,ArrowRight"":17}","true","ArrowUp,ArrowLeft","false","","","original","2","14","","",""
"html-keyboard-response","298","1420012","0.0-4.0-2.1-1.57","spark_pilot_2","7411","6","17","Male","","","","","","","null","<div style=""font-size:60px;"">+</div>","null","fixation","","","","","","","","","","","15","","",""
"revaluation","299","1426017","0.0-4.0-2.1-0.58","spark_pilot_2","7411","6","17","Male","","false","","","","","[452,365.7000000476837]","./assets/img/ocean/memory/26.jpg","[""ArrowUp"",""ArrowLeft""]","value training","ocean","26","{""ArrowUp,ArrowLeft"":26,""ArrowUp,ArrowRight"":10,""ArrowDown,ArrowLeft"":5,""ArrowDown,ArrowRight"":17}","true","ArrowUp,ArrowLeft","false","","","original","2","16","","",""
"html-keyboard-response","300","1426518","0.0-4.0-2.1-1.58","spark_pilot_2","7411","6","17","Male","","","","","","","null","<div style=""font-size:60px;"">+</div>","null","fixation","","","","","","","","","","","17","","",""
"revaluation","301","1432523","0.0-4.0-2.1-0.59","spark_pilot_2","7411","6","17","Male","","false","","","","","[666.7000000476837,437.60000002384186]","./assets/img/ocean/memory/39.jpg","[""ArrowUp"",""ArrowLeft""]","value training","ocean","26","{""ArrowUp,ArrowLeft"":26,""ArrowUp,ArrowRight"":10,""ArrowDown,ArrowLeft"":5,""ArrowDown,ArrowRight"":17}","true","ArrowUp,ArrowLeft","false","","","original","2","18","","",""
"html-keyboard-response","302","1433023","0.0-4.0-2.1-1.59","spark_pilot_2","7411","6","17","Male","","","","","","","null","<div style=""font-size:60px;"">+</div>","null","fixation","","","","","","","","","","","19","","",""
"revaluation","303","1439027","0.0-4.0-2.1-0.60","spark_pilot_2","7411","6","17","Male","","false","","","","","[409.59999990463257,398.60000002384186]","./assets/img/ocean/memory/41.jpg","[""ArrowUp"",""ArrowLeft""]","value training","ocean","26","{""ArrowUp,ArrowLeft"":26,""ArrowUp,ArrowRight"":10,""ArrowDown,ArrowLeft"":5,""ArrowDown,ArrowRight"":17}","true","ArrowUp,ArrowLeft","false","","","original","2","20","","",""
