"trial_type","trial_index","time_elapsed","internal_node_id","task_version","subject_id","assigned_condition","age","gender","success","timeout","failed_images","failed_audio","failed_video","browser_interaction","rt","stimulus","response","task_part","environment","score","rewardMap","correct","fullState","isCatch","numberMissed","duration","condition","order","trial_num","key_press","ground_truth","bonus"
"pavlovia","0","1083","0.0-0.0","spark_pilot_2","7098","4","7","Male","","","","","","","","","","","","","","","","","","","","","","","",""
"preload","1","18104","0.0-1.0","spark_pilot_2","7098","4","7","Male","true","false","[]","[]","[]","[{""event"":""fullscreenenter"",""trial"":2,""time"":29478}]","","","","","","","","","","","","","","","","","",""
"fullscreen","2","30479","0.0-2.0","spark_pilot_2","7098","4","7","Male","true","","","","","","","","","","","","","","","","","","","","","","",""
"audio-button-response","3","34517","0.0-3.0-0.0-0.0","spark_pilot_2","7098","4","7","Male","","","","","","","3909","./assets/audio/audiotest/turtle.mp3","2","audio_test","","","","","","","","","","","","","",""
"learning-instructions","4","45134","0.0-3.0-1.0-0.0","spark_pilot_2","7098","4","7","Male","","","","","","","2911.100000023842","<p> Welcome! Please remember to stay in fullscreen mode and don't click away from the experiment. </p>","","instructions","","","","","","","","","","","","","",""
"learning-instructions","5","56311","0.0-3.0-1.0-0.1","spark_pilot_2","7098","4","7","Male","","","","","","","1889","<p> Today you will be playing a game to earn treasure. </p>
            <p> At the end of the experiment, you will earn a bonus based on how much treasure you find. </p>
            <img src='./assets/img/instructions/treasure.jpg' class='instructions-image'>","","instructions","","","","","","","","","","","","","",""
"learning-instructions","6","67227","0.0-3.0-1.0-0.2","spark_pilot_2","7098","4","7","Male","","","","","","","1694.699999988079","<p> Animals have hidden treasure in treasure chests. </p>
            <p> You need to first find an animal and then choose which of their treasure chests to search. </p>
            <img src='./assets/img/space/animals/cat.jpg' class='instructions-image'>","","instructions","","","","","","","","","","","","","",""
"learning-instructions","7","83252","0.0-3.0-1.0-0.3","spark_pilot_2","7098","4","7","Male","","","","","","","1918.800000011921","<p> In each round, you will search for treasure in a different place. In the real game, there will be two rounds. </p>
            <p> You will begin with a separate, practice round where you will search for treasure in outer space. </p>
            <img src='./assets/img/space/0.jpg' class='instructions-image'>","","instructions","","","","","","","","","","","","","",""
"learning-instructions","8","97603","0.0-3.0-1.0-0.4","spark_pilot_2","7098","4","7","Male","","","","","","","2051.399999976158","<p> On every turn, you will see a picture of the place that you are in, but the specific image may be different each time. </p>
            <p> For example, both of these images mean you are in outer space. </p>
            <img src='./assets/img/instructions/outerspace.jpg' class='instructions-image'>","","instructions","","","","","","","","","","","","","",""
"learning-instructions","9","108096","0.0-3.0-1.0-0.5","spark_pilot_2","7098","4","7","Male","","","","","","","1839.1000000238419","<p> You need to decide which direction to travel in. </p>
            <p> You can choose between going <b>up or down</b> by using the arrow keys. </p>
            <img src='./assets/img/instructions/updown.jpg' class='instructions-image'>","","instructions","","","","","","","","","","","","","",""
"learning-instructions","10","119633","0.0-3.0-1.0-0.6","spark_pilot_2","7098","4","7","Male","","","","","","","1866.2999999523163","<p> You will have <b>2 seconds</b> to make your choice. </p>
            <p> If you do not make a choice within 2 seconds, you will not find an animal or earn treasure. </p>
            <img src='./assets/img/instructions/2seconds.jpg' class='instructions-image'>","","instructions","","","","","","","","","","","","","",""
"learning-instructions","11","129146","0.0-3.0-1.0-0.7","spark_pilot_2","7098","4","7","Male","","","","","","","1668.7999999523163","<p> Let’s try practicing that now! </p>
            <p> When you see a picture of the place you are in, press the <b>up</b> key to travel up. </p>
            <img src='./assets/img/instructions/pressUp.jpg' class='instructions-image'>","","instructions","","","","","","","","","","","","","",""
"revaluation","12","133166","0.0-3.0-2.0-0.0","spark_pilot_2","7098","4","7","Male","","false","","","","","[1632.300000011921]","./assets/img/space/0.jpg","[""ArrowUp""]","first stage practice","space","0","null","null","ArrowUp","false","","","","","","","",""
"html-keyboard-response","13","133676","0.0-3.0-2.0-1.0","spark_pilot_2","7098","4","7","Male","","","","","","","null","<div style=""font-size:60px;"">+</div>","null","fixation","","","","","","","","","","","","","",""
"revaluation","14","137688","0.0-3.0-2.0-0.1","spark_pilot_2","7098","4","7","Male","","false","","","","","[1582.1000000238419]","./assets/img/space/1.jpg","[""ArrowUp""]","first stage practice","space","0","null","null","ArrowUp","false","","","","","","","",""
"html-keyboard-response","15","138198","0.0-3.0-2.0-1.1","spark_pilot_2","7098","4","7","Male","","","","","","","null","<div style=""font-size:60px;"">+</div>","null","fixation","","","","","","","","","","","","","",""
"revaluation","16","142220","0.0-3.0-2.0-0.2","spark_pilot_2","7098","4","7","Male","","false","","","","","[1353]","./assets/img/space/2.jpg","[""ArrowUp""]","first stage practice","space","0","null","null","ArrowUp","false","","","","","","","",""
"html-keyboard-response","17","142735","0.0-3.0-2.0-1.2","spark_pilot_2","7098","4","7","Male","","","","","","","null","<div style=""font-size:60px;"">+</div>","null","fixation","","","","","","","","","","","","","",""
"learning-instructions","18","149133","0.0-3.0-3.0-0.0","spark_pilot_2","7098","4","7","Male","","","","","","","1697.300000011921","<p> Great job! Now try pressing the <b>down</b> key to travel down. </p>
            <img src='./assets/img/instructions/pressDown.jpg' class='instructions-image'>","","instructions","","","","","","","","","","","","","",""
"revaluation","19","153157","0.0-3.0-4.0-0.0","spark_pilot_2","7098","4","7","Male","","false","","","","","[951.2000000476837]","./assets/img/space/3.jpg","[""ArrowDown""]","first stage practice","space","0","null","null","ArrowDown","false","","","","","","","",""
"html-keyboard-response","20","153660","0.0-3.0-4.0-1.0","spark_pilot_2","7098","4","7","Male","","","","","","","null","<div style=""font-size:60px;"">+</div>","null","fixation","","","","","","","","","","","","","",""
"revaluation","21","157677","0.0-3.0-4.0-0.1","spark_pilot_2","7098","4","7","Male","","false","","","","","[661.1000000238419]","./assets/img/space/4.jpg","[""ArrowDown""]","first stage practice","space","0","null","null","ArrowDown","false","","","","","","","",""
"html-keyboard-response","22","158192","0.0-3.0-4.0-1.1","spark_pilot_2","7098","4","7","Male","","","","","","","null","<div style=""font-size:60px;"">+</div>","null","fixation","","","","","","","","","","","","","",""
"revaluation","23","162211","0.0-3.0-4.0-0.2","spark_pilot_2","7098","4","7","Male","","true","","","","","[]","./assets/img/space/5.jpg","[]","first stage practice","space","-5","null","null","","false","","","","","","","",""
"html-keyboard-response","24","162715","0.0-3.0-4.0-1.2","spark_pilot_2","7098","4","7","Male","","","","","","","null","<div style=""font-size:60px;"">+</div>","null","fixation","","","","","","","","","","","","","",""
"learning-instructions","25","174393","0.0-3.0-5.0-0.0","spark_pilot_2","7098","4","7","Male","","","","","","","1828","<p> The animals don’t move, so the animal in the upper part of a place will stay in the upper part of a place, and the animal in the lower part of a place will stay in the lower part of a place. </p>","","instructions","","","","","","","","","","","","","",""
"learning-instructions","26","184919","0.0-3.0-5.0-0.1","spark_pilot_2","7098","4","7","Male","","","","","","","1404.5","<p> Each animal has two treasure chests for you to choose from. </p>
            <p> The amount of treasure in each chest can range from <b> 0 to 40 pieces.</b></p>","","instructions","","","","","","","","","","","","","",""
"learning-instructions","27","197948","0.0-3.0-5.0-0.2","spark_pilot_2","7098","4","7","Male","","","","","","","1850.300000011921","<p> You should decide which chest to search for treasure by using the <b>left</b> and <b>right</b> arrow keys. </p>
            <p><b> Pay attention to which animal is on the screen, as the animals have different treasure chests. </b></p>
            <img src='./assets/img/instructions/leftright.jpg' class='instructions-image'>","","instructions","","","","","","","","","","","","","",""
"learning-instructions","28","205995","0.0-3.0-5.0-0.3","spark_pilot_2","7098","4","7","Male","","","","","","","1691.300000011921","<p> Let’s try practicing that now. </p>
            <p> When you see an animal, choose which chest to search for treasure. </p>
            <img src='./assets/img/instructions/chooseChest.jpg' class='instructions-image'>","","instructions","","","","","","","","","","","","","",""
"revaluation","29","210012","0.0-3.0-6.0-0.0","spark_pilot_2","7098","4","7","Male","","false","","","","","[1308.1000000238419]","./assets/img/space/animals/cat.jpg","[""ArrowRight""]","second stage practice","space","36","{""ArrowUp,ArrowLeft"":3,""ArrowUp,ArrowRight"":36,""ArrowDown,ArrowLeft"":15,""ArrowDown,ArrowRight"":23}","true","ArrowUp,ArrowRight","","","","","","","","",""
"html-keyboard-response","30","210518","0.0-3.0-6.0-1.0","spark_pilot_2","7098","4","7","Male","","","","","","","null","<div style=""font-size:60px;"">+</div>","null","fixation","","","","","","","","","","","","","",""
"revaluation","31","214537","0.0-3.0-6.0-0.1","spark_pilot_2","7098","4","7","Male","","false","","","","","[1048.2000000476837]","./assets/img/space/animals/rabbit.jpg","[""ArrowLeft""]","second stage practice","space","15","{""ArrowUp,ArrowLeft"":3,""ArrowUp,ArrowRight"":36,""ArrowDown,ArrowLeft"":15,""ArrowDown,ArrowRight"":23}","false","ArrowDown,ArrowLeft","","","","","","","","",""
"html-keyboard-response","32","215043","0.0-3.0-6.0-1.1","spark_pilot_2","7098","4","7","Male","","","","","","","null","<div style=""font-size:60px;"">+</div>","null","fixation","","","","","","","","","","","","","",""
"revaluation","33","219060","0.0-3.0-6.0-0.2","spark_pilot_2","7098","4","7","Male","","false","","","","","[888.2999999523163]","./assets/img/space/animals/cat.jpg","[""ArrowRight""]","second stage practice","space","36","{""ArrowUp,ArrowLeft"":3,""ArrowUp,ArrowRight"":36,""ArrowDown,ArrowLeft"":15,""ArrowDown,ArrowRight"":23}","true","ArrowUp,ArrowRight","","","","","","","","",""
"html-keyboard-response","34","219568","0.0-3.0-6.0-1.2","spark_pilot_2","7098","4","7","Male","","","","","","","null","<div style=""font-size:60px;"">+</div>","null","fixation","","","","","","","","","","","","","",""
"revaluation","35","223592","0.0-3.0-6.0-0.3","spark_pilot_2","7098","4","7","Male","","false","","","","","[831.3000000119209]","./assets/img/space/animals/rabbit.jpg","[""ArrowLeft""]","second stage practice","space","15","{""ArrowUp,ArrowLeft"":3,""ArrowUp,ArrowRight"":36,""ArrowDown,ArrowLeft"":15,""ArrowDown,ArrowRight"":23}","false","ArrowDown,ArrowLeft","","","","","","","","",""
"html-keyboard-response","36","224103","0.0-3.0-6.0-1.3","spark_pilot_2","7098","4","7","Male","","","","","","","null","<div style=""font-size:60px;"">+</div>","null","fixation","","","","","","","","","","","","","",""
"learning-instructions","37","243019","0.0-3.0-7.0-0.0","spark_pilot_2","7098","4","7","Male","","","","","","","1125.699999988079","<p> Great job. Now let’s try putting it together. </p>
            <p> On each turn, you will first see a picture to remind you of the place you are in, and you need to choose whether to go up or down. </p>
            <p> Then you will see an animal and choose which of its chests to search for treasure. </p>","","instructions","","","","","","","","","","","","","",""
"learning-instructions","38","254113","0.0-3.0-7.0-0.1","spark_pilot_2","7098","4","7","Male","","","","","","","1974.800000011921","<p> When you choose whether to go up or down, try to go to the animal with the chest with the most treasure. </p>
            <p> Try practicing that now! </p>","","instructions","","","","","","","","","","","","","",""
"revaluation","39","260142","0.0-3.0-8.0-0.0","spark_pilot_2","7098","4","7","Male","","false","","","","","[1147.4000000357628,1585.5999999642372]","./assets/img/space/6.jpg","[""ArrowUp"",""ArrowRight""]","full practice","space","36","{""ArrowUp,ArrowLeft"":3,""ArrowUp,ArrowRight"":36,""ArrowDown,ArrowLeft"":15,""ArrowDown,ArrowRight"":23}","true","ArrowUp,ArrowRight","false","","","","","","","",""
"html-keyboard-response","40","260651","0.0-3.0-8.0-1.0","spark_pilot_2","7098","4","7","Male","","","","","","","null","<div style=""font-size:60px;"">+</div>","null","fixation","","","","","","","","","","","","","",""
"revaluation","41","266677","0.0-3.0-8.0-0.1","spark_pilot_2","7098","4","7","Male","","false","","","","","[1242.199999988079,780.3000000119209]","./assets/img/space/7.jpg","[""ArrowDown"",""ArrowLeft""]","full practice","space","15","{""ArrowUp,ArrowLeft"":3,""ArrowUp,ArrowRight"":36,""ArrowDown,ArrowLeft"":15,""ArrowDown,ArrowRight"":23}","false","ArrowDown,ArrowLeft","false","","","","","","","",""
"html-keyboard-response","42","267193","0.0-3.0-8.0-1.1","spark_pilot_2","7098","4","7","Male","","","","","","","null","<div style=""font-size:60px;"">+</div>","null","fixation","","","","","","","","","","","","","",""
"revaluation","43","271214","0.0-3.0-8.0-0.2","spark_pilot_2","7098","4","7","Male","","true","","","","","[]","./assets/img/space/8.jpg","[]","full practice","space","-5","{""ArrowUp,ArrowLeft"":3,""ArrowUp,ArrowRight"":36,""ArrowDown,ArrowLeft"":15,""ArrowDown,ArrowRight"":23}","false","","false","","","","","","","",""
"html-keyboard-response","44","271726","0.0-3.0-8.0-1.2","spark_pilot_2","7098","4","7","Male","","","","","","","null","<div style=""font-size:60px;"">+</div>","null","fixation","","","","","","","","","","","","","",""
"revaluation","45","277757","0.0-3.0-8.0-0.3","spark_pilot_2","7098","4","7","Male","","false","","","","","[1011.6000000238419,1036.199999988079]","./assets/img/space/9.jpg","[""ArrowDown"",""ArrowLeft""]","full practice","space","15","{""ArrowUp,ArrowLeft"":3,""ArrowUp,ArrowRight"":36,""ArrowDown,ArrowLeft"":15,""ArrowDown,ArrowRight"":23}","false","ArrowDown,ArrowLeft","false","","","","","","","",""
"html-keyboard-response","46","278261","0.0-3.0-8.0-1.3","spark_pilot_2","7098","4","7","Male","","","","","","","null","<div style=""font-size:60px;"">+</div>","null","fixation","","","","","","","","","","","","","",""
"revaluation","47","282278","0.0-3.0-8.0-0.4","spark_pilot_2","7098","4","7","Male","","true","","","","","[]","./assets/img/space/10.jpg","[]","full practice","space","-5","{""ArrowUp,ArrowLeft"":3,""ArrowUp,ArrowRight"":36,""ArrowDown,ArrowLeft"":15,""ArrowDown,ArrowRight"":23}","false","","false","","","","","","","",""
"html-keyboard-response","48","282790","0.0-3.0-8.0-1.4","spark_pilot_2","7098","4","7","Male","","","","","","","null","<div style=""font-size:60px;"">+</div>","null","fixation","","","","","","","","","","","","","",""
"learning-instructions","49","300897","0.0-3.0-9.0-0.0","spark_pilot_2","7098","4","7","Male","","","","","","","3045.5","<p> One last thing: sometimes, you will see a robber. The robber can be anywhere in the picture. </p>
            <p> If you do not stop them, you will lose treasure. </p>
            <img src='./assets/img/instructions/robber.jpg' class='instructions-image'>","","instructions","","","","","","","","","","","","","",""
"learning-instructions","50","310467","0.0-3.0-9.0-0.1","spark_pilot_2","7098","4","7","Male","","","","","","","1452.4000000357628","<p> If you see the robber, you should <b>press the space bar</b> rather than using the arrow keys. </p>
            <p> Try practicing that now! </p>","","instructions","","","","","","","","","","","","","",""
"revaluation","51","314481","0.0-3.0-10.0-0.0","spark_pilot_2","7098","4","7","Male","","false","","","","","[1190.2999999523163]","./assets/img/space/catch/0.jpg","[""spaceBar""]","catch practice","space","0","{""ArrowUp,ArrowLeft"":3,""ArrowUp,ArrowRight"":36,""ArrowDown,ArrowLeft"":15,""ArrowDown,ArrowRight"":23}","true","spaceBar","true","","","","","","","",""
"html-keyboard-response","52","314994","0.0-3.0-10.0-1.0","spark_pilot_2","7098","4","7","Male","","","","","","","null","<div style=""font-size:60px;"">+</div>","null","fixation","","","","","","","","","","","","","",""
"revaluation","53","319017","0.0-3.0-10.0-0.1","spark_pilot_2","7098","4","7","Male","","false","","","","","[866.5]","./assets/img/space/catch/1.jpg","[""spaceBar""]","catch practice","space","0","{""ArrowUp,ArrowLeft"":3,""ArrowUp,ArrowRight"":36,""ArrowDown,ArrowLeft"":15,""ArrowDown,ArrowRight"":23}","true","spaceBar","true","","","","","","","",""
"html-keyboard-response","54","319529","0.0-3.0-10.0-1.1","spark_pilot_2","7098","4","7","Male","","","","","","","null","<div style=""font-size:60px;"">+</div>","null","fixation","","","","","","","","","","","","","",""
"revaluation","55","323545","0.0-3.0-10.0-0.2","spark_pilot_2","7098","4","7","Male","","false","","","","","[981.8000000119209]","./assets/img/space/catch/2.jpg","[""spaceBar""]","catch practice","space","0","{""ArrowUp,ArrowLeft"":3,""ArrowUp,ArrowRight"":36,""ArrowDown,ArrowLeft"":15,""ArrowDown,ArrowRight"":23}","true","spaceBar","true","","","","","","","",""
"html-keyboard-response","56","324055","0.0-3.0-10.0-1.2","spark_pilot_2","7098","4","7","Male","","","","","","","null","<div style=""font-size:60px;"">+</div>","null","fixation","","","","","","","","","","","","","",""
"learning-instructions","57","341182","0.0-3.0-11.0-0.0","spark_pilot_2","7098","4","7","Male","","","","","","","2208.899999976158","<p> After you explore a place to find treasure, it will be time to play a different game. </p>
            <p> During this game, red dots will appear on the screen and fall down slowly. </p>
            <p><b> You must click on them before they reach the bottom. </b></p>
            <img src='./assets/img/instructions/dotGame.jpg' class='instructions-image'>","","instructions","","","","","","","","","","","","","",""
"learning-instructions","58","348892","0.0-3.0-11.0-0.1","spark_pilot_2","7098","4","7","Male","","","","","","","1294.8999999761581","<p> For every dot you click, you will earn additional treasure. </p>
            <p> Let’s try practicing that now. </p>","","instructions","","","","","","","","","","","","","",""
"revaluation","59","363906","0.0-3.0-12.0-0.0","spark_pilot_2","7098","4","7","Male","","","","","","","[268]","","","rest practice","","10","","","","","0","15000","","","","","",""
"learning-instructions","60","371376","0.0-3.0-13.0-0.0-0.0","spark_pilot_2","7098","4","7","Male","","","","","","","1465.5","<p> Now, you will practice a shortened version of the game to get a sense of how it all fits together. </p>","","instructions","","","","","","","","","","","","","",""
"learning-instructions","61","376820","0.0-3.0-13.0-0.0-0.1","spark_pilot_2","7098","4","7","Male","","","","","","","1383.1000000238419","<p>This time you are searching for treasure in outer space.</p>","","instructions","","","","","","","","","","","","","",""
"learning-instructions","62","392272","0.0-3.0-13.0-1.0-0.0","spark_pilot_2","7098","4","7","Male","","","","","","","696.1999999880791","<p> Remember, when you see a picture of the place, use the up and down keys to <b>find an animal</b>.</p>
            <p> When you encounter an animal, you should use the left and right keys to <b>select a treasure chest</b>.</p>
            <p> Don't forget to look out for the robber! </p>","","instructions","","","","","","","","","","","","","",""
"revaluation","63","396297","0.0-3.0-13.0-2.0-0.0","spark_pilot_2","7098","4","7","Male","","true","","","","","[]","./assets/img/space/11.jpg","[]","practice block","space","-5","{""ArrowUp,ArrowLeft"":3,""ArrowUp,ArrowRight"":36,""ArrowDown,ArrowLeft"":15,""ArrowDown,ArrowRight"":23}","false","","false","","","","","","","",""
"html-keyboard-response","64","396809","0.0-3.0-13.0-2.0-1.0","spark_pilot_2","7098","4","7","Male","","","","","","","null","<div style=""font-size:60px;"">+</div>","null","fixation","","","","","","","","","","","","","",""
"revaluation","65","400833","0.0-3.0-13.0-2.0-0.1","spark_pilot_2","7098","4","7","Male","","true","","","","","[]","./assets/img/space/12.jpg","[]","practice block","space","-5","{""ArrowUp,ArrowLeft"":3,""ArrowUp,ArrowRight"":36,""ArrowDown,ArrowLeft"":15,""ArrowDown,ArrowRight"":23}","false","","false","","","","","","","",""
"html-keyboard-response","66","401340","0.0-3.0-13.0-2.0-1.1","spark_pilot_2","7098","4","7","Male","","","","","","","null","<div style=""font-size:60px;"">+</div>","null","fixation","","","","","","","","","","","","","",""
"revaluation","67","407372","0.0-3.0-13.0-2.0-0.2","spark_pilot_2","7098","4","7","Male","","false","","","","","[903.6999999880791,1095.9000000357628]","./assets/img/space/13.jpg","[""ArrowDown"",""ArrowLeft""]","practice block","space","15","{""ArrowUp,ArrowLeft"":3,""ArrowUp,ArrowRight"":36,""ArrowDown,ArrowLeft"":15,""ArrowDown,ArrowRight"":23}","false","ArrowDown,ArrowLeft","false","","","","","","","",""
"html-keyboard-response","68","407877","0.0-3.0-13.0-2.0-1.2","spark_pilot_2","7098","4","7","Male","","","","","","","null","<div style=""font-size:60px;"">+</div>","null","fixation","","","","","","","","","","","","","",""
"revaluation","69","413906","0.0-3.0-13.0-2.0-0.3","spark_pilot_2","7098","4","7","Male","","false","","","","","[1380.6000000238419,1483]","./assets/img/space/14.jpg","[""ArrowUp"",""ArrowLeft""]","practice block","space","3","{""ArrowUp,ArrowLeft"":3,""ArrowUp,ArrowRight"":36,""ArrowDown,ArrowLeft"":15,""ArrowDown,ArrowRight"":23}","false","ArrowUp,ArrowLeft","false","","","","","","","",""
"html-keyboard-response","70","414417","0.0-3.0-13.0-2.0-1.3","spark_pilot_2","7098","4","7","Male","","","","","","","null","<div style=""font-size:60px;"">+</div>","null","fixation","","","","","","","","","","","","","",""
"revaluation","71","420448","0.0-3.0-13.0-2.0-0.4","spark_pilot_2","7098","4","7","Male","","false","","","","","[1579.5,823.5]","./assets/img/space/11.jpg","[""ArrowUp"",""ArrowRight""]","practice block","space","36","{""ArrowUp,ArrowLeft"":3,""ArrowUp,ArrowRight"":36,""ArrowDown,ArrowLeft"":15,""ArrowDown,ArrowRight"":23}","true","ArrowUp,ArrowRight","false","","","","","","","",""
"html-keyboard-response","72","420957","0.0-3.0-13.0-2.0-1.4","spark_pilot_2","7098","4","7","Male","","","","","","","null","<div style=""font-size:60px;"">+</div>","null","fixation","","","","","","","","","","","","","",""
"revaluation","73","426986","0.0-3.0-13.0-2.0-0.5","spark_pilot_2","7098","4","7","Male","","false","","","","","[1218.8999999761581,766.3000000119209]","./assets/img/space/12.jpg","[""ArrowDown"",""ArrowRight""]","practice block","space","23","{""ArrowUp,ArrowLeft"":3,""ArrowUp,ArrowRight"":36,""ArrowDown,ArrowLeft"":15,""ArrowDown,ArrowRight"":23}","false","ArrowDown,ArrowRight","false","","","","","","","",""
"html-keyboard-response","74","427498","0.0-3.0-13.0-2.0-1.5","spark_pilot_2","7098","4","7","Male","","","","","","","null","<div style=""font-size:60px;"">+</div>","null","fixation","","","","","","","","","","","","","",""
"revaluation","75","433529","0.0-3.0-13.0-2.0-0.6","spark_pilot_2","7098","4","7","Male","","false","","","","","[1685.1000000238419,1109.7999999523163]","./assets/img/space/13.jpg","[""ArrowUp"",""ArrowLeft""]","practice block","space","3","{""ArrowUp,ArrowLeft"":3,""ArrowUp,ArrowRight"":36,""ArrowDown,ArrowLeft"":15,""ArrowDown,ArrowRight"":23}","false","ArrowUp,ArrowLeft","false","","","","","","","",""
"html-keyboard-response","76","434041","0.0-3.0-13.0-2.0-1.6","spark_pilot_2","7098","4","7","Male","","","","","","","null","<div style=""font-size:60px;"">+</div>","null","fixation","","","","","","","","","","","","","",""
"revaluation","77","438063","0.0-3.0-13.0-2.0-0.7","spark_pilot_2","7098","4","7","Male","","true","","","","","[]","./assets/img/space/14.jpg","[]","practice block","space","-5","{""ArrowUp,ArrowLeft"":3,""ArrowUp,ArrowRight"":36,""ArrowDown,ArrowLeft"":15,""ArrowDown,ArrowRight"":23}","false","","false","","","","","","","",""
"html-keyboard-response","78","438576","0.0-3.0-13.0-2.0-1.7","spark_pilot_2","7098","4","7","Male","","","","","","","null","<div style=""font-size:60px;"">+</div>","null","fixation","","","","","","","","","","","","","",""
"revaluation","79","442593","0.0-3.0-13.0-2.0-0.8","spark_pilot_2","7098","4","7","Male","","false","","","","","[443.89999997615814]","./assets/img/space/catch/3.jpg","[""ArrowUp""]","practice block","space","-10","{""ArrowUp,ArrowLeft"":3,""ArrowUp,ArrowRight"":36,""ArrowDown,ArrowLeft"":15,""ArrowDown,ArrowRight"":23}","false","ArrowUp","true","","","","","","","",""
"html-keyboard-response","80","443102","0.0-3.0-13.0-2.0-1.8","spark_pilot_2","7098","4","7","Male","","","","","","","null","<div style=""font-size:60px;"">+</div>","null","fixation","","","","","","","","","","","","","",""
"learning-instructions","81","458586","0.0-3.0-13.0-3.0-0.0","spark_pilot_2","7098","4","7","Male","","","","","","","1473.699999988079","<p> Now, you will travel with a friend who will choose whether you go up or down first. </p>
            <p> On these turns, you will just see the animal that they found. You will still get to choose which chest to search for treasure.</p>","","instructions","","","","","","","","","","","","","",""
"revaluation","82","462606","0.0-3.0-13.0-4.0-0.0","spark_pilot_2","7098","4","7","Male","","true","","","","","[]","./assets/img/space/animals/rabbit.jpg","[]","practice block","space","-5","{""ArrowUp,ArrowLeft"":3,""ArrowUp,ArrowRight"":36,""ArrowDown,ArrowLeft"":15,""ArrowDown,ArrowRight"":23}","false","ArrowDown","","","","","","","","",""
"html-keyboard-response","83","463110","0.0-3.0-13.0-4.0-1.0","spark_pilot_2","7098","4","7","Male","","","","","","","null","<div style=""font-size:60px;"">+</div>","null","fixation","","","","","","","","","","","","","",""
"revaluation","84","467130","0.0-3.0-13.0-4.0-0.1","spark_pilot_2","7098","4","7","Male","","false","","","","","[865.1000000238419]","./assets/img/space/animals/cat.jpg","[""ArrowRight""]","practice block","space","36","{""ArrowUp,ArrowLeft"":3,""ArrowUp,ArrowRight"":36,""ArrowDown,ArrowLeft"":15,""ArrowDown,ArrowRight"":23}","true","ArrowUp,ArrowRight","","","","","","","","",""
"html-keyboard-response","85","467637","0.0-3.0-13.0-4.0-1.1","spark_pilot_2","7098","4","7","Male","","","","","","","null","<div style=""font-size:60px;"">+</div>","null","fixation","","","","","","","","","","","","","",""
"revaluation","86","471655","0.0-3.0-13.0-4.0-0.2","spark_pilot_2","7098","4","7","Male","","false","","","","","[709.5]","./assets/img/space/animals/cat.jpg","[""ArrowLeft""]","practice block","space","3","{""ArrowUp,ArrowLeft"":3,""ArrowUp,ArrowRight"":36,""ArrowDown,ArrowLeft"":15,""ArrowDown,ArrowRight"":23}","false","ArrowUp,ArrowLeft","","","","","","","","",""
"html-keyboard-response","87","472167","0.0-3.0-13.0-4.0-1.2","spark_pilot_2","7098","4","7","Male","","","","","","","null","<div style=""font-size:60px;"">+</div>","null","fixation","","","","","","","","","","","","","",""
"revaluation","88","476185","0.0-3.0-13.0-4.0-0.3","spark_pilot_2","7098","4","7","Male","","false","","","","","[602.6999999880791]","./assets/img/space/animals/rabbit.jpg","[""ArrowRight""]","practice block","space","23","{""ArrowUp,ArrowLeft"":3,""ArrowUp,ArrowRight"":36,""ArrowDown,ArrowLeft"":15,""ArrowDown,ArrowRight"":23}","true","ArrowDown,ArrowRight","","","","","","","","",""
"html-keyboard-response","89","476697","0.0-3.0-13.0-4.0-1.3","spark_pilot_2","7098","4","7","Male","","","","","","","null","<div style=""font-size:60px;"">+</div>","null","fixation","","","","","","","","","","","","","",""
"learning-instructions","90","487338","0.0-3.0-13.0-5.0-0.0","spark_pilot_2","7098","4","7","Male","","","","","","","2416.199999988079","<p> Time to play the dot game! </p>
            <p> For 15 seconds, click the red dots on the following screen as they appear. </p>","","instructions","","","","","","","","","","","","","",""
"revaluation","91","502344","0.0-3.0-13.0-6.0-0.0","spark_pilot_2","7098","4","7","Male","","","","","","","[78,61]","","","rest practice","","20","","","","","0","15000","","","","","",""
"learning-instructions","92","511135","0.0-3.0-13.0-7.0-0.0","spark_pilot_2","7098","4","7","Male","","","","","","","1786.800000011921","<p> You have almost finished this part of the game! </p>
            <p> We are going to ask you to make a few more choices. </p>","","instructions","","","","","","","","","","","","","",""
"learning-instructions","93","529783","0.0-3.0-13.0-7.0-0.1","spark_pilot_2","7098","4","7","Male","","","","","","","2771.7999999523163","<p> First, you need to decide whether to go up or down. When you see each picture, use the arrow keys to make your choice. </p>
            <p><b>You will not see which animal you found, but try to get to the one that will give you the most treasure.</b></p>","","instructions","","","","","","","","","","","","","",""
"revaluation","94","530963","0.0-3.0-13.0-8.0","spark_pilot_2","7098","4","7","Male","","false","","","","","[1178.699999988079]","./assets/img/space/15.jpg","[""ArrowUp""]","practice block","space","0","{""ArrowUp,ArrowLeft"":3,""ArrowUp,ArrowRight"":36,""ArrowDown,ArrowLeft"":15,""ArrowDown,ArrowRight"":23}","true","ArrowUp","false","","","","","","","",""
"html-keyboard-response","95","531471","0.0-3.0-13.0-9.0","spark_pilot_2","7098","4","7","Male","","","","","","","null","<div style=""font-size:60px;"">+</div>","null","fixation","","","","","","","","","","","","","",""
"learning-instructions","96","545047","0.0-3.0-13.0-10.0-0.0","spark_pilot_2","7098","4","7","Male","","","","","","","1311","<p> Now you will see the animals again and can search their chests for treasure. </p>
            <p> This time, you will not see how much treasure you earned, but you will earn more bonus money for making better choices. </p>","","instructions","","","","","","","","","","","","","",""
"revaluation","97","546628","0.0-3.0-13.0-11.0-0.0","spark_pilot_2","7098","4","7","Male","","false","","","","","[1579.5]","./assets/img/space/animals/cat.jpg","[""ArrowRight""]","practice block","space","0","{""ArrowUp,ArrowLeft"":3,""ArrowUp,ArrowRight"":36,""ArrowDown,ArrowLeft"":15,""ArrowDown,ArrowRight"":23}","true","ArrowUp,ArrowRight","","","","","","","","",""
"html-keyboard-response","98","547139","0.0-3.0-13.0-11.0-1.0","spark_pilot_2","7098","4","7","Male","","","","","","","null","<div style=""font-size:60px;"">+</div>","null","fixation","","","","","","","","","","","","","",""
"revaluation","99","548341","0.0-3.0-13.0-11.0-0.1","spark_pilot_2","7098","4","7","Male","","false","","","","","[1196.800000011921]","./assets/img/space/animals/rabbit.jpg","[""ArrowLeft""]","practice block","space","0","{""ArrowUp,ArrowLeft"":3,""ArrowUp,ArrowRight"":36,""ArrowDown,ArrowLeft"":15,""ArrowDown,ArrowRight"":23}","false","ArrowDown,ArrowLeft","","","","","","","","",""
"html-keyboard-response","100","548848","0.0-3.0-13.0-11.0-1.1","spark_pilot_2","7098","4","7","Male","","","","","","","null","<div style=""font-size:60px;"">+</div>","null","fixation","","","","","","","","","","","","","",""
"learning-instructions","101","555093","0.0-3.0-14.0-0.0","spark_pilot_2","7098","4","7","Male","","","","","","","870.3999999761581","<p> Before you start, we're going to ask you a few questions about how the game works. </p>","","instructions","","","","","","","","","","","","","",""
"comp-q","102","563085","0.0-3.0-15.0-0.0-0.0","spark_pilot_2","7098","4","7","Male","","","","","","","1627.199999988079","<p> <b> True or False? </b> </p>
            <p> There can be 50 pieces of treasure in a given animal's chest. </p>","1","comp_question","","","","true","","","","","","","","","",""
"comp-q","103","571908","0.0-3.0-15.0-0.0-1.0","spark_pilot_2","7098","4","7","Male","","","","","","","1256.300000011921","<p> <b> That's right! </b> The amount of treasure in each chest can range from 0 to 40 pieces. </p>","0","comp_answer","","","","","","","","","","","","","",""
"comp-q","104","581719","0.0-3.0-15.0-0.1-0.1","spark_pilot_2","7098","4","7","Male","","","","","","","1818.3999999761581","<p> <b> True or False? </b> </p><p> In this game, all animals have the same amount of treasure in their left and right chests. </p>","1","comp_question","","","","true","","","","","","","","","",""
"comp-q","105","589150","0.0-3.0-15.0-0.1-1.1","spark_pilot_2","7098","4","7","Male","","","","","","","1436.9000000357628","<p> <b> That's right! </b> Animals have different amounts of treasure in their treasure chests. </p>","0","comp_answer","","","","","","","","","","","","","",""
"comp-q","106","596793","0.0-3.0-15.0-0.2-0.2","spark_pilot_2","7098","4","7","Male","","","","","","","1015.2000000476837","<p> <b> True or False? </b> </p><p> The same animal will always be there if you go up in the same place. </p>","1","comp_question","","","","false","","","","","","","","","",""
"comp-q","107","605239","0.0-3.0-15.0-0.2-1.2","spark_pilot_2","7098","4","7","Male","","","","","","","1300.8999999761581","<p> <b>Incorrect.</b> One animal lives in the upper part and one lives in the lower part of every place. </p>","0","comp_answer","","","","","","","","","","","","","",""
"comp-q","108","613052","0.0-3.0-15.0-0.3-0.3","spark_pilot_2","7098","4","7","Male","","","","","","","1990.9000000357628","<p> <b> True or False? </b> </p><p> The same animal will always be there if you go up in the same place. </p>","1","comp_question","","","","false","","","","","","","","","",""
"comp-q","109","620635","0.0-3.0-15.0-0.3-1.3","spark_pilot_2","7098","4","7","Male","","","","","","","1301.5","<p> <b>Incorrect.</b> One animal lives in the upper part and one lives in the lower part of every place. </p>","0","comp_answer","","","","","","","","","","","","","",""
"comp-q","110","628027","0.0-3.0-15.0-0.4-0.4","spark_pilot_2","7098","4","7","Male","","","","","","","1567.800000011921","<p> <b> True or False? </b> </p><p> The same animal will always be there if you go up in the same place. </p>","0","comp_question","","","","true","","","","","","","","","",""
"comp-q","111","636294","0.0-3.0-15.0-0.4-1.4","spark_pilot_2","7098","4","7","Male","","","","","","","982.5","<p> <b> That's right! </b> One animal lives in the upper part and one lives in the lower part of every place. </p>","0","comp_answer","","","","","","","","","","","","","",""
"comp-q","112","643531","0.0-3.0-15.0-0.5-0.5","spark_pilot_2","7098","4","7","Male","","","","","","","973.1999999880791","<p> <b> True or False? </b> </p><p> If you see a different picture, it means you are in a new place. </p>","1","comp_question","","","","true","","","","","","","","","",""
"comp-q","113","657133","0.0-3.0-15.0-0.5-1.5","spark_pilot_2","7098","4","7","Male","","","","","","","1470","<p> <b> That's right! </b> Lots of different images may show the same place. For example,  you may see three different images that all remind you that you are in outer space. </p>","0","comp_answer","","","","","","","","","","","","","",""
"learning-instructions","114","669118","0.0-3.0-16.0-0.0","spark_pilot_2","7098","4","7","Male","","","","","","","1267.6000000238419","<p> Good job. Remember to do your best because the amount of treasure you earn will be converted into bonus money. </p>
            <p> It’s time to start the real game! </p>","","instructions","","","","","","","","","","","","","",""
"learning-instructions","115","673968","0.0-4.0-0.0-0.0","spark_pilot_2","7098","4","7","Male","","","","","","","1438.3999999761581","<p> This time you are searching for treasure in the <b>ocean</b>.</p>","","instructions","","","","","","","","","","","","","",""
"learning-instructions","116","693605","0.0-4.0-0.0-0.1","spark_pilot_2","7098","4","7","Male","","","","","","","1322.5999999642372","<p><b>New</b> animals with <b>new</b> treasure chests live here. You need to explore to discover where the animal with the best treasure chest is.</p>
                    <p> Like before, once you figure out which animal has the chest with the most treasure, you should try to get to that animal and select that chest! </p>","","instructions","","","","","","","","","","","","","",""
"learning-instructions","117","709339","0.0-4.0-1.0-0.0","spark_pilot_2","7098","4","7","Male","","","","","","","1003.1000000238419","<p> Remember, when you see a picture of the place, use the up and down keys to <b>find an animal</b>.</p>
            <p> When you encounter an animal, you should use the left and right keys to <b>select a treasure chest</b>.</p>
            <p> Don't forget to look out for the robber! </p>","","instructions","","","","","","","","","","","","","",""
"revaluation","118","715366","0.0-4.0-2.0-0.0","spark_pilot_2","7098","4","7","Male","","false","","","","","[1514.7000000476837,1259.4000000357628]","./assets/img/ocean/memory/34.jpg","[""ArrowDown"",""ArrowRight""]","value training","ocean","17","{""ArrowUp,ArrowLeft"":26,""ArrowUp,ArrowRight"":10,""ArrowDown,ArrowLeft"":5,""ArrowDown,ArrowRight"":17}","false","ArrowDown,ArrowRight","false","","","revaluation","1","0","","",""
"html-keyboard-response","119","715875","0.0-4.0-2.0-1.0","spark_pilot_2","7098","4","7","Male","","","","","","","null","<div style=""font-size:60px;"">+</div>","null","fixation","","","","","","","","","","","1","","",""
"revaluation","120","721899","0.0-4.0-2.0-0.1","spark_pilot_2","7098","4","7","Male","","false","","","","","[1550.800000011921,1040.9000000357628]","./assets/img/ocean/memory/5.jpg","[""ArrowUp"",""ArrowLeft""]","value training","ocean","26","{""ArrowUp,ArrowLeft"":26,""ArrowUp,ArrowRight"":10,""ArrowDown,ArrowLeft"":5,""ArrowDown,ArrowRight"":17}","true","ArrowUp,ArrowLeft","false","","","revaluation","1","2","","",""
"html-keyboard-response","121","722410","0.0-4.0-2.0-1.1","spark_pilot_2","7098","4","7","Male","","","","","","","null","<div style=""font-size:60px;"">+</div>","null","fixation","","","","","","","","","","","3","","",""
"revaluation","122","728435","0.0-4.0-2.0-0.2","spark_pilot_2","7098","4","7","Male","","false","","","","","[493.0999999642372,1396.699999988079]","./assets/img/ocean/memory/0.jpg","[""ArrowDown"",""ArrowRight""]","value training","ocean","17","{""ArrowUp,ArrowLeft"":26,""ArrowUp,ArrowRight"":10,""ArrowDown,ArrowLeft"":5,""ArrowDown,ArrowRight"":17}","false","ArrowDown,ArrowRight","false","","","revaluation","1","4","","",""
"html-keyboard-response","123","728940","0.0-4.0-2.0-1.2","spark_pilot_2","7098","4","7","Male","","","","","","","null","<div style=""font-size:60px;"">+</div>","null","fixation","","","","","","","","","","","5","","",""
"revaluation","124","732959","0.0-4.0-2.0-0.3","spark_pilot_2","7098","4","7","Male","","false","","","","","[1759.1000000238419]","./assets/img/ocean/catch/7.jpg","[""spaceBar""]","value training","ocean","0","{""ArrowUp,ArrowLeft"":26,""ArrowUp,ArrowRight"":10,""ArrowDown,ArrowLeft"":5,""ArrowDown,ArrowRight"":17}","true","spaceBar","true","","","revaluation","1","6","","",""
"html-keyboard-response","125","733470","0.0-4.0-2.0-1.3","spark_pilot_2","7098","4","7","Male","","","","","","","null","<div style=""font-size:60px;"">+</div>","null","fixation","","","","","","","","","","","7","","",""
"revaluation","126","739500","0.0-4.0-2.0-0.4","spark_pilot_2","7098","4","7","Male","","false","","","","","[1130.0999999642372,912.1000000238419]","./assets/img/ocean/memory/2.jpg","[""ArrowUp"",""ArrowLeft""]","value training","ocean","26","{""ArrowUp,ArrowLeft"":26,""ArrowUp,ArrowRight"":10,""ArrowDown,ArrowLeft"":5,""ArrowDown,ArrowRight"":17}","true","ArrowUp,ArrowLeft","false","","","revaluation","1","8","","",""
"html-keyboard-response","127","740011","0.0-4.0-2.0-1.4","spark_pilot_2","7098","4","7","Male","","","","","","","null","<div style=""font-size:60px;"">+</div>","null","fixation","","","","","","","","","","","9","","",""
"revaluation","128","746044","0.0-4.0-2.0-0.5","spark_pilot_2","7098","4","7","Male","","false","","","","","[738.1000000238419,732.7000000476837]","./assets/img/ocean/memory/19.jpg","[""ArrowDown"",""ArrowLeft""]","value training","ocean","5","{""ArrowUp,ArrowLeft"":26,""ArrowUp,ArrowRight"":10,""ArrowDown,ArrowLeft"":5,""ArrowDown,ArrowRight"":17}","false","ArrowDown,ArrowLeft","false","","","revaluation","1","10","","",""
"html-keyboard-response","129","746555","0.0-4.0-2.0-1.5","spark_pilot_2","7098","4","7","Male","","","","","","","null","<div style=""font-size:60px;"">+</div>","null","fixation","","","","","","","","","","","11","","",""
"revaluation","130","750575","0.0-4.0-2.0-0.6","spark_pilot_2","7098","4","7","Male","","true","","","","","[]","./assets/img/ocean/memory/14.jpg","[]","value training","ocean","-5","{""ArrowUp,ArrowLeft"":26,""ArrowUp,ArrowRight"":10,""ArrowDown,ArrowLeft"":5,""ArrowDown,ArrowRight"":17}","false","","false","","","revaluation","1","12","","",""
"html-keyboard-response","131","751083","0.0-4.0-2.0-1.6","spark_pilot_2","7098","4","7","Male","","","","","","","null","<div style=""font-size:60px;"">+</div>","null","fixation","","","","","","","","","","","13","","",""
"revaluation","132","757113","0.0-4.0-2.0-0.7","spark_pilot_2","7098","4","7","Male","","false","","","","","[1567.4000000357628,1043.0999999642372]","./assets/img/ocean/memory/2.jpg","[""ArrowUp"",""ArrowLeft""]","value training","ocean","26","{""ArrowUp,ArrowLeft"":26,""ArrowUp,ArrowRight"":10,""ArrowDown,ArrowLeft"":5,""ArrowDown,ArrowRight"":17}","true","ArrowUp,ArrowLeft","false","","","revaluation","1","14","","",""
"html-keyboard-response","133","757622","0.0-4.0-2.0-1.7","spark_pilot_2","7098","4","7","Male","","","","","","","null","<div style=""font-size:60px;"">+</div>","null","fixation","","","","","","","","","","","15","","",""
"revaluation","134","763656","0.0-4.0-2.0-0.8","spark_pilot_2","7098","4","7","Male","","false","","","","","[480.80000001192093,1372.199999988079]","./assets/img/ocean/memory/33.jpg","[""ArrowUp"",""ArrowRight""]","value training","ocean","10","{""ArrowUp,ArrowLeft"":26,""ArrowUp,ArrowRight"":10,""ArrowDown,ArrowLeft"":5,""ArrowDown,ArrowRight"":17}","false","ArrowUp,ArrowRight","false","","","revaluation","1","16","","",""
"html-keyboard-response","135","764165","0.0-4.0-2.0-1.8","spark_pilot_2","7098","4","7","Male","","","","","","","null","<div style=""font-size:60px;"">+</div>","null","fixation","","","","","","","","","","","17","","",""
"revaluation","136","770198","0.0-4.0-2.0-0.9","spark_pilot_2","7098","4","7","Male","","false","","","","","[1302.6000000238419,816.5]","./assets/img/ocean/memory/6.jpg","[""ArrowDown"",""ArrowLeft""]","value training","ocean","5","{""ArrowUp,ArrowLeft"":26,""ArrowUp,ArrowRight"":10,""ArrowDown,ArrowLeft"":5,""ArrowDown,ArrowRight"":17}","false","ArrowDown,ArrowLeft","false","","","revaluation","1","18","","",""
"html-keyboard-response","137","770709","0.0-4.0-2.0-1.9","spark_pilot_2","7098","4","7","Male","","","","","","","null","<div style=""font-size:60px;"">+</div>","null","fixation","","","","","","","","","","","19","","",""
"revaluation","138","776732","0.0-4.0-2.0-0.10","spark_pilot_2","7098","4","7","Male","","false","","","","","[1003.5,585.8000000119209]","./assets/img/ocean/memory/24.jpg","[""ArrowDown"",""ArrowRight""]","value training","ocean","17","{""ArrowUp,ArrowLeft"":26,""ArrowUp,ArrowRight"":10,""ArrowDown,ArrowLeft"":5,""ArrowDown,ArrowRight"":17}","false","ArrowDown,ArrowRight","false","","","revaluation","1","20","","",""
"html-keyboard-response","139","777243","0.0-4.0-2.0-1.10","spark_pilot_2","7098","4","7","Male","","","","","","","null","<div style=""font-size:60px;"">+</div>","null","fixation","","","","","","","","","","","21","","",""
"revaluation","140","783270","0.0-4.0-2.0-0.11","spark_pilot_2","7098","4","7","Male","","false","","","","","[496.19999998807907,512]","./assets/img/ocean/memory/12.jpg","[""ArrowUp"",""ArrowLeft""]","value training","ocean","26","{""ArrowUp,ArrowLeft"":26,""ArrowUp,ArrowRight"":10,""ArrowDown,ArrowLeft"":5,""ArrowDown,ArrowRight"":17}","true","ArrowUp,ArrowLeft","false","","","revaluation","1","22","","",""
"html-keyboard-response","141","783782","0.0-4.0-2.0-1.11","spark_pilot_2","7098","4","7","Male","","","","","","","null","<div style=""font-size:60px;"">+</div>","null","fixation","","","","","","","","","","","23","","",""
"revaluation","142","787808","0.0-4.0-2.0-0.12","spark_pilot_2","7098","4","7","Male","","true","","","","","[]","./assets/img/ocean/memory/25.jpg","[]","value training","ocean","-5","{""ArrowUp,ArrowLeft"":26,""ArrowUp,ArrowRight"":10,""ArrowDown,ArrowLeft"":5,""ArrowDown,ArrowRight"":17}","false","","false","","","revaluation","1","24","","",""
"html-keyboard-response","143","788315","0.0-4.0-2.0-1.12","spark_pilot_2","7098","4","7","Male","","","","","","","null","<div style=""font-size:60px;"">+</div>","null","fixation","","","","","","","","","","","25","","",""
"revaluation","144","792342","0.0-4.0-2.0-0.13","spark_pilot_2","7098","4","7","Male","","true","","","","","[]","./assets/img/ocean/memory/28.jpg","[]","value training","ocean","-5","{""ArrowUp,ArrowLeft"":26,""ArrowUp,ArrowRight"":10,""ArrowDown,ArrowLeft"":5,""ArrowDown,ArrowRight"":17}","false","","false","","","revaluation","1","26","","",""
"html-keyboard-response","145","792854","0.0-4.0-2.0-1.13","spark_pilot_2","7098","4","7","Male","","","","","","","null","<div style=""font-size:60px;"">+</div>","null","fixation","","","","","","","","","","","27","","",""
"revaluation","146","798886","0.0-4.0-2.0-0.14","spark_pilot_2","7098","4","7","Male","","false","","","","","[433.5,1852.7999999523163]","./assets/img/ocean/memory/19.jpg","[""ArrowDown"",""ArrowLeft""]","value training","ocean","5","{""ArrowUp,ArrowLeft"":26,""ArrowUp,ArrowRight"":10,""ArrowDown,ArrowLeft"":5,""ArrowDown,ArrowRight"":17}","false","ArrowDown,ArrowLeft","false","","","revaluation","1","28","","",""
"html-keyboard-response","147","799398","0.0-4.0-2.0-1.14","spark_pilot_2","7098","4","7","Male","","","","","","","null","<div style=""font-size:60px;"">+</div>","null","fixation","","","","","","","","","","","29","","",""
"revaluation","148","805431","0.0-4.0-2.0-0.15","spark_pilot_2","7098","4","7","Male","","false","","","","","[544.1999999880791,1303.800000011921]","./assets/img/ocean/memory/16.jpg","[""ArrowUp"",""ArrowRight""]","value training","ocean","10","{""ArrowUp,ArrowLeft"":26,""ArrowUp,ArrowRight"":10,""ArrowDown,ArrowLeft"":5,""ArrowDown,ArrowRight"":17}","false","ArrowUp,ArrowRight","false","","","revaluation","1","30","","",""
"html-keyboard-response","149","805942","0.0-4.0-2.0-1.15","spark_pilot_2","7098","4","7","Male","","","","","","","null","<div style=""font-size:60px;"">+</div>","null","fixation","","","","","","","","","","","31","","",""
"revaluation","150","811976","0.0-4.0-2.0-0.16","spark_pilot_2","7098","4","7","Male","","false","","","","","[598.1000000238419,578.0999999642372]","./assets/img/ocean/memory/9.jpg","[""ArrowDown"",""ArrowLeft""]","value training","ocean","5","{""ArrowUp,ArrowLeft"":26,""ArrowUp,ArrowRight"":10,""ArrowDown,ArrowLeft"":5,""ArrowDown,ArrowRight"":17}","false","ArrowDown,ArrowLeft","false","","","revaluation","1","32","","",""
"html-keyboard-response","151","812486","0.0-4.0-2.0-1.16","spark_pilot_2","7098","4","7","Male","","","","","","","null","<div style=""font-size:60px;"">+</div>","null","fixation","","","","","","","","","","","33","","",""
"revaluation","152","818519","0.0-4.0-2.0-0.17","spark_pilot_2","7098","4","7","Male","","false","","","","","[354.5999999642372,456.10000002384186]","./assets/img/ocean/memory/15.jpg","[""ArrowDown"",""ArrowRight""]","value training","ocean","17","{""ArrowUp,ArrowLeft"":26,""ArrowUp,ArrowRight"":10,""ArrowDown,ArrowLeft"":5,""ArrowDown,ArrowRight"":17}","false","ArrowDown,ArrowRight","false","","","revaluation","1","34","","",""
"html-keyboard-response","153","819030","0.0-4.0-2.0-1.17","spark_pilot_2","7098","4","7","Male","","","","","","","null","<div style=""font-size:60px;"">+</div>","null","fixation","","","","","","","","","","","35","","",""
"revaluation","154","825062","0.0-4.0-2.0-0.18","spark_pilot_2","7098","4","7","Male","","false","","","","","[895.5999999642372,411.5]","./assets/img/ocean/memory/15.jpg","[""ArrowUp"",""ArrowLeft""]","value training","ocean","26","{""ArrowUp,ArrowLeft"":26,""ArrowUp,ArrowRight"":10,""ArrowDown,ArrowLeft"":5,""ArrowDown,ArrowRight"":17}","true","ArrowUp,ArrowLeft","false","","","revaluation","1","36","","",""
"html-keyboard-response","155","825573","0.0-4.0-2.0-1.18","spark_pilot_2","7098","4","7","Male","","","","","","","null","<div style=""font-size:60px;"">+</div>","null","fixation","","","","","","","","","","","37","","",""
"revaluation","156","831605","0.0-4.0-2.0-0.19","spark_pilot_2","7098","4","7","Male","","false","","","","","[1719.3999999761581,660.6999999880791]","./assets/img/ocean/memory/27.jpg","[""ArrowDown"",""ArrowRight""]","value training","ocean","17","{""ArrowUp,ArrowLeft"":26,""ArrowUp,ArrowRight"":10,""ArrowDown,ArrowLeft"":5,""ArrowDown,ArrowRight"":17}","false","ArrowDown,ArrowRight","false","","","revaluation","1","38","","",""
"html-keyboard-response","157","832117","0.0-4.0-2.0-1.19","spark_pilot_2","7098","4","7","Male","","","","","","","null","<div style=""font-size:60px;"">+</div>","null","fixation","","","","","","","","","","","39","","",""
"revaluation","158","838152","0.0-4.0-2.0-0.20","spark_pilot_2","7098","4","7","Male","","false","","","","","[392,433.0999999642372]","./assets/img/ocean/memory/0.jpg","[""ArrowUp"",""ArrowLeft""]","value training","ocean","26","{""ArrowUp,ArrowLeft"":26,""ArrowUp,ArrowRight"":10,""ArrowDown,ArrowLeft"":5,""ArrowDown,ArrowRight"":17}","true","ArrowUp,ArrowLeft","false","","","revaluation","1","40","","",""
"html-keyboard-response","159","838662","0.0-4.0-2.0-1.20","spark_pilot_2","7098","4","7","Male","","","","","","","null","<div style=""font-size:60px;"">+</div>","null","fixation","","","","","","","","","","","41","","",""
"revaluation","160","842684","0.0-4.0-2.0-0.21","spark_pilot_2","7098","4","7","Male","","false","","","","","[1342.1000000238419]","./assets/img/ocean/catch/4.jpg","[""spaceBar""]","value training","ocean","0","{""ArrowUp,ArrowLeft"":26,""ArrowUp,ArrowRight"":10,""ArrowDown,ArrowLeft"":5,""ArrowDown,ArrowRight"":17}","true","spaceBar","true","","","revaluation","1","42","","",""
"html-keyboard-response","161","843195","0.0-4.0-2.0-1.21","spark_pilot_2","7098","4","7","Male","","","","","","","null","<div style=""font-size:60px;"">+</div>","null","fixation","","","","","","","","","","","43","","",""
"revaluation","162","849219","0.0-4.0-2.0-0.22","spark_pilot_2","7098","4","7","Male","","false","","","","","[1816.4000000357628,1740.5]","./assets/img/ocean/memory/25.jpg","[""ArrowUp"",""ArrowRight""]","value training","ocean","10","{""ArrowUp,ArrowLeft"":26,""ArrowUp,ArrowRight"":10,""ArrowDown,ArrowLeft"":5,""ArrowDown,ArrowRight"":17}","false","ArrowUp,ArrowRight","false","","","revaluation","1","44","","",""
"html-keyboard-response","163","849723","0.0-4.0-2.0-1.22","spark_pilot_2","7098","4","7","Male","","","","","","","null","<div style=""font-size:60px;"">+</div>","null","fixation","","","","","","","","","","","45","","",""
"revaluation","164","855755","0.0-4.0-2.0-0.23","spark_pilot_2","7098","4","7","Male","","false","","","","","[554.1000000238419,746]","./assets/img/ocean/memory/41.jpg","[""ArrowUp"",""ArrowRight""]","value training","ocean","10","{""ArrowUp,ArrowLeft"":26,""ArrowUp,ArrowRight"":10,""ArrowDown,ArrowLeft"":5,""ArrowDown,ArrowRight"":17}","false","ArrowUp,ArrowRight","false","","","revaluation","1","46","","",""
"html-keyboard-response","165","856261","0.0-4.0-2.0-1.23","spark_pilot_2","7098","4","7","Male","","","","","","","null","<div style=""font-size:60px;"">+</div>","null","fixation","","","","","","","","","","","47","","",""
"revaluation","166","862294","0.0-4.0-2.0-0.24","spark_pilot_2","7098","4","7","Male","","false","","","","","[826.1999999880791,371.89999997615814]","./assets/img/ocean/memory/24.jpg","[""ArrowUp"",""ArrowLeft""]","value training","ocean","26","{""ArrowUp,ArrowLeft"":26,""ArrowUp,ArrowRight"":10,""ArrowDown,ArrowLeft"":5,""ArrowDown,ArrowRight"":17}","true","ArrowUp,ArrowLeft","false","","","revaluation","1","48","","",""
"html-keyboard-response","167","862806","0.0-4.0-2.0-1.24","spark_pilot_2","7098","4","7","Male","","","","","","","null","<div style=""font-size:60px;"">+</div>","null","fixation","","","","","","","","","","","49","","",""
"revaluation","168","868838","0.0-4.0-2.0-0.25","spark_pilot_2","7098","4","7","Male","","false","","","","","[930.0999999642372,732.0999999642372]","./assets/img/ocean/memory/14.jpg","[""ArrowDown"",""ArrowRight""]","value training","ocean","17","{""ArrowUp,ArrowLeft"":26,""ArrowUp,ArrowRight"":10,""ArrowDown,ArrowLeft"":5,""ArrowDown,ArrowRight"":17}","false","ArrowDown,ArrowRight","false","","","revaluation","1","50","","",""
"html-keyboard-response","169","869349","0.0-4.0-2.0-1.25","spark_pilot_2","7098","4","7","Male","","","","","","","null","<div style=""font-size:60px;"">+</div>","null","fixation","","","","","","","","","","","51","","",""
"revaluation","170","875382","0.0-4.0-2.0-0.26","spark_pilot_2","7098","4","7","Male","","false","","","","","[499.69999998807907,660]","./assets/img/ocean/memory/28.jpg","[""ArrowUp"",""ArrowRight""]","value training","ocean","10","{""ArrowUp,ArrowLeft"":26,""ArrowUp,ArrowRight"":10,""ArrowDown,ArrowLeft"":5,""ArrowDown,ArrowRight"":17}","false","ArrowUp,ArrowRight","false","","","revaluation","1","52","","",""
"html-keyboard-response","171","875893","0.0-4.0-2.0-1.26","spark_pilot_2","7098","4","7","Male","","","","","","","null","<div style=""font-size:60px;"">+</div>","null","fixation","","","","","","","","","","","53","","",""
"revaluation","172","881916","0.0-4.0-2.0-0.27","spark_pilot_2","7098","4","7","Male","","false","","","","","[603.0999999642372,445.0999999642372]","./assets/img/ocean/memory/5.jpg","[""ArrowDown"",""ArrowLeft""]","value training","ocean","5","{""ArrowUp,ArrowLeft"":26,""ArrowUp,ArrowRight"":10,""ArrowDown,ArrowLeft"":5,""ArrowDown,ArrowRight"":17}","false","ArrowDown,ArrowLeft","false","","","revaluation","1","54","","",""
"html-keyboard-response","173","882427","0.0-4.0-2.0-1.27","spark_pilot_2","7098","4","7","Male","","","","","","","null","<div style=""font-size:60px;"">+</div>","null","fixation","","","","","","","","","","","55","","",""
"revaluation","174","888454","0.0-4.0-2.0-0.28","spark_pilot_2","7098","4","7","Male","","false","","","","","[553.6999999880791,482.30000001192093]","./assets/img/ocean/memory/32.jpg","[""ArrowUp"",""ArrowRight""]","value training","ocean","10","{""ArrowUp,ArrowLeft"":26,""ArrowUp,ArrowRight"":10,""ArrowDown,ArrowLeft"":5,""ArrowDown,ArrowRight"":17}","false","ArrowUp,ArrowRight","false","","","revaluation","1","56","","",""
"html-keyboard-response","175","888966","0.0-4.0-2.0-1.28","spark_pilot_2","7098","4","7","Male","","","","","","","null","<div style=""font-size:60px;"">+</div>","null","fixation","","","","","","","","","","","57","","",""
"revaluation","176","894998","0.0-4.0-2.0-0.29","spark_pilot_2","7098","4","7","Male","","false","","","","","[489.80000001192093,672.6999999880791]","./assets/img/ocean/memory/31.jpg","[""ArrowDown"",""ArrowLeft""]","value training","ocean","5","{""ArrowUp,ArrowLeft"":26,""ArrowUp,ArrowRight"":10,""ArrowDown,ArrowLeft"":5,""ArrowDown,ArrowRight"":17}","false","ArrowDown,ArrowLeft","false","","","revaluation","1","58","","",""
"html-keyboard-response","177","895510","0.0-4.0-2.0-1.29","spark_pilot_2","7098","4","7","Male","","","","","","","null","<div style=""font-size:60px;"">+</div>","null","fixation","","","","","","","","","","","59","","",""
"revaluation","178","899532","0.0-4.0-2.0-0.30","spark_pilot_2","7098","4","7","Male","","false","","","","","[1242.9000000357628]","./assets/img/ocean/catch/0.jpg","[""spaceBar""]","value training","ocean","0","{""ArrowUp,ArrowLeft"":26,""ArrowUp,ArrowRight"":10,""ArrowDown,ArrowLeft"":5,""ArrowDown,ArrowRight"":17}","true","spaceBar","true","","","revaluation","1","60","","",""
"html-keyboard-response","179","900042","0.0-4.0-2.0-1.30","spark_pilot_2","7098","4","7","Male","","","","","","","null","<div style=""font-size:60px;"">+</div>","null","fixation","","","","","","","","","","","61","","",""
"revaluation","180","906070","0.0-4.0-2.0-0.31","spark_pilot_2","7098","4","7","Male","","false","","","","","[656.5999999642372,385.60000002384186]","./assets/img/ocean/memory/37.jpg","[""ArrowUp"",""ArrowRight""]","value training","ocean","10","{""ArrowUp,ArrowLeft"":26,""ArrowUp,ArrowRight"":10,""ArrowDown,ArrowLeft"":5,""ArrowDown,ArrowRight"":17}","false","ArrowUp,ArrowRight","false","","","revaluation","1","62","","",""
"html-keyboard-response","181","906582","0.0-4.0-2.0-1.31","spark_pilot_2","7098","4","7","Male","","","","","","","null","<div style=""font-size:60px;"">+</div>","null","fixation","","","","","","","","","","","63","","",""
"revaluation","182","912614","0.0-4.0-2.0-0.32","spark_pilot_2","7098","4","7","Male","","false","","","","","[892.8000000119209,545.5]","./assets/img/ocean/memory/12.jpg","[""ArrowUp"",""ArrowLeft""]","value training","ocean","26","{""ArrowUp,ArrowLeft"":26,""ArrowUp,ArrowRight"":10,""ArrowDown,ArrowLeft"":5,""ArrowDown,ArrowRight"":17}","true","ArrowUp,ArrowLeft","false","","","revaluation","1","64","","",""
"html-keyboard-response","183","913128","0.0-4.0-2.0-1.32","spark_pilot_2","7098","4","7","Male","","","","","","","null","<div style=""font-size:60px;"">+</div>","null","fixation","","","","","","","","","","","65","","",""
"revaluation","184","917150","0.0-4.0-2.0-0.33","spark_pilot_2","7098","4","7","Male","","false","","","","","[383.9000000357628]","./assets/img/ocean/catch/3.jpg","[""ArrowDown""]","value training","ocean","-10","{""ArrowUp,ArrowLeft"":26,""ArrowUp,ArrowRight"":10,""ArrowDown,ArrowLeft"":5,""ArrowDown,ArrowRight"":17}","false","ArrowDown","true","","","revaluation","1","66","","",""
"html-keyboard-response","185","917660","0.0-4.0-2.0-1.33","spark_pilot_2","7098","4","7","Male","","","","","","","null","<div style=""font-size:60px;"">+</div>","null","fixation","","","","","","","","","","","67","","",""
"revaluation","186","923692","0.0-4.0-2.0-0.34","spark_pilot_2","7098","4","7","Male","","false","","","","","[1948.5999999642372,881.2999999523163]","./assets/img/ocean/memory/27.jpg","[""ArrowDown"",""ArrowRight""]","value training","ocean","17","{""ArrowUp,ArrowLeft"":26,""ArrowUp,ArrowRight"":10,""ArrowDown,ArrowLeft"":5,""ArrowDown,ArrowRight"":17}","false","ArrowDown,ArrowRight","false","","","revaluation","1","68","","",""
"html-keyboard-response","187","924202","0.0-4.0-2.0-1.34","spark_pilot_2","7098","4","7","Male","","","","","","","null","<div style=""font-size:60px;"">+</div>","null","fixation","","","","","","","","","","","69","","",""
"revaluation","188","928229","0.0-4.0-2.0-0.35","spark_pilot_2","7098","4","7","Male","","false","","","","","[1020.8000000119209]","./assets/img/ocean/catch/6.jpg","[""spaceBar""]","value training","ocean","0","{""ArrowUp,ArrowLeft"":26,""ArrowUp,ArrowRight"":10,""ArrowDown,ArrowLeft"":5,""ArrowDown,ArrowRight"":17}","true","spaceBar","true","","","revaluation","1","70","","",""
"html-keyboard-response","189","928741","0.0-4.0-2.0-1.35","spark_pilot_2","7098","4","7","Male","","","","","","","null","<div style=""font-size:60px;"">+</div>","null","fixation","","","","","","","","","","","71","","",""
"revaluation","190","932764","0.0-4.0-2.0-0.36","spark_pilot_2","7098","4","7","Male","","true","","","","","[]","./assets/img/ocean/memory/35.jpg","[]","value training","ocean","-5","{""ArrowUp,ArrowLeft"":26,""ArrowUp,ArrowRight"":10,""ArrowDown,ArrowLeft"":5,""ArrowDown,ArrowRight"":17}","false","","false","","","revaluation","1","72","","",""
"html-keyboard-response","191","933275","0.0-4.0-2.0-1.36","spark_pilot_2","7098","4","7","Male","","","","","","","null","<div style=""font-size:60px;"">+</div>","null","fixation","","","","","","","","","","","73","","",""
"revaluation","192","937292","0.0-4.0-2.0-0.37","spark_pilot_2","7098","4","7","Male","","false","","","","","[782]","./assets/img/ocean/catch/1.jpg","[""spaceBar""]","value training","ocean","0","{""ArrowUp,ArrowLeft"":26,""ArrowUp,ArrowRight"":10,""ArrowDown,ArrowLeft"":5,""ArrowDown,ArrowRight"":17}","true","spaceBar","true","","","revaluation","1","74","","",""
"html-keyboard-response","193","937803","0.0-4.0-2.0-1.37","spark_pilot_2","7098","4","7","Male","","","","","","","null","<div style=""font-size:60px;"">+</div>","null","fixation","","","","","","","","","","","75","","",""
"revaluation","194","943831","0.0-4.0-2.0-0.38","spark_pilot_2","7098","4","7","Male","","false","","","","","[340.30000001192093,393.2000000476837]","./assets/img/ocean/memory/16.jpg","[""ArrowDown"",""ArrowRight""]","value training","ocean","17","{""ArrowUp,ArrowLeft"":26,""ArrowUp,ArrowRight"":10,""ArrowDown,ArrowLeft"":5,""ArrowDown,ArrowRight"":17}","false","ArrowDown,ArrowRight","false","","","revaluation","1","76","","",""
"html-keyboard-response","195","944341","0.0-4.0-2.0-1.38","spark_pilot_2","7098","4","7","Male","","","","","","","null","<div style=""font-size:60px;"">+</div>","null","fixation","","","","","","","","","","","77","","",""
"revaluation","196","950364","0.0-4.0-2.0-0.39","spark_pilot_2","7098","4","7","Male","","false","","","","","[903.2999999523163,661.3000000119209]","./assets/img/ocean/memory/6.jpg","[""ArrowUp"",""ArrowLeft""]","value training","ocean","26","{""ArrowUp,ArrowLeft"":26,""ArrowUp,ArrowRight"":10,""ArrowDown,ArrowLeft"":5,""ArrowDown,ArrowRight"":17}","true","ArrowUp,ArrowLeft","false","","","revaluation","1","78","","",""
"html-keyboard-response","197","950875","0.0-4.0-2.0-1.39","spark_pilot_2","7098","4","7","Male","","","","","","","null","<div style=""font-size:60px;"">+</div>","null","fixation","","","","","","","","","","","79","","",""
"revaluation","198","956902","0.0-4.0-2.0-0.40","spark_pilot_2","7098","4","7","Male","","false","","","","","[499.69999998807907,604.8999999761581]","./assets/img/ocean/memory/41.jpg","[""ArrowDown"",""ArrowRight""]","value training","ocean","17","{""ArrowUp,ArrowLeft"":26,""ArrowUp,ArrowRight"":10,""ArrowDown,ArrowLeft"":5,""ArrowDown,ArrowRight"":17}","false","ArrowDown,ArrowRight","false","","","revaluation","1","80","","",""
"html-keyboard-response","199","957413","0.0-4.0-2.0-1.40","spark_pilot_2","7098","4","7","Male","","","","","","","null","<div style=""font-size:60px;"">+</div>","null","fixation","","","","","","","","","","","81","","",""
"revaluation","200","963446","0.0-4.0-2.0-0.41","spark_pilot_2","7098","4","7","Male","","false","","","","","[532.8000000119209,760.3000000119209]","./assets/img/ocean/memory/9.jpg","[""ArrowUp"",""ArrowLeft""]","value training","ocean","26","{""ArrowUp,ArrowLeft"":26,""ArrowUp,ArrowRight"":10,""ArrowDown,ArrowLeft"":5,""ArrowDown,ArrowRight"":17}","true","ArrowUp,ArrowLeft","false","","","revaluation","1","82","","",""
"html-keyboard-response","201","963958","0.0-4.0-2.0-1.41","spark_pilot_2","7098","4","7","Male","","","","","","","null","<div style=""font-size:60px;"">+</div>","null","fixation","","","","","","","","","","","83","","",""
"revaluation","202","969990","0.0-4.0-2.0-0.42","spark_pilot_2","7098","4","7","Male","","false","","","","","[617,371.0999999642372]","./assets/img/ocean/memory/33.jpg","[""ArrowDown"",""ArrowRight""]","value training","ocean","17","{""ArrowUp,ArrowLeft"":26,""ArrowUp,ArrowRight"":10,""ArrowDown,ArrowLeft"":5,""ArrowDown,ArrowRight"":17}","false","ArrowDown,ArrowRight","false","","","revaluation","1","84","","",""
"html-keyboard-response","203","970502","0.0-4.0-2.0-1.42","spark_pilot_2","7098","4","7","Male","","","","","","","null","<div style=""font-size:60px;"">+</div>","null","fixation","","","","","","","","","","","85","","",""
"revaluation","204","976533","0.0-4.0-2.0-0.43","spark_pilot_2","7098","4","7","Male","","false","","","","","[410.80000001192093,472.5]","./assets/img/ocean/memory/31.jpg","[""ArrowUp"",""ArrowLeft""]","value training","ocean","26","{""ArrowUp,ArrowLeft"":26,""ArrowUp,ArrowRight"":10,""ArrowDown,ArrowLeft"":5,""ArrowDown,ArrowRight"":17}","true","ArrowUp,ArrowLeft","false","","","revaluation","1","86","","",""
"html-keyboard-response","205","977046","0.0-4.0-2.0-1.43","spark_pilot_2","7098","4","7","Male","","","","","","","null","<div style=""font-size:60px;"">+</div>","null","fixation","","","","","","","","","","","87","","",""
"revaluation","206","981068","0.0-4.0-2.0-0.44","spark_pilot_2","7098","4","7","Male","","false","","","","","[357]","./assets/img/ocean/catch/5.jpg","[""ArrowDown""]","value training","ocean","-10","{""ArrowUp,ArrowLeft"":26,""ArrowUp,ArrowRight"":10,""ArrowDown,ArrowLeft"":5,""ArrowDown,ArrowRight"":17}","false","ArrowDown","true","","","revaluation","1","88","","",""
"html-keyboard-response","207","981579","0.0-4.0-2.0-1.44","spark_pilot_2","7098","4","7","Male","","","","","","","null","<div style=""font-size:60px;"">+</div>","null","fixation","","","","","","","","","","","89","","",""
"revaluation","208","987606","0.0-4.0-2.0-0.45","spark_pilot_2","7098","4","7","Male","","false","","","","","[1371.2999999523163,675.1000000238419]","./assets/img/ocean/memory/35.jpg","[""ArrowDown"",""ArrowRight""]","value training","ocean","17","{""ArrowUp,ArrowLeft"":26,""ArrowUp,ArrowRight"":10,""ArrowDown,ArrowLeft"":5,""ArrowDown,ArrowRight"":17}","false","ArrowDown,ArrowRight","false","","","revaluation","1","90","","",""
"html-keyboard-response","209","988118","0.0-4.0-2.0-1.45","spark_pilot_2","7098","4","7","Male","","","","","","","null","<div style=""font-size:60px;"">+</div>","null","fixation","","","","","","","","","","","91","","",""
"revaluation","210","994150","0.0-4.0-2.0-0.46","spark_pilot_2","7098","4","7","Male","","false","","","","","[865,435.69999998807907]","./assets/img/ocean/memory/37.jpg","[""ArrowUp"",""ArrowLeft""]","value training","ocean","26","{""ArrowUp,ArrowLeft"":26,""ArrowUp,ArrowRight"":10,""ArrowDown,ArrowLeft"":5,""ArrowDown,ArrowRight"":17}","true","ArrowUp,ArrowLeft","false","","","revaluation","1","92","","",""
"html-keyboard-response","211","994661","0.0-4.0-2.0-1.46","spark_pilot_2","7098","4","7","Male","","","","","","","null","<div style=""font-size:60px;"">+</div>","null","fixation","","","","","","","","","","","93","","",""
"revaluation","212","998684","0.0-4.0-2.0-0.47","spark_pilot_2","7098","4","7","Male","","true","","","","","[]","./assets/img/ocean/memory/34.jpg","[]","value training","ocean","-5","{""ArrowUp,ArrowLeft"":26,""ArrowUp,ArrowRight"":10,""ArrowDown,ArrowLeft"":5,""ArrowDown,ArrowRight"":17}","false","","false","","","revaluation","1","94","","",""
"html-keyboard-response","213","999195","0.0-4.0-2.0-1.47","spark_pilot_2","7098","4","7","Male","","","","","","","null","<div style=""font-size:60px;"">+</div>","null","fixation","","","","","","","","","","","95","","",""
"revaluation","214","1005223","0.0-4.0-2.0-0.48","spark_pilot_2","7098","4","7","Male","","false","","","","","[564,443]","./assets/img/ocean/memory/32.jpg","[""ArrowDown"",""ArrowRight""]","value training","ocean","17","{""ArrowUp,ArrowLeft"":26,""ArrowUp,ArrowRight"":10,""ArrowDown,ArrowLeft"":5,""ArrowDown,ArrowRight"":17}","false","ArrowDown,ArrowRight","false","","","revaluation","1","96","","",""
"html-keyboard-response","215","1005733","0.0-4.0-2.0-1.48","spark_pilot_2","7098","4","7","Male","","","","","","","null","<div style=""font-size:60px;"">+</div>","null","fixation","","","","","","","","","","","97","","",""
"revaluation","216","1009755","0.0-4.0-2.0-0.49","spark_pilot_2","7098","4","7","Male","","false","","","","","[918.6999999880791]","./assets/img/ocean/catch/2.jpg","[""spaceBar""]","value training","ocean","0","{""ArrowUp,ArrowLeft"":26,""ArrowUp,ArrowRight"":10,""ArrowDown,ArrowLeft"":5,""ArrowDown,ArrowRight"":17}","true","spaceBar","true","","","revaluation","1","98","","",""
"html-keyboard-response","217","1010267","0.0-4.0-2.0-1.49","spark_pilot_2","7098","4","7","Male","","","","","","","null","<div style=""font-size:60px;"">+</div>","null","fixation","","","","","","","","","","","99","","",""
"learning-instructions","218","1024776","0.0-4.0-3.0-0.0","spark_pilot_2","7098","4","7","Male","","","","","","","1610.5","<p> Now, you will travel with a friend who will choose whether you go up or down first. </p>
            <p> On these turns, you will just see the animal that they found. You will still get to choose which chest to search for treasure.</p>","","instructions","","","","","","","","","","","","","",""
"revaluation","219","1028799","0.0-4.0-4.0-0.0","spark_pilot_2","7098","4","7","Male","","false","","","","","[1071]","./assets/img/ocean/animals/octopus.jpg","[""ArrowRight""]","revaluation","ocean","27","{""ArrowUp,ArrowLeft"":2,""ArrowUp,ArrowRight"":11,""ArrowDown,ArrowLeft"":8,""ArrowDown,ArrowRight"":27}","true","ArrowDown,ArrowRight","","","","revaluation","1","0","","",""
"html-keyboard-response","220","1029310","0.0-4.0-4.0-1.0","spark_pilot_2","7098","4","7","Male","","","","","","","null","<div style=""font-size:60px;"">+</div>","null","fixation","","","","","","","","","","","1","","",""
"revaluation","221","1033335","0.0-4.0-4.0-0.1","spark_pilot_2","7098","4","7","Male","","false","","","","","[922.0999999642372]","./assets/img/ocean/animals/seahorse.jpg","[""ArrowLeft""]","revaluation","ocean","2","{""ArrowUp,ArrowLeft"":2,""ArrowUp,ArrowRight"":11,""ArrowDown,ArrowLeft"":8,""ArrowDown,ArrowRight"":27}","false","ArrowUp,ArrowLeft","","","","revaluation","1","2","","",""
"html-keyboard-response","222","1033841","0.0-4.0-4.0-1.1","spark_pilot_2","7098","4","7","Male","","","","","","","null","<div style=""font-size:60px;"">+</div>","null","fixation","","","","","","","","","","","3","","",""
"revaluation","223","1037859","0.0-4.0-4.0-0.2","spark_pilot_2","7098","4","7","Male","","false","","","","","[373.69999998807907]","./assets/img/ocean/animals/seahorse.jpg","[""ArrowRight""]","revaluation","ocean","11","{""ArrowUp,ArrowLeft"":2,""ArrowUp,ArrowRight"":11,""ArrowDown,ArrowLeft"":8,""ArrowDown,ArrowRight"":27}","true","ArrowUp,ArrowRight","","","","revaluation","1","4","","",""
"html-keyboard-response","224","1038374","0.0-4.0-4.0-1.2","spark_pilot_2","7098","4","7","Male","","","","","","","null","<div style=""font-size:60px;"">+</div>","null","fixation","","","","","","","","","","","5","","",""
"revaluation","225","1042395","0.0-4.0-4.0-0.3","spark_pilot_2","7098","4","7","Male","","false","","","","","[341.9000000357628]","./assets/img/ocean/animals/seahorse.jpg","[""ArrowRight""]","revaluation","ocean","11","{""ArrowUp,ArrowLeft"":2,""ArrowUp,ArrowRight"":11,""ArrowDown,ArrowLeft"":8,""ArrowDown,ArrowRight"":27}","true","ArrowUp,ArrowRight","","","","revaluation","1","6","","",""
"html-keyboard-response","226","1042910","0.0-4.0-4.0-1.3","spark_pilot_2","7098","4","7","Male","","","","","","","null","<div style=""font-size:60px;"">+</div>","null","fixation","","","","","","","","","","","7","","",""
"revaluation","227","1046931","0.0-4.0-4.0-0.4","spark_pilot_2","7098","4","7","Male","","false","","","","","[341.80000001192093]","./assets/img/ocean/animals/octopus.jpg","[""ArrowRight""]","revaluation","ocean","27","{""ArrowUp,ArrowLeft"":2,""ArrowUp,ArrowRight"":11,""ArrowDown,ArrowLeft"":8,""ArrowDown,ArrowRight"":27}","true","ArrowDown,ArrowRight","","","","revaluation","1","8","","",""
"html-keyboard-response","228","1047447","0.0-4.0-4.0-1.4","spark_pilot_2","7098","4","7","Male","","","","","","","null","<div style=""font-size:60px;"">+</div>","null","fixation","","","","","","","","","","","9","","",""
"revaluation","229","1051467","0.0-4.0-4.0-0.5","spark_pilot_2","7098","4","7","Male","","false","","","","","[668.8999999761581]","./assets/img/ocean/animals/octopus.jpg","[""ArrowRight""]","revaluation","ocean","27","{""ArrowUp,ArrowLeft"":2,""ArrowUp,ArrowRight"":11,""ArrowDown,ArrowLeft"":8,""ArrowDown,ArrowRight"":27}","true","ArrowDown,ArrowRight","","","","revaluation","1","10","","",""
"html-keyboard-response","230","1051978","0.0-4.0-4.0-1.5","spark_pilot_2","7098","4","7","Male","","","","","","","null","<div style=""font-size:60px;"">+</div>","null","fixation","","","","","","","","","","","11","","",""
"revaluation","231","1055999","0.0-4.0-4.0-0.6","spark_pilot_2","7098","4","7","Male","","false","","","","","[320.2000000476837]","./assets/img/ocean/animals/octopus.jpg","[""ArrowLeft""]","revaluation","ocean","8","{""ArrowUp,ArrowLeft"":2,""ArrowUp,ArrowRight"":11,""ArrowDown,ArrowLeft"":8,""ArrowDown,ArrowRight"":27}","false","ArrowDown,ArrowLeft","","","","revaluation","1","12","","",""
"html-keyboard-response","232","1056509","0.0-4.0-4.0-1.6","spark_pilot_2","7098","4","7","Male","","","","","","","null","<div style=""font-size:60px;"">+</div>","null","fixation","","","","","","","","","","","13","","",""
"revaluation","233","1060532","0.0-4.0-4.0-0.7","spark_pilot_2","7098","4","7","Male","","false","","","","","[465.89999997615814]","./assets/img/ocean/animals/octopus.jpg","[""ArrowRight""]","revaluation","ocean","27","{""ArrowUp,ArrowLeft"":2,""ArrowUp,ArrowRight"":11,""ArrowDown,ArrowLeft"":8,""ArrowDown,ArrowRight"":27}","true","ArrowDown,ArrowRight","","","","revaluation","1","14","","",""
"html-keyboard-response","234","1061043","0.0-4.0-4.0-1.7","spark_pilot_2","7098","4","7","Male","","","","","","","null","<div style=""font-size:60px;"">+</div>","null","fixation","","","","","","","","","","","15","","",""
"revaluation","235","1065059","0.0-4.0-4.0-0.8","spark_pilot_2","7098","4","7","Male","","false","","","","","[401.0999999642372]","./assets/img/ocean/animals/octopus.jpg","[""ArrowRight""]","revaluation","ocean","27","{""ArrowUp,ArrowLeft"":2,""ArrowUp,ArrowRight"":11,""ArrowDown,ArrowLeft"":8,""ArrowDown,ArrowRight"":27}","true","ArrowDown,ArrowRight","","","","revaluation","1","16","","",""
"html-keyboard-response","236","1065566","0.0-4.0-4.0-1.8","spark_pilot_2","7098","4","7","Male","","","","","","","null","<div style=""font-size:60px;"">+</div>","null","fixation","","","","","","","","","","","17","","",""
"revaluation","237","1069587","0.0-4.0-4.0-0.9","spark_pilot_2","7098","4","7","Male","","false","","","","","[591.1999999880791]","./assets/img/ocean/animals/octopus.jpg","[""ArrowLeft""]","revaluation","ocean","8","{""ArrowUp,ArrowLeft"":2,""ArrowUp,ArrowRight"":11,""ArrowDown,ArrowLeft"":8,""ArrowDown,ArrowRight"":27}","false","ArrowDown,ArrowLeft","","","","revaluation","1","18","","",""
"html-keyboard-response","238","1070094","0.0-4.0-4.0-1.9","spark_pilot_2","7098","4","7","Male","","","","","","","null","<div style=""font-size:60px;"">+</div>","null","fixation","","","","","","","","","","","19","","",""
"revaluation","239","1074116","0.0-4.0-4.0-0.10","spark_pilot_2","7098","4","7","Male","","false","","","","","[370.30000001192093]","./assets/img/ocean/animals/seahorse.jpg","[""ArrowLeft""]","revaluation","ocean","2","{""ArrowUp,ArrowLeft"":2,""ArrowUp,ArrowRight"":11,""ArrowDown,ArrowLeft"":8,""ArrowDown,ArrowRight"":27}","false","ArrowUp,ArrowLeft","","","","revaluation","1","20","","",""
"html-keyboard-response","240","1074627","0.0-4.0-4.0-1.10","spark_pilot_2","7098","4","7","Male","","","","","","","null","<div style=""font-size:60px;"">+</div>","null","fixation","","","","","","","","","","","21","","",""
"revaluation","241","1078644","0.0-4.0-4.0-0.11","spark_pilot_2","7098","4","7","Male","","false","","","","","[414.89999997615814]","./assets/img/ocean/animals/seahorse.jpg","[""ArrowRight""]","revaluation","ocean","11","{""ArrowUp,ArrowLeft"":2,""ArrowUp,ArrowRight"":11,""ArrowDown,ArrowLeft"":8,""ArrowDown,ArrowRight"":27}","true","ArrowUp,ArrowRight","","","","revaluation","1","22","","",""
"html-keyboard-response","242","1079155","0.0-4.0-4.0-1.11","spark_pilot_2","7098","4","7","Male","","","","","","","null","<div style=""font-size:60px;"">+</div>","null","fixation","","","","","","","","","","","23","","",""
"revaluation","243","1083172","0.0-4.0-4.0-0.12","spark_pilot_2","7098","4","7","Male","","false","","","","","[1218.5]","./assets/img/ocean/animals/seahorse.jpg","[""ArrowRight""]","revaluation","ocean","11","{""ArrowUp,ArrowLeft"":2,""ArrowUp,ArrowRight"":11,""ArrowDown,ArrowLeft"":8,""ArrowDown,ArrowRight"":27}","true","ArrowUp,ArrowRight","","","","revaluation","1","24","","",""
"html-keyboard-response","244","1083683","0.0-4.0-4.0-1.12","spark_pilot_2","7098","4","7","Male","","","","","","","null","<div style=""font-size:60px;"">+</div>","null","fixation","","","","","","","","","","","25","","",""
"revaluation","245","1087711","0.0-4.0-4.0-0.13","spark_pilot_2","7098","4","7","Male","","false","","","","","[386.9000000357628]","./assets/img/ocean/animals/octopus.jpg","[""ArrowLeft""]","revaluation","ocean","8","{""ArrowUp,ArrowLeft"":2,""ArrowUp,ArrowRight"":11,""ArrowDown,ArrowLeft"":8,""ArrowDown,ArrowRight"":27}","false","ArrowDown,ArrowLeft","","","","revaluation","1","26","","",""
"html-keyboard-response","246","1088218","0.0-4.0-4.0-1.13","spark_pilot_2","7098","4","7","Male","","","","","","","null","<div style=""font-size:60px;"">+</div>","null","fixation","","","","","","","","","","","27","","",""
"revaluation","247","1092244","0.0-4.0-4.0-0.14","spark_pilot_2","7098","4","7","Male","","false","","","","","[615.6000000238419]","./assets/img/ocean/animals/seahorse.jpg","[""ArrowRight""]","revaluation","ocean","11","{""ArrowUp,ArrowLeft"":2,""ArrowUp,ArrowRight"":11,""ArrowDown,ArrowLeft"":8,""ArrowDown,ArrowRight"":27}","true","ArrowUp,ArrowRight","","","","revaluation","1","28","","",""
"html-keyboard-response","248","1092755","0.0-4.0-4.0-1.14","spark_pilot_2","7098","4","7","Male","","","","","","","null","<div style=""font-size:60px;"">+</div>","null","fixation","","","","","","","","","","","29","","",""
"revaluation","249","1096772","0.0-4.0-4.0-0.15","spark_pilot_2","7098","4","7","Male","","false","","","","","[444.89999997615814]","./assets/img/ocean/animals/seahorse.jpg","[""ArrowRight""]","revaluation","ocean","11","{""ArrowUp,ArrowLeft"":2,""ArrowUp,ArrowRight"":11,""ArrowDown,ArrowLeft"":8,""ArrowDown,ArrowRight"":27}","true","ArrowUp,ArrowRight","","","","revaluation","1","30","","",""
"html-keyboard-response","250","1097283","0.0-4.0-4.0-1.15","spark_pilot_2","7098","4","7","Male","","","","","","","null","<div style=""font-size:60px;"">+</div>","null","fixation","","","","","","","","","","","31","","",""
"revaluation","251","1101302","0.0-4.0-4.0-0.16","spark_pilot_2","7098","4","7","Male","","false","","","","","[532.4000000357628]","./assets/img/ocean/animals/seahorse.jpg","[""ArrowRight""]","revaluation","ocean","11","{""ArrowUp,ArrowLeft"":2,""ArrowUp,ArrowRight"":11,""ArrowDown,ArrowLeft"":8,""ArrowDown,ArrowRight"":27}","true","ArrowUp,ArrowRight","","","","revaluation","1","32","","",""
"html-keyboard-response","252","1101813","0.0-4.0-4.0-1.16","spark_pilot_2","7098","4","7","Male","","","","","","","null","<div style=""font-size:60px;"">+</div>","null","fixation","","","","","","","","","","","33","","",""
"revaluation","253","1105839","0.0-4.0-4.0-0.17","spark_pilot_2","7098","4","7","Male","","false","","","","","[904.8000000119209]","./assets/img/ocean/animals/octopus.jpg","[""ArrowRight""]","revaluation","ocean","27","{""ArrowUp,ArrowLeft"":2,""ArrowUp,ArrowRight"":11,""ArrowDown,ArrowLeft"":8,""ArrowDown,ArrowRight"":27}","true","ArrowDown,ArrowRight","","","","revaluation","1","34","","",""
"html-keyboard-response","254","1106350","0.0-4.0-4.0-1.17","spark_pilot_2","7098","4","7","Male","","","","","","","null","<div style=""font-size:60px;"">+</div>","null","fixation","","","","","","","","","","","35","","",""
"learning-instructions","255","1120175","0.0-4.0-5.0-0.0","spark_pilot_2","7098","4","7","Male","","","","","","","1306.7000000476837","<p> Time to play the dot game! </p>
            <p> For one minute, click the red dots on the following screen as they appear. </p>
            <p><b> Don't look away, as you will earn bonus for clicking dots</b>. </p>","","instructions","","","","","","","","","","","","","",""
"revaluation","256","1180185","0.0-4.0-6.0-0.0","spark_pilot_2","7098","4","7","Male","","","","","","","[119,77,69,81,82,78,91]","","","rest","","70","","","","","0","60000","","","","","",""
"learning-instructions","257","1188167","0.0-4.0-7.0-0.0","spark_pilot_2","7098","4","7","Male","","","","","","","1860.2000000476837","<p> You have almost finished this part of the game! </p>
            <p> We are going to ask you to make a few more choices. </p>","","instructions","","","","","","","","","","","","","",""
"learning-instructions","258","1203709","0.0-4.0-7.0-0.1","spark_pilot_2","7098","4","7","Male","","","","","","","1567.300000011921","<p> First, you need to decide whether to go up or down. When you see each picture, use the arrow keys to make your choice. </p>
            <p><b>You will not see which animal you found, but try to get to the one that will give you the most treasure.</b></p>","","instructions","","","","","","","","","","","","","",""
"revaluation","259","1205098","0.0-4.0-8.0-0.0","spark_pilot_2","7098","4","7","Male","","false","","","","","[1387]","./assets/img/ocean/test/3.jpg","[""ArrowUp""]","first stage test","ocean","0","{""ArrowUp,ArrowLeft"":2,""ArrowUp,ArrowRight"":11,""ArrowDown,ArrowLeft"":8,""ArrowDown,ArrowRight"":27}","false","ArrowUp","false","","","revaluation","1","","","",""
"html-keyboard-response","260","1205602","0.0-4.0-8.0-1.0","spark_pilot_2","7098","4","7","Male","","","","","","","null","<div style=""font-size:60px;"">+</div>","null","fixation","","","","","","","","","","","","","",""
"revaluation","261","1206872","0.0-4.0-8.0-0.1","spark_pilot_2","7098","4","7","Male","","false","","","","","[1264.8999999761581]","./assets/img/ocean/test/0.jpg","[""ArrowUp""]","first stage test","ocean","0","{""ArrowUp,ArrowLeft"":2,""ArrowUp,ArrowRight"":11,""ArrowDown,ArrowLeft"":8,""ArrowDown,ArrowRight"":27}","false","ArrowUp","false","","","revaluation","1","","","",""
"html-keyboard-response","262","1207382","0.0-4.0-8.0-1.1","spark_pilot_2","7098","4","7","Male","","","","","","","null","<div style=""font-size:60px;"">+</div>","null","fixation","","","","","","","","","","","","","",""
"revaluation","263","1208143","0.0-4.0-8.0-0.2","spark_pilot_2","7098","4","7","Male","","false","","","","","[755]","./assets/img/ocean/test/1.jpg","[""ArrowUp""]","first stage test","ocean","0","{""ArrowUp,ArrowLeft"":2,""ArrowUp,ArrowRight"":11,""ArrowDown,ArrowLeft"":8,""ArrowDown,ArrowRight"":27}","false","ArrowUp","false","","","revaluation","1","","","",""
"html-keyboard-response","264","1208651","0.0-4.0-8.0-1.2","spark_pilot_2","7098","4","7","Male","","","","","","","null","<div style=""font-size:60px;"">+</div>","null","fixation","","","","","","","","","","","","","",""
"revaluation","265","1209518","0.0-4.0-8.0-0.3","spark_pilot_2","7098","4","7","Male","","false","","","","","[862.3999999761581]","./assets/img/ocean/test/2.jpg","[""ArrowDown""]","first stage test","ocean","0","{""ArrowUp,ArrowLeft"":2,""ArrowUp,ArrowRight"":11,""ArrowDown,ArrowLeft"":8,""ArrowDown,ArrowRight"":27}","true","ArrowDown","false","","","revaluation","1","","","",""
"html-keyboard-response","266","1210025","0.0-4.0-8.0-1.3","spark_pilot_2","7098","4","7","Male","","","","","","","null","<div style=""font-size:60px;"">+</div>","null","fixation","","","","","","","","","","","","","",""
"learning-instructions","267","1223093","0.0-4.0-9.0-0.0","spark_pilot_2","7098","4","7","Male","","","","","","","1724.199999988079","<p> Now you will see the animals again and can search their chests for treasure. </p>
            <p> This time, you will not see how much treasure you earned, but you will earn more bonus money for making better choices. </p>","","instructions","","","","","","","","","","","","","",""
"revaluation","268","1224054","0.0-4.0-10.0-0.0","spark_pilot_2","7098","4","7","Male","","false","","","","","[957.5]","./assets/img/ocean/animals/seahorse.jpg","[""ArrowRight""]","second stage test","ocean","0","{""ArrowUp,ArrowLeft"":2,""ArrowUp,ArrowRight"":11,""ArrowDown,ArrowLeft"":8,""ArrowDown,ArrowRight"":27}","true","ArrowUp,ArrowRight","","","","revaluation","1","","","",""
"html-keyboard-response","269","1224561","0.0-4.0-10.0-1.0","spark_pilot_2","7098","4","7","Male","","","","","","","null","<div style=""font-size:60px;"">+</div>","null","fixation","","","","","","","","","","","","","",""
"revaluation","270","1225452","0.0-4.0-10.0-0.1","spark_pilot_2","7098","4","7","Male","","false","","","","","[885.5]","./assets/img/ocean/animals/seahorse.jpg","[""ArrowLeft""]","second stage test","ocean","0","{""ArrowUp,ArrowLeft"":2,""ArrowUp,ArrowRight"":11,""ArrowDown,ArrowLeft"":8,""ArrowDown,ArrowRight"":27}","false","ArrowUp,ArrowLeft","","","","revaluation","1","","","",""
"html-keyboard-response","271","1225961","0.0-4.0-10.0-1.1","spark_pilot_2","7098","4","7","Male","","","","","","","null","<div style=""font-size:60px;"">+</div>","null","fixation","","","","","","","","","","","","","",""
"revaluation","272","1226655","0.0-4.0-10.0-0.2","spark_pilot_2","7098","4","7","Male","","false","","","","","[691.8000000119209]","./assets/img/ocean/animals/seahorse.jpg","[""ArrowRight""]","second stage test","ocean","0","{""ArrowUp,ArrowLeft"":2,""ArrowUp,ArrowRight"":11,""ArrowDown,ArrowLeft"":8,""ArrowDown,ArrowRight"":27}","true","ArrowUp,ArrowRight","","","","revaluation","1","","","",""
"html-keyboard-response","273","1227166","0.0-4.0-10.0-1.2","spark_pilot_2","7098","4","7","Male","","","","","","","null","<div style=""font-size:60px;"">+</div>","null","fixation","","","","","","","","","","","","","",""
"revaluation","274","1227782","0.0-4.0-10.0-0.3","spark_pilot_2","7098","4","7","Male","","false","","","","","[610.0999999642372]","./assets/img/ocean/animals/seahorse.jpg","[""ArrowLeft""]","second stage test","ocean","0","{""ArrowUp,ArrowLeft"":2,""ArrowUp,ArrowRight"":11,""ArrowDown,ArrowLeft"":8,""ArrowDown,ArrowRight"":27}","false","ArrowUp,ArrowLeft","","","","revaluation","1","","","",""
"html-keyboard-response","275","1228286","0.0-4.0-10.0-1.3","spark_pilot_2","7098","4","7","Male","","","","","","","null","<div style=""font-size:60px;"">+</div>","null","fixation","","","","","","","","","","","","","",""
"revaluation","276","1228793","0.0-4.0-10.0-0.4","spark_pilot_2","7098","4","7","Male","","false","","","","","[500.60000002384186]","./assets/img/ocean/animals/octopus.jpg","[""ArrowRight""]","second stage test","ocean","0","{""ArrowUp,ArrowLeft"":2,""ArrowUp,ArrowRight"":11,""ArrowDown,ArrowLeft"":8,""ArrowDown,ArrowRight"":27}","true","ArrowDown,ArrowRight","","","","revaluation","1","","","",""
"html-keyboard-response","277","1229302","0.0-4.0-10.0-1.4","spark_pilot_2","7098","4","7","Male","","","","","","","null","<div style=""font-size:60px;"">+</div>","null","fixation","","","","","","","","","","","","","",""
"revaluation","278","1229774","0.0-4.0-10.0-0.5","spark_pilot_2","7098","4","7","Male","","false","","","","","[466.0999999642372]","./assets/img/ocean/animals/octopus.jpg","[""ArrowLeft""]","second stage test","ocean","0","{""ArrowUp,ArrowLeft"":2,""ArrowUp,ArrowRight"":11,""ArrowDown,ArrowLeft"":8,""ArrowDown,ArrowRight"":27}","false","ArrowDown,ArrowLeft","","","","revaluation","1","","","",""
"html-keyboard-response","279","1230277","0.0-4.0-10.0-1.5","spark_pilot_2","7098","4","7","Male","","","","","","","null","<div style=""font-size:60px;"">+</div>","null","fixation","","","","","","","","","","","","","",""
"revaluation","280","1230620","0.0-4.0-10.0-0.6","spark_pilot_2","7098","4","7","Male","","false","","","","","[338.80000001192093]","./assets/img/ocean/animals/octopus.jpg","[""ArrowRight""]","second stage test","ocean","0","{""ArrowUp,ArrowLeft"":2,""ArrowUp,ArrowRight"":11,""ArrowDown,ArrowLeft"":8,""ArrowDown,ArrowRight"":27}","true","ArrowDown,ArrowRight","","","","revaluation","1","","","",""
"html-keyboard-response","281","1231126","0.0-4.0-10.0-1.6","spark_pilot_2","7098","4","7","Male","","","","","","","null","<div style=""font-size:60px;"">+</div>","null","fixation","","","","","","","","","","","","","",""
"revaluation","282","1231538","0.0-4.0-10.0-0.7","spark_pilot_2","7098","4","7","Male","","false","","","","","[406.9000000357628]","./assets/img/ocean/animals/octopus.jpg","[""ArrowLeft""]","second stage test","ocean","0","{""ArrowUp,ArrowLeft"":2,""ArrowUp,ArrowRight"":11,""ArrowDown,ArrowLeft"":8,""ArrowDown,ArrowRight"":27}","false","ArrowDown,ArrowLeft","","","","revaluation","1","","","",""
"html-keyboard-response","283","1232048","0.0-4.0-10.0-1.7","spark_pilot_2","7098","4","7","Male","","","","","","","null","<div style=""font-size:60px;"">+</div>","null","fixation","","","","","","","","","","","","","",""
"learning-instructions","284","1237320","0.0-4.0-0.1-0.2","spark_pilot_2","7098","4","7","Male","","","","","","","1771.5","<p> This time you are searching for treasure in the <b>canyon</b>.</p>","","instructions","","","","","","","","","","","","","",""
"learning-instructions","285","1255833","0.0-4.0-0.1-0.3","spark_pilot_2","7098","4","7","Male","","","","","","","1259","<p><b>New</b> animals with <b>new</b> treasure chests live here. You need to explore to discover where the animal with the best treasure chest is.</p>
                    <p> Like before, once you figure out which animal has the chest with the most treasure, you should try to get to that animal and select that chest! </p>","","instructions","","","","","","","","","","","","","",""
"learning-instructions","286","1272096","0.0-4.0-1.1-0.1","spark_pilot_2","7098","4","7","Male","","","","","","","1531.5","<p> Remember, when you see a picture of the place, use the up and down keys to <b>find an animal</b>.</p>
            <p> When you encounter an animal, you should use the left and right keys to <b>select a treasure chest</b>.</p>
            <p> Don't forget to look out for the robber! </p>","","instructions","","","","","","","","","","","","","",""
"revaluation","287","1278123","0.0-4.0-2.1-0.50","spark_pilot_2","7098","4","7","Male","","false","","","","","[1205.1000000238419,958.3999999761581]","./assets/img/canyon/memory/12.jpg","[""ArrowDown"",""ArrowLeft""]","value training","canyon","8","{""ArrowUp,ArrowLeft"":23,""ArrowUp,ArrowRight"":10,""ArrowDown,ArrowLeft"":8,""ArrowDown,ArrowRight"":30}","false","ArrowDown,ArrowLeft","false","","","original","2","0","","",""
"html-keyboard-response","288","1278636","0.0-4.0-2.1-1.50","spark_pilot_2","7098","4","7","Male","","","","","","","null","<div style=""font-size:60px;"">+</div>","null","fixation","","","","","","","","","","","1","","",""
"revaluation","289","1284659","0.0-4.0-2.1-0.51","spark_pilot_2","7098","4","7","Male","","false","","","","","[765.8000000119209,452.69999998807907]","./assets/img/canyon/memory/34.jpg","[""ArrowUp"",""ArrowLeft""]","value training","canyon","23","{""ArrowUp,ArrowLeft"":23,""ArrowUp,ArrowRight"":10,""ArrowDown,ArrowLeft"":8,""ArrowDown,ArrowRight"":30}","false","ArrowUp,ArrowLeft","false","","","original","2","2","","",""
"html-keyboard-response","290","1285171","0.0-4.0-2.1-1.51","spark_pilot_2","7098","4","7","Male","","","","","","","null","<div style=""font-size:60px;"">+</div>","null","fixation","","","","","","","","","","","3","","",""
"revaluation","291","1291200","0.0-4.0-2.1-0.52","spark_pilot_2","7098","4","7","Male","","false","","","","","[446.69999998807907,374.10000002384186]","./assets/img/canyon/memory/27.jpg","[""ArrowDown"",""ArrowRight""]","value training","canyon","30","{""ArrowUp,ArrowLeft"":23,""ArrowUp,ArrowRight"":10,""ArrowDown,ArrowLeft"":8,""ArrowDown,ArrowRight"":30}","true","ArrowDown,ArrowRight","false","","","original","2","4","","",""
"html-keyboard-response","292","1291706","0.0-4.0-2.1-1.52","spark_pilot_2","7098","4","7","Male","","","","","","","null","<div style=""font-size:60px;"">+</div>","null","fixation","","","","","","","","","","","5","","",""
"revaluation","293","1297731","0.0-4.0-2.1-0.53","spark_pilot_2","7098","4","7","Male","","false","","","","","[829.5999999642372,1242.5999999642372]","./assets/img/canyon/memory/34.jpg","[""ArrowUp"",""ArrowLeft""]","value training","canyon","23","{""ArrowUp,ArrowLeft"":23,""ArrowUp,ArrowRight"":10,""ArrowDown,ArrowLeft"":8,""ArrowDown,ArrowRight"":30}","false","ArrowUp,ArrowLeft","false","","","original","2","6","","",""
"html-keyboard-response","294","1298243","0.0-4.0-2.1-1.53","spark_pilot_2","7098","4","7","Male","","","","","","","null","<div style=""font-size:60px;"">+</div>","null","fixation","","","","","","","","","","","7","","",""
"revaluation","295","1302261","0.0-4.0-2.1-0.54","spark_pilot_2","7098","4","7","Male","","false","","","","","[912.3000000119209]","./assets/img/canyon/catch/3.jpg","[""spaceBar""]","value training","canyon","0","{""ArrowUp,ArrowLeft"":23,""ArrowUp,ArrowRight"":10,""ArrowDown,ArrowLeft"":8,""ArrowDown,ArrowRight"":30}","true","spaceBar","true","","","original","2","8","","",""
"html-keyboard-response","296","1302772","0.0-4.0-2.1-1.54","spark_pilot_2","7098","4","7","Male","","","","","","","null","<div style=""font-size:60px;"">+</div>","null","fixation","","","","","","","","","","","9","","",""
"revaluation","297","1308794","0.0-4.0-2.1-0.55","spark_pilot_2","7098","4","7","Male","","false","","","","","[1150.8999999761581,435.19999998807907]","./assets/img/canyon/memory/32.jpg","[""ArrowUp"",""ArrowRight""]","value training","canyon","10","{""ArrowUp,ArrowLeft"":23,""ArrowUp,ArrowRight"":10,""ArrowDown,ArrowLeft"":8,""ArrowDown,ArrowRight"":30}","false","ArrowUp,ArrowRight","false","","","original","2","10","","",""
"html-keyboard-response","298","1309306","0.0-4.0-2.1-1.55","spark_pilot_2","7098","4","7","Male","","","","","","","null","<div style=""font-size:60px;"">+</div>","null","fixation","","","","","","","","","","","11","","",""
"revaluation","299","1315333","0.0-4.0-2.1-0.56","spark_pilot_2","7098","4","7","Male","","false","","","","","[484,1661.300000011921]","./assets/img/canyon/memory/33.jpg","[""ArrowDown"",""ArrowLeft""]","value training","canyon","8","{""ArrowUp,ArrowLeft"":23,""ArrowUp,ArrowRight"":10,""ArrowDown,ArrowLeft"":8,""ArrowDown,ArrowRight"":30}","false","ArrowDown,ArrowLeft","false","","","original","2","12","","",""
"html-keyboard-response","300","1315844","0.0-4.0-2.1-1.56","spark_pilot_2","7098","4","7","Male","","","","","","","null","<div style=""font-size:60px;"">+</div>","null","fixation","","","","","","","","","","","13","","",""
"revaluation","301","1321867","0.0-4.0-2.1-0.57","spark_pilot_2","7098","4","7","Male","","false","","","","","[671.5,131.29999995231628]","./assets/img/canyon/memory/14.jpg","[""ArrowDown"",""ArrowRight""]","value training","canyon","30","{""ArrowUp,ArrowLeft"":23,""ArrowUp,ArrowRight"":10,""ArrowDown,ArrowLeft"":8,""ArrowDown,ArrowRight"":30}","true","ArrowDown,ArrowRight","false","","","original","2","14","","",""
"html-keyboard-response","302","1322377","0.0-4.0-2.1-1.57","spark_pilot_2","7098","4","7","Male","","","","","","","null","<div style=""font-size:60px;"">+</div>","null","fixation","","","","","","","","","","","15","","",""
"revaluation","303","1328405","0.0-4.0-2.1-0.58","spark_pilot_2","7098","4","7","Male","","false","","","","","[1751.0999999642372,976]","./assets/img/canyon/memory/9.jpg","[""ArrowDown"",""ArrowRight""]","value training","canyon","30","{""ArrowUp,ArrowLeft"":23,""ArrowUp,ArrowRight"":10,""ArrowDown,ArrowLeft"":8,""ArrowDown,ArrowRight"":30}","true","ArrowDown,ArrowRight","false","","","original","2","16","","",""
"html-keyboard-response","304","1328917","0.0-4.0-2.1-1.58","spark_pilot_2","7098","4","7","Male","","","","","","","null","<div style=""font-size:60px;"">+</div>","null","fixation","","","","","","","","","","","17","","",""
"revaluation","305","1334948","0.0-4.0-2.1-0.59","spark_pilot_2","7098","4","7","Male","","false","","","","","[377.5,502.39999997615814]","./assets/img/canyon/memory/2.jpg","[""ArrowUp"",""ArrowLeft""]","value training","canyon","23","{""ArrowUp,ArrowLeft"":23,""ArrowUp,ArrowRight"":10,""ArrowDown,ArrowLeft"":8,""ArrowDown,ArrowRight"":30}","false","ArrowUp,ArrowLeft","false","","","original","2","18","","",""
"html-keyboard-response","306","1335461","0.0-4.0-2.1-1.59","spark_pilot_2","7098","4","7","Male","","","","","","","null","<div style=""font-size:60px;"">+</div>","null","fixation","","","","","","","","","","","19","","",""
"revaluation","307","1341495","0.0-4.0-2.1-0.60","spark_pilot_2","7098","4","7","Male","","false","","","","","[576.5999999642372,392.5]","./assets/img/canyon/memory/28.jpg","[""ArrowDown"",""ArrowRight""]","value training","canyon","30","{""ArrowUp,ArrowLeft"":23,""ArrowUp,ArrowRight"":10,""ArrowDown,ArrowLeft"":8,""ArrowDown,ArrowRight"":30}","true","ArrowDown,ArrowRight","false","","","original","2","20","","",""
"html-keyboard-response","308","1342006","0.0-4.0-2.1-1.60","spark_pilot_2","7098","4","7","Male","","","","","","","null","<div style=""font-size:60px;"">+</div>","null","fixation","","","","","","","","","","","21","","",""
"revaluation","309","1348037","0.0-4.0-2.1-0.61","spark_pilot_2","7098","4","7","Male","","false","","","","","[403.60000002384186,349.69999998807907]","./assets/img/canyon/memory/19.jpg","[""ArrowUp"",""ArrowLeft""]","value training","canyon","23","{""ArrowUp,ArrowLeft"":23,""ArrowUp,ArrowRight"":10,""ArrowDown,ArrowLeft"":8,""ArrowDown,ArrowRight"":30}","false","ArrowUp,ArrowLeft","false","","","original","2","22","","",""
"html-keyboard-response","310","1348552","0.0-4.0-2.1-1.61","spark_pilot_2","7098","4","7","Male","","","","","","","null","<div style=""font-size:60px;"">+</div>","null","fixation","","","","","","","","","","","23","","",""
