"trial_type","trial_index","time_elapsed","internal_node_id","task_version","subject_id","assigned_condition","age","gender","success","timeout","failed_images","failed_audio","failed_video","browser_interaction","rt","stimulus","response","task_part","environment","score","rewardMap","correct","fullState","isCatch","numberMissed","duration","condition","order","trial_num","key_press","ground_truth","bonus"
"pavlovia","0","1615","0.0-0.0","spark_pilot_2","7350","2","13","Female","","","","","","","","","","","","","","","","","","","","","","","",""
"preload","1","13152","0.0-1.0","spark_pilot_2","7350","2","13","Female","true","false","[]","[]","[]","[{""event"":""fullscreenenter"",""trial"":2,""time"":14526}]","","","","","","","","","","","","","","","","","",""
"fullscreen","2","15520","0.0-2.0","spark_pilot_2","7350","2","13","Female","true","","","","","","","","","","","","","","","","","","","","","","",""
"audio-button-response","3","17712","0.0-3.0-0.0-0.0","spark_pilot_2","7350","2","13","Female","","","","","","","2000","./assets/audio/audiotest/turtle.mp3","2","audio_test","","","","","","","","","","","","","",""
"learning-instructions","4","28324","0.0-3.0-1.0-0.0","spark_pilot_2","7350","2","13","Female","","","","","","","2606.7000002861023","<p> Welcome! Please remember to stay in fullscreen mode and don't click away from the experiment. </p>","","instructions","","","","","","","","","","","","","",""
"learning-instructions","5","38099","0.0-3.0-1.0-0.1","spark_pilot_2","7350","2","13","Female","","","","","","","1371.4000000953674","<p> Today you will be playing a game to earn treasure. </p>
            <p> At the end of the experiment, you will earn a bonus based on how much treasure you find. </p>
            <img src='./assets/img/instructions/treasure.jpg' class='instructions-image'>","","instructions","","","","","","","","","","","","","",""
"learning-instructions","6","47236","0.0-3.0-1.0-0.2","spark_pilot_2","7350","2","13","Female","","","","","","","869.3000001907349","<p> Animals have hidden treasure in treasure chests. </p>
            <p> You need to first find an animal and then choose which of their treasure chests to search. </p>
            <img src='./assets/img/space/animals/cat.jpg' class='instructions-image'>","","instructions","","","","","","","","","","","","","",""
"learning-instructions","7","62728","0.0-3.0-1.0-0.3","spark_pilot_2","7350","2","13","Female","","","","","","","2341.5999999046326","<p> In each round, you will search for treasure in a different place. In the real game, there will be two rounds. </p>
            <p> You will begin with a separate, practice round where you will search for treasure in outer space. </p>
            <img src='./assets/img/space/0.jpg' class='instructions-image'>","","instructions","","","","","","","","","","","","","",""
"learning-instructions","8","75654","0.0-3.0-1.0-0.4","spark_pilot_2","7350","2","13","Female","","","","","","","1507.5999999046326","<p> On every turn, you will see a picture of the place that you are in, but the specific image may be different each time. </p>
            <p> For example, both of these images mean you are in outer space. </p>
            <img src='./assets/img/instructions/outerspace.jpg' class='instructions-image'>","","instructions","","","","","","","","","","","","","",""
"learning-instructions","9","84084","0.0-3.0-1.0-0.5","spark_pilot_2","7350","2","13","Female","","","","","","","597.0999999046326","<p> You need to decide which direction to travel in. </p>
            <p> You can choose between going <b>up or down</b> by using the arrow keys. </p>
            <img src='./assets/img/instructions/updown.jpg' class='instructions-image'>","","instructions","","","","","","","","","","","","","",""
"learning-instructions","10","93596","0.0-3.0-1.0-0.6","spark_pilot_2","7350","2","13","Female","","","","","","","700.3000001907349","<p> You will have <b>2 seconds</b> to make your choice. </p>
            <p> If you do not make a choice within 2 seconds, you will not find an animal or earn treasure. </p>
            <img src='./assets/img/instructions/2seconds.jpg' class='instructions-image'>","","instructions","","","","","","","","","","","","","",""
"learning-instructions","11","101248","0.0-3.0-1.0-0.7","spark_pilot_2","7350","2","13","Female","","","","","","","612.3000001907349","<p> Let’s try practicing that now! </p>
            <p> When you see a picture of the place you are in, press the <b>up</b> key to travel up. </p>
            <img src='./assets/img/instructions/pressUp.jpg' class='instructions-image'>","","instructions","","","","","","","","","","","","","",""
"revaluation","12","105270","0.0-3.0-2.0-0.0","spark_pilot_2","7350","2","13","Female","","false","","","","","[858.0999999046326]","./assets/img/space/0.jpg","[""ArrowUp""]","first stage practice","space","0","null","null","ArrowUp","false","","","","","","","",""
"html-keyboard-response","13","105783","0.0-3.0-2.0-1.0","spark_pilot_2","7350","2","13","Female","","","","","","","null","<div style=""font-size:60px;"">+</div>","null","fixation","","","","","","","","","","","","","",""
"revaluation","14","109813","0.0-3.0-2.0-0.1","spark_pilot_2","7350","2","13","Female","","false","","","","","[1156.2000002861023]","./assets/img/space/1.jpg","[""ArrowUp""]","first stage practice","space","0","null","null","ArrowUp","false","","","","","","","",""
"html-keyboard-response","15","110326","0.0-3.0-2.0-1.1","spark_pilot_2","7350","2","13","Female","","","","","","","null","<div style=""font-size:60px;"">+</div>","null","fixation","","","","","","","","","","","","","",""
"revaluation","16","114348","0.0-3.0-2.0-0.2","spark_pilot_2","7350","2","13","Female","","false","","","","","[414.90000009536743]","./assets/img/space/2.jpg","[""ArrowUp""]","first stage practice","space","0","null","null","ArrowUp","false","","","","","","","",""
"html-keyboard-response","17","114863","0.0-3.0-2.0-1.2","spark_pilot_2","7350","2","13","Female","","","","","","","null","<div style=""font-size:60px;"">+</div>","null","fixation","","","","","","","","","","","","","",""
"learning-instructions","18","120728","0.0-3.0-3.0-0.0","spark_pilot_2","7350","2","13","Female","","","","","","","1163.3000001907349","<p> Great job! Now try pressing the <b>down</b> key to travel down. </p>
            <img src='./assets/img/instructions/pressDown.jpg' class='instructions-image'>","","instructions","","","","","","","","","","","","","",""
"revaluation","19","124732","0.0-3.0-4.0-0.0","spark_pilot_2","7350","2","13","Female","","false","","","","","[423]","./assets/img/space/3.jpg","[""ArrowDown""]","first stage practice","space","0","null","null","ArrowDown","false","","","","","","","",""
"html-keyboard-response","20","125242","0.0-3.0-4.0-1.0","spark_pilot_2","7350","2","13","Female","","","","","","","null","<div style=""font-size:60px;"">+</div>","null","fixation","","","","","","","","","","","","","",""
"revaluation","21","129253","0.0-3.0-4.0-0.1","spark_pilot_2","7350","2","13","Female","","false","","","","","[646.2999997138977]","./assets/img/space/4.jpg","[""ArrowDown""]","first stage practice","space","0","null","null","ArrowDown","false","","","","","","","",""
"html-keyboard-response","22","129766","0.0-3.0-4.0-1.1","spark_pilot_2","7350","2","13","Female","","","","","","","null","<div style=""font-size:60px;"">+</div>","null","fixation","","","","","","","","","","","","","",""
"revaluation","23","133788","0.0-3.0-4.0-0.2","spark_pilot_2","7350","2","13","Female","","false","","","","","[932.6000003814697]","./assets/img/space/5.jpg","[""ArrowDown""]","first stage practice","space","0","null","null","ArrowDown","false","","","","","","","",""
"html-keyboard-response","24","134302","0.0-3.0-4.0-1.2","spark_pilot_2","7350","2","13","Female","","","","","","","null","<div style=""font-size:60px;"">+</div>","null","fixation","","","","","","","","","","","","","",""
"learning-instructions","25","146445","0.0-3.0-5.0-0.0","spark_pilot_2","7350","2","13","Female","","","","","","","2290.5","<p> The animals don’t move, so the animal in the upper part of a place will stay in the upper part of a place, and the animal in the lower part of a place will stay in the lower part of a place. </p>","","instructions","","","","","","","","","","","","","",""
"learning-instructions","26","156184","0.0-3.0-5.0-0.1","spark_pilot_2","7350","2","13","Female","","","","","","","599","<p> Each animal has two treasure chests for you to choose from. </p>
            <p> The amount of treasure in each chest can range from <b> 0 to 40 pieces.</b></p>","","instructions","","","","","","","","","","","","","",""
"learning-instructions","27","167868","0.0-3.0-5.0-0.2","spark_pilot_2","7350","2","13","Female","","","","","","","493.09999990463257","<p> You should decide which chest to search for treasure by using the <b>left</b> and <b>right</b> arrow keys. </p>
            <p><b> Pay attention to which animal is on the screen, as the animals have different treasure chests. </b></p>
            <img src='./assets/img/instructions/leftright.jpg' class='instructions-image'>","","instructions","","","","","","","","","","","","","",""
"learning-instructions","28","174670","0.0-3.0-5.0-0.3","spark_pilot_2","7350","2","13","Female","","","","","","","424.90000009536743","<p> Let’s try practicing that now. </p>
            <p> When you see an animal, choose which chest to search for treasure. </p>
            <img src='./assets/img/instructions/chooseChest.jpg' class='instructions-image'>","","instructions","","","","","","","","","","","","","",""
"revaluation","29","178677","0.0-3.0-6.0-0.0","spark_pilot_2","7350","2","13","Female","","false","","","","","[942.2999997138977]","./assets/img/space/animals/rabbit.jpg","[""ArrowRight""]","second stage practice","space","23","{""ArrowUp,ArrowLeft"":3,""ArrowUp,ArrowRight"":36,""ArrowDown,ArrowLeft"":15,""ArrowDown,ArrowRight"":23}","true","ArrowDown,ArrowRight","","","","","","","","",""
"html-keyboard-response","30","179189","0.0-3.0-6.0-1.0","spark_pilot_2","7350","2","13","Female","","","","","","","null","<div style=""font-size:60px;"">+</div>","null","fixation","","","","","","","","","","","","","",""
"revaluation","31","183203","0.0-3.0-6.0-0.1","spark_pilot_2","7350","2","13","Female","","false","","","","","[982.6999998092651]","./assets/img/space/animals/cat.jpg","[""ArrowRight""]","second stage practice","space","36","{""ArrowUp,ArrowLeft"":3,""ArrowUp,ArrowRight"":36,""ArrowDown,ArrowLeft"":15,""ArrowDown,ArrowRight"":23}","true","ArrowUp,ArrowRight","","","","","","","","",""
"html-keyboard-response","32","183715","0.0-3.0-6.0-1.1","spark_pilot_2","7350","2","13","Female","","","","","","","null","<div style=""font-size:60px;"">+</div>","null","fixation","","","","","","","","","","","","","",""
"revaluation","33","187736","0.0-3.0-6.0-0.2","spark_pilot_2","7350","2","13","Female","","false","","","","","[484.3999996185303]","./assets/img/space/animals/rabbit.jpg","[""ArrowLeft""]","second stage practice","space","15","{""ArrowUp,ArrowLeft"":3,""ArrowUp,ArrowRight"":36,""ArrowDown,ArrowLeft"":15,""ArrowDown,ArrowRight"":23}","false","ArrowDown,ArrowLeft","","","","","","","","",""
"html-keyboard-response","34","188250","0.0-3.0-6.0-1.2","spark_pilot_2","7350","2","13","Female","","","","","","","null","<div style=""font-size:60px;"">+</div>","null","fixation","","","","","","","","","","","","","",""
"revaluation","35","192266","0.0-3.0-6.0-0.3","spark_pilot_2","7350","2","13","Female","","false","","","","","[1093.8000001907349]","./assets/img/space/animals/cat.jpg","[""ArrowRight""]","second stage practice","space","36","{""ArrowUp,ArrowLeft"":3,""ArrowUp,ArrowRight"":36,""ArrowDown,ArrowLeft"":15,""ArrowDown,ArrowRight"":23}","true","ArrowUp,ArrowRight","","","","","","","","",""
"html-keyboard-response","36","192779","0.0-3.0-6.0-1.3","spark_pilot_2","7350","2","13","Female","","","","","","","null","<div style=""font-size:60px;"">+</div>","null","fixation","","","","","","","","","","","","","",""
"learning-instructions","37","212180","0.0-3.0-7.0-0.0","spark_pilot_2","7350","2","13","Female","","","","","","","535.9000000953674","<p> Great job. Now let’s try putting it together. </p>
            <p> On each turn, you will first see a picture to remind you of the place you are in, and you need to choose whether to go up or down. </p>
            <p> Then you will see an animal and choose which of its chests to search for treasure. </p>","","instructions","","","","","","","","","","","","","",""
"learning-instructions","38","222735","0.0-3.0-7.0-0.1","spark_pilot_2","7350","2","13","Female","","","","","","","521","<p> When you choose whether to go up or down, try to go to the animal with the chest with the most treasure. </p>
            <p> Try practicing that now! </p>","","instructions","","","","","","","","","","","","","",""
"revaluation","39","228761","0.0-3.0-8.0-0.0","spark_pilot_2","7350","2","13","Female","","false","","","","","[655.2000002861023,636.8000001907349]","./assets/img/space/6.jpg","[""ArrowUp"",""ArrowRight""]","full practice","space","36","{""ArrowUp,ArrowLeft"":3,""ArrowUp,ArrowRight"":36,""ArrowDown,ArrowLeft"":15,""ArrowDown,ArrowRight"":23}","true","ArrowUp,ArrowRight","false","","","","","","","",""
"html-keyboard-response","40","229272","0.0-3.0-8.0-1.0","spark_pilot_2","7350","2","13","Female","","","","","","","null","<div style=""font-size:60px;"">+</div>","null","fixation","","","","","","","","","","","","","",""
"revaluation","41","235284","0.0-3.0-8.0-0.1","spark_pilot_2","7350","2","13","Female","","false","","","","","[559.2000002861023,483.40000009536743]","./assets/img/space/7.jpg","[""ArrowUp"",""ArrowLeft""]","full practice","space","3","{""ArrowUp,ArrowLeft"":3,""ArrowUp,ArrowRight"":36,""ArrowDown,ArrowLeft"":15,""ArrowDown,ArrowRight"":23}","false","ArrowUp,ArrowLeft","false","","","","","","","",""
"html-keyboard-response","42","235796","0.0-3.0-8.0-1.1","spark_pilot_2","7350","2","13","Female","","","","","","","null","<div style=""font-size:60px;"">+</div>","null","fixation","","","","","","","","","","","","","",""
"revaluation","43","241816","0.0-3.0-8.0-0.2","spark_pilot_2","7350","2","13","Female","","false","","","","","[1072.4000000953674,373.59999990463257]","./assets/img/space/8.jpg","[""ArrowDown"",""ArrowRight""]","full practice","space","23","{""ArrowUp,ArrowLeft"":3,""ArrowUp,ArrowRight"":36,""ArrowDown,ArrowLeft"":15,""ArrowDown,ArrowRight"":23}","false","ArrowDown,ArrowRight","false","","","","","","","",""
"html-keyboard-response","44","242329","0.0-3.0-8.0-1.2","spark_pilot_2","7350","2","13","Female","","","","","","","null","<div style=""font-size:60px;"">+</div>","null","fixation","","","","","","","","","","","","","",""
"revaluation","45","248349","0.0-3.0-8.0-0.3","spark_pilot_2","7350","2","13","Female","","false","","","","","[1006.0999999046326,443.59999990463257]","./assets/img/space/9.jpg","[""ArrowDown"",""ArrowLeft""]","full practice","space","15","{""ArrowUp,ArrowLeft"":3,""ArrowUp,ArrowRight"":36,""ArrowDown,ArrowLeft"":15,""ArrowDown,ArrowRight"":23}","false","ArrowDown,ArrowLeft","false","","","","","","","",""
"html-keyboard-response","46","248864","0.0-3.0-8.0-1.3","spark_pilot_2","7350","2","13","Female","","","","","","","null","<div style=""font-size:60px;"">+</div>","null","fixation","","","","","","","","","","","","","",""
"revaluation","47","254884","0.0-3.0-8.0-0.4","spark_pilot_2","7350","2","13","Female","","false","","","","","[480.7999997138977,310.7999997138977]","./assets/img/space/10.jpg","[""ArrowUp"",""ArrowRight""]","full practice","space","36","{""ArrowUp,ArrowLeft"":3,""ArrowUp,ArrowRight"":36,""ArrowDown,ArrowLeft"":15,""ArrowDown,ArrowRight"":23}","true","ArrowUp,ArrowRight","false","","","","","","","",""
"html-keyboard-response","48","255385","0.0-3.0-8.0-1.4","spark_pilot_2","7350","2","13","Female","","","","","","","null","<div style=""font-size:60px;"">+</div>","null","fixation","","","","","","","","","","","","","",""
"learning-instructions","49","268464","0.0-3.0-9.0-0.0","spark_pilot_2","7350","2","13","Female","","","","","","","894","<p> One last thing: sometimes, you will see a robber. The robber can be anywhere in the picture. </p>
            <p> If you do not stop them, you will lose treasure. </p>
            <img src='./assets/img/instructions/robber.jpg' class='instructions-image'>","","instructions","","","","","","","","","","","","","",""
"learning-instructions","50","277881","0.0-3.0-9.0-0.1","spark_pilot_2","7350","2","13","Female","","","","","","","501.69999980926514","<p> If you see the robber, you should <b>press the space bar</b> rather than using the arrow keys. </p>
            <p> Try practicing that now! </p>","","instructions","","","","","","","","","","","","","",""
"revaluation","51","281898","0.0-3.0-10.0-0.0","spark_pilot_2","7350","2","13","Female","","false","","","","","[655.8999996185303]","./assets/img/space/catch/0.jpg","[""spaceBar""]","catch practice","space","0","{""ArrowUp,ArrowLeft"":3,""ArrowUp,ArrowRight"":36,""ArrowDown,ArrowLeft"":15,""ArrowDown,ArrowRight"":23}","true","spaceBar","true","","","","","","","",""
"html-keyboard-response","52","282411","0.0-3.0-10.0-1.0","spark_pilot_2","7350","2","13","Female","","","","","","","null","<div style=""font-size:60px;"">+</div>","null","fixation","","","","","","","","","","","","","",""
"revaluation","53","286438","0.0-3.0-10.0-0.1","spark_pilot_2","7350","2","13","Female","","false","","","","","[515.9000000953674]","./assets/img/space/catch/1.jpg","[""spaceBar""]","catch practice","space","0","{""ArrowUp,ArrowLeft"":3,""ArrowUp,ArrowRight"":36,""ArrowDown,ArrowLeft"":15,""ArrowDown,ArrowRight"":23}","true","spaceBar","true","","","","","","","",""
"html-keyboard-response","54","286952","0.0-3.0-10.0-1.1","spark_pilot_2","7350","2","13","Female","","","","","","","null","<div style=""font-size:60px;"">+</div>","null","fixation","","","","","","","","","","","","","",""
"revaluation","55","290966","0.0-3.0-10.0-0.2","spark_pilot_2","7350","2","13","Female","","false","","","","","[413.19999980926514]","./assets/img/space/catch/2.jpg","[""spaceBar""]","catch practice","space","0","{""ArrowUp,ArrowLeft"":3,""ArrowUp,ArrowRight"":36,""ArrowDown,ArrowLeft"":15,""ArrowDown,ArrowRight"":23}","true","spaceBar","true","","","","","","","",""
"html-keyboard-response","56","291480","0.0-3.0-10.0-1.2","spark_pilot_2","7350","2","13","Female","","","","","","","null","<div style=""font-size:60px;"">+</div>","null","fixation","","","","","","","","","","","","","",""
"learning-instructions","57","307706","0.0-3.0-11.0-0.0","spark_pilot_2","7350","2","13","Female","","","","","","","656.5999999046326","<p> After you explore a place to find treasure, it will be time to play a different game. </p>
            <p> During this game, red dots will appear on the screen and fall down slowly. </p>
            <p><b> You must click on them before they reach the bottom. </b></p>
            <img src='./assets/img/instructions/dotGame.jpg' class='instructions-image'>","","instructions","","","","","","","","","","","","","",""
"learning-instructions","58","315595","0.0-3.0-11.0-0.1","spark_pilot_2","7350","2","13","Female","","","","","","","556","<p> For every dot you click, you will earn additional treasure. </p>
            <p> Let’s try practicing that now. </p>","","instructions","","","","","","","","","","","","","",""
"revaluation","59","330602","0.0-3.0-12.0-0.0","spark_pilot_2","7350","2","13","Female","","","","","","","[57,49]","","","rest practice","","20","","","","","0","15000","","","","","",""
"learning-instructions","60","337521","0.0-3.0-13.0-0.0-0.0","spark_pilot_2","7350","2","13","Female","","","","","","","1682","<p> Now, you will practice a shortened version of the game to get a sense of how it all fits together. </p>","","instructions","","","","","","","","","","","","","",""
"learning-instructions","61","341608","0.0-3.0-13.0-0.0-0.1","spark_pilot_2","7350","2","13","Female","","","","","","","889","<p>This time you are searching for treasure in outer space.</p>","","instructions","","","","","","","","","","","","","",""
"learning-instructions","62","357436","0.0-3.0-13.0-1.0-0.0","spark_pilot_2","7350","2","13","Female","","","","","","","1057.1000003814697","<p> Remember, when you see a picture of the place, use the up and down keys to <b>find an animal</b>.</p>
            <p> When you encounter an animal, you should use the left and right keys to <b>select a treasure chest</b>.</p>
            <p> Don't forget to look out for the robber! </p>","","instructions","","","","","","","","","","","","","",""
"revaluation","63","363468","0.0-3.0-13.0-2.0-0.0","spark_pilot_2","7350","2","13","Female","","false","","","","","[756.6999998092651,607.6999998092651]","./assets/img/space/11.jpg","[""ArrowUp"",""ArrowRight""]","practice block","space","36","{""ArrowUp,ArrowLeft"":3,""ArrowUp,ArrowRight"":36,""ArrowDown,ArrowLeft"":15,""ArrowDown,ArrowRight"":23}","true","ArrowUp,ArrowRight","false","","","","","","","",""
"html-keyboard-response","64","363982","0.0-3.0-13.0-2.0-1.0","spark_pilot_2","7350","2","13","Female","","","","","","","null","<div style=""font-size:60px;"">+</div>","null","fixation","","","","","","","","","","","","","",""
"revaluation","65","370011","0.0-3.0-13.0-2.0-0.1","spark_pilot_2","7350","2","13","Female","","false","","","","","[534.4000000953674,365.7000002861023]","./assets/img/space/12.jpg","[""ArrowUp"",""ArrowLeft""]","practice block","space","3","{""ArrowUp,ArrowLeft"":3,""ArrowUp,ArrowRight"":36,""ArrowDown,ArrowLeft"":15,""ArrowDown,ArrowRight"":23}","false","ArrowUp,ArrowLeft","false","","","","","","","",""
"html-keyboard-response","66","370522","0.0-3.0-13.0-2.0-1.1","spark_pilot_2","7350","2","13","Female","","","","","","","null","<div style=""font-size:60px;"">+</div>","null","fixation","","","","","","","","","","","","","",""
"revaluation","67","376532","0.0-3.0-13.0-2.0-0.2","spark_pilot_2","7350","2","13","Female","","false","","","","","[894.0999999046326,352.5]","./assets/img/space/13.jpg","[""ArrowUp"",""ArrowRight""]","practice block","space","36","{""ArrowUp,ArrowLeft"":3,""ArrowUp,ArrowRight"":36,""ArrowDown,ArrowLeft"":15,""ArrowDown,ArrowRight"":23}","true","ArrowUp,ArrowRight","false","","","","","","","",""
"html-keyboard-response","68","377045","0.0-3.0-13.0-2.0-1.2","spark_pilot_2","7350","2","13","Female","","","","","","","null","<div style=""font-size:60px;"">+</div>","null","fixation","","","","","","","","","","","","","",""
"revaluation","69","383071","0.0-3.0-13.0-2.0-0.3","spark_pilot_2","7350","2","13","Female","","false","","","","","[822,326.90000009536743]","./assets/img/space/14.jpg","[""ArrowUp"",""ArrowRight""]","practice block","space","36","{""ArrowUp,ArrowLeft"":3,""ArrowUp,ArrowRight"":36,""ArrowDown,ArrowLeft"":15,""ArrowDown,ArrowRight"":23}","true","ArrowUp,ArrowRight","false","","","","","","","",""
"html-keyboard-response","70","383585","0.0-3.0-13.0-2.0-1.3","spark_pilot_2","7350","2","13","Female","","","","","","","null","<div style=""font-size:60px;"">+</div>","null","fixation","","","","","","","","","","","","","",""
"revaluation","71","389592","0.0-3.0-13.0-2.0-0.4","spark_pilot_2","7350","2","13","Female","","false","","","","","[1201.8999996185303,589.5999999046326]","./assets/img/space/11.jpg","[""ArrowUp"",""ArrowRight""]","practice block","space","36","{""ArrowUp,ArrowLeft"":3,""ArrowUp,ArrowRight"":36,""ArrowDown,ArrowLeft"":15,""ArrowDown,ArrowRight"":23}","true","ArrowUp,ArrowRight","false","","","","","","","",""
"html-keyboard-response","72","390094","0.0-3.0-13.0-2.0-1.4","spark_pilot_2","7350","2","13","Female","","","","","","","null","<div style=""font-size:60px;"">+</div>","null","fixation","","","","","","","","","","","","","",""
"revaluation","73","396098","0.0-3.0-13.0-2.0-0.5","spark_pilot_2","7350","2","13","Female","","false","","","","","[791.6999998092651,314.7000002861023]","./assets/img/space/12.jpg","[""ArrowDown"",""ArrowRight""]","practice block","space","23","{""ArrowUp,ArrowLeft"":3,""ArrowUp,ArrowRight"":36,""ArrowDown,ArrowLeft"":15,""ArrowDown,ArrowRight"":23}","false","ArrowDown,ArrowRight","false","","","","","","","",""
"html-keyboard-response","74","396600","0.0-3.0-13.0-2.0-1.5","spark_pilot_2","7350","2","13","Female","","","","","","","null","<div style=""font-size:60px;"">+</div>","null","fixation","","","","","","","","","","","","","",""
"revaluation","75","402606","0.0-3.0-13.0-2.0-0.6","spark_pilot_2","7350","2","13","Female","","false","","","","","[717.5,352.2999997138977]","./assets/img/space/13.jpg","[""ArrowUp"",""ArrowRight""]","practice block","space","36","{""ArrowUp,ArrowLeft"":3,""ArrowUp,ArrowRight"":36,""ArrowDown,ArrowLeft"":15,""ArrowDown,ArrowRight"":23}","true","ArrowUp,ArrowRight","false","","","","","","","",""
"html-keyboard-response","76","403107","0.0-3.0-13.0-2.0-1.6","spark_pilot_2","7350","2","13","Female","","","","","","","null","<div style=""font-size:60px;"">+</div>","null","fixation","","","","","","","","","","","","","",""
"revaluation","77","409114","0.0-3.0-13.0-2.0-0.7","spark_pilot_2","7350","2","13","Female","","false","","","","","[780.0999999046326,347.2999997138977]","./assets/img/space/14.jpg","[""ArrowUp"",""ArrowRight""]","practice block","space","36","{""ArrowUp,ArrowLeft"":3,""ArrowUp,ArrowRight"":36,""ArrowDown,ArrowLeft"":15,""ArrowDown,ArrowRight"":23}","true","ArrowUp,ArrowRight","false","","","","","","","",""
"html-keyboard-response","78","409614","0.0-3.0-13.0-2.0-1.7","spark_pilot_2","7350","2","13","Female","","","","","","","null","<div style=""font-size:60px;"">+</div>","null","fixation","","","","","","","","","","","","","",""
"revaluation","79","413619","0.0-3.0-13.0-2.0-0.8","spark_pilot_2","7350","2","13","Female","","false","","","","","[637.5999999046326]","./assets/img/space/catch/3.jpg","[""spaceBar""]","practice block","space","0","{""ArrowUp,ArrowLeft"":3,""ArrowUp,ArrowRight"":36,""ArrowDown,ArrowLeft"":15,""ArrowDown,ArrowRight"":23}","true","spaceBar","true","","","","","","","",""
"html-keyboard-response","80","414120","0.0-3.0-13.0-2.0-1.8","spark_pilot_2","7350","2","13","Female","","","","","","","null","<div style=""font-size:60px;"">+</div>","null","fixation","","","","","","","","","","","","","",""
"learning-instructions","81","431820","0.0-3.0-13.0-3.0-0.0","spark_pilot_2","7350","2","13","Female","","","","","","","4753.300000190735","<p> Now, you will travel with a friend who will choose whether you go up or down first. </p>
            <p> On these turns, you will just see the animal that they found. You will still get to choose which chest to search for treasure.</p>","","instructions","","","","","","","","","","","","","",""
"revaluation","82","435841","0.0-3.0-13.0-4.0-0.0","spark_pilot_2","7350","2","13","Female","","false","","","","","[1280.1000003814697]","./assets/img/space/animals/rabbit.jpg","[""ArrowRight""]","practice block","space","23","{""ArrowUp,ArrowLeft"":3,""ArrowUp,ArrowRight"":36,""ArrowDown,ArrowLeft"":15,""ArrowDown,ArrowRight"":23}","true","ArrowDown,ArrowRight","","","","","","","","",""
"html-keyboard-response","83","436351","0.0-3.0-13.0-4.0-1.0","spark_pilot_2","7350","2","13","Female","","","","","","","null","<div style=""font-size:60px;"">+</div>","null","fixation","","","","","","","","","","","","","",""
"revaluation","84","440385","0.0-3.0-13.0-4.0-0.1","spark_pilot_2","7350","2","13","Female","","false","","","","","[390.40000009536743]","./assets/img/space/animals/rabbit.jpg","[""ArrowRight""]","practice block","space","23","{""ArrowUp,ArrowLeft"":3,""ArrowUp,ArrowRight"":36,""ArrowDown,ArrowLeft"":15,""ArrowDown,ArrowRight"":23}","true","ArrowDown,ArrowRight","","","","","","","","",""
"html-keyboard-response","85","440895","0.0-3.0-13.0-4.0-1.1","spark_pilot_2","7350","2","13","Female","","","","","","","null","<div style=""font-size:60px;"">+</div>","null","fixation","","","","","","","","","","","","","",""
"revaluation","86","444908","0.0-3.0-13.0-4.0-0.2","spark_pilot_2","7350","2","13","Female","","false","","","","","[748.2999997138977]","./assets/img/space/animals/cat.jpg","[""ArrowRight""]","practice block","space","36","{""ArrowUp,ArrowLeft"":3,""ArrowUp,ArrowRight"":36,""ArrowDown,ArrowLeft"":15,""ArrowDown,ArrowRight"":23}","true","ArrowUp,ArrowRight","","","","","","","","",""
"html-keyboard-response","87","445420","0.0-3.0-13.0-4.0-1.2","spark_pilot_2","7350","2","13","Female","","","","","","","null","<div style=""font-size:60px;"">+</div>","null","fixation","","","","","","","","","","","","","",""
"revaluation","88","449441","0.0-3.0-13.0-4.0-0.3","spark_pilot_2","7350","2","13","Female","","false","","","","","[418]","./assets/img/space/animals/cat.jpg","[""ArrowRight""]","practice block","space","36","{""ArrowUp,ArrowLeft"":3,""ArrowUp,ArrowRight"":36,""ArrowDown,ArrowLeft"":15,""ArrowDown,ArrowRight"":23}","true","ArrowUp,ArrowRight","","","","","","","","",""
"html-keyboard-response","89","449951","0.0-3.0-13.0-4.0-1.3","spark_pilot_2","7350","2","13","Female","","","","","","","null","<div style=""font-size:60px;"">+</div>","null","fixation","","","","","","","","","","","","","",""
"learning-instructions","90","457962","0.0-3.0-13.0-5.0-0.0","spark_pilot_2","7350","2","13","Female","","","","","","","644.7999997138977","<p> Time to play the dot game! </p>
            <p> For 15 seconds, click the red dots on the following screen as they appear. </p>","","instructions","","","","","","","","","","","","","",""
"revaluation","91","472964","0.0-3.0-13.0-6.0-0.0","spark_pilot_2","7350","2","13","Female","","","","","","","[73]","","","rest practice","","10","","","","","0","15000","","","","","",""
"learning-instructions","92","481628","0.0-3.0-13.0-7.0-0.0","spark_pilot_2","7350","2","13","Female","","","","","","","930.2999997138977","<p> You have almost finished this part of the game! </p>
            <p> We are going to ask you to make a few more choices. </p>","","instructions","","","","","","","","","","","","","",""
"learning-instructions","93","501919","0.0-3.0-13.0-7.0-0.1","spark_pilot_2","7350","2","13","Female","","","","","","","3982.699999809265","<p> First, you need to decide whether to go up or down. When you see each picture, use the arrow keys to make your choice. </p>
            <p><b>You will not see which animal you found, but try to get to the one that will give you the most treasure.</b></p>","","instructions","","","","","","","","","","","","","",""
"revaluation","94","502827","0.0-3.0-13.0-8.0","spark_pilot_2","7350","2","13","Female","","false","","","","","[905.9000000953674]","./assets/img/space/15.jpg","[""ArrowUp""]","practice block","space","0","{""ArrowUp,ArrowLeft"":3,""ArrowUp,ArrowRight"":36,""ArrowDown,ArrowLeft"":15,""ArrowDown,ArrowRight"":23}","true","ArrowUp","false","","","","","","","",""
"html-keyboard-response","95","503334","0.0-3.0-13.0-9.0","spark_pilot_2","7350","2","13","Female","","","","","","","null","<div style=""font-size:60px;"">+</div>","null","fixation","","","","","","","","","","","","","",""
"learning-instructions","96","515159","0.0-3.0-13.0-10.0-0.0","spark_pilot_2","7350","2","13","Female","","","","","","","452.80000019073486","<p> Now you will see the animals again and can search their chests for treasure. </p>
            <p> This time, you will not see how much treasure you earned, but you will earn more bonus money for making better choices. </p>","","instructions","","","","","","","","","","","","","",""
"revaluation","97","515766","0.0-3.0-13.0-11.0-0.0","spark_pilot_2","7350","2","13","Female","","false","","","","","[604]","./assets/img/space/animals/cat.jpg","[""ArrowRight""]","practice block","space","0","{""ArrowUp,ArrowLeft"":3,""ArrowUp,ArrowRight"":36,""ArrowDown,ArrowLeft"":15,""ArrowDown,ArrowRight"":23}","true","ArrowUp,ArrowRight","","","","","","","","",""
"html-keyboard-response","98","516273","0.0-3.0-13.0-11.0-1.0","spark_pilot_2","7350","2","13","Female","","","","","","","null","<div style=""font-size:60px;"">+</div>","null","fixation","","","","","","","","","","","","","",""
"revaluation","99","517217","0.0-3.0-13.0-11.0-0.1","spark_pilot_2","7350","2","13","Female","","false","","","","","[941.2999997138977]","./assets/img/space/animals/rabbit.jpg","[""ArrowRight""]","practice block","space","0","{""ArrowUp,ArrowLeft"":3,""ArrowUp,ArrowRight"":36,""ArrowDown,ArrowLeft"":15,""ArrowDown,ArrowRight"":23}","true","ArrowDown,ArrowRight","","","","","","","","",""
"html-keyboard-response","100","517733","0.0-3.0-13.0-11.0-1.1","spark_pilot_2","7350","2","13","Female","","","","","","","null","<div style=""font-size:60px;"">+</div>","null","fixation","","","","","","","","","","","","","",""
"learning-instructions","101","522872","0.0-3.0-14.0-0.0","spark_pilot_2","7350","2","13","Female","","","","","","","545.2000002861023","<p> Before you start, we're going to ask you a few questions about how the game works. </p>","","instructions","","","","","","","","","","","","","",""
"comp-q","102","533335","0.0-3.0-15.0-0.0-0.0","spark_pilot_2","7350","2","13","Female","","","","","","","4874.10000038147","<p> <b> True or False? </b> </p>
            <p> There can be 50 pieces of treasure in a given animal's chest. </p>","0","comp_question","","","","false","","","","","","","","","",""
"comp-q","103","540875","0.0-3.0-15.0-0.0-1.0","spark_pilot_2","7350","2","13","Female","","","","","","","1008.5","<p> <b>Incorrect.</b> The amount of treasure in each chest can range from 0 to 40 pieces. </p>","0","comp_answer","","","","","","","","","","","","","",""
"comp-q","104","548846","0.0-3.0-15.0-0.1-0.1","spark_pilot_2","7350","2","13","Female","","","","","","","2399.0999999046326","<p> <b> True or False? </b> </p>
            <p> There can be 50 pieces of treasure in a given animal's chest. </p>","1","comp_question","","","","true","","","","","","","","","",""
"comp-q","105","557124","0.0-3.0-15.0-0.1-1.1","spark_pilot_2","7350","2","13","Female","","","","","","","1628.1999998092651","<p> <b> That's right! </b> The amount of treasure in each chest can range from 0 to 40 pieces. </p>","0","comp_answer","","","","","","","","","","","","","",""
"comp-q","106","565490","0.0-3.0-15.0-0.2-0.2","spark_pilot_2","7350","2","13","Female","","","","","","","1254.6999998092651","<p> <b> True or False? </b> </p><p> In this game, all animals have the same amount of treasure in their left and right chests. </p>","1","comp_question","","","","true","","","","","","","","","",""
"comp-q","107","571413","0.0-3.0-15.0-0.2-1.2","spark_pilot_2","7350","2","13","Female","","","","","","","696.6000003814697","<p> <b> That's right! </b> Animals have different amounts of treasure in their treasure chests. </p>","0","comp_answer","","","","","","","","","","","","","",""
"comp-q","108","578112","0.0-3.0-15.0-0.3-0.3","spark_pilot_2","7350","2","13","Female","","","","","","","846.7000002861023","<p> <b> True or False? </b> </p><p> The same animal will always be there if you go up in the same place. </p>","0","comp_question","","","","true","","","","","","","","","",""
"comp-q","109","585650","0.0-3.0-15.0-0.3-1.3","spark_pilot_2","7350","2","13","Female","","","","","","","1095.4000000953674","<p> <b> That's right! </b> One animal lives in the upper part and one lives in the lower part of every place. </p>","0","comp_answer","","","","","","","","","","","","","",""
"comp-q","110","591809","0.0-3.0-15.0-0.4-0.4","spark_pilot_2","7350","2","13","Female","","","","","","","643.4000000953674","<p> <b> True or False? </b> </p><p> If you see a different picture, it means you are in a new place. </p>","0","comp_question","","","","false","","","","","","","","","",""
"comp-q","111","603654","0.0-3.0-15.0-0.4-1.4","spark_pilot_2","7350","2","13","Female","","","","","","","748.5999999046326","<p> <b>Incorrect.</b> Lots of different images may show the same place. For example,  you may see three different images that all remind you that you are in outer space. </p>","0","comp_answer","","","","","","","","","","","","","",""
"comp-q","112","609650","0.0-3.0-15.0-0.5-0.5","spark_pilot_2","7350","2","13","Female","","","","","","","494.09999990463257","<p> <b> True or False? </b> </p><p> If you see a different picture, it means you are in a new place. </p>","1","comp_question","","","","true","","","","","","","","","",""
"comp-q","113","621762","0.0-3.0-15.0-0.5-1.5","spark_pilot_2","7350","2","13","Female","","","","","","","466.2000002861023","<p> <b> That's right! </b> Lots of different images may show the same place. For example,  you may see three different images that all remind you that you are in outer space. </p>","0","comp_answer","","","","","","","","","","","","","",""
"learning-instructions","114","633001","0.0-3.0-16.0-0.0","spark_pilot_2","7350","2","13","Female","","","","","","","1385.5999999046326","<p> Good job. Remember to do your best because the amount of treasure you earn will be converted into bonus money. </p>
            <p> It’s time to start the real game! </p>","","instructions","","","","","","","","","","","","","",""
"learning-instructions","115","636539","0.0-4.0-0.0-0.0","spark_pilot_2","7350","2","13","Female","","","","","","","833.3000001907349","<p> This time you are searching for treasure in the <b>ocean</b>.</p>","","instructions","","","","","","","","","","","","","",""
"learning-instructions","116","655617","0.0-4.0-0.0-0.1","spark_pilot_2","7350","2","13","Female","","","","","","","1772.5","<p><b>New</b> animals with <b>new</b> treasure chests live here. You need to explore to discover where the animal with the best treasure chest is.</p>
                    <p> Like before, once you figure out which animal has the chest with the most treasure, you should try to get to that animal and select that chest! </p>","","instructions","","","","","","","","","","","","","",""
"learning-instructions","117","671045","0.0-4.0-1.0-0.0","spark_pilot_2","7350","2","13","Female","","","","","","","698.8000001907349","<p> Remember, when you see a picture of the place, use the up and down keys to <b>find an animal</b>.</p>
            <p> When you encounter an animal, you should use the left and right keys to <b>select a treasure chest</b>.</p>
            <p> Don't forget to look out for the robber! </p>","","instructions","","","","","","","","","","","","","",""
"revaluation","118","677064","0.0-4.0-2.0-0.0","spark_pilot_2","7350","2","13","Female","","false","","","","","[925.5999999046326,847.1000003814697]","./assets/img/ocean/memory/38.jpg","[""ArrowUp"",""ArrowRight""]","value training","ocean","10","{""ArrowUp,ArrowLeft"":23,""ArrowUp,ArrowRight"":10,""ArrowDown,ArrowLeft"":8,""ArrowDown,ArrowRight"":30}","false","ArrowUp,ArrowRight","false","","","revaluation","1","0","","",""
"html-keyboard-response","119","677580","0.0-4.0-2.0-1.0","spark_pilot_2","7350","2","13","Female","","","","","","","null","<div style=""font-size:60px;"">+</div>","null","fixation","","","","","","","","","","","1","","",""
"revaluation","120","683611","0.0-4.0-2.0-0.1","spark_pilot_2","7350","2","13","Female","","false","","","","","[730.9000000953674,310.2000002861023]","./assets/img/ocean/memory/34.jpg","[""ArrowUp"",""ArrowLeft""]","value training","ocean","23","{""ArrowUp,ArrowLeft"":23,""ArrowUp,ArrowRight"":10,""ArrowDown,ArrowLeft"":8,""ArrowDown,ArrowRight"":30}","false","ArrowUp,ArrowLeft","false","","","revaluation","1","2","","",""
"html-keyboard-response","121","684120","0.0-4.0-2.0-1.1","spark_pilot_2","7350","2","13","Female","","","","","","","null","<div style=""font-size:60px;"">+</div>","null","fixation","","","","","","","","","","","3","","",""
"revaluation","122","690141","0.0-4.0-2.0-0.2","spark_pilot_2","7350","2","13","Female","","false","","","","","[631.0999999046326,414.40000009536743]","./assets/img/ocean/memory/22.jpg","[""ArrowDown"",""ArrowLeft""]","value training","ocean","8","{""ArrowUp,ArrowLeft"":23,""ArrowUp,ArrowRight"":10,""ArrowDown,ArrowLeft"":8,""ArrowDown,ArrowRight"":30}","false","ArrowDown,ArrowLeft","false","","","revaluation","1","4","","",""
"html-keyboard-response","123","690651","0.0-4.0-2.0-1.2","spark_pilot_2","7350","2","13","Female","","","","","","","null","<div style=""font-size:60px;"">+</div>","null","fixation","","","","","","","","","","","5","","",""
"revaluation","124","696667","0.0-4.0-2.0-0.3","spark_pilot_2","7350","2","13","Female","","false","","","","","[550.6999998092651,356.90000009536743]","./assets/img/ocean/memory/4.jpg","[""ArrowDown"",""ArrowRight""]","value training","ocean","30","{""ArrowUp,ArrowLeft"":23,""ArrowUp,ArrowRight"":10,""ArrowDown,ArrowLeft"":8,""ArrowDown,ArrowRight"":30}","true","ArrowDown,ArrowRight","false","","","revaluation","1","6","","",""
"html-keyboard-response","125","697179","0.0-4.0-2.0-1.3","spark_pilot_2","7350","2","13","Female","","","","","","","null","<div style=""font-size:60px;"">+</div>","null","fixation","","","","","","","","","","","7","","",""
"revaluation","126","703190","0.0-4.0-2.0-0.4","spark_pilot_2","7350","2","13","Female","","false","","","","","[722.5999999046326,349.7000002861023]","./assets/img/ocean/memory/12.jpg","[""ArrowDown"",""ArrowRight""]","value training","ocean","30","{""ArrowUp,ArrowLeft"":23,""ArrowUp,ArrowRight"":10,""ArrowDown,ArrowLeft"":8,""ArrowDown,ArrowRight"":30}","true","ArrowDown,ArrowRight","false","","","revaluation","1","8","","",""
"html-keyboard-response","127","703691","0.0-4.0-2.0-1.4","spark_pilot_2","7350","2","13","Female","","","","","","","null","<div style=""font-size:60px;"">+</div>","null","fixation","","","","","","","","","","","9","","",""
"revaluation","128","709706","0.0-4.0-2.0-0.5","spark_pilot_2","7350","2","13","Female","","false","","","","","[548.5,349.2000002861023]","./assets/img/ocean/memory/38.jpg","[""ArrowDown"",""ArrowRight""]","value training","ocean","30","{""ArrowUp,ArrowLeft"":23,""ArrowUp,ArrowRight"":10,""ArrowDown,ArrowLeft"":8,""ArrowDown,ArrowRight"":30}","true","ArrowDown,ArrowRight","false","","","revaluation","1","10","","",""
"html-keyboard-response","129","710207","0.0-4.0-2.0-1.5","spark_pilot_2","7350","2","13","Female","","","","","","","null","<div style=""font-size:60px;"">+</div>","null","fixation","","","","","","","","","","","11","","",""
"revaluation","130","716219","0.0-4.0-2.0-0.6","spark_pilot_2","7350","2","13","Female","","false","","","","","[854.6999998092651,388.59999990463257]","./assets/img/ocean/memory/37.jpg","[""ArrowDown"",""ArrowRight""]","value training","ocean","30","{""ArrowUp,ArrowLeft"":23,""ArrowUp,ArrowRight"":10,""ArrowDown,ArrowLeft"":8,""ArrowDown,ArrowRight"":30}","true","ArrowDown,ArrowRight","false","","","revaluation","1","12","","",""
"html-keyboard-response","131","716720","0.0-4.0-2.0-1.6","spark_pilot_2","7350","2","13","Female","","","","","","","null","<div style=""font-size:60px;"">+</div>","null","fixation","","","","","","","","","","","13","","",""
"revaluation","132","720726","0.0-4.0-2.0-0.7","spark_pilot_2","7350","2","13","Female","","false","","","","","[966.8000001907349]","./assets/img/ocean/catch/7.jpg","[""spaceBar""]","value training","ocean","0","{""ArrowUp,ArrowLeft"":23,""ArrowUp,ArrowRight"":10,""ArrowDown,ArrowLeft"":8,""ArrowDown,ArrowRight"":30}","true","spaceBar","true","","","revaluation","1","14","","",""
"html-keyboard-response","133","721227","0.0-4.0-2.0-1.7","spark_pilot_2","7350","2","13","Female","","","","","","","null","<div style=""font-size:60px;"">+</div>","null","fixation","","","","","","","","","","","15","","",""
"revaluation","134","725231","0.0-4.0-2.0-0.8","spark_pilot_2","7350","2","13","Female","","false","","","","","[885.7000002861023]","./assets/img/ocean/catch/1.jpg","[""spaceBar""]","value training","ocean","0","{""ArrowUp,ArrowLeft"":23,""ArrowUp,ArrowRight"":10,""ArrowDown,ArrowLeft"":8,""ArrowDown,ArrowRight"":30}","true","spaceBar","true","","","revaluation","1","16","","",""
"html-keyboard-response","135","725732","0.0-4.0-2.0-1.8","spark_pilot_2","7350","2","13","Female","","","","","","","null","<div style=""font-size:60px;"">+</div>","null","fixation","","","","","","","","","","","17","","",""
"revaluation","136","731738","0.0-4.0-2.0-0.9","spark_pilot_2","7350","2","13","Female","","false","","","","","[852.5,411.80000019073486]","./assets/img/ocean/memory/13.jpg","[""ArrowDown"",""ArrowRight""]","value training","ocean","30","{""ArrowUp,ArrowLeft"":23,""ArrowUp,ArrowRight"":10,""ArrowDown,ArrowLeft"":8,""ArrowDown,ArrowRight"":30}","true","ArrowDown,ArrowRight","false","","","revaluation","1","18","","",""
"html-keyboard-response","137","732240","0.0-4.0-2.0-1.9","spark_pilot_2","7350","2","13","Female","","","","","","","null","<div style=""font-size:60px;"">+</div>","null","fixation","","","","","","","","","","","19","","",""
"revaluation","138","738244","0.0-4.0-2.0-0.10","spark_pilot_2","7350","2","13","Female","","false","","","","","[668.1999998092651,369.90000009536743]","./assets/img/ocean/memory/33.jpg","[""ArrowDown"",""ArrowRight""]","value training","ocean","30","{""ArrowUp,ArrowLeft"":23,""ArrowUp,ArrowRight"":10,""ArrowDown,ArrowLeft"":8,""ArrowDown,ArrowRight"":30}","true","ArrowDown,ArrowRight","false","","","revaluation","1","20","","",""
"html-keyboard-response","139","738746","0.0-4.0-2.0-1.10","spark_pilot_2","7350","2","13","Female","","","","","","","null","<div style=""font-size:60px;"">+</div>","null","fixation","","","","","","","","","","","21","","",""
"revaluation","140","744750","0.0-4.0-2.0-0.11","spark_pilot_2","7350","2","13","Female","","false","","","","","[765.5,470.5]","./assets/img/ocean/memory/7.jpg","[""ArrowDown"",""ArrowRight""]","value training","ocean","30","{""ArrowUp,ArrowLeft"":23,""ArrowUp,ArrowRight"":10,""ArrowDown,ArrowLeft"":8,""ArrowDown,ArrowRight"":30}","true","ArrowDown,ArrowRight","false","","","revaluation","1","22","","",""
"html-keyboard-response","141","745251","0.0-4.0-2.0-1.11","spark_pilot_2","7350","2","13","Female","","","","","","","null","<div style=""font-size:60px;"">+</div>","null","fixation","","","","","","","","","","","23","","",""
"revaluation","142","751257","0.0-4.0-2.0-0.12","spark_pilot_2","7350","2","13","Female","","false","","","","","[902.3000001907349,399.7000002861023]","./assets/img/ocean/memory/31.jpg","[""ArrowDown"",""ArrowRight""]","value training","ocean","30","{""ArrowUp,ArrowLeft"":23,""ArrowUp,ArrowRight"":10,""ArrowDown,ArrowLeft"":8,""ArrowDown,ArrowRight"":30}","true","ArrowDown,ArrowRight","false","","","revaluation","1","24","","",""
"html-keyboard-response","143","751759","0.0-4.0-2.0-1.12","spark_pilot_2","7350","2","13","Female","","","","","","","null","<div style=""font-size:60px;"">+</div>","null","fixation","","","","","","","","","","","25","","",""
"revaluation","144","757764","0.0-4.0-2.0-0.13","spark_pilot_2","7350","2","13","Female","","false","","","","","[764.9000000953674,414.40000009536743]","./assets/img/ocean/memory/7.jpg","[""ArrowDown"",""ArrowRight""]","value training","ocean","30","{""ArrowUp,ArrowLeft"":23,""ArrowUp,ArrowRight"":10,""ArrowDown,ArrowLeft"":8,""ArrowDown,ArrowRight"":30}","true","ArrowDown,ArrowRight","false","","","revaluation","1","26","","",""
"html-keyboard-response","145","758266","0.0-4.0-2.0-1.13","spark_pilot_2","7350","2","13","Female","","","","","","","null","<div style=""font-size:60px;"">+</div>","null","fixation","","","","","","","","","","","27","","",""
"revaluation","146","764271","0.0-4.0-2.0-0.14","spark_pilot_2","7350","2","13","Female","","false","","","","","[746.4000000953674,321]","./assets/img/ocean/memory/33.jpg","[""ArrowDown"",""ArrowRight""]","value training","ocean","30","{""ArrowUp,ArrowLeft"":23,""ArrowUp,ArrowRight"":10,""ArrowDown,ArrowLeft"":8,""ArrowDown,ArrowRight"":30}","true","ArrowDown,ArrowRight","false","","","revaluation","1","28","","",""
"html-keyboard-response","147","764772","0.0-4.0-2.0-1.14","spark_pilot_2","7350","2","13","Female","","","","","","","null","<div style=""font-size:60px;"">+</div>","null","fixation","","","","","","","","","","","29","","",""
"revaluation","148","770778","0.0-4.0-2.0-0.15","spark_pilot_2","7350","2","13","Female","","false","","","","","[1312.2999997138977,396.6000003814697]","./assets/img/ocean/memory/30.jpg","[""ArrowDown"",""ArrowRight""]","value training","ocean","30","{""ArrowUp,ArrowLeft"":23,""ArrowUp,ArrowRight"":10,""ArrowDown,ArrowLeft"":8,""ArrowDown,ArrowRight"":30}","true","ArrowDown,ArrowRight","false","","","revaluation","1","30","","",""
"html-keyboard-response","149","771280","0.0-4.0-2.0-1.15","spark_pilot_2","7350","2","13","Female","","","","","","","null","<div style=""font-size:60px;"">+</div>","null","fixation","","","","","","","","","","","31","","",""
"revaluation","150","777283","0.0-4.0-2.0-0.16","spark_pilot_2","7350","2","13","Female","","false","","","","","[1544.0999999046326,421.90000009536743]","./assets/img/ocean/memory/9.jpg","[""ArrowUp"",""ArrowLeft""]","value training","ocean","23","{""ArrowUp,ArrowLeft"":23,""ArrowUp,ArrowRight"":10,""ArrowDown,ArrowLeft"":8,""ArrowDown,ArrowRight"":30}","false","ArrowUp,ArrowLeft","false","","","revaluation","1","32","","",""
"html-keyboard-response","151","777784","0.0-4.0-2.0-1.16","spark_pilot_2","7350","2","13","Female","","","","","","","null","<div style=""font-size:60px;"">+</div>","null","fixation","","","","","","","","","","","33","","",""
"revaluation","152","781788","0.0-4.0-2.0-0.17","spark_pilot_2","7350","2","13","Female","","false","","","","","[542.5999999046326]","./assets/img/ocean/catch/3.jpg","[""spaceBar""]","value training","ocean","0","{""ArrowUp,ArrowLeft"":23,""ArrowUp,ArrowRight"":10,""ArrowDown,ArrowLeft"":8,""ArrowDown,ArrowRight"":30}","true","spaceBar","true","","","revaluation","1","34","","",""
"html-keyboard-response","153","782290","0.0-4.0-2.0-1.17","spark_pilot_2","7350","2","13","Female","","","","","","","null","<div style=""font-size:60px;"">+</div>","null","fixation","","","","","","","","","","","35","","",""
"revaluation","154","788294","0.0-4.0-2.0-0.18","spark_pilot_2","7350","2","13","Female","","false","","","","","[1240.8000001907349,354.2999997138977]","./assets/img/ocean/memory/30.jpg","[""ArrowDown"",""ArrowRight""]","value training","ocean","30","{""ArrowUp,ArrowLeft"":23,""ArrowUp,ArrowRight"":10,""ArrowDown,ArrowLeft"":8,""ArrowDown,ArrowRight"":30}","true","ArrowDown,ArrowRight","false","","","revaluation","1","36","","",""
"html-keyboard-response","155","788796","0.0-4.0-2.0-1.18","spark_pilot_2","7350","2","13","Female","","","","","","","null","<div style=""font-size:60px;"">+</div>","null","fixation","","","","","","","","","","","37","","",""
"revaluation","156","794799","0.0-4.0-2.0-0.19","spark_pilot_2","7350","2","13","Female","","false","","","","","[734.7999997138977,427.30000019073486]","./assets/img/ocean/memory/19.jpg","[""ArrowDown"",""ArrowRight""]","value training","ocean","30","{""ArrowUp,ArrowLeft"":23,""ArrowUp,ArrowRight"":10,""ArrowDown,ArrowLeft"":8,""ArrowDown,ArrowRight"":30}","true","ArrowDown,ArrowRight","false","","","revaluation","1","38","","",""
"html-keyboard-response","157","795301","0.0-4.0-2.0-1.19","spark_pilot_2","7350","2","13","Female","","","","","","","null","<div style=""font-size:60px;"">+</div>","null","fixation","","","","","","","","","","","39","","",""
"revaluation","158","801306","0.0-4.0-2.0-0.20","spark_pilot_2","7350","2","13","Female","","false","","","","","[824.0999999046326,306.19999980926514]","./assets/img/ocean/memory/16.jpg","[""ArrowDown"",""ArrowRight""]","value training","ocean","30","{""ArrowUp,ArrowLeft"":23,""ArrowUp,ArrowRight"":10,""ArrowDown,ArrowLeft"":8,""ArrowDown,ArrowRight"":30}","true","ArrowDown,ArrowRight","false","","","revaluation","1","40","","",""
"html-keyboard-response","159","801807","0.0-4.0-2.0-1.20","spark_pilot_2","7350","2","13","Female","","","","","","","null","<div style=""font-size:60px;"">+</div>","null","fixation","","","","","","","","","","","41","","",""
"revaluation","160","807813","0.0-4.0-2.0-0.21","spark_pilot_2","7350","2","13","Female","","false","","","","","[1127.4000000953674,419.5]","./assets/img/ocean/memory/24.jpg","[""ArrowDown"",""ArrowRight""]","value training","ocean","30","{""ArrowUp,ArrowLeft"":23,""ArrowUp,ArrowRight"":10,""ArrowDown,ArrowLeft"":8,""ArrowDown,ArrowRight"":30}","true","ArrowDown,ArrowRight","false","","","revaluation","1","42","","",""
"html-keyboard-response","161","808315","0.0-4.0-2.0-1.21","spark_pilot_2","7350","2","13","Female","","","","","","","null","<div style=""font-size:60px;"">+</div>","null","fixation","","","","","","","","","","","43","","",""
"revaluation","162","814321","0.0-4.0-2.0-0.22","spark_pilot_2","7350","2","13","Female","","false","","","","","[527.7999997138977,494.40000009536743]","./assets/img/ocean/memory/12.jpg","[""ArrowDown"",""ArrowRight""]","value training","ocean","30","{""ArrowUp,ArrowLeft"":23,""ArrowUp,ArrowRight"":10,""ArrowDown,ArrowLeft"":8,""ArrowDown,ArrowRight"":30}","true","ArrowDown,ArrowRight","false","","","revaluation","1","44","","",""
"html-keyboard-response","163","814823","0.0-4.0-2.0-1.22","spark_pilot_2","7350","2","13","Female","","","","","","","null","<div style=""font-size:60px;"">+</div>","null","fixation","","","","","","","","","","","45","","",""
"revaluation","164","820829","0.0-4.0-2.0-0.23","spark_pilot_2","7350","2","13","Female","","false","","","","","[826.5,820.4000000953674]","./assets/img/ocean/memory/9.jpg","[""ArrowDown"",""ArrowRight""]","value training","ocean","30","{""ArrowUp,ArrowLeft"":23,""ArrowUp,ArrowRight"":10,""ArrowDown,ArrowLeft"":8,""ArrowDown,ArrowRight"":30}","true","ArrowDown,ArrowRight","false","","","revaluation","1","46","","",""
"html-keyboard-response","165","821330","0.0-4.0-2.0-1.23","spark_pilot_2","7350","2","13","Female","","","","","","","null","<div style=""font-size:60px;"">+</div>","null","fixation","","","","","","","","","","","47","","",""
"revaluation","166","827335","0.0-4.0-2.0-0.24","spark_pilot_2","7350","2","13","Female","","false","","","","","[775.8999996185303,403.1000003814697]","./assets/img/ocean/memory/34.jpg","[""ArrowDown"",""ArrowRight""]","value training","ocean","30","{""ArrowUp,ArrowLeft"":23,""ArrowUp,ArrowRight"":10,""ArrowDown,ArrowLeft"":8,""ArrowDown,ArrowRight"":30}","true","ArrowDown,ArrowRight","false","","","revaluation","1","48","","",""
"html-keyboard-response","167","827837","0.0-4.0-2.0-1.24","spark_pilot_2","7350","2","13","Female","","","","","","","null","<div style=""font-size:60px;"">+</div>","null","fixation","","","","","","","","","","","49","","",""
"revaluation","168","833842","0.0-4.0-2.0-0.25","spark_pilot_2","7350","2","13","Female","","false","","","","","[1605,736.6000003814697]","./assets/img/ocean/memory/19.jpg","[""ArrowDown"",""ArrowRight""]","value training","ocean","30","{""ArrowUp,ArrowLeft"":23,""ArrowUp,ArrowRight"":10,""ArrowDown,ArrowLeft"":8,""ArrowDown,ArrowRight"":30}","true","ArrowDown,ArrowRight","false","","","revaluation","1","50","","",""
"html-keyboard-response","169","834344","0.0-4.0-2.0-1.25","spark_pilot_2","7350","2","13","Female","","","","","","","null","<div style=""font-size:60px;"">+</div>","null","fixation","","","","","","","","","","","51","","",""
"revaluation","170","840351","0.0-4.0-2.0-0.26","spark_pilot_2","7350","2","13","Female","","false","","","","","[977.4000000953674,297.69999980926514]","./assets/img/ocean/memory/2.jpg","[""ArrowDown"",""ArrowRight""]","value training","ocean","30","{""ArrowUp,ArrowLeft"":23,""ArrowUp,ArrowRight"":10,""ArrowDown,ArrowLeft"":8,""ArrowDown,ArrowRight"":30}","true","ArrowDown,ArrowRight","false","","","revaluation","1","52","","",""
"html-keyboard-response","171","840853","0.0-4.0-2.0-1.26","spark_pilot_2","7350","2","13","Female","","","","","","","null","<div style=""font-size:60px;"">+</div>","null","fixation","","","","","","","","","","","53","","",""
"revaluation","172","844854","0.0-4.0-2.0-0.27","spark_pilot_2","7350","2","13","Female","","false","","","","","[492.7999997138977]","./assets/img/ocean/catch/2.jpg","[""spaceBar""]","value training","ocean","0","{""ArrowUp,ArrowLeft"":23,""ArrowUp,ArrowRight"":10,""ArrowDown,ArrowLeft"":8,""ArrowDown,ArrowRight"":30}","true","spaceBar","true","","","revaluation","1","54","","",""
"html-keyboard-response","173","845356","0.0-4.0-2.0-1.27","spark_pilot_2","7350","2","13","Female","","","","","","","null","<div style=""font-size:60px;"">+</div>","null","fixation","","","","","","","","","","","55","","",""
"revaluation","174","851360","0.0-4.0-2.0-0.28","spark_pilot_2","7350","2","13","Female","","false","","","","","[808.9000000953674,473.5]","./assets/img/ocean/memory/13.jpg","[""ArrowDown"",""ArrowRight""]","value training","ocean","30","{""ArrowUp,ArrowLeft"":23,""ArrowUp,ArrowRight"":10,""ArrowDown,ArrowLeft"":8,""ArrowDown,ArrowRight"":30}","true","ArrowDown,ArrowRight","false","","","revaluation","1","56","","",""
"html-keyboard-response","175","851862","0.0-4.0-2.0-1.28","spark_pilot_2","7350","2","13","Female","","","","","","","null","<div style=""font-size:60px;"">+</div>","null","fixation","","","","","","","","","","","57","","",""
"revaluation","176","857868","0.0-4.0-2.0-0.29","spark_pilot_2","7350","2","13","Female","","false","","","","","[804.5,436.5]","./assets/img/ocean/memory/6.jpg","[""ArrowDown"",""ArrowRight""]","value training","ocean","30","{""ArrowUp,ArrowLeft"":23,""ArrowUp,ArrowRight"":10,""ArrowDown,ArrowLeft"":8,""ArrowDown,ArrowRight"":30}","true","ArrowDown,ArrowRight","false","","","revaluation","1","58","","",""
"html-keyboard-response","177","858369","0.0-4.0-2.0-1.29","spark_pilot_2","7350","2","13","Female","","","","","","","null","<div style=""font-size:60px;"">+</div>","null","fixation","","","","","","","","","","","59","","",""
"revaluation","178","864376","0.0-4.0-2.0-0.30","spark_pilot_2","7350","2","13","Female","","false","","","","","[661.5,437.09999990463257]","./assets/img/ocean/memory/16.jpg","[""ArrowDown"",""ArrowRight""]","value training","ocean","30","{""ArrowUp,ArrowLeft"":23,""ArrowUp,ArrowRight"":10,""ArrowDown,ArrowLeft"":8,""ArrowDown,ArrowRight"":30}","true","ArrowDown,ArrowRight","false","","","revaluation","1","60","","",""
"html-keyboard-response","179","864877","0.0-4.0-2.0-1.30","spark_pilot_2","7350","2","13","Female","","","","","","","null","<div style=""font-size:60px;"">+</div>","null","fixation","","","","","","","","","","","61","","",""
"revaluation","180","870880","0.0-4.0-2.0-0.31","spark_pilot_2","7350","2","13","Female","","false","","","","","[941.5999999046326,307.69999980926514]","./assets/img/ocean/memory/24.jpg","[""ArrowDown"",""ArrowRight""]","value training","ocean","30","{""ArrowUp,ArrowLeft"":23,""ArrowUp,ArrowRight"":10,""ArrowDown,ArrowLeft"":8,""ArrowDown,ArrowRight"":30}","true","ArrowDown,ArrowRight","false","","","revaluation","1","62","","",""
"html-keyboard-response","181","871382","0.0-4.0-2.0-1.31","spark_pilot_2","7350","2","13","Female","","","","","","","null","<div style=""font-size:60px;"">+</div>","null","fixation","","","","","","","","","","","63","","",""
"revaluation","182","877388","0.0-4.0-2.0-0.32","spark_pilot_2","7350","2","13","Female","","false","","","","","[583.4000000953674,361.09999990463257]","./assets/img/ocean/memory/4.jpg","[""ArrowDown"",""ArrowRight""]","value training","ocean","30","{""ArrowUp,ArrowLeft"":23,""ArrowUp,ArrowRight"":10,""ArrowDown,ArrowLeft"":8,""ArrowDown,ArrowRight"":30}","true","ArrowDown,ArrowRight","false","","","revaluation","1","64","","",""
"html-keyboard-response","183","877889","0.0-4.0-2.0-1.32","spark_pilot_2","7350","2","13","Female","","","","","","","null","<div style=""font-size:60px;"">+</div>","null","fixation","","","","","","","","","","","65","","",""
"revaluation","184","883894","0.0-4.0-2.0-0.33","spark_pilot_2","7350","2","13","Female","","false","","","","","[1125,469.40000009536743]","./assets/img/ocean/memory/14.jpg","[""ArrowDown"",""ArrowRight""]","value training","ocean","30","{""ArrowUp,ArrowLeft"":23,""ArrowUp,ArrowRight"":10,""ArrowDown,ArrowLeft"":8,""ArrowDown,ArrowRight"":30}","true","ArrowDown,ArrowRight","false","","","revaluation","1","66","","",""
"html-keyboard-response","185","884395","0.0-4.0-2.0-1.33","spark_pilot_2","7350","2","13","Female","","","","","","","null","<div style=""font-size:60px;"">+</div>","null","fixation","","","","","","","","","","","67","","",""
"revaluation","186","890401","0.0-4.0-2.0-0.34","spark_pilot_2","7350","2","13","Female","","false","","","","","[879.3000001907349,536.0999999046326]","./assets/img/ocean/memory/14.jpg","[""ArrowDown"",""ArrowRight""]","value training","ocean","30","{""ArrowUp,ArrowLeft"":23,""ArrowUp,ArrowRight"":10,""ArrowDown,ArrowLeft"":8,""ArrowDown,ArrowRight"":30}","true","ArrowDown,ArrowRight","false","","","revaluation","1","68","","",""
"html-keyboard-response","187","890902","0.0-4.0-2.0-1.34","spark_pilot_2","7350","2","13","Female","","","","","","","null","<div style=""font-size:60px;"">+</div>","null","fixation","","","","","","","","","","","69","","",""
"revaluation","188","896909","0.0-4.0-2.0-0.35","spark_pilot_2","7350","2","13","Female","","false","","","","","[666,388.09999990463257]","./assets/img/ocean/memory/6.jpg","[""ArrowDown"",""ArrowRight""]","value training","ocean","30","{""ArrowUp,ArrowLeft"":23,""ArrowUp,ArrowRight"":10,""ArrowDown,ArrowLeft"":8,""ArrowDown,ArrowRight"":30}","true","ArrowDown,ArrowRight","false","","","revaluation","1","70","","",""
"html-keyboard-response","189","897412","0.0-4.0-2.0-1.35","spark_pilot_2","7350","2","13","Female","","","","","","","null","<div style=""font-size:60px;"">+</div>","null","fixation","","","","","","","","","","","71","","",""
"revaluation","190","903417","0.0-4.0-2.0-0.36","spark_pilot_2","7350","2","13","Female","","false","","","","","[802.5999999046326,1178.2999997138977]","./assets/img/ocean/memory/22.jpg","[""ArrowDown"",""ArrowRight""]","value training","ocean","30","{""ArrowUp,ArrowLeft"":23,""ArrowUp,ArrowRight"":10,""ArrowDown,ArrowLeft"":8,""ArrowDown,ArrowRight"":30}","true","ArrowDown,ArrowRight","false","","","revaluation","1","72","","",""
"html-keyboard-response","191","903919","0.0-4.0-2.0-1.36","spark_pilot_2","7350","2","13","Female","","","","","","","null","<div style=""font-size:60px;"">+</div>","null","fixation","","","","","","","","","","","73","","",""
"revaluation","192","909922","0.0-4.0-2.0-0.37","spark_pilot_2","7350","2","13","Female","","false","","","","","[559,364.40000009536743]","./assets/img/ocean/memory/37.jpg","[""ArrowDown"",""ArrowRight""]","value training","ocean","30","{""ArrowUp,ArrowLeft"":23,""ArrowUp,ArrowRight"":10,""ArrowDown,ArrowLeft"":8,""ArrowDown,ArrowRight"":30}","true","ArrowDown,ArrowRight","false","","","revaluation","1","74","","",""
"html-keyboard-response","193","910424","0.0-4.0-2.0-1.37","spark_pilot_2","7350","2","13","Female","","","","","","","null","<div style=""font-size:60px;"">+</div>","null","fixation","","","","","","","","","","","75","","",""
"revaluation","194","914428","0.0-4.0-2.0-0.38","spark_pilot_2","7350","2","13","Female","","false","","","","","[580.5999999046326]","./assets/img/ocean/catch/6.jpg","[""spaceBar""]","value training","ocean","0","{""ArrowUp,ArrowLeft"":23,""ArrowUp,ArrowRight"":10,""ArrowDown,ArrowLeft"":8,""ArrowDown,ArrowRight"":30}","true","spaceBar","true","","","revaluation","1","76","","",""
"html-keyboard-response","195","914929","0.0-4.0-2.0-1.38","spark_pilot_2","7350","2","13","Female","","","","","","","null","<div style=""font-size:60px;"">+</div>","null","fixation","","","","","","","","","","","77","","",""
"revaluation","196","920933","0.0-4.0-2.0-0.39","spark_pilot_2","7350","2","13","Female","","false","","","","","[1248.4000000953674,516.7000002861023]","./assets/img/ocean/memory/31.jpg","[""ArrowDown"",""ArrowRight""]","value training","ocean","30","{""ArrowUp,ArrowLeft"":23,""ArrowUp,ArrowRight"":10,""ArrowDown,ArrowLeft"":8,""ArrowDown,ArrowRight"":30}","true","ArrowDown,ArrowRight","false","","","revaluation","1","78","","",""
"html-keyboard-response","197","921435","0.0-4.0-2.0-1.39","spark_pilot_2","7350","2","13","Female","","","","","","","null","<div style=""font-size:60px;"">+</div>","null","fixation","","","","","","","","","","","79","","",""
"revaluation","198","927440","0.0-4.0-2.0-0.40","spark_pilot_2","7350","2","13","Female","","false","","","","","[620.0999999046326,451.1000003814697]","./assets/img/ocean/memory/32.jpg","[""ArrowDown"",""ArrowRight""]","value training","ocean","30","{""ArrowUp,ArrowLeft"":23,""ArrowUp,ArrowRight"":10,""ArrowDown,ArrowLeft"":8,""ArrowDown,ArrowRight"":30}","true","ArrowDown,ArrowRight","false","","","revaluation","1","80","","",""
"html-keyboard-response","199","927942","0.0-4.0-2.0-1.40","spark_pilot_2","7350","2","13","Female","","","","","","","null","<div style=""font-size:60px;"">+</div>","null","fixation","","","","","","","","","","","81","","",""
"revaluation","200","933946","0.0-4.0-2.0-0.41","spark_pilot_2","7350","2","13","Female","","false","","","","","[653.9000000953674,322.2999997138977]","./assets/img/ocean/memory/32.jpg","[""ArrowDown"",""ArrowRight""]","value training","ocean","30","{""ArrowUp,ArrowLeft"":23,""ArrowUp,ArrowRight"":10,""ArrowDown,ArrowLeft"":8,""ArrowDown,ArrowRight"":30}","true","ArrowDown,ArrowRight","false","","","revaluation","1","82","","",""
"html-keyboard-response","201","934447","0.0-4.0-2.0-1.41","spark_pilot_2","7350","2","13","Female","","","","","","","null","<div style=""font-size:60px;"">+</div>","null","fixation","","","","","","","","","","","83","","",""
"revaluation","202","940460","0.0-4.0-2.0-0.42","spark_pilot_2","7350","2","13","Female","","false","","","","","[625,355.90000009536743]","./assets/img/ocean/memory/8.jpg","[""ArrowDown"",""ArrowRight""]","value training","ocean","30","{""ArrowUp,ArrowLeft"":23,""ArrowUp,ArrowRight"":10,""ArrowDown,ArrowLeft"":8,""ArrowDown,ArrowRight"":30}","true","ArrowDown,ArrowRight","false","","","revaluation","1","84","","",""
"html-keyboard-response","203","940961","0.0-4.0-2.0-1.42","spark_pilot_2","7350","2","13","Female","","","","","","","null","<div style=""font-size:60px;"">+</div>","null","fixation","","","","","","","","","","","85","","",""
"revaluation","204","944980","0.0-4.0-2.0-0.43","spark_pilot_2","7350","2","13","Female","","false","","","","","[723.8000001907349]","./assets/img/ocean/catch/5.jpg","[""spaceBar""]","value training","ocean","0","{""ArrowUp,ArrowLeft"":23,""ArrowUp,ArrowRight"":10,""ArrowDown,ArrowLeft"":8,""ArrowDown,ArrowRight"":30}","true","spaceBar","true","","","revaluation","1","86","","",""
"html-keyboard-response","205","945482","0.0-4.0-2.0-1.43","spark_pilot_2","7350","2","13","Female","","","","","","","null","<div style=""font-size:60px;"">+</div>","null","fixation","","","","","","","","","","","87","","",""
"revaluation","206","951486","0.0-4.0-2.0-0.44","spark_pilot_2","7350","2","13","Female","","false","","","","","[993.1999998092651,440]","./assets/img/ocean/memory/2.jpg","[""ArrowDown"",""ArrowRight""]","value training","ocean","30","{""ArrowUp,ArrowLeft"":23,""ArrowUp,ArrowRight"":10,""ArrowDown,ArrowLeft"":8,""ArrowDown,ArrowRight"":30}","true","ArrowDown,ArrowRight","false","","","revaluation","1","88","","",""
"html-keyboard-response","207","951988","0.0-4.0-2.0-1.44","spark_pilot_2","7350","2","13","Female","","","","","","","null","<div style=""font-size:60px;"">+</div>","null","fixation","","","","","","","","","","","89","","",""
"revaluation","208","955991","0.0-4.0-2.0-0.45","spark_pilot_2","7350","2","13","Female","","false","","","","","[489.80000019073486]","./assets/img/ocean/catch/0.jpg","[""spaceBar""]","value training","ocean","0","{""ArrowUp,ArrowLeft"":23,""ArrowUp,ArrowRight"":10,""ArrowDown,ArrowLeft"":8,""ArrowDown,ArrowRight"":30}","true","spaceBar","true","","","revaluation","1","90","","",""
"html-keyboard-response","209","956497","0.0-4.0-2.0-1.45","spark_pilot_2","7350","2","13","Female","","","","","","","null","<div style=""font-size:60px;"">+</div>","null","fixation","","","","","","","","","","","91","","",""
"revaluation","210","962501","0.0-4.0-2.0-0.46","spark_pilot_2","7350","2","13","Female","","false","","","","","[596.1999998092651,410.90000009536743]","./assets/img/ocean/memory/8.jpg","[""ArrowDown"",""ArrowRight""]","value training","ocean","30","{""ArrowUp,ArrowLeft"":23,""ArrowUp,ArrowRight"":10,""ArrowDown,ArrowLeft"":8,""ArrowDown,ArrowRight"":30}","true","ArrowDown,ArrowRight","false","","","revaluation","1","92","","",""
"html-keyboard-response","211","963004","0.0-4.0-2.0-1.46","spark_pilot_2","7350","2","13","Female","","","","","","","null","<div style=""font-size:60px;"">+</div>","null","fixation","","","","","","","","","","","93","","",""
"revaluation","212","969010","0.0-4.0-2.0-0.47","spark_pilot_2","7350","2","13","Female","","false","","","","","[625.5999999046326,677.1999998092651]","./assets/img/ocean/memory/17.jpg","[""ArrowDown"",""ArrowRight""]","value training","ocean","30","{""ArrowUp,ArrowLeft"":23,""ArrowUp,ArrowRight"":10,""ArrowDown,ArrowLeft"":8,""ArrowDown,ArrowRight"":30}","true","ArrowDown,ArrowRight","false","","","revaluation","1","94","","",""
"html-keyboard-response","213","969511","0.0-4.0-2.0-1.47","spark_pilot_2","7350","2","13","Female","","","","","","","null","<div style=""font-size:60px;"">+</div>","null","fixation","","","","","","","","","","","95","","",""
"revaluation","214","973515","0.0-4.0-2.0-0.48","spark_pilot_2","7350","2","13","Female","","false","","","","","[665.6999998092651]","./assets/img/ocean/catch/4.jpg","[""spaceBar""]","value training","ocean","0","{""ArrowUp,ArrowLeft"":23,""ArrowUp,ArrowRight"":10,""ArrowDown,ArrowLeft"":8,""ArrowDown,ArrowRight"":30}","true","spaceBar","true","","","revaluation","1","96","","",""
"html-keyboard-response","215","974016","0.0-4.0-2.0-1.48","spark_pilot_2","7350","2","13","Female","","","","","","","null","<div style=""font-size:60px;"">+</div>","null","fixation","","","","","","","","","","","97","","",""
"revaluation","216","980020","0.0-4.0-2.0-0.49","spark_pilot_2","7350","2","13","Female","","false","","","","","[895.2999997138977,437.30000019073486]","./assets/img/ocean/memory/17.jpg","[""ArrowDown"",""ArrowRight""]","value training","ocean","30","{""ArrowUp,ArrowLeft"":23,""ArrowUp,ArrowRight"":10,""ArrowDown,ArrowLeft"":8,""ArrowDown,ArrowRight"":30}","true","ArrowDown,ArrowRight","false","","","revaluation","1","98","","",""
"html-keyboard-response","217","980526","0.0-4.0-2.0-1.49","spark_pilot_2","7350","2","13","Female","","","","","","","null","<div style=""font-size:60px;"">+</div>","null","fixation","","","","","","","","","","","99","","",""
"learning-instructions","218","996996","0.0-4.0-3.0-0.0","spark_pilot_2","7350","2","13","Female","","","","","","","3573.699999809265","<p> Now, you will travel with a friend who will choose whether you go up or down first. </p>
            <p> On these turns, you will just see the animal that they found. You will still get to choose which chest to search for treasure.</p>","","instructions","","","","","","","","","","","","","",""
"revaluation","219","1001013","0.0-4.0-4.0-0.0","spark_pilot_2","7350","2","13","Female","","false","","","","","[606.9000000953674]","./assets/img/ocean/animals/octopus.jpg","[""ArrowRight""]","revaluation","ocean","7","{""ArrowUp,ArrowLeft"":27,""ArrowUp,ArrowRight"":15,""ArrowDown,ArrowLeft"":21,""ArrowDown,ArrowRight"":7}","false","ArrowDown,ArrowRight","","","","revaluation","1","0","","",""
"html-keyboard-response","220","1001526","0.0-4.0-4.0-1.0","spark_pilot_2","7350","2","13","Female","","","","","","","null","<div style=""font-size:60px;"">+</div>","null","fixation","","","","","","","","","","","1","","",""
"revaluation","221","1005540","0.0-4.0-4.0-0.1","spark_pilot_2","7350","2","13","Female","","false","","","","","[520.5]","./assets/img/ocean/animals/octopus.jpg","[""ArrowLeft""]","revaluation","ocean","21","{""ArrowUp,ArrowLeft"":27,""ArrowUp,ArrowRight"":15,""ArrowDown,ArrowLeft"":21,""ArrowDown,ArrowRight"":7}","true","ArrowDown,ArrowLeft","","","","revaluation","1","2","","",""
"html-keyboard-response","222","1006054","0.0-4.0-4.0-1.1","spark_pilot_2","7350","2","13","Female","","","","","","","null","<div style=""font-size:60px;"">+</div>","null","fixation","","","","","","","","","","","3","","",""
"revaluation","223","1010077","0.0-4.0-4.0-0.2","spark_pilot_2","7350","2","13","Female","","false","","","","","[751.3999996185303]","./assets/img/ocean/animals/octopus.jpg","[""ArrowLeft""]","revaluation","ocean","21","{""ArrowUp,ArrowLeft"":27,""ArrowUp,ArrowRight"":15,""ArrowDown,ArrowLeft"":21,""ArrowDown,ArrowRight"":7}","true","ArrowDown,ArrowLeft","","","","revaluation","1","4","","",""
"html-keyboard-response","224","1010591","0.0-4.0-4.0-1.2","spark_pilot_2","7350","2","13","Female","","","","","","","null","<div style=""font-size:60px;"">+</div>","null","fixation","","","","","","","","","","","5","","",""
"revaluation","225","1014599","0.0-4.0-4.0-0.3","spark_pilot_2","7350","2","13","Female","","false","","","","","[557.0999999046326]","./assets/img/ocean/animals/octopus.jpg","[""ArrowLeft""]","revaluation","ocean","21","{""ArrowUp,ArrowLeft"":27,""ArrowUp,ArrowRight"":15,""ArrowDown,ArrowLeft"":21,""ArrowDown,ArrowRight"":7}","true","ArrowDown,ArrowLeft","","","","revaluation","1","6","","",""
"html-keyboard-response","226","1015113","0.0-4.0-4.0-1.3","spark_pilot_2","7350","2","13","Female","","","","","","","null","<div style=""font-size:60px;"">+</div>","null","fixation","","","","","","","","","","","7","","",""
"revaluation","227","1019130","0.0-4.0-4.0-0.4","spark_pilot_2","7350","2","13","Female","","false","","","","","[635.4000000953674]","./assets/img/ocean/animals/seahorse.jpg","[""ArrowRight""]","revaluation","ocean","15","{""ArrowUp,ArrowLeft"":27,""ArrowUp,ArrowRight"":15,""ArrowDown,ArrowLeft"":21,""ArrowDown,ArrowRight"":7}","false","ArrowUp,ArrowRight","","","","revaluation","1","8","","",""
"html-keyboard-response","228","1019645","0.0-4.0-4.0-1.4","spark_pilot_2","7350","2","13","Female","","","","","","","null","<div style=""font-size:60px;"">+</div>","null","fixation","","","","","","","","","","","9","","",""
"revaluation","229","1023654","0.0-4.0-4.0-0.5","spark_pilot_2","7350","2","13","Female","","false","","","","","[599.6000003814697]","./assets/img/ocean/animals/seahorse.jpg","[""ArrowLeft""]","revaluation","ocean","27","{""ArrowUp,ArrowLeft"":27,""ArrowUp,ArrowRight"":15,""ArrowDown,ArrowLeft"":21,""ArrowDown,ArrowRight"":7}","true","ArrowUp,ArrowLeft","","","","revaluation","1","10","","",""
"html-keyboard-response","230","1024155","0.0-4.0-4.0-1.5","spark_pilot_2","7350","2","13","Female","","","","","","","null","<div style=""font-size:60px;"">+</div>","null","fixation","","","","","","","","","","","11","","",""
"revaluation","231","1028160","0.0-4.0-4.0-0.6","spark_pilot_2","7350","2","13","Female","","false","","","","","[567.7000002861023]","./assets/img/ocean/animals/octopus.jpg","[""ArrowLeft""]","revaluation","ocean","21","{""ArrowUp,ArrowLeft"":27,""ArrowUp,ArrowRight"":15,""ArrowDown,ArrowLeft"":21,""ArrowDown,ArrowRight"":7}","true","ArrowDown,ArrowLeft","","","","revaluation","1","12","","",""
"html-keyboard-response","232","1028669","0.0-4.0-4.0-1.6","spark_pilot_2","7350","2","13","Female","","","","","","","null","<div style=""font-size:60px;"">+</div>","null","fixation","","","","","","","","","","","13","","",""
"revaluation","233","1032673","0.0-4.0-4.0-0.7","spark_pilot_2","7350","2","13","Female","","false","","","","","[684.0999999046326]","./assets/img/ocean/animals/seahorse.jpg","[""ArrowLeft""]","revaluation","ocean","27","{""ArrowUp,ArrowLeft"":27,""ArrowUp,ArrowRight"":15,""ArrowDown,ArrowLeft"":21,""ArrowDown,ArrowRight"":7}","true","ArrowUp,ArrowLeft","","","","revaluation","1","14","","",""
"html-keyboard-response","234","1033175","0.0-4.0-4.0-1.7","spark_pilot_2","7350","2","13","Female","","","","","","","null","<div style=""font-size:60px;"">+</div>","null","fixation","","","","","","","","","","","15","","",""
"revaluation","235","1037178","0.0-4.0-4.0-0.8","spark_pilot_2","7350","2","13","Female","","false","","","","","[443.80000019073486]","./assets/img/ocean/animals/seahorse.jpg","[""ArrowLeft""]","revaluation","ocean","27","{""ArrowUp,ArrowLeft"":27,""ArrowUp,ArrowRight"":15,""ArrowDown,ArrowLeft"":21,""ArrowDown,ArrowRight"":7}","true","ArrowUp,ArrowLeft","","","","revaluation","1","16","","",""
"html-keyboard-response","236","1037680","0.0-4.0-4.0-1.8","spark_pilot_2","7350","2","13","Female","","","","","","","null","<div style=""font-size:60px;"">+</div>","null","fixation","","","","","","","","","","","17","","",""
"revaluation","237","1041685","0.0-4.0-4.0-0.9","spark_pilot_2","7350","2","13","Female","","false","","","","","[435]","./assets/img/ocean/animals/seahorse.jpg","[""ArrowLeft""]","revaluation","ocean","27","{""ArrowUp,ArrowLeft"":27,""ArrowUp,ArrowRight"":15,""ArrowDown,ArrowLeft"":21,""ArrowDown,ArrowRight"":7}","true","ArrowUp,ArrowLeft","","","","revaluation","1","18","","",""
"html-keyboard-response","238","1042186","0.0-4.0-4.0-1.9","spark_pilot_2","7350","2","13","Female","","","","","","","null","<div style=""font-size:60px;"">+</div>","null","fixation","","","","","","","","","","","19","","",""
"revaluation","239","1046190","0.0-4.0-4.0-0.10","spark_pilot_2","7350","2","13","Female","","false","","","","","[433.90000009536743]","./assets/img/ocean/animals/seahorse.jpg","[""ArrowLeft""]","revaluation","ocean","27","{""ArrowUp,ArrowLeft"":27,""ArrowUp,ArrowRight"":15,""ArrowDown,ArrowLeft"":21,""ArrowDown,ArrowRight"":7}","true","ArrowUp,ArrowLeft","","","","revaluation","1","20","","",""
"html-keyboard-response","240","1046691","0.0-4.0-4.0-1.10","spark_pilot_2","7350","2","13","Female","","","","","","","null","<div style=""font-size:60px;"">+</div>","null","fixation","","","","","","","","","","","21","","",""
"revaluation","241","1050695","0.0-4.0-4.0-0.11","spark_pilot_2","7350","2","13","Female","","false","","","","","[512.7999997138977]","./assets/img/ocean/animals/octopus.jpg","[""ArrowLeft""]","revaluation","ocean","21","{""ArrowUp,ArrowLeft"":27,""ArrowUp,ArrowRight"":15,""ArrowDown,ArrowLeft"":21,""ArrowDown,ArrowRight"":7}","true","ArrowDown,ArrowLeft","","","","revaluation","1","22","","",""
"html-keyboard-response","242","1051197","0.0-4.0-4.0-1.11","spark_pilot_2","7350","2","13","Female","","","","","","","null","<div style=""font-size:60px;"">+</div>","null","fixation","","","","","","","","","","","23","","",""
"revaluation","243","1055201","0.0-4.0-4.0-0.12","spark_pilot_2","7350","2","13","Female","","false","","","","","[482.5]","./assets/img/ocean/animals/seahorse.jpg","[""ArrowLeft""]","revaluation","ocean","27","{""ArrowUp,ArrowLeft"":27,""ArrowUp,ArrowRight"":15,""ArrowDown,ArrowLeft"":21,""ArrowDown,ArrowRight"":7}","true","ArrowUp,ArrowLeft","","","","revaluation","1","24","","",""
"html-keyboard-response","244","1055716","0.0-4.0-4.0-1.12","spark_pilot_2","7350","2","13","Female","","","","","","","null","<div style=""font-size:60px;"">+</div>","null","fixation","","","","","","","","","","","25","","",""
"revaluation","245","1059721","0.0-4.0-4.0-0.13","spark_pilot_2","7350","2","13","Female","","false","","","","","[541.1999998092651]","./assets/img/ocean/animals/seahorse.jpg","[""ArrowLeft""]","revaluation","ocean","27","{""ArrowUp,ArrowLeft"":27,""ArrowUp,ArrowRight"":15,""ArrowDown,ArrowLeft"":21,""ArrowDown,ArrowRight"":7}","true","ArrowUp,ArrowLeft","","","","revaluation","1","26","","",""
"html-keyboard-response","246","1060230","0.0-4.0-4.0-1.13","spark_pilot_2","7350","2","13","Female","","","","","","","null","<div style=""font-size:60px;"">+</div>","null","fixation","","","","","","","","","","","27","","",""
"revaluation","247","1064234","0.0-4.0-4.0-0.14","spark_pilot_2","7350","2","13","Female","","false","","","","","[480.3999996185303]","./assets/img/ocean/animals/octopus.jpg","[""ArrowLeft""]","revaluation","ocean","21","{""ArrowUp,ArrowLeft"":27,""ArrowUp,ArrowRight"":15,""ArrowDown,ArrowLeft"":21,""ArrowDown,ArrowRight"":7}","true","ArrowDown,ArrowLeft","","","","revaluation","1","28","","",""
"html-keyboard-response","248","1064736","0.0-4.0-4.0-1.14","spark_pilot_2","7350","2","13","Female","","","","","","","null","<div style=""font-size:60px;"">+</div>","null","fixation","","","","","","","","","","","29","","",""
"revaluation","249","1068740","0.0-4.0-4.0-0.15","spark_pilot_2","7350","2","13","Female","","false","","","","","[516.9000000953674]","./assets/img/ocean/animals/octopus.jpg","[""ArrowLeft""]","revaluation","ocean","21","{""ArrowUp,ArrowLeft"":27,""ArrowUp,ArrowRight"":15,""ArrowDown,ArrowLeft"":21,""ArrowDown,ArrowRight"":7}","true","ArrowDown,ArrowLeft","","","","revaluation","1","30","","",""
"html-keyboard-response","250","1069241","0.0-4.0-4.0-1.15","spark_pilot_2","7350","2","13","Female","","","","","","","null","<div style=""font-size:60px;"">+</div>","null","fixation","","","","","","","","","","","31","","",""
"revaluation","251","1073245","0.0-4.0-4.0-0.16","spark_pilot_2","7350","2","13","Female","","false","","","","","[94.5]","./assets/img/ocean/animals/octopus.jpg","[""ArrowLeft""]","revaluation","ocean","21","{""ArrowUp,ArrowLeft"":27,""ArrowUp,ArrowRight"":15,""ArrowDown,ArrowLeft"":21,""ArrowDown,ArrowRight"":7}","true","ArrowDown,ArrowLeft","","","","revaluation","1","32","","",""
"html-keyboard-response","252","1073747","0.0-4.0-4.0-1.16","spark_pilot_2","7350","2","13","Female","","","","","","","null","<div style=""font-size:60px;"">+</div>","null","fixation","","","","","","","","","","","33","","",""
"revaluation","253","1077752","0.0-4.0-4.0-0.17","spark_pilot_2","7350","2","13","Female","","false","","","","","[327.5]","./assets/img/ocean/animals/seahorse.jpg","[""ArrowLeft""]","revaluation","ocean","27","{""ArrowUp,ArrowLeft"":27,""ArrowUp,ArrowRight"":15,""ArrowDown,ArrowLeft"":21,""ArrowDown,ArrowRight"":7}","true","ArrowUp,ArrowLeft","","","","revaluation","1","34","","",""
"html-keyboard-response","254","1078253","0.0-4.0-4.0-1.17","spark_pilot_2","7350","2","13","Female","","","","","","","null","<div style=""font-size:60px;"">+</div>","null","fixation","","","","","","","","","","","35","","",""
"learning-instructions","255","1090432","0.0-4.0-5.0-0.0","spark_pilot_2","7350","2","13","Female","","","","","","","418.2999997138977","<p> Time to play the dot game! </p>
            <p> For one minute, click the red dots on the following screen as they appear. </p>
            <p><b> Don't look away, as you will earn bonus for clicking dots</b>. </p>","","instructions","","","","","","","","","","","","","",""
"revaluation","256","1150433","0.0-4.0-6.0-0.0","spark_pilot_2","7350","2","13","Female","","","","","","","[75,39,40,39,67,44,44,44]","","","rest","","80","","","","","0","60000","","","","","",""
"learning-instructions","257","1157486","0.0-4.0-7.0-0.0","spark_pilot_2","7350","2","13","Female","","","","","","","947.4000000953674","<p> You have almost finished this part of the game! </p>
            <p> We are going to ask you to make a few more choices. </p>","","instructions","","","","","","","","","","","","","",""
"learning-instructions","258","1172031","0.0-4.0-7.0-0.1","spark_pilot_2","7350","2","13","Female","","","","","","","571.9000000953674","<p> First, you need to decide whether to go up or down. When you see each picture, use the arrow keys to make your choice. </p>
            <p><b>You will not see which animal you found, but try to get to the one that will give you the most treasure.</b></p>","","instructions","","","","","","","","","","","","","",""
"revaluation","259","1173240","0.0-4.0-8.0-0.0","spark_pilot_2","7350","2","13","Female","","false","","","","","[1206.5]","./assets/img/ocean/test/0.jpg","[""ArrowDown""]","first stage test","ocean","0","{""ArrowUp,ArrowLeft"":27,""ArrowUp,ArrowRight"":15,""ArrowDown,ArrowLeft"":21,""ArrowDown,ArrowRight"":7}","false","ArrowDown","false","","","revaluation","1","","","",""
"html-keyboard-response","260","1173752","0.0-4.0-8.0-1.0","spark_pilot_2","7350","2","13","Female","","","","","","","null","<div style=""font-size:60px;"">+</div>","null","fixation","","","","","","","","","","","","","",""
"revaluation","261","1175878","0.0-4.0-8.0-0.1","spark_pilot_2","7350","2","13","Female","","false","","","","","[2122.5]","./assets/img/ocean/test/1.jpg","[""ArrowDown""]","first stage test","ocean","0","{""ArrowUp,ArrowLeft"":27,""ArrowUp,ArrowRight"":15,""ArrowDown,ArrowLeft"":21,""ArrowDown,ArrowRight"":7}","false","ArrowDown","false","","","revaluation","1","","","",""
"html-keyboard-response","262","1176380","0.0-4.0-8.0-1.1","spark_pilot_2","7350","2","13","Female","","","","","","","null","<div style=""font-size:60px;"">+</div>","null","fixation","","","","","","","","","","","","","",""
"revaluation","263","1178812","0.0-4.0-8.0-0.2","spark_pilot_2","7350","2","13","Female","","false","","","","","[2429.800000190735]","./assets/img/ocean/test/2.jpg","[""ArrowUp""]","first stage test","ocean","0","{""ArrowUp,ArrowLeft"":27,""ArrowUp,ArrowRight"":15,""ArrowDown,ArrowLeft"":21,""ArrowDown,ArrowRight"":7}","true","ArrowUp","false","","","revaluation","1","","","",""
"html-keyboard-response","264","1179314","0.0-4.0-8.0-1.2","spark_pilot_2","7350","2","13","Female","","","","","","","null","<div style=""font-size:60px;"">+</div>","null","fixation","","","","","","","","","","","","","",""
"revaluation","265","1181269","0.0-4.0-8.0-0.3","spark_pilot_2","7350","2","13","Female","","false","","","","","[1951.9000000953674]","./assets/img/ocean/test/3.jpg","[""ArrowDown""]","first stage test","ocean","0","{""ArrowUp,ArrowLeft"":27,""ArrowUp,ArrowRight"":15,""ArrowDown,ArrowLeft"":21,""ArrowDown,ArrowRight"":7}","false","ArrowDown","false","","","revaluation","1","","","",""
"html-keyboard-response","266","1181772","0.0-4.0-8.0-1.3","spark_pilot_2","7350","2","13","Female","","","","","","","null","<div style=""font-size:60px;"">+</div>","null","fixation","","","","","","","","","","","","","",""
"learning-instructions","267","1193656","0.0-4.0-9.0-0.0","spark_pilot_2","7350","2","13","Female","","","","","","","547.4000000953674","<p> Now you will see the animals again and can search their chests for treasure. </p>
            <p> This time, you will not see how much treasure you earned, but you will earn more bonus money for making better choices. </p>","","instructions","","","","","","","","","","","","","",""
"revaluation","268","1194764","0.0-4.0-10.0-0.0","spark_pilot_2","7350","2","13","Female","","false","","","","","[1105.9000000953674]","./assets/img/ocean/animals/seahorse.jpg","[""ArrowLeft""]","second stage test","ocean","0","{""ArrowUp,ArrowLeft"":27,""ArrowUp,ArrowRight"":15,""ArrowDown,ArrowLeft"":21,""ArrowDown,ArrowRight"":7}","true","ArrowUp,ArrowLeft","","","","revaluation","1","","","",""
"html-keyboard-response","269","1195275","0.0-4.0-10.0-1.0","spark_pilot_2","7350","2","13","Female","","","","","","","null","<div style=""font-size:60px;"">+</div>","null","fixation","","","","","","","","","","","","","",""
"revaluation","270","1196004","0.0-4.0-10.0-0.1","spark_pilot_2","7350","2","13","Female","","false","","","","","[726.0999999046326]","./assets/img/ocean/animals/seahorse.jpg","[""ArrowLeft""]","second stage test","ocean","0","{""ArrowUp,ArrowLeft"":27,""ArrowUp,ArrowRight"":15,""ArrowDown,ArrowLeft"":21,""ArrowDown,ArrowRight"":7}","true","ArrowUp,ArrowLeft","","","","revaluation","1","","","",""
"html-keyboard-response","271","1196505","0.0-4.0-10.0-1.1","spark_pilot_2","7350","2","13","Female","","","","","","","null","<div style=""font-size:60px;"">+</div>","null","fixation","","","","","","","","","","","","","",""
"revaluation","272","1198577","0.0-4.0-10.0-0.2","spark_pilot_2","7350","2","13","Female","","false","","","","","[2069.3999996185303]","./assets/img/ocean/animals/seahorse.jpg","[""ArrowLeft""]","second stage test","ocean","0","{""ArrowUp,ArrowLeft"":27,""ArrowUp,ArrowRight"":15,""ArrowDown,ArrowLeft"":21,""ArrowDown,ArrowRight"":7}","true","ArrowUp,ArrowLeft","","","","revaluation","1","","","",""
"html-keyboard-response","273","1199085","0.0-4.0-10.0-1.2","spark_pilot_2","7350","2","13","Female","","","","","","","null","<div style=""font-size:60px;"">+</div>","null","fixation","","","","","","","","","","","","","",""
"revaluation","274","1199555","0.0-4.0-10.0-0.3","spark_pilot_2","7350","2","13","Female","","false","","","","","[467.2000002861023]","./assets/img/ocean/animals/seahorse.jpg","[""ArrowLeft""]","second stage test","ocean","0","{""ArrowUp,ArrowLeft"":27,""ArrowUp,ArrowRight"":15,""ArrowDown,ArrowLeft"":21,""ArrowDown,ArrowRight"":7}","true","ArrowUp,ArrowLeft","","","","revaluation","1","","","",""
"html-keyboard-response","275","1200066","0.0-4.0-10.0-1.3","spark_pilot_2","7350","2","13","Female","","","","","","","null","<div style=""font-size:60px;"">+</div>","null","fixation","","","","","","","","","","","","","",""
"revaluation","276","1201169","0.0-4.0-10.0-0.4","spark_pilot_2","7350","2","13","Female","","false","","","","","[1099.6000003814697]","./assets/img/ocean/animals/octopus.jpg","[""ArrowRight""]","second stage test","ocean","0","{""ArrowUp,ArrowLeft"":27,""ArrowUp,ArrowRight"":15,""ArrowDown,ArrowLeft"":21,""ArrowDown,ArrowRight"":7}","false","ArrowDown,ArrowRight","","","","revaluation","1","","","",""
"html-keyboard-response","277","1201682","0.0-4.0-10.0-1.4","spark_pilot_2","7350","2","13","Female","","","","","","","null","<div style=""font-size:60px;"">+</div>","null","fixation","","","","","","","","","","","","","",""
"revaluation","278","1202414","0.0-4.0-10.0-0.5","spark_pilot_2","7350","2","13","Female","","false","","","","","[728.9000000953674]","./assets/img/ocean/animals/octopus.jpg","[""ArrowRight""]","second stage test","ocean","0","{""ArrowUp,ArrowLeft"":27,""ArrowUp,ArrowRight"":15,""ArrowDown,ArrowLeft"":21,""ArrowDown,ArrowRight"":7}","false","ArrowDown,ArrowRight","","","","revaluation","1","","","",""
"html-keyboard-response","279","1202924","0.0-4.0-10.0-1.5","spark_pilot_2","7350","2","13","Female","","","","","","","null","<div style=""font-size:60px;"">+</div>","null","fixation","","","","","","","","","","","","","",""
"revaluation","280","1203225","0.0-4.0-10.0-0.6","spark_pilot_2","7350","2","13","Female","","false","","","","","[298.5]","./assets/img/ocean/animals/octopus.jpg","[""ArrowRight""]","second stage test","ocean","0","{""ArrowUp,ArrowLeft"":27,""ArrowUp,ArrowRight"":15,""ArrowDown,ArrowLeft"":21,""ArrowDown,ArrowRight"":7}","false","ArrowDown,ArrowRight","","","","revaluation","1","","","",""
"html-keyboard-response","281","1203731","0.0-4.0-10.0-1.6","spark_pilot_2","7350","2","13","Female","","","","","","","null","<div style=""font-size:60px;"">+</div>","null","fixation","","","","","","","","","","","","","",""
"revaluation","282","1204105","0.0-4.0-10.0-0.7","spark_pilot_2","7350","2","13","Female","","false","","","","","[370.7000002861023]","./assets/img/ocean/animals/octopus.jpg","[""ArrowRight""]","second stage test","ocean","0","{""ArrowUp,ArrowLeft"":27,""ArrowUp,ArrowRight"":15,""ArrowDown,ArrowLeft"":21,""ArrowDown,ArrowRight"":7}","false","ArrowDown,ArrowRight","","","","revaluation","1","","","",""
"html-keyboard-response","283","1204618","0.0-4.0-10.0-1.7","spark_pilot_2","7350","2","13","Female","","","","","","","null","<div style=""font-size:60px;"">+</div>","null","fixation","","","","","","","","","","","","","",""
"learning-instructions","284","1208379","0.0-4.0-0.1-0.2","spark_pilot_2","7350","2","13","Female","","","","","","","980.9000000953674","<p> This time you are searching for treasure in the <b>canyon</b>.</p>","","instructions","","","","","","","","","","","","","",""
"learning-instructions","285","1239250","0.0-4.0-0.1-0.3","spark_pilot_2","7350","2","13","Female","","","","","","","13621.60000038147","<p><b>New</b> animals with <b>new</b> treasure chests live here. You need to explore to discover where the animal with the best treasure chest is.</p>
                    <p> Like before, once you figure out which animal has the chest with the most treasure, you should try to get to that animal and select that chest! </p>","","instructions","","","","","","","","","","","","","",""
"learning-instructions","286","1255763","0.0-4.0-1.1-0.1","spark_pilot_2","7350","2","13","Female","","","","","","","1784.6999998092651","<p> Remember, when you see a picture of the place, use the up and down keys to <b>find an animal</b>.</p>
            <p> When you encounter an animal, you should use the left and right keys to <b>select a treasure chest</b>.</p>
            <p> Don't forget to look out for the robber! </p>","","instructions","","","","","","","","","","","","","",""
"revaluation","287","1261784","0.0-4.0-2.1-0.50","spark_pilot_2","7350","2","13","Female","","false","","","","","[593.5999999046326,407.80000019073486]","./assets/img/canyon/memory/22.jpg","[""ArrowUp"",""ArrowRight""]","value training","canyon","10","{""ArrowUp,ArrowLeft"":26,""ArrowUp,ArrowRight"":10,""ArrowDown,ArrowLeft"":5,""ArrowDown,ArrowRight"":17}","false","ArrowUp,ArrowRight","false","","","original","2","0","","",""
"html-keyboard-response","288","1262298","0.0-4.0-2.1-1.50","spark_pilot_2","7350","2","13","Female","","","","","","","null","<div style=""font-size:60px;"">+</div>","null","fixation","","","","","","","","","","","1","","",""
"revaluation","289","1266310","0.0-4.0-2.1-0.51","spark_pilot_2","7350","2","13","Female","","false","","","","","[589.7000002861023]","./assets/img/canyon/catch/7.jpg","[""spaceBar""]","value training","canyon","0","{""ArrowUp,ArrowLeft"":26,""ArrowUp,ArrowRight"":10,""ArrowDown,ArrowLeft"":5,""ArrowDown,ArrowRight"":17}","true","spaceBar","true","","","original","2","2","","",""
"html-keyboard-response","290","1266822","0.0-4.0-2.1-1.51","spark_pilot_2","7350","2","13","Female","","","","","","","null","<div style=""font-size:60px;"">+</div>","null","fixation","","","","","","","","","","","3","","",""
"revaluation","291","1270841","0.0-4.0-2.1-0.52","spark_pilot_2","7350","2","13","Female","","false","","","","","[414]","./assets/img/canyon/catch/6.jpg","[""ArrowUp""]","value training","canyon","-10","{""ArrowUp,ArrowLeft"":26,""ArrowUp,ArrowRight"":10,""ArrowDown,ArrowLeft"":5,""ArrowDown,ArrowRight"":17}","false","ArrowUp","true","","","original","2","4","","",""
"html-keyboard-response","292","1271352","0.0-4.0-2.1-1.52","spark_pilot_2","7350","2","13","Female","","","","","","","null","<div style=""font-size:60px;"">+</div>","null","fixation","","","","","","","","","","","5","","",""
"revaluation","293","1277382","0.0-4.0-2.1-0.53","spark_pilot_2","7350","2","13","Female","","false","","","","","[704.7999997138977,532]","./assets/img/canyon/memory/38.jpg","[""ArrowUp"",""ArrowLeft""]","value training","canyon","26","{""ArrowUp,ArrowLeft"":26,""ArrowUp,ArrowRight"":10,""ArrowDown,ArrowLeft"":5,""ArrowDown,ArrowRight"":17}","true","ArrowUp,ArrowLeft","false","","","original","2","6","","",""
"html-keyboard-response","294","1277895","0.0-4.0-2.1-1.53","spark_pilot_2","7350","2","13","Female","","","","","","","null","<div style=""font-size:60px;"">+</div>","null","fixation","","","","","","","","","","","7","","",""
"revaluation","295","1281904","0.0-4.0-2.1-0.54","spark_pilot_2","7350","2","13","Female","","false","","","","","[620.2000002861023]","./assets/img/canyon/catch/3.jpg","[""spaceBar""]","value training","canyon","0","{""ArrowUp,ArrowLeft"":26,""ArrowUp,ArrowRight"":10,""ArrowDown,ArrowLeft"":5,""ArrowDown,ArrowRight"":17}","true","spaceBar","true","","","original","2","8","","",""
"html-keyboard-response","296","1282419","0.0-4.0-2.1-1.54","spark_pilot_2","7350","2","13","Female","","","","","","","null","<div style=""font-size:60px;"">+</div>","null","fixation","","","","","","","","","","","9","","",""
"revaluation","297","1288424","0.0-4.0-2.1-0.55","spark_pilot_2","7350","2","13","Female","","false","","","","","[598.9000000953674,522.5]","./assets/img/canyon/memory/12.jpg","[""ArrowDown"",""ArrowLeft""]","value training","canyon","5","{""ArrowUp,ArrowLeft"":26,""ArrowUp,ArrowRight"":10,""ArrowDown,ArrowLeft"":5,""ArrowDown,ArrowRight"":17}","false","ArrowDown,ArrowLeft","false","","","original","2","10","","",""
"html-keyboard-response","298","1288925","0.0-4.0-2.1-1.55","spark_pilot_2","7350","2","13","Female","","","","","","","null","<div style=""font-size:60px;"">+</div>","null","fixation","","","","","","","","","","","11","","",""
"revaluation","299","1294940","0.0-4.0-2.1-0.56","spark_pilot_2","7350","2","13","Female","","false","","","","","[674.5,390]","./assets/img/canyon/memory/2.jpg","[""ArrowDown"",""ArrowRight""]","value training","canyon","17","{""ArrowUp,ArrowLeft"":26,""ArrowUp,ArrowRight"":10,""ArrowDown,ArrowLeft"":5,""ArrowDown,ArrowRight"":17}","false","ArrowDown,ArrowRight","false","","","original","2","12","","",""
"html-keyboard-response","300","1295441","0.0-4.0-2.1-1.56","spark_pilot_2","7350","2","13","Female","","","","","","","null","<div style=""font-size:60px;"">+</div>","null","fixation","","","","","","","","","","","13","","",""
"revaluation","301","1301453","0.0-4.0-2.1-0.57","spark_pilot_2","7350","2","13","Female","","false","","","","","[591.9000000953674,381.59999990463257]","./assets/img/canyon/memory/4.jpg","[""ArrowUp"",""ArrowLeft""]","value training","canyon","26","{""ArrowUp,ArrowLeft"":26,""ArrowUp,ArrowRight"":10,""ArrowDown,ArrowLeft"":5,""ArrowDown,ArrowRight"":17}","true","ArrowUp,ArrowLeft","false","","","original","2","14","","",""
"html-keyboard-response","302","1301955","0.0-4.0-2.1-1.57","spark_pilot_2","7350","2","13","Female","","","","","","","null","<div style=""font-size:60px;"">+</div>","null","fixation","","","","","","","","","","","15","","",""
"revaluation","303","1305958","0.0-4.0-2.1-0.58","spark_pilot_2","7350","2","13","Female","","false","","","","","[623.2999997138977]","./assets/img/canyon/catch/0.jpg","[""spaceBar""]","value training","canyon","0","{""ArrowUp,ArrowLeft"":26,""ArrowUp,ArrowRight"":10,""ArrowDown,ArrowLeft"":5,""ArrowDown,ArrowRight"":17}","true","spaceBar","true","","","original","2","16","","",""
"html-keyboard-response","304","1306460","0.0-4.0-2.1-1.58","spark_pilot_2","7350","2","13","Female","","","","","","","null","<div style=""font-size:60px;"">+</div>","null","fixation","","","","","","","","","","","17","","",""
"revaluation","305","1312465","0.0-4.0-2.1-0.59","spark_pilot_2","7350","2","13","Female","","false","","","","","[1109.9000000953674,365.90000009536743]","./assets/img/canyon/memory/34.jpg","[""ArrowUp"",""ArrowLeft""]","value training","canyon","26","{""ArrowUp,ArrowLeft"":26,""ArrowUp,ArrowRight"":10,""ArrowDown,ArrowLeft"":5,""ArrowDown,ArrowRight"":17}","true","ArrowUp,ArrowLeft","false","","","original","2","18","","",""
