"trial_type","trial_index","time_elapsed","internal_node_id","task_version","subject_id","assigned_condition","age","gender","success","timeout","failed_images","failed_audio","failed_video","browser_interaction","rt","stimulus","response","task_part","environment","score","rewardMap","correct","fullState","isCatch","numberMissed","duration","condition","order","trial_num","key_press","ground_truth","bonus"
"pavlovia","0","1496","0.0-0.0","spark_pilot_2","7141","3","9","Female","","","","","","","","","","","","","","","","","","","","","","","",""
"preload","1","6547","0.0-1.0","spark_pilot_2","7141","3","9","Female","true","false","[]","[]","[]","[{""event"":""fullscreenenter"",""trial"":2,""time"":9153},{""event"":""fullscreenexit"",""trial"":3,""time"":11121},{""event"":""blur"",""trial"":4,""time"":30561},{""event"":""focus"",""trial"":4,""time"":32498}]","","","","","","","","","","","","","","","","","",""
"fullscreen","2","10121","0.0-2.0","spark_pilot_2","7141","3","9","Female","true","","","","","[{""event"":""fullscreenenter"",""trial"":2,""time"":9153},{""event"":""fullscreenexit"",""trial"":3,""time"":11121},{""event"":""blur"",""trial"":4,""time"":30561},{""event"":""focus"",""trial"":4,""time"":32498}]","","","","","","","","","","","","","","","","","",""
"audio-button-response","3","21193","0.0-3.0-0.0-0.0","spark_pilot_2","7141","3","9","Female","","","","","","[{""event"":""fullscreenenter"",""trial"":2,""time"":9153},{""event"":""fullscreenexit"",""trial"":3,""time"":11121},{""event"":""blur"",""trial"":4,""time"":30561},{""event"":""focus"",""trial"":4,""time"":32498}]","11048","./assets/audio/audiotest/turtle.mp3","2","audio_test","","","","","","","","","","","","","",""
"learning-instructions","4","34945","0.0-3.0-1.0-0.0","spark_pilot_2","7141","3","9","Female","","","","","","","6772.200000047684","<p> Welcome! Please remember to stay in fullscreen mode and don't click away from the experiment. </p>","","instructions","","","","","","","","","","","","","",""
"learning-instructions","5","48506","0.0-3.0-1.0-0.1","spark_pilot_2","7141","3","9","Female","","","","","","","5162","<p> Today you will be playing a game to earn treasure. </p>
            <p> At the end of the experiment, you will earn a bonus based on how much treasure you find. </p>
            <img src='./assets/img/instructions/treasure.jpg' class='instructions-image'>","","instructions","","","","","","","","","","","","","",""
"learning-instructions","6","65114","0.0-3.0-1.0-0.2","spark_pilot_2","7141","3","9","Female","","","","","","","8349.799999952316","<p> Animals have hidden treasure in treasure chests. </p>
            <p> You need to first find an animal and then choose which of their treasure chests to search. </p>
            <img src='./assets/img/space/animals/cat.jpg' class='instructions-image'>","","instructions","","","","","","","","","","","","","",""
"learning-instructions","7","80411","0.0-3.0-1.0-0.3","spark_pilot_2","7141","3","9","Female","","","","","","","2155.5999999046326","<p> In each round, you will search for treasure in a different place. In the real game, there will be two rounds. </p>
            <p> You will begin with a separate, practice round where you will search for treasure in outer space. </p>
            <img src='./assets/img/space/0.jpg' class='instructions-image'>","","instructions","","","","","","","","","","","","","",""
"learning-instructions","8","92683","0.0-3.0-1.0-0.4","spark_pilot_2","7141","3","9","Female","","","","","","","867.5","<p> On every turn, you will see a picture of the place that you are in, but the specific image may be different each time. </p>
            <p> For example, both of these images mean you are in outer space. </p>
            <img src='./assets/img/instructions/outerspace.jpg' class='instructions-image'>","","instructions","","","","","","","","","","","","","",""
"learning-instructions","9","106315","0.0-3.0-1.0-0.5","spark_pilot_2","7141","3","9","Female","","","","","","","5819.700000047684","<p> You need to decide which direction to travel in. </p>
            <p> You can choose between going <b>up or down</b> by using the arrow keys. </p>
            <img src='./assets/img/instructions/updown.jpg' class='instructions-image'>","","instructions","","","","","","","","","","","","","",""
"learning-instructions","10","116740","0.0-3.0-1.0-0.6","spark_pilot_2","7141","3","9","Female","","","","","","","1633.5999999046326","<p> You will have <b>2 seconds</b> to make your choice. </p>
            <p> If you do not make a choice within 2 seconds, you will not find an animal or earn treasure. </p>
            <img src='./assets/img/instructions/2seconds.jpg' class='instructions-image'>","","instructions","","","","","","","","","","","","","",""
"learning-instructions","11","126052","0.0-3.0-1.0-0.7","spark_pilot_2","7141","3","9","Female","","","","","","","2285.5999999046326","<p> Let’s try practicing that now! </p>
            <p> When you see a picture of the place you are in, press the <b>up</b> key to travel up. </p>
            <img src='./assets/img/instructions/pressUp.jpg' class='instructions-image'>","","instructions","","","","","","","","","","","","","",""
"revaluation","12","130092","0.0-3.0-2.0-0.0","spark_pilot_2","7141","3","9","Female","","false","","","","","[733.0999999046326]","./assets/img/space/0.jpg","[""ArrowUp""]","first stage practice","space","0","null","null","ArrowUp","false","","","","","","","",""
"html-keyboard-response","13","130610","0.0-3.0-2.0-1.0","spark_pilot_2","7141","3","9","Female","","","","","","","null","<div style=""font-size:60px;"">+</div>","null","fixation","","","","","","","","","","","","","",""
"revaluation","14","134651","0.0-3.0-2.0-0.1","spark_pilot_2","7141","3","9","Female","","false","","","","","[1078.3999998569489]","./assets/img/space/1.jpg","[""ArrowUp""]","first stage practice","space","0","null","null","ArrowUp","false","","","","","","","",""
"html-keyboard-response","15","135170","0.0-3.0-2.0-1.1","spark_pilot_2","7141","3","9","Female","","","","","","","null","<div style=""font-size:60px;"">+</div>","null","fixation","","","","","","","","","","","","","",""
"revaluation","16","139211","0.0-3.0-2.0-0.2","spark_pilot_2","7141","3","9","Female","","false","","","","","[678.4000000953674]","./assets/img/space/2.jpg","[""ArrowUp""]","first stage practice","space","0","null","null","ArrowUp","false","","","","","","","",""
"html-keyboard-response","17","139730","0.0-3.0-2.0-1.2","spark_pilot_2","7141","3","9","Female","","","","","","","null","<div style=""font-size:60px;"">+</div>","null","fixation","","","","","","","","","","","","","",""
"learning-instructions","18","145149","0.0-3.0-3.0-0.0","spark_pilot_2","7141","3","9","Female","","","","","","","731.5","<p> Great job! Now try pressing the <b>down</b> key to travel down. </p>
            <img src='./assets/img/instructions/pressDown.jpg' class='instructions-image'>","","instructions","","","","","","","","","","","","","",""
"revaluation","19","149191","0.0-3.0-4.0-0.0","spark_pilot_2","7141","3","9","Female","","false","","","","","[513.7999999523163]","./assets/img/space/3.jpg","[""ArrowDown""]","first stage practice","space","0","null","null","ArrowDown","false","","","","","","","",""
"html-keyboard-response","20","149710","0.0-3.0-4.0-1.0","spark_pilot_2","7141","3","9","Female","","","","","","","null","<div style=""font-size:60px;"">+</div>","null","fixation","","","","","","","","","","","","","",""
"revaluation","21","153736","0.0-3.0-4.0-0.1","spark_pilot_2","7141","3","9","Female","","false","","","","","[507.7999999523163]","./assets/img/space/4.jpg","[""ArrowDown""]","first stage practice","space","0","null","null","ArrowDown","false","","","","","","","",""
"html-keyboard-response","22","154248","0.0-3.0-4.0-1.1","spark_pilot_2","7141","3","9","Female","","","","","","","null","<div style=""font-size:60px;"">+</div>","null","fixation","","","","","","","","","","","","","",""
"revaluation","23","158291","0.0-3.0-4.0-0.2","spark_pilot_2","7141","3","9","Female","","false","","","","","[442]","./assets/img/space/5.jpg","[""ArrowDown""]","first stage practice","space","0","null","null","ArrowDown","false","","","","","","","",""
"html-keyboard-response","24","158810","0.0-3.0-4.0-1.2","spark_pilot_2","7141","3","9","Female","","","","","","","null","<div style=""font-size:60px;"">+</div>","null","fixation","","","","","","","","","","","","","",""
"learning-instructions","25","170093","0.0-3.0-5.0-0.0","spark_pilot_2","7141","3","9","Female","","","","","","","1435.9000000953674","<p> The animals don’t move, so the animal in the upper part of a place will stay in the upper part of a place, and the animal in the lower part of a place will stay in the lower part of a place. </p>","","instructions","","","","","","","","","","","","","",""
"learning-instructions","26","193326","0.0-3.0-5.0-0.1","spark_pilot_2","7141","3","9","Female","","","","","","","14108.299999952316","<p> Each animal has two treasure chests for you to choose from. </p>
            <p> The amount of treasure in each chest can range from <b> 0 to 40 pieces.</b></p>","","instructions","","","","","","","","","","","","","",""
"learning-instructions","27","205487","0.0-3.0-5.0-0.2","spark_pilot_2","7141","3","9","Female","","","","","","","977.5","<p> You should decide which chest to search for treasure by using the <b>left</b> and <b>right</b> arrow keys. </p>
            <p><b> Pay attention to which animal is on the screen, as the animals have different treasure chests. </b></p>
            <img src='./assets/img/instructions/leftright.jpg' class='instructions-image'>","","instructions","","","","","","","","","","","","","",""
"learning-instructions","28","215671","0.0-3.0-5.0-0.3","spark_pilot_2","7141","3","9","Female","","","","","","","3821.7999999523163","<p> Let’s try practicing that now. </p>
            <p> When you see an animal, choose which chest to search for treasure. </p>
            <img src='./assets/img/instructions/chooseChest.jpg' class='instructions-image'>","","instructions","","","","","","","","","","","","","",""
"revaluation","29","219703","0.0-3.0-6.0-0.0","spark_pilot_2","7141","3","9","Female","","true","","","","","[]","./assets/img/space/animals/cat.jpg","[]","second stage practice","space","-5","{""ArrowUp,ArrowLeft"":3,""ArrowUp,ArrowRight"":36,""ArrowDown,ArrowLeft"":15,""ArrowDown,ArrowRight"":23}","false","ArrowUp","","","","","","","","",""
"html-keyboard-response","30","220223","0.0-3.0-6.0-1.0","spark_pilot_2","7141","3","9","Female","","","","","","","null","<div style=""font-size:60px;"">+</div>","null","fixation","","","","","","","","","","","","","",""
"revaluation","31","224244","0.0-3.0-6.0-0.1","spark_pilot_2","7141","3","9","Female","","false","","","","","[550.3000001907349]","./assets/img/space/animals/rabbit.jpg","[""ArrowRight""]","second stage practice","space","23","{""ArrowUp,ArrowLeft"":3,""ArrowUp,ArrowRight"":36,""ArrowDown,ArrowLeft"":15,""ArrowDown,ArrowRight"":23}","true","ArrowDown,ArrowRight","","","","","","","","",""
"html-keyboard-response","32","224764","0.0-3.0-6.0-1.1","spark_pilot_2","7141","3","9","Female","","","","","","","null","<div style=""font-size:60px;"">+</div>","null","fixation","","","","","","","","","","","","","",""
"revaluation","33","228794","0.0-3.0-6.0-0.2","spark_pilot_2","7141","3","9","Female","","false","","","","","[666]","./assets/img/space/animals/rabbit.jpg","[""ArrowRight""]","second stage practice","space","23","{""ArrowUp,ArrowLeft"":3,""ArrowUp,ArrowRight"":36,""ArrowDown,ArrowLeft"":15,""ArrowDown,ArrowRight"":23}","true","ArrowDown,ArrowRight","","","","","","","","",""
"html-keyboard-response","34","229313","0.0-3.0-6.0-1.2","spark_pilot_2","7141","3","9","Female","","","","","","","null","<div style=""font-size:60px;"">+</div>","null","fixation","","","","","","","","","","","","","",""
"revaluation","35","233354","0.0-3.0-6.0-0.3","spark_pilot_2","7141","3","9","Female","","false","","","","","[539.1999998092651]","./assets/img/space/animals/cat.jpg","[""ArrowRight""]","second stage practice","space","36","{""ArrowUp,ArrowLeft"":3,""ArrowUp,ArrowRight"":36,""ArrowDown,ArrowLeft"":15,""ArrowDown,ArrowRight"":23}","true","ArrowUp,ArrowRight","","","","","","","","",""
"html-keyboard-response","36","233873","0.0-3.0-6.0-1.3","spark_pilot_2","7141","3","9","Female","","","","","","","null","<div style=""font-size:60px;"">+</div>","null","fixation","","","","","","","","","","","","","",""
"learning-instructions","37","252913","0.0-3.0-7.0-0.0","spark_pilot_2","7141","3","9","Female","","","","","","","2241.7999999523163","<p> Great job. Now let’s try putting it together. </p>
            <p> On each turn, you will first see a picture to remind you of the place you are in, and you need to choose whether to go up or down. </p>
            <p> Then you will see an animal and choose which of its chests to search for treasure. </p>","","instructions","","","","","","","","","","","","","",""
"learning-instructions","38","263153","0.0-3.0-7.0-0.1","spark_pilot_2","7141","3","9","Female","","","","","","","2002","<p> When you choose whether to go up or down, try to go to the animal with the chest with the most treasure. </p>
            <p> Try practicing that now! </p>","","instructions","","","","","","","","","","","","","",""
"revaluation","39","269206","0.0-3.0-8.0-0.0","spark_pilot_2","7141","3","9","Female","","false","","","","","[1081.7000000476837,589.8000001907349]","./assets/img/space/6.jpg","[""ArrowUp"",""ArrowRight""]","full practice","space","36","{""ArrowUp,ArrowLeft"":3,""ArrowUp,ArrowRight"":36,""ArrowDown,ArrowLeft"":15,""ArrowDown,ArrowRight"":23}","true","ArrowUp,ArrowRight","false","","","","","","","",""
"html-keyboard-response","40","269725","0.0-3.0-8.0-1.0","spark_pilot_2","7141","3","9","Female","","","","","","","null","<div style=""font-size:60px;"">+</div>","null","fixation","","","","","","","","","","","","","",""
"revaluation","41","275786","0.0-3.0-8.0-0.1","spark_pilot_2","7141","3","9","Female","","false","","","","","[781.2999999523163,554.6000001430511]","./assets/img/space/7.jpg","[""ArrowUp"",""ArrowRight""]","full practice","space","36","{""ArrowUp,ArrowLeft"":3,""ArrowUp,ArrowRight"":36,""ArrowDown,ArrowLeft"":15,""ArrowDown,ArrowRight"":23}","true","ArrowUp,ArrowRight","false","","","","","","","",""
"html-keyboard-response","42","276306","0.0-3.0-8.0-1.1","spark_pilot_2","7141","3","9","Female","","","","","","","null","<div style=""font-size:60px;"">+</div>","null","fixation","","","","","","","","","","","","","",""
"revaluation","43","282346","0.0-3.0-8.0-0.2","spark_pilot_2","7141","3","9","Female","","false","","","","","[676.3999998569489,573.2999999523163]","./assets/img/space/8.jpg","[""ArrowUp"",""ArrowRight""]","full practice","space","36","{""ArrowUp,ArrowLeft"":3,""ArrowUp,ArrowRight"":36,""ArrowDown,ArrowLeft"":15,""ArrowDown,ArrowRight"":23}","true","ArrowUp,ArrowRight","false","","","","","","","",""
"html-keyboard-response","44","282865","0.0-3.0-8.0-1.2","spark_pilot_2","7141","3","9","Female","","","","","","","null","<div style=""font-size:60px;"">+</div>","null","fixation","","","","","","","","","","","","","",""
"revaluation","45","288926","0.0-3.0-8.0-0.3","spark_pilot_2","7141","3","9","Female","","false","","","","","[558.5999999046326,494.2999999523163]","./assets/img/space/9.jpg","[""ArrowUp"",""ArrowRight""]","full practice","space","36","{""ArrowUp,ArrowLeft"":3,""ArrowUp,ArrowRight"":36,""ArrowDown,ArrowLeft"":15,""ArrowDown,ArrowRight"":23}","true","ArrowUp,ArrowRight","false","","","","","","","",""
"html-keyboard-response","46","289446","0.0-3.0-8.0-1.3","spark_pilot_2","7141","3","9","Female","","","","","","","null","<div style=""font-size:60px;"">+</div>","null","fixation","","","","","","","","","","","","","",""
"revaluation","47","295451","0.0-3.0-8.0-0.4","spark_pilot_2","7141","3","9","Female","","false","","","","","[658,570.8000001907349]","./assets/img/space/10.jpg","[""ArrowUp"",""ArrowRight""]","full practice","space","36","{""ArrowUp,ArrowLeft"":3,""ArrowUp,ArrowRight"":36,""ArrowDown,ArrowLeft"":15,""ArrowDown,ArrowRight"":23}","true","ArrowUp,ArrowRight","false","","","","","","","",""
"html-keyboard-response","48","295953","0.0-3.0-8.0-1.4","spark_pilot_2","7141","3","9","Female","","","","","","","null","<div style=""font-size:60px;"">+</div>","null","fixation","","","","","","","","","","","","","",""
"learning-instructions","49","308026","0.0-3.0-9.0-0.0","spark_pilot_2","7141","3","9","Female","","","","","","","1771.5999999046326","<p> One last thing: sometimes, you will see a robber. The robber can be anywhere in the picture. </p>
            <p> If you do not stop them, you will lose treasure. </p>
            <img src='./assets/img/instructions/robber.jpg' class='instructions-image'>","","instructions","","","","","","","","","","","","","",""
"learning-instructions","50","318347","0.0-3.0-9.0-0.1","spark_pilot_2","7141","3","9","Female","","","","","","","3132.0999999046326","<p> If you see the robber, you should <b>press the space bar</b> rather than using the arrow keys. </p>
            <p> Try practicing that now! </p>","","instructions","","","","","","","","","","","","","",""
"revaluation","51","322364","0.0-3.0-10.0-0.0","spark_pilot_2","7141","3","9","Female","","false","","","","","[1193.5]","./assets/img/space/catch/0.jpg","[""ArrowUp""]","catch practice","space","-10","{""ArrowUp,ArrowLeft"":3,""ArrowUp,ArrowRight"":36,""ArrowDown,ArrowLeft"":15,""ArrowDown,ArrowRight"":23}","false","ArrowUp","true","","","","","","","",""
"html-keyboard-response","52","322879","0.0-3.0-10.0-1.0","spark_pilot_2","7141","3","9","Female","","","","","","","null","<div style=""font-size:60px;"">+</div>","null","fixation","","","","","","","","","","","","","",""
"revaluation","53","326919","0.0-3.0-10.0-0.1","spark_pilot_2","7141","3","9","Female","","false","","","","","[602.3999998569489]","./assets/img/space/catch/1.jpg","[""spaceBar""]","catch practice","space","0","{""ArrowUp,ArrowLeft"":3,""ArrowUp,ArrowRight"":36,""ArrowDown,ArrowLeft"":15,""ArrowDown,ArrowRight"":23}","true","spaceBar","true","","","","","","","",""
"html-keyboard-response","54","327439","0.0-3.0-10.0-1.1","spark_pilot_2","7141","3","9","Female","","","","","","","null","<div style=""font-size:60px;"">+</div>","null","fixation","","","","","","","","","","","","","",""
"revaluation","55","331459","0.0-3.0-10.0-0.2","spark_pilot_2","7141","3","9","Female","","false","","","","","[837.7999999523163]","./assets/img/space/catch/2.jpg","[""spaceBar""]","catch practice","space","0","{""ArrowUp,ArrowLeft"":3,""ArrowUp,ArrowRight"":36,""ArrowDown,ArrowLeft"":15,""ArrowDown,ArrowRight"":23}","true","spaceBar","true","","","","","","","",""
"html-keyboard-response","56","331980","0.0-3.0-10.0-1.2","spark_pilot_2","7141","3","9","Female","","","","","","","null","<div style=""font-size:60px;"">+</div>","null","fixation","","","","","","","","","","","","","",""
"learning-instructions","57","351916","0.0-3.0-11.0-0.0","spark_pilot_2","7141","3","9","Female","","","","","","","6339.100000143051","<p> After you explore a place to find treasure, it will be time to play a different game. </p>
            <p> During this game, red dots will appear on the screen and fall down slowly. </p>
            <p><b> You must click on them before they reach the bottom. </b></p>
            <img src='./assets/img/instructions/dotGame.jpg' class='instructions-image'>","","instructions","","","","","","","","","","","","","",""
"learning-instructions","58","358052","0.0-3.0-11.0-0.1","spark_pilot_2","7141","3","9","Female","","","","","","","475.2999999523163","<p> For every dot you click, you will earn additional treasure. </p>
            <p> Let’s try practicing that now. </p>","","instructions","","","","","","","","","","","","","",""
"revaluation","59","373057","0.0-3.0-12.0-0.0","spark_pilot_2","7141","3","9","Female","","","","","","","[160]","","","rest practice","","10","","","","","0","15000","","","","","",""
"learning-instructions","60","380072","0.0-3.0-13.0-0.0-0.0","spark_pilot_2","7141","3","9","Female","","","","","","","1779.2999999523163","<p> Now, you will practice a shortened version of the game to get a sense of how it all fits together. </p>","","instructions","","","","","","","","","","","","","",""
"learning-instructions","61","383784","0.0-3.0-13.0-0.0-0.1","spark_pilot_2","7141","3","9","Female","","","","","","","531.2999999523163","<p>This time you are searching for treasure in outer space.</p>","","instructions","","","","","","","","","","","","","",""
"learning-instructions","62","399345","0.0-3.0-13.0-1.0-0.0","spark_pilot_2","7141","3","9","Female","","","","","","","811.1000001430511","<p> Remember, when you see a picture of the place, use the up and down keys to <b>find an animal</b>.</p>
            <p> When you encounter an animal, you should use the left and right keys to <b>select a treasure chest</b>.</p>
            <p> Don't forget to look out for the robber! </p>","","instructions","","","","","","","","","","","","","",""
"revaluation","63","403378","0.0-3.0-13.0-2.0-0.0","spark_pilot_2","7141","3","9","Female","","true","","","","","[]","./assets/img/space/11.jpg","[]","practice block","space","-5","{""ArrowUp,ArrowLeft"":3,""ArrowUp,ArrowRight"":36,""ArrowDown,ArrowLeft"":15,""ArrowDown,ArrowRight"":23}","false","","false","","","","","","","",""
"html-keyboard-response","64","403882","0.0-3.0-13.0-2.0-1.0","spark_pilot_2","7141","3","9","Female","","","","","","","null","<div style=""font-size:60px;"">+</div>","null","fixation","","","","","","","","","","","","","",""
"revaluation","65","409938","0.0-3.0-13.0-2.0-0.1","spark_pilot_2","7141","3","9","Female","","false","","","","","[184.20000004768372,570.2000000476837]","./assets/img/space/12.jpg","[""ArrowUp"",""ArrowRight""]","practice block","space","36","{""ArrowUp,ArrowLeft"":3,""ArrowUp,ArrowRight"":36,""ArrowDown,ArrowLeft"":15,""ArrowDown,ArrowRight"":23}","true","ArrowUp,ArrowRight","false","","","","","","","",""
"html-keyboard-response","66","410458","0.0-3.0-13.0-2.0-1.1","spark_pilot_2","7141","3","9","Female","","","","","","","null","<div style=""font-size:60px;"">+</div>","null","fixation","","","","","","","","","","","","","",""
"revaluation","67","416519","0.0-3.0-13.0-2.0-0.2","spark_pilot_2","7141","3","9","Female","","false","","","","","[878,782.4000000953674]","./assets/img/space/13.jpg","[""ArrowUp"",""ArrowRight""]","practice block","space","36","{""ArrowUp,ArrowLeft"":3,""ArrowUp,ArrowRight"":36,""ArrowDown,ArrowLeft"":15,""ArrowDown,ArrowRight"":23}","true","ArrowUp,ArrowRight","false","","","","","","","",""
"html-keyboard-response","68","417038","0.0-3.0-13.0-2.0-1.2","spark_pilot_2","7141","3","9","Female","","","","","","","null","<div style=""font-size:60px;"">+</div>","null","fixation","","","","","","","","","","","","","",""
"revaluation","69","423099","0.0-3.0-13.0-2.0-0.3","spark_pilot_2","7141","3","9","Female","","false","","","","","[900.7999999523163,992.7000000476837]","./assets/img/space/14.jpg","[""ArrowUp"",""ArrowRight""]","practice block","space","36","{""ArrowUp,ArrowLeft"":3,""ArrowUp,ArrowRight"":36,""ArrowDown,ArrowLeft"":15,""ArrowDown,ArrowRight"":23}","true","ArrowUp,ArrowRight","false","","","","","","","",""
"html-keyboard-response","70","423618","0.0-3.0-13.0-2.0-1.3","spark_pilot_2","7141","3","9","Female","","","","","","","null","<div style=""font-size:60px;"">+</div>","null","fixation","","","","","","","","","","","","","",""
"revaluation","71","429650","0.0-3.0-13.0-2.0-0.4","spark_pilot_2","7141","3","9","Female","","false","","","","","[925.7999999523163,988.5]","./assets/img/space/11.jpg","[""ArrowUp"",""ArrowRight""]","practice block","space","36","{""ArrowUp,ArrowLeft"":3,""ArrowUp,ArrowRight"":36,""ArrowDown,ArrowLeft"":15,""ArrowDown,ArrowRight"":23}","true","ArrowUp,ArrowRight","false","","","","","","","",""
"html-keyboard-response","72","430152","0.0-3.0-13.0-2.0-1.4","spark_pilot_2","7141","3","9","Female","","","","","","","null","<div style=""font-size:60px;"">+</div>","null","fixation","","","","","","","","","","","","","",""
"revaluation","73","436162","0.0-3.0-13.0-2.0-0.5","spark_pilot_2","7141","3","9","Female","","false","","","","","[800.6999998092651,552.6000001430511]","./assets/img/space/12.jpg","[""ArrowUp"",""ArrowRight""]","practice block","space","36","{""ArrowUp,ArrowLeft"":3,""ArrowUp,ArrowRight"":36,""ArrowDown,ArrowLeft"":15,""ArrowDown,ArrowRight"":23}","true","ArrowUp,ArrowRight","false","","","","","","","",""
"html-keyboard-response","74","436664","0.0-3.0-13.0-2.0-1.5","spark_pilot_2","7141","3","9","Female","","","","","","","null","<div style=""font-size:60px;"">+</div>","null","fixation","","","","","","","","","","","","","",""
"revaluation","75","442670","0.0-3.0-13.0-2.0-0.6","spark_pilot_2","7141","3","9","Female","","false","","","","","[813.1999998092651,789.9000000953674]","./assets/img/space/13.jpg","[""ArrowUp"",""ArrowRight""]","practice block","space","36","{""ArrowUp,ArrowLeft"":3,""ArrowUp,ArrowRight"":36,""ArrowDown,ArrowLeft"":15,""ArrowDown,ArrowRight"":23}","true","ArrowUp,ArrowRight","false","","","","","","","",""
"html-keyboard-response","76","443172","0.0-3.0-13.0-2.0-1.6","spark_pilot_2","7141","3","9","Female","","","","","","","null","<div style=""font-size:60px;"">+</div>","null","fixation","","","","","","","","","","","","","",""
"revaluation","77","449176","0.0-3.0-13.0-2.0-0.7","spark_pilot_2","7141","3","9","Female","","false","","","","","[763.4000000953674,867.7999999523163]","./assets/img/space/14.jpg","[""ArrowUp"",""ArrowRight""]","practice block","space","36","{""ArrowUp,ArrowLeft"":3,""ArrowUp,ArrowRight"":36,""ArrowDown,ArrowLeft"":15,""ArrowDown,ArrowRight"":23}","true","ArrowUp,ArrowRight","false","","","","","","","",""
"html-keyboard-response","78","449679","0.0-3.0-13.0-2.0-1.7","spark_pilot_2","7141","3","9","Female","","","","","","","null","<div style=""font-size:60px;"">+</div>","null","fixation","","","","","","","","","","","","","",""
"revaluation","79","453696","0.0-3.0-13.0-2.0-0.8","spark_pilot_2","7141","3","9","Female","","false","","","","","[1398.2000000476837]","./assets/img/space/catch/3.jpg","[""spaceBar""]","practice block","space","0","{""ArrowUp,ArrowLeft"":3,""ArrowUp,ArrowRight"":36,""ArrowDown,ArrowLeft"":15,""ArrowDown,ArrowRight"":23}","true","spaceBar","true","","","","","","","",""
"html-keyboard-response","80","454198","0.0-3.0-13.0-2.0-1.8","spark_pilot_2","7141","3","9","Female","","","","","","","null","<div style=""font-size:60px;"">+</div>","null","fixation","","","","","","","","","","","","","",""
"learning-instructions","81","467912","0.0-3.0-13.0-3.0-0.0","spark_pilot_2","7141","3","9","Female","","","","","","","784.0999999046326","<p> Now, you will travel with a friend who will choose whether you go up or down first. </p>
            <p> On these turns, you will just see the animal that they found. You will still get to choose which chest to search for treasure.</p>","","instructions","","","","","","","","","","","","","",""
"revaluation","82","471942","0.0-3.0-13.0-4.0-0.0","spark_pilot_2","7141","3","9","Female","","false","","","","","[1786.0999999046326]","./assets/img/space/animals/rabbit.jpg","[""ArrowRight""]","practice block","space","23","{""ArrowUp,ArrowLeft"":3,""ArrowUp,ArrowRight"":36,""ArrowDown,ArrowLeft"":15,""ArrowDown,ArrowRight"":23}","true","ArrowDown,ArrowRight","","","","","","","","",""
"html-keyboard-response","83","472462","0.0-3.0-13.0-4.0-1.0","spark_pilot_2","7141","3","9","Female","","","","","","","null","<div style=""font-size:60px;"">+</div>","null","fixation","","","","","","","","","","","","","",""
"revaluation","84","476502","0.0-3.0-13.0-4.0-0.1","spark_pilot_2","7141","3","9","Female","","false","","","","","[622.2999999523163]","./assets/img/space/animals/rabbit.jpg","[""ArrowRight""]","practice block","space","23","{""ArrowUp,ArrowLeft"":3,""ArrowUp,ArrowRight"":36,""ArrowDown,ArrowLeft"":15,""ArrowDown,ArrowRight"":23}","true","ArrowDown,ArrowRight","","","","","","","","",""
"html-keyboard-response","85","477021","0.0-3.0-13.0-4.0-1.1","spark_pilot_2","7141","3","9","Female","","","","","","","null","<div style=""font-size:60px;"">+</div>","null","fixation","","","","","","","","","","","","","",""
"revaluation","86","481062","0.0-3.0-13.0-4.0-0.2","spark_pilot_2","7141","3","9","Female","","false","","","","","[440.7999999523163]","./assets/img/space/animals/cat.jpg","[""ArrowRight""]","practice block","space","36","{""ArrowUp,ArrowLeft"":3,""ArrowUp,ArrowRight"":36,""ArrowDown,ArrowLeft"":15,""ArrowDown,ArrowRight"":23}","true","ArrowUp,ArrowRight","","","","","","","","",""
"html-keyboard-response","87","481582","0.0-3.0-13.0-4.0-1.2","spark_pilot_2","7141","3","9","Female","","","","","","","null","<div style=""font-size:60px;"">+</div>","null","fixation","","","","","","","","","","","","","",""
"revaluation","88","485622","0.0-3.0-13.0-4.0-0.3","spark_pilot_2","7141","3","9","Female","","false","","","","","[544.0999999046326]","./assets/img/space/animals/cat.jpg","[""ArrowRight""]","practice block","space","36","{""ArrowUp,ArrowLeft"":3,""ArrowUp,ArrowRight"":36,""ArrowDown,ArrowLeft"":15,""ArrowDown,ArrowRight"":23}","true","ArrowUp,ArrowRight","","","","","","","","",""
"html-keyboard-response","89","486132","0.0-3.0-13.0-4.0-1.3","spark_pilot_2","7141","3","9","Female","","","","","","","null","<div style=""font-size:60px;"">+</div>","null","fixation","","","","","","","","","","","","","",""
"learning-instructions","90","494145","0.0-3.0-13.0-5.0-0.0","spark_pilot_2","7141","3","9","Female","","","","","","","646","<p> Time to play the dot game! </p>
            <p> For 15 seconds, click the red dots on the following screen as they appear. </p>","","instructions","","","","","","","","","","","","","",""
"revaluation","91","509158","0.0-3.0-13.0-6.0-0.0","spark_pilot_2","7141","3","9","Female","","","","","","","[152]","","","rest practice","","10","","","","","0","15000","","","","","",""
"learning-instructions","92","516905","0.0-3.0-13.0-7.0-0.0","spark_pilot_2","7141","3","9","Female","","","","","","","1615.9000000953674","<p> You have almost finished this part of the game! </p>
            <p> We are going to ask you to make a few more choices. </p>","","instructions","","","","","","","","","","","","","",""
"learning-instructions","93","531514","0.0-3.0-13.0-7.0-0.1","spark_pilot_2","7141","3","9","Female","","","","","","","613.9000000953674","<p> First, you need to decide whether to go up or down. When you see each picture, use the arrow keys to make your choice. </p>
            <p><b>You will not see which animal you found, but try to get to the one that will give you the most treasure.</b></p>","","instructions","","","","","","","","","","","","","",""
"revaluation","94","532685","0.0-3.0-13.0-8.0","spark_pilot_2","7141","3","9","Female","","false","","","","","[1169.6000001430511]","./assets/img/space/15.jpg","[""ArrowUp""]","practice block","space","0","{""ArrowUp,ArrowLeft"":3,""ArrowUp,ArrowRight"":36,""ArrowDown,ArrowLeft"":15,""ArrowDown,ArrowRight"":23}","true","ArrowUp","false","","","","","","","",""
"html-keyboard-response","95","533204","0.0-3.0-13.0-9.0","spark_pilot_2","7141","3","9","Female","","","","","","","null","<div style=""font-size:60px;"">+</div>","null","fixation","","","","","","","","","","","","","",""
"learning-instructions","96","547290","0.0-3.0-13.0-10.0-0.0","spark_pilot_2","7141","3","9","Female","","","","","","","2709.899999856949","<p> Now you will see the animals again and can search their chests for treasure. </p>
            <p> This time, you will not see how much treasure you earned, but you will earn more bonus money for making better choices. </p>","","instructions","","","","","","","","","","","","","",""
"revaluation","97","548469","0.0-3.0-13.0-11.0-0.0","spark_pilot_2","7141","3","9","Female","","false","","","","","[1177.3999998569489]","./assets/img/space/animals/cat.jpg","[""ArrowRight""]","practice block","space","0","{""ArrowUp,ArrowLeft"":3,""ArrowUp,ArrowRight"":36,""ArrowDown,ArrowLeft"":15,""ArrowDown,ArrowRight"":23}","true","ArrowUp,ArrowRight","","","","","","","","",""
"html-keyboard-response","98","548974","0.0-3.0-13.0-11.0-1.0","spark_pilot_2","7141","3","9","Female","","","","","","","null","<div style=""font-size:60px;"">+</div>","null","fixation","","","","","","","","","","","","","",""
"revaluation","99","549637","0.0-3.0-13.0-11.0-0.1","spark_pilot_2","7141","3","9","Female","","false","","","","","[657.7999999523163]","./assets/img/space/animals/rabbit.jpg","[""ArrowRight""]","practice block","space","0","{""ArrowUp,ArrowLeft"":3,""ArrowUp,ArrowRight"":36,""ArrowDown,ArrowLeft"":15,""ArrowDown,ArrowRight"":23}","true","ArrowDown,ArrowRight","","","","","","","","",""
"html-keyboard-response","100","550155","0.0-3.0-13.0-11.0-1.1","spark_pilot_2","7141","3","9","Female","","","","","","","null","<div style=""font-size:60px;"">+</div>","null","fixation","","","","","","","","","","","","","",""
"learning-instructions","101","555530","0.0-3.0-14.0-0.0","spark_pilot_2","7141","3","9","Female","","","","","","","789.7999999523163","<p> Before you start, we're going to ask you a few questions about how the game works. </p>","","instructions","","","","","","","","","","","","","",""
"comp-q","102","564852","0.0-3.0-15.0-0.0-0.0","spark_pilot_2","7141","3","9","Female","","","","","","","3750.5","<p> <b> True or False? </b> </p>
            <p> There can be 50 pieces of treasure in a given animal's chest. </p>","1","comp_question","","","","true","","","","","","","","","",""
"comp-q","103","573219","0.0-3.0-15.0-0.0-1.0","spark_pilot_2","7141","3","9","Female","","","","","","","1717.5999999046326","<p> <b> That's right! </b> The amount of treasure in each chest can range from 0 to 40 pieces. </p>","0","comp_answer","","","","","","","","","","","","","",""
"comp-q","104","581371","0.0-3.0-15.0-0.1-0.1","spark_pilot_2","7141","3","9","Female","","","","","","","1039.7999999523163","<p> <b> True or False? </b> </p><p> In this game, all animals have the same amount of treasure in their left and right chests. </p>","1","comp_question","","","","true","","","","","","","","","",""
"comp-q","105","588140","0.0-3.0-15.0-0.1-1.1","spark_pilot_2","7141","3","9","Female","","","","","","","1547.5999999046326","<p> <b> That's right! </b> Animals have different amounts of treasure in their treasure chests. </p>","0","comp_answer","","","","","","","","","","","","","",""
"comp-q","106","598596","0.0-3.0-15.0-0.2-0.2","spark_pilot_2","7141","3","9","Female","","","","","","","4614.099999904633","<p> <b> True or False? </b> </p><p> The same animal will always be there if you go up in the same place. </p>","1","comp_question","","","","false","","","","","","","","","",""
"comp-q","107","607076","0.0-3.0-15.0-0.2-1.2","spark_pilot_2","7141","3","9","Female","","","","","","","2193.7000000476837","<p> <b>Incorrect.</b> One animal lives in the upper part and one lives in the lower part of every place. </p>","0","comp_answer","","","","","","","","","","","","","",""
"comp-q","108","617155","0.0-3.0-15.0-0.3-0.3","spark_pilot_2","7141","3","9","Female","","","","","","","4253.700000047684","<p> <b> True or False? </b> </p><p> The same animal will always be there if you go up in the same place. </p>","0","comp_question","","","","true","","","","","","","","","",""
"comp-q","109","625748","0.0-3.0-15.0-0.3-1.3","spark_pilot_2","7141","3","9","Female","","","","","","","2126.100000143051","<p> <b> That's right! </b> One animal lives in the upper part and one lives in the lower part of every place. </p>","0","comp_answer","","","","","","","","","","","","","",""
"comp-q","110","634060","0.0-3.0-15.0-0.4-0.4","spark_pilot_2","7141","3","9","Female","","","","","","","2798","<p> <b> True or False? </b> </p><p> If you see a different picture, it means you are in a new place. </p>","1","comp_question","","","","true","","","","","","","","","",""
"comp-q","111","647164","0.0-3.0-15.0-0.4-1.4","spark_pilot_2","7141","3","9","Female","","","","","","","1891.6000001430511","<p> <b> That's right! </b> Lots of different images may show the same place. For example,  you may see three different images that all remind you that you are in outer space. </p>","0","comp_answer","","","","","","","","","","","","","",""
"learning-instructions","112","659525","0.0-3.0-16.0-0.0","spark_pilot_2","7141","3","9","Female","","","","","","","2511.5","<p> Good job. Remember to do your best because the amount of treasure you earn will be converted into bonus money. </p>
            <p> It’s time to start the real game! </p>","","instructions","","","","","","","","","","","","","",""
"learning-instructions","113","662965","0.0-4.0-0.0-0.0","spark_pilot_2","7141","3","9","Female","","","","","","","741.5","<p> This time you are searching for treasure in the <b>ocean</b>.</p>","","instructions","","","","","","","","","","","","","",""
"learning-instructions","114","680927","0.0-4.0-0.0-0.1","spark_pilot_2","7141","3","9","Female","","","","","","","672","<p><b>New</b> animals with <b>new</b> treasure chests live here. You need to explore to discover where the animal with the best treasure chest is.</p>
                    <p> Like before, once you figure out which animal has the chest with the most treasure, you should try to get to that animal and select that chest! </p>","","instructions","","","","","","","","","","","","","",""
"learning-instructions","115","696335","0.0-4.0-1.0-0.0","spark_pilot_2","7141","3","9","Female","","","","","","","679.2000000476837","<p> Remember, when you see a picture of the place, use the up and down keys to <b>find an animal</b>.</p>
            <p> When you encounter an animal, you should use the left and right keys to <b>select a treasure chest</b>.</p>
            <p> Don't forget to look out for the robber! </p>","","instructions","","","","","","","","","","","","","",""
"revaluation","116","702380","0.0-4.0-2.0-0.0","spark_pilot_2","7141","3","9","Female","","false","","","","","[905.7999999523163,670.0999999046326]","./assets/img/ocean/memory/21.jpg","[""ArrowUp"",""ArrowLeft""]","value training","ocean","23","{""ArrowUp,ArrowLeft"":23,""ArrowUp,ArrowRight"":10,""ArrowDown,ArrowLeft"":8,""ArrowDown,ArrowRight"":30}","false","ArrowUp,ArrowLeft","false","","","original","1","0","","",""
"html-keyboard-response","117","702900","0.0-4.0-2.0-1.0","spark_pilot_2","7141","3","9","Female","","","","","","","null","<div style=""font-size:60px;"">+</div>","null","fixation","","","","","","","","","","","1","","",""
"revaluation","118","706940","0.0-4.0-2.0-0.1","spark_pilot_2","7141","3","9","Female","","false","","","","","[554.2000000476837]","./assets/img/ocean/catch/6.jpg","[""ArrowDown""]","value training","ocean","-10","{""ArrowUp,ArrowLeft"":23,""ArrowUp,ArrowRight"":10,""ArrowDown,ArrowLeft"":8,""ArrowDown,ArrowRight"":30}","false","ArrowDown","true","","","original","1","2","","",""
"html-keyboard-response","119","707460","0.0-4.0-2.0-1.1","spark_pilot_2","7141","3","9","Female","","","","","","","null","<div style=""font-size:60px;"">+</div>","null","fixation","","","","","","","","","","","3","","",""
"revaluation","120","713501","0.0-4.0-2.0-0.2","spark_pilot_2","7141","3","9","Female","","false","","","","","[914.5,793.9000000953674]","./assets/img/ocean/memory/19.jpg","[""ArrowUp"",""ArrowRight""]","value training","ocean","10","{""ArrowUp,ArrowLeft"":23,""ArrowUp,ArrowRight"":10,""ArrowDown,ArrowLeft"":8,""ArrowDown,ArrowRight"":30}","false","ArrowUp,ArrowRight","false","","","original","1","4","","",""
"html-keyboard-response","121","714020","0.0-4.0-2.0-1.2","spark_pilot_2","7141","3","9","Female","","","","","","","null","<div style=""font-size:60px;"">+</div>","null","fixation","","","","","","","","","","","5","","",""
"revaluation","122","720071","0.0-4.0-2.0-0.3","spark_pilot_2","7141","3","9","Female","","false","","","","","[762.2000000476837,1018]","./assets/img/ocean/memory/39.jpg","[""ArrowUp"",""ArrowLeft""]","value training","ocean","23","{""ArrowUp,ArrowLeft"":23,""ArrowUp,ArrowRight"":10,""ArrowDown,ArrowLeft"":8,""ArrowDown,ArrowRight"":30}","false","ArrowUp,ArrowLeft","false","","","original","1","6","","",""
"html-keyboard-response","123","720590","0.0-4.0-2.0-1.3","spark_pilot_2","7141","3","9","Female","","","","","","","null","<div style=""font-size:60px;"">+</div>","null","fixation","","","","","","","","","","","7","","",""
"revaluation","124","726622","0.0-4.0-2.0-0.4","spark_pilot_2","7141","3","9","Female","","false","","","","","[617.6999998092651,898.0999999046326]","./assets/img/ocean/memory/25.jpg","[""ArrowUp"",""ArrowLeft""]","value training","ocean","23","{""ArrowUp,ArrowLeft"":23,""ArrowUp,ArrowRight"":10,""ArrowDown,ArrowLeft"":8,""ArrowDown,ArrowRight"":30}","false","ArrowUp,ArrowLeft","false","","","original","1","8","","",""
"html-keyboard-response","125","727124","0.0-4.0-2.0-1.4","spark_pilot_2","7141","3","9","Female","","","","","","","null","<div style=""font-size:60px;"">+</div>","null","fixation","","","","","","","","","","","9","","",""
"revaluation","126","731128","0.0-4.0-2.0-0.5","spark_pilot_2","7141","3","9","Female","","true","","","","","[]","./assets/img/ocean/memory/37.jpg","[]","value training","ocean","-5","{""ArrowUp,ArrowLeft"":23,""ArrowUp,ArrowRight"":10,""ArrowDown,ArrowLeft"":8,""ArrowDown,ArrowRight"":30}","false","","false","","","original","1","10","","",""
"html-keyboard-response","127","731630","0.0-4.0-2.0-1.5","spark_pilot_2","7141","3","9","Female","","","","","","","null","<div style=""font-size:60px;"">+</div>","null","fixation","","","","","","","","","","","11","","",""
"revaluation","128","737636","0.0-4.0-2.0-0.6","spark_pilot_2","7141","3","9","Female","","false","","","","","[488.2999999523163,920.5]","./assets/img/ocean/memory/31.jpg","[""ArrowDown"",""ArrowLeft""]","value training","ocean","8","{""ArrowUp,ArrowLeft"":23,""ArrowUp,ArrowRight"":10,""ArrowDown,ArrowLeft"":8,""ArrowDown,ArrowRight"":30}","false","ArrowDown,ArrowLeft","false","","","original","1","12","","",""
"html-keyboard-response","129","738138","0.0-4.0-2.0-1.6","spark_pilot_2","7141","3","9","Female","","","","","","","null","<div style=""font-size:60px;"">+</div>","null","fixation","","","","","","","","","","","13","","",""
"revaluation","130","744143","0.0-4.0-2.0-0.7","spark_pilot_2","7141","3","9","Female","","false","","","","","[559.0999999046326,556.7000000476837]","./assets/img/ocean/memory/19.jpg","[""ArrowDown"",""ArrowRight""]","value training","ocean","30","{""ArrowUp,ArrowLeft"":23,""ArrowUp,ArrowRight"":10,""ArrowDown,ArrowLeft"":8,""ArrowDown,ArrowRight"":30}","true","ArrowDown,ArrowRight","false","","","original","1","14","","",""
"html-keyboard-response","131","744645","0.0-4.0-2.0-1.7","spark_pilot_2","7141","3","9","Female","","","","","","","null","<div style=""font-size:60px;"">+</div>","null","fixation","","","","","","","","","","","15","","",""
"revaluation","132","750653","0.0-4.0-2.0-0.8","spark_pilot_2","7141","3","9","Female","","false","","","","","[802.7999999523163,665.2000000476837]","./assets/img/ocean/memory/15.jpg","[""ArrowDown"",""ArrowRight""]","value training","ocean","30","{""ArrowUp,ArrowLeft"":23,""ArrowUp,ArrowRight"":10,""ArrowDown,ArrowLeft"":8,""ArrowDown,ArrowRight"":30}","true","ArrowDown,ArrowRight","false","","","original","1","16","","",""
"html-keyboard-response","133","751155","0.0-4.0-2.0-1.8","spark_pilot_2","7141","3","9","Female","","","","","","","null","<div style=""font-size:60px;"">+</div>","null","fixation","","","","","","","","","","","17","","",""
"revaluation","134","757161","0.0-4.0-2.0-0.9","spark_pilot_2","7141","3","9","Female","","false","","","","","[685.7999999523163,781.2000000476837]","./assets/img/ocean/memory/35.jpg","[""ArrowDown"",""ArrowRight""]","value training","ocean","30","{""ArrowUp,ArrowLeft"":23,""ArrowUp,ArrowRight"":10,""ArrowDown,ArrowLeft"":8,""ArrowDown,ArrowRight"":30}","true","ArrowDown,ArrowRight","false","","","original","1","18","","",""
"html-keyboard-response","135","757663","0.0-4.0-2.0-1.9","spark_pilot_2","7141","3","9","Female","","","","","","","null","<div style=""font-size:60px;"">+</div>","null","fixation","","","","","","","","","","","19","","",""
"revaluation","136","763670","0.0-4.0-2.0-0.10","spark_pilot_2","7141","3","9","Female","","false","","","","","[418,536.2999999523163]","./assets/img/ocean/memory/18.jpg","[""ArrowDown"",""ArrowRight""]","value training","ocean","30","{""ArrowUp,ArrowLeft"":23,""ArrowUp,ArrowRight"":10,""ArrowDown,ArrowLeft"":8,""ArrowDown,ArrowRight"":30}","true","ArrowDown,ArrowRight","false","","","original","1","20","","",""
"html-keyboard-response","137","764171","0.0-4.0-2.0-1.10","spark_pilot_2","7141","3","9","Female","","","","","","","null","<div style=""font-size:60px;"">+</div>","null","fixation","","","","","","","","","","","21","","",""
"revaluation","138","770189","0.0-4.0-2.0-0.11","spark_pilot_2","7141","3","9","Female","","false","","","","","[518.2999999523163,695.0999999046326]","./assets/img/ocean/memory/36.jpg","[""ArrowDown"",""ArrowRight""]","value training","ocean","30","{""ArrowUp,ArrowLeft"":23,""ArrowUp,ArrowRight"":10,""ArrowDown,ArrowLeft"":8,""ArrowDown,ArrowRight"":30}","true","ArrowDown,ArrowRight","false","","","original","1","22","","",""
"html-keyboard-response","139","770690","0.0-4.0-2.0-1.11","spark_pilot_2","7141","3","9","Female","","","","","","","null","<div style=""font-size:60px;"">+</div>","null","fixation","","","","","","","","","","","23","","",""
"revaluation","140","776695","0.0-4.0-2.0-0.12","spark_pilot_2","7141","3","9","Female","","false","","","","","[745.2000000476837,799.9000000953674]","./assets/img/ocean/memory/1.jpg","[""ArrowDown"",""ArrowRight""]","value training","ocean","30","{""ArrowUp,ArrowLeft"":23,""ArrowUp,ArrowRight"":10,""ArrowDown,ArrowLeft"":8,""ArrowDown,ArrowRight"":30}","true","ArrowDown,ArrowRight","false","","","original","1","24","","",""
"html-keyboard-response","141","777197","0.0-4.0-2.0-1.12","spark_pilot_2","7141","3","9","Female","","","","","","","null","<div style=""font-size:60px;"">+</div>","null","fixation","","","","","","","","","","","25","","",""
"revaluation","142","783203","0.0-4.0-2.0-0.13","spark_pilot_2","7141","3","9","Female","","false","","","","","[563.8999998569489,946.5]","./assets/img/ocean/memory/6.jpg","[""ArrowDown"",""ArrowRight""]","value training","ocean","30","{""ArrowUp,ArrowLeft"":23,""ArrowUp,ArrowRight"":10,""ArrowDown,ArrowLeft"":8,""ArrowDown,ArrowRight"":30}","true","ArrowDown,ArrowRight","false","","","original","1","26","","",""
"html-keyboard-response","143","783705","0.0-4.0-2.0-1.13","spark_pilot_2","7141","3","9","Female","","","","","","","null","<div style=""font-size:60px;"">+</div>","null","fixation","","","","","","","","","","","27","","",""
"revaluation","144","789711","0.0-4.0-2.0-0.14","spark_pilot_2","7141","3","9","Female","","false","","","","","[448.39999985694885,719.1000001430511]","./assets/img/ocean/memory/24.jpg","[""ArrowDown"",""ArrowRight""]","value training","ocean","30","{""ArrowUp,ArrowLeft"":23,""ArrowUp,ArrowRight"":10,""ArrowDown,ArrowLeft"":8,""ArrowDown,ArrowRight"":30}","true","ArrowDown,ArrowRight","false","","","original","1","28","","",""
"html-keyboard-response","145","790212","0.0-4.0-2.0-1.14","spark_pilot_2","7141","3","9","Female","","","","","","","null","<div style=""font-size:60px;"">+</div>","null","fixation","","","","","","","","","","","29","","",""
"revaluation","146","796218","0.0-4.0-2.0-0.15","spark_pilot_2","7141","3","9","Female","","false","","","","","[1022.7000000476837,693.7999999523163]","./assets/img/ocean/memory/6.jpg","[""ArrowDown"",""ArrowRight""]","value training","ocean","30","{""ArrowUp,ArrowLeft"":23,""ArrowUp,ArrowRight"":10,""ArrowDown,ArrowLeft"":8,""ArrowDown,ArrowRight"":30}","true","ArrowDown,ArrowRight","false","","","original","1","30","","",""
"html-keyboard-response","147","796720","0.0-4.0-2.0-1.15","spark_pilot_2","7141","3","9","Female","","","","","","","null","<div style=""font-size:60px;"">+</div>","null","fixation","","","","","","","","","","","31","","",""
"revaluation","148","800726","0.0-4.0-2.0-0.16","spark_pilot_2","7141","3","9","Female","","false","","","","","[1162.1000001430511]","./assets/img/ocean/catch/3.jpg","[""spaceBar""]","value training","ocean","0","{""ArrowUp,ArrowLeft"":23,""ArrowUp,ArrowRight"":10,""ArrowDown,ArrowLeft"":8,""ArrowDown,ArrowRight"":30}","true","spaceBar","true","","","original","1","32","","",""
"html-keyboard-response","149","801230","0.0-4.0-2.0-1.16","spark_pilot_2","7141","3","9","Female","","","","","","","null","<div style=""font-size:60px;"">+</div>","null","fixation","","","","","","","","","","","33","","",""
"revaluation","150","807237","0.0-4.0-2.0-0.17","spark_pilot_2","7141","3","9","Female","","false","","","","","[724.7000000476837,763.7000000476837]","./assets/img/ocean/memory/39.jpg","[""ArrowDown"",""ArrowLeft""]","value training","ocean","8","{""ArrowUp,ArrowLeft"":23,""ArrowUp,ArrowRight"":10,""ArrowDown,ArrowLeft"":8,""ArrowDown,ArrowRight"":30}","false","ArrowDown,ArrowLeft","false","","","original","1","34","","",""
"html-keyboard-response","151","807739","0.0-4.0-2.0-1.17","spark_pilot_2","7141","3","9","Female","","","","","","","null","<div style=""font-size:60px;"">+</div>","null","fixation","","","","","","","","","","","35","","",""
"revaluation","152","813745","0.0-4.0-2.0-0.18","spark_pilot_2","7141","3","9","Female","","false","","","","","[631.7999999523163,485.90000009536743]","./assets/img/ocean/memory/33.jpg","[""ArrowDown"",""ArrowRight""]","value training","ocean","30","{""ArrowUp,ArrowLeft"":23,""ArrowUp,ArrowRight"":10,""ArrowDown,ArrowLeft"":8,""ArrowDown,ArrowRight"":30}","true","ArrowDown,ArrowRight","false","","","original","1","36","","",""
"html-keyboard-response","153","814246","0.0-4.0-2.0-1.18","spark_pilot_2","7141","3","9","Female","","","","","","","null","<div style=""font-size:60px;"">+</div>","null","fixation","","","","","","","","","","","37","","",""
"revaluation","154","818252","0.0-4.0-2.0-0.19","spark_pilot_2","7141","3","9","Female","","false","","","","","[558.2999999523163]","./assets/img/ocean/catch/0.jpg","[""ArrowDown""]","value training","ocean","-10","{""ArrowUp,ArrowLeft"":23,""ArrowUp,ArrowRight"":10,""ArrowDown,ArrowLeft"":8,""ArrowDown,ArrowRight"":30}","false","ArrowDown","true","","","original","1","38","","",""
"html-keyboard-response","155","818754","0.0-4.0-2.0-1.19","spark_pilot_2","7141","3","9","Female","","","","","","","null","<div style=""font-size:60px;"">+</div>","null","fixation","","","","","","","","","","","39","","",""
"revaluation","156","824763","0.0-4.0-2.0-0.20","spark_pilot_2","7141","3","9","Female","","false","","","","","[648.9000000953674,597.5999999046326]","./assets/img/ocean/memory/18.jpg","[""ArrowDown"",""ArrowRight""]","value training","ocean","30","{""ArrowUp,ArrowLeft"":23,""ArrowUp,ArrowRight"":10,""ArrowDown,ArrowLeft"":8,""ArrowDown,ArrowRight"":30}","true","ArrowDown,ArrowRight","false","","","original","1","40","","",""
"html-keyboard-response","157","825265","0.0-4.0-2.0-1.20","spark_pilot_2","7141","3","9","Female","","","","","","","null","<div style=""font-size:60px;"">+</div>","null","fixation","","","","","","","","","","","41","","",""
"revaluation","158","831285","0.0-4.0-2.0-0.21","spark_pilot_2","7141","3","9","Female","","false","","","","","[497.7999999523163,967.2999999523163]","./assets/img/ocean/memory/24.jpg","[""ArrowDown"",""ArrowRight""]","value training","ocean","30","{""ArrowUp,ArrowLeft"":23,""ArrowUp,ArrowRight"":10,""ArrowDown,ArrowLeft"":8,""ArrowDown,ArrowRight"":30}","true","ArrowDown,ArrowRight","false","","","original","1","42","","",""
"html-keyboard-response","159","831787","0.0-4.0-2.0-1.21","spark_pilot_2","7141","3","9","Female","","","","","","","null","<div style=""font-size:60px;"">+</div>","null","fixation","","","","","","","","","","","43","","",""
"revaluation","160","837794","0.0-4.0-2.0-0.22","spark_pilot_2","7141","3","9","Female","","false","","","","","[568.5,614.7999999523163]","./assets/img/ocean/memory/22.jpg","[""ArrowUp"",""ArrowLeft""]","value training","ocean","23","{""ArrowUp,ArrowLeft"":23,""ArrowUp,ArrowRight"":10,""ArrowDown,ArrowLeft"":8,""ArrowDown,ArrowRight"":30}","false","ArrowUp,ArrowLeft","false","","","original","1","44","","",""
"html-keyboard-response","161","838296","0.0-4.0-2.0-1.22","spark_pilot_2","7141","3","9","Female","","","","","","","null","<div style=""font-size:60px;"">+</div>","null","fixation","","","","","","","","","","","45","","",""
"revaluation","162","844304","0.0-4.0-2.0-0.23","spark_pilot_2","7141","3","9","Female","","false","","","","","[681.7999999523163,752.9000000953674]","./assets/img/ocean/memory/12.jpg","[""ArrowDown"",""ArrowRight""]","value training","ocean","30","{""ArrowUp,ArrowLeft"":23,""ArrowUp,ArrowRight"":10,""ArrowDown,ArrowLeft"":8,""ArrowDown,ArrowRight"":30}","true","ArrowDown,ArrowRight","false","","","original","1","46","","",""
"html-keyboard-response","163","844806","0.0-4.0-2.0-1.23","spark_pilot_2","7141","3","9","Female","","","","","","","null","<div style=""font-size:60px;"">+</div>","null","fixation","","","","","","","","","","","47","","",""
"revaluation","164","848813","0.0-4.0-2.0-0.24","spark_pilot_2","7141","3","9","Female","","false","","","","","[509.7000000476837]","./assets/img/ocean/catch/5.jpg","[""ArrowDown""]","value training","ocean","-10","{""ArrowUp,ArrowLeft"":23,""ArrowUp,ArrowRight"":10,""ArrowDown,ArrowLeft"":8,""ArrowDown,ArrowRight"":30}","false","ArrowDown","true","","","original","1","48","","",""
"html-keyboard-response","165","849314","0.0-4.0-2.0-1.24","spark_pilot_2","7141","3","9","Female","","","","","","","null","<div style=""font-size:60px;"">+</div>","null","fixation","","","","","","","","","","","49","","",""
"revaluation","166","855322","0.0-4.0-2.0-0.25","spark_pilot_2","7141","3","9","Female","","false","","","","","[737.2000000476837,583.4000000953674]","./assets/img/ocean/memory/10.jpg","[""ArrowDown"",""ArrowRight""]","value training","ocean","30","{""ArrowUp,ArrowLeft"":23,""ArrowUp,ArrowRight"":10,""ArrowDown,ArrowLeft"":8,""ArrowDown,ArrowRight"":30}","true","ArrowDown,ArrowRight","false","","","original","1","50","","",""
"html-keyboard-response","167","855824","0.0-4.0-2.0-1.25","spark_pilot_2","7141","3","9","Female","","","","","","","null","<div style=""font-size:60px;"">+</div>","null","fixation","","","","","","","","","","","51","","",""
"revaluation","168","861833","0.0-4.0-2.0-0.26","spark_pilot_2","7141","3","9","Female","","false","","","","","[635.8999998569489,368.89999985694885]","./assets/img/ocean/memory/4.jpg","[""ArrowDown"",""ArrowRight""]","value training","ocean","30","{""ArrowUp,ArrowLeft"":23,""ArrowUp,ArrowRight"":10,""ArrowDown,ArrowLeft"":8,""ArrowDown,ArrowRight"":30}","true","ArrowDown,ArrowRight","false","","","original","1","52","","",""
"html-keyboard-response","169","862335","0.0-4.0-2.0-1.26","spark_pilot_2","7141","3","9","Female","","","","","","","null","<div style=""font-size:60px;"">+</div>","null","fixation","","","","","","","","","","","53","","",""
"revaluation","170","868343","0.0-4.0-2.0-0.27","spark_pilot_2","7141","3","9","Female","","false","","","","","[828.2999999523163,642.7999999523163]","./assets/img/ocean/memory/33.jpg","[""ArrowDown"",""ArrowRight""]","value training","ocean","30","{""ArrowUp,ArrowLeft"":23,""ArrowUp,ArrowRight"":10,""ArrowDown,ArrowLeft"":8,""ArrowDown,ArrowRight"":30}","true","ArrowDown,ArrowRight","false","","","original","1","54","","",""
"html-keyboard-response","171","868845","0.0-4.0-2.0-1.27","spark_pilot_2","7141","3","9","Female","","","","","","","null","<div style=""font-size:60px;"">+</div>","null","fixation","","","","","","","","","","","55","","",""
"revaluation","172","872851","0.0-4.0-2.0-0.28","spark_pilot_2","7141","3","9","Female","","false","","","","","[783.6999998092651]","./assets/img/ocean/catch/2.jpg","[""spaceBar""]","value training","ocean","0","{""ArrowUp,ArrowLeft"":23,""ArrowUp,ArrowRight"":10,""ArrowDown,ArrowLeft"":8,""ArrowDown,ArrowRight"":30}","true","spaceBar","true","","","original","1","56","","",""
"html-keyboard-response","173","873353","0.0-4.0-2.0-1.28","spark_pilot_2","7141","3","9","Female","","","","","","","null","<div style=""font-size:60px;"">+</div>","null","fixation","","","","","","","","","","","57","","",""
"revaluation","174","879362","0.0-4.0-2.0-0.29","spark_pilot_2","7141","3","9","Female","","false","","","","","[562.1999998092651,824.3999998569489]","./assets/img/ocean/memory/21.jpg","[""ArrowDown"",""ArrowRight""]","value training","ocean","30","{""ArrowUp,ArrowLeft"":23,""ArrowUp,ArrowRight"":10,""ArrowDown,ArrowLeft"":8,""ArrowDown,ArrowRight"":30}","true","ArrowDown,ArrowRight","false","","","original","1","58","","",""
"html-keyboard-response","175","879864","0.0-4.0-2.0-1.29","spark_pilot_2","7141","3","9","Female","","","","","","","null","<div style=""font-size:60px;"">+</div>","null","fixation","","","","","","","","","","","59","","",""
"revaluation","176","885884","0.0-4.0-2.0-0.30","spark_pilot_2","7141","3","9","Female","","false","","","","","[684.5999999046326,583.2999999523163]","./assets/img/ocean/memory/38.jpg","[""ArrowDown"",""ArrowRight""]","value training","ocean","30","{""ArrowUp,ArrowLeft"":23,""ArrowUp,ArrowRight"":10,""ArrowDown,ArrowLeft"":8,""ArrowDown,ArrowRight"":30}","true","ArrowDown,ArrowRight","false","","","original","1","60","","",""
"html-keyboard-response","177","886386","0.0-4.0-2.0-1.30","spark_pilot_2","7141","3","9","Female","","","","","","","null","<div style=""font-size:60px;"">+</div>","null","fixation","","","","","","","","","","","61","","",""
"revaluation","178","892406","0.0-4.0-2.0-0.31","spark_pilot_2","7141","3","9","Female","","false","","","","","[674.4000000953674,489.90000009536743]","./assets/img/ocean/memory/38.jpg","[""ArrowDown"",""ArrowRight""]","value training","ocean","30","{""ArrowUp,ArrowLeft"":23,""ArrowUp,ArrowRight"":10,""ArrowDown,ArrowLeft"":8,""ArrowDown,ArrowRight"":30}","true","ArrowDown,ArrowRight","false","","","original","1","62","","",""
"html-keyboard-response","179","892908","0.0-4.0-2.0-1.31","spark_pilot_2","7141","3","9","Female","","","","","","","null","<div style=""font-size:60px;"">+</div>","null","fixation","","","","","","","","","","","63","","",""
"revaluation","180","898915","0.0-4.0-2.0-0.32","spark_pilot_2","7141","3","9","Female","","false","","","","","[824.2999999523163,453.7999999523163]","./assets/img/ocean/memory/10.jpg","[""ArrowDown"",""ArrowRight""]","value training","ocean","30","{""ArrowUp,ArrowLeft"":23,""ArrowUp,ArrowRight"":10,""ArrowDown,ArrowLeft"":8,""ArrowDown,ArrowRight"":30}","true","ArrowDown,ArrowRight","false","","","original","1","64","","",""
"html-keyboard-response","181","899431","0.0-4.0-2.0-1.32","spark_pilot_2","7141","3","9","Female","","","","","","","null","<div style=""font-size:60px;"">+</div>","null","fixation","","","","","","","","","","","65","","",""
"revaluation","182","905440","0.0-4.0-2.0-0.33","spark_pilot_2","7141","3","9","Female","","false","","","","","[804.7999999523163,482.7999999523163]","./assets/img/ocean/memory/15.jpg","[""ArrowDown"",""ArrowRight""]","value training","ocean","30","{""ArrowUp,ArrowLeft"":23,""ArrowUp,ArrowRight"":10,""ArrowDown,ArrowLeft"":8,""ArrowDown,ArrowRight"":30}","true","ArrowDown,ArrowRight","false","","","original","1","66","","",""
"html-keyboard-response","183","905943","0.0-4.0-2.0-1.33","spark_pilot_2","7141","3","9","Female","","","","","","","null","<div style=""font-size:60px;"">+</div>","null","fixation","","","","","","","","","","","67","","",""
"revaluation","184","909961","0.0-4.0-2.0-0.34","spark_pilot_2","7141","3","9","Female","","false","","","","","[960.0999999046326]","./assets/img/ocean/catch/7.jpg","[""spaceBar""]","value training","ocean","0","{""ArrowUp,ArrowLeft"":23,""ArrowUp,ArrowRight"":10,""ArrowDown,ArrowLeft"":8,""ArrowDown,ArrowRight"":30}","true","spaceBar","true","","","original","1","68","","",""
"html-keyboard-response","185","910464","0.0-4.0-2.0-1.34","spark_pilot_2","7141","3","9","Female","","","","","","","null","<div style=""font-size:60px;"">+</div>","null","fixation","","","","","","","","","","","69","","",""
"revaluation","186","916477","0.0-4.0-2.0-0.35","spark_pilot_2","7141","3","9","Female","","false","","","","","[789.1000001430511,388.89999985694885]","./assets/img/ocean/memory/22.jpg","[""ArrowDown"",""ArrowRight""]","value training","ocean","30","{""ArrowUp,ArrowLeft"":23,""ArrowUp,ArrowRight"":10,""ArrowDown,ArrowLeft"":8,""ArrowDown,ArrowRight"":30}","true","ArrowDown,ArrowRight","false","","","original","1","70","","",""
"html-keyboard-response","187","916980","0.0-4.0-2.0-1.35","spark_pilot_2","7141","3","9","Female","","","","","","","null","<div style=""font-size:60px;"">+</div>","null","fixation","","","","","","","","","","","71","","",""
"revaluation","188","922988","0.0-4.0-2.0-0.36","spark_pilot_2","7141","3","9","Female","","false","","","","","[624.0999999046326,304.2999999523163]","./assets/img/ocean/memory/4.jpg","[""ArrowDown"",""ArrowRight""]","value training","ocean","30","{""ArrowUp,ArrowLeft"":23,""ArrowUp,ArrowRight"":10,""ArrowDown,ArrowLeft"":8,""ArrowDown,ArrowRight"":30}","true","ArrowDown,ArrowRight","false","","","original","1","72","","",""
"html-keyboard-response","189","923490","0.0-4.0-2.0-1.36","spark_pilot_2","7141","3","9","Female","","","","","","","null","<div style=""font-size:60px;"">+</div>","null","fixation","","","","","","","","","","","73","","",""
"revaluation","190","929498","0.0-4.0-2.0-0.37","spark_pilot_2","7141","3","9","Female","","false","","","","","[524.3999998569489,475.39999985694885]","./assets/img/ocean/memory/12.jpg","[""ArrowDown"",""ArrowRight""]","value training","ocean","30","{""ArrowUp,ArrowLeft"":23,""ArrowUp,ArrowRight"":10,""ArrowDown,ArrowLeft"":8,""ArrowDown,ArrowRight"":30}","true","ArrowDown,ArrowRight","false","","","original","1","74","","",""
"html-keyboard-response","191","930000","0.0-4.0-2.0-1.37","spark_pilot_2","7141","3","9","Female","","","","","","","null","<div style=""font-size:60px;"">+</div>","null","fixation","","","","","","","","","","","75","","",""
"revaluation","192","934006","0.0-4.0-2.0-0.38","spark_pilot_2","7141","3","9","Female","","false","","","","","[846.2000000476837]","./assets/img/ocean/catch/1.jpg","[""spaceBar""]","value training","ocean","0","{""ArrowUp,ArrowLeft"":23,""ArrowUp,ArrowRight"":10,""ArrowDown,ArrowLeft"":8,""ArrowDown,ArrowRight"":30}","true","spaceBar","true","","","original","1","76","","",""
"html-keyboard-response","193","934508","0.0-4.0-2.0-1.38","spark_pilot_2","7141","3","9","Female","","","","","","","null","<div style=""font-size:60px;"">+</div>","null","fixation","","","","","","","","","","","77","","",""
"revaluation","194","940516","0.0-4.0-2.0-0.39","spark_pilot_2","7141","3","9","Female","","false","","","","","[498.5,488.5]","./assets/img/ocean/memory/36.jpg","[""ArrowDown"",""ArrowRight""]","value training","ocean","30","{""ArrowUp,ArrowLeft"":23,""ArrowUp,ArrowRight"":10,""ArrowDown,ArrowLeft"":8,""ArrowDown,ArrowRight"":30}","true","ArrowDown,ArrowRight","false","","","original","1","78","","",""
"html-keyboard-response","195","941017","0.0-4.0-2.0-1.39","spark_pilot_2","7141","3","9","Female","","","","","","","null","<div style=""font-size:60px;"">+</div>","null","fixation","","","","","","","","","","","79","","",""
"revaluation","196","947024","0.0-4.0-2.0-0.40","spark_pilot_2","7141","3","9","Female","","false","","","","","[661.0999999046326,380.7999999523163]","./assets/img/ocean/memory/40.jpg","[""ArrowDown"",""ArrowRight""]","value training","ocean","30","{""ArrowUp,ArrowLeft"":23,""ArrowUp,ArrowRight"":10,""ArrowDown,ArrowLeft"":8,""ArrowDown,ArrowRight"":30}","true","ArrowDown,ArrowRight","false","","","original","1","80","","",""
"html-keyboard-response","197","947526","0.0-4.0-2.0-1.40","spark_pilot_2","7141","3","9","Female","","","","","","","null","<div style=""font-size:60px;"">+</div>","null","fixation","","","","","","","","","","","81","","",""
"revaluation","198","953550","0.0-4.0-2.0-0.41","spark_pilot_2","7141","3","9","Female","","false","","","","","[430.7999999523163,405.59999990463257]","./assets/img/ocean/memory/37.jpg","[""ArrowDown"",""ArrowRight""]","value training","ocean","30","{""ArrowUp,ArrowLeft"":23,""ArrowUp,ArrowRight"":10,""ArrowDown,ArrowLeft"":8,""ArrowDown,ArrowRight"":30}","true","ArrowDown,ArrowRight","false","","","original","1","82","","",""
"html-keyboard-response","199","954052","0.0-4.0-2.0-1.41","spark_pilot_2","7141","3","9","Female","","","","","","","null","<div style=""font-size:60px;"">+</div>","null","fixation","","","","","","","","","","","83","","",""
"revaluation","200","960058","0.0-4.0-2.0-0.42","spark_pilot_2","7141","3","9","Female","","false","","","","","[682.8999998569489,258]","./assets/img/ocean/memory/1.jpg","[""ArrowDown"",""ArrowRight""]","value training","ocean","30","{""ArrowUp,ArrowLeft"":23,""ArrowUp,ArrowRight"":10,""ArrowDown,ArrowLeft"":8,""ArrowDown,ArrowRight"":30}","true","ArrowDown,ArrowRight","false","","","original","1","84","","",""
"html-keyboard-response","201","960559","0.0-4.0-2.0-1.42","spark_pilot_2","7141","3","9","Female","","","","","","","null","<div style=""font-size:60px;"">+</div>","null","fixation","","","","","","","","","","","85","","",""
"revaluation","202","966566","0.0-4.0-2.0-0.43","spark_pilot_2","7141","3","9","Female","","false","","","","","[767.5999999046326,718.2000000476837]","./assets/img/ocean/memory/25.jpg","[""ArrowDown"",""ArrowRight""]","value training","ocean","30","{""ArrowUp,ArrowLeft"":23,""ArrowUp,ArrowRight"":10,""ArrowDown,ArrowLeft"":8,""ArrowDown,ArrowRight"":30}","true","ArrowDown,ArrowRight","false","","","original","1","86","","",""
"html-keyboard-response","203","967068","0.0-4.0-2.0-1.43","spark_pilot_2","7141","3","9","Female","","","","","","","null","<div style=""font-size:60px;"">+</div>","null","fixation","","","","","","","","","","","87","","",""
"revaluation","204","973077","0.0-4.0-2.0-0.44","spark_pilot_2","7141","3","9","Female","","false","","","","","[1019.3999998569489,585.3000001907349]","./assets/img/ocean/memory/35.jpg","[""ArrowDown"",""ArrowRight""]","value training","ocean","30","{""ArrowUp,ArrowLeft"":23,""ArrowUp,ArrowRight"":10,""ArrowDown,ArrowLeft"":8,""ArrowDown,ArrowRight"":30}","true","ArrowDown,ArrowRight","false","","","original","1","88","","",""
"html-keyboard-response","205","973579","0.0-4.0-2.0-1.44","spark_pilot_2","7141","3","9","Female","","","","","","","null","<div style=""font-size:60px;"">+</div>","null","fixation","","","","","","","","","","","89","","",""
"revaluation","206","979587","0.0-4.0-2.0-0.45","spark_pilot_2","7141","3","9","Female","","false","","","","","[740.1999998092651,699]","./assets/img/ocean/memory/28.jpg","[""ArrowDown"",""ArrowRight""]","value training","ocean","30","{""ArrowUp,ArrowLeft"":23,""ArrowUp,ArrowRight"":10,""ArrowDown,ArrowLeft"":8,""ArrowDown,ArrowRight"":30}","true","ArrowDown,ArrowRight","false","","","original","1","90","","",""
"html-keyboard-response","207","980089","0.0-4.0-2.0-1.45","spark_pilot_2","7141","3","9","Female","","","","","","","null","<div style=""font-size:60px;"">+</div>","null","fixation","","","","","","","","","","","91","","",""
"revaluation","208","986095","0.0-4.0-2.0-0.46","spark_pilot_2","7141","3","9","Female","","false","","","","","[671.8999998569489,638.3999998569489]","./assets/img/ocean/memory/28.jpg","[""ArrowDown"",""ArrowRight""]","value training","ocean","30","{""ArrowUp,ArrowLeft"":23,""ArrowUp,ArrowRight"":10,""ArrowDown,ArrowLeft"":8,""ArrowDown,ArrowRight"":30}","true","ArrowDown,ArrowRight","false","","","original","1","92","","",""
"html-keyboard-response","209","986596","0.0-4.0-2.0-1.46","spark_pilot_2","7141","3","9","Female","","","","","","","null","<div style=""font-size:60px;"">+</div>","null","fixation","","","","","","","","","","","93","","",""
"revaluation","210","992612","0.0-4.0-2.0-0.47","spark_pilot_2","7141","3","9","Female","","false","","","","","[682.7000000476837,473.5]","./assets/img/ocean/memory/40.jpg","[""ArrowDown"",""ArrowRight""]","value training","ocean","30","{""ArrowUp,ArrowLeft"":23,""ArrowUp,ArrowRight"":10,""ArrowDown,ArrowLeft"":8,""ArrowDown,ArrowRight"":30}","true","ArrowDown,ArrowRight","false","","","original","1","94","","",""
"html-keyboard-response","211","993114","0.0-4.0-2.0-1.47","spark_pilot_2","7141","3","9","Female","","","","","","","null","<div style=""font-size:60px;"">+</div>","null","fixation","","","","","","","","","","","95","","",""
"revaluation","212","999121","0.0-4.0-2.0-0.48","spark_pilot_2","7141","3","9","Female","","false","","","","","[1046.0999999046326,453.60000014305115]","./assets/img/ocean/memory/31.jpg","[""ArrowDown"",""ArrowRight""]","value training","ocean","30","{""ArrowUp,ArrowLeft"":23,""ArrowUp,ArrowRight"":10,""ArrowDown,ArrowLeft"":8,""ArrowDown,ArrowRight"":30}","true","ArrowDown,ArrowRight","false","","","original","1","96","","",""
"html-keyboard-response","213","999623","0.0-4.0-2.0-1.48","spark_pilot_2","7141","3","9","Female","","","","","","","null","<div style=""font-size:60px;"">+</div>","null","fixation","","","","","","","","","","","97","","",""
"revaluation","214","1003629","0.0-4.0-2.0-0.49","spark_pilot_2","7141","3","9","Female","","false","","","","","[584.8999998569489]","./assets/img/ocean/catch/4.jpg","[""ArrowDown""]","value training","ocean","-10","{""ArrowUp,ArrowLeft"":23,""ArrowUp,ArrowRight"":10,""ArrowDown,ArrowLeft"":8,""ArrowDown,ArrowRight"":30}","false","ArrowDown","true","","","original","1","98","","",""
"html-keyboard-response","215","1004131","0.0-4.0-2.0-1.49","spark_pilot_2","7141","3","9","Female","","","","","","","null","<div style=""font-size:60px;"">+</div>","null","fixation","","","","","","","","","","","99","","",""
"learning-instructions","216","1017826","0.0-4.0-3.0-0.0","spark_pilot_2","7141","3","9","Female","","","","","","","795.7000000476837","<p> Now, you will travel with a friend who will choose whether you go up or down first. </p>
            <p> On these turns, you will just see the animal that they found. You will still get to choose which chest to search for treasure.</p>","","instructions","","","","","","","","","","","","","",""
"revaluation","217","1021855","0.0-4.0-4.0-0.0","spark_pilot_2","7141","3","9","Female","","false","","","","","[1145.2999999523163]","./assets/img/ocean/animals/seahorse.jpg","[""ArrowRight""]","revaluation","ocean","30","{""ArrowUp,ArrowLeft"":23,""ArrowUp,ArrowRight"":10,""ArrowDown,ArrowLeft"":8,""ArrowDown,ArrowRight"":30}","true","ArrowDown,ArrowRight","","","","original","1","0","","",""
"html-keyboard-response","218","1022375","0.0-4.0-4.0-1.0","spark_pilot_2","7141","3","9","Female","","","","","","","null","<div style=""font-size:60px;"">+</div>","null","fixation","","","","","","","","","","","1","","",""
"revaluation","219","1026416","0.0-4.0-4.0-0.1","spark_pilot_2","7141","3","9","Female","","false","","","","","[519.4000000953674]","./assets/img/ocean/animals/seahorse.jpg","[""ArrowLeft""]","revaluation","ocean","8","{""ArrowUp,ArrowLeft"":23,""ArrowUp,ArrowRight"":10,""ArrowDown,ArrowLeft"":8,""ArrowDown,ArrowRight"":30}","false","ArrowDown,ArrowLeft","","","","original","1","2","","",""
"html-keyboard-response","220","1026935","0.0-4.0-4.0-1.1","spark_pilot_2","7141","3","9","Female","","","","","","","null","<div style=""font-size:60px;"">+</div>","null","fixation","","","","","","","","","","","3","","",""
"revaluation","221","1030976","0.0-4.0-4.0-0.2","spark_pilot_2","7141","3","9","Female","","false","","","","","[633.3999998569489]","./assets/img/ocean/animals/seahorse.jpg","[""ArrowRight""]","revaluation","ocean","30","{""ArrowUp,ArrowLeft"":23,""ArrowUp,ArrowRight"":10,""ArrowDown,ArrowLeft"":8,""ArrowDown,ArrowRight"":30}","true","ArrowDown,ArrowRight","","","","original","1","4","","",""
"html-keyboard-response","222","1031495","0.0-4.0-4.0-1.2","spark_pilot_2","7141","3","9","Female","","","","","","","null","<div style=""font-size:60px;"">+</div>","null","fixation","","","","","","","","","","","5","","",""
"revaluation","223","1035535","0.0-4.0-4.0-0.3","spark_pilot_2","7141","3","9","Female","","false","","","","","[657.7999999523163]","./assets/img/ocean/animals/seahorse.jpg","[""ArrowRight""]","revaluation","ocean","30","{""ArrowUp,ArrowLeft"":23,""ArrowUp,ArrowRight"":10,""ArrowDown,ArrowLeft"":8,""ArrowDown,ArrowRight"":30}","true","ArrowDown,ArrowRight","","","","original","1","6","","",""
"html-keyboard-response","224","1036055","0.0-4.0-4.0-1.3","spark_pilot_2","7141","3","9","Female","","","","","","","null","<div style=""font-size:60px;"">+</div>","null","fixation","","","","","","","","","","","7","","",""
"revaluation","225","1040095","0.0-4.0-4.0-0.4","spark_pilot_2","7141","3","9","Female","","false","","","","","[793.3999998569489]","./assets/img/ocean/animals/octopus.jpg","[""ArrowLeft""]","revaluation","ocean","23","{""ArrowUp,ArrowLeft"":23,""ArrowUp,ArrowRight"":10,""ArrowDown,ArrowLeft"":8,""ArrowDown,ArrowRight"":30}","true","ArrowUp,ArrowLeft","","","","original","1","8","","",""
"html-keyboard-response","226","1040615","0.0-4.0-4.0-1.4","spark_pilot_2","7141","3","9","Female","","","","","","","null","<div style=""font-size:60px;"">+</div>","null","fixation","","","","","","","","","","","9","","",""
"revaluation","227","1044656","0.0-4.0-4.0-0.5","spark_pilot_2","7141","3","9","Female","","false","","","","","[697.5999999046326]","./assets/img/ocean/animals/octopus.jpg","[""ArrowLeft""]","revaluation","ocean","23","{""ArrowUp,ArrowLeft"":23,""ArrowUp,ArrowRight"":10,""ArrowDown,ArrowLeft"":8,""ArrowDown,ArrowRight"":30}","true","ArrowUp,ArrowLeft","","","","original","1","10","","",""
"html-keyboard-response","228","1045176","0.0-4.0-4.0-1.5","spark_pilot_2","7141","3","9","Female","","","","","","","null","<div style=""font-size:60px;"">+</div>","null","fixation","","","","","","","","","","","11","","",""
"revaluation","229","1049183","0.0-4.0-4.0-0.6","spark_pilot_2","7141","3","9","Female","","false","","","","","[698.1000001430511]","./assets/img/ocean/animals/octopus.jpg","[""ArrowLeft""]","revaluation","ocean","23","{""ArrowUp,ArrowLeft"":23,""ArrowUp,ArrowRight"":10,""ArrowDown,ArrowLeft"":8,""ArrowDown,ArrowRight"":30}","true","ArrowUp,ArrowLeft","","","","original","1","12","","",""
"html-keyboard-response","230","1049685","0.0-4.0-4.0-1.6","spark_pilot_2","7141","3","9","Female","","","","","","","null","<div style=""font-size:60px;"">+</div>","null","fixation","","","","","","","","","","","13","","",""
"revaluation","231","1053692","0.0-4.0-4.0-0.7","spark_pilot_2","7141","3","9","Female","","false","","","","","[748.5999999046326]","./assets/img/ocean/animals/octopus.jpg","[""ArrowRight""]","revaluation","ocean","10","{""ArrowUp,ArrowLeft"":23,""ArrowUp,ArrowRight"":10,""ArrowDown,ArrowLeft"":8,""ArrowDown,ArrowRight"":30}","false","ArrowUp,ArrowRight","","","","original","1","14","","",""
"html-keyboard-response","232","1054193","0.0-4.0-4.0-1.7","spark_pilot_2","7141","3","9","Female","","","","","","","null","<div style=""font-size:60px;"">+</div>","null","fixation","","","","","","","","","","","15","","",""
"revaluation","233","1058203","0.0-4.0-4.0-0.8","spark_pilot_2","7141","3","9","Female","","false","","","","","[719.2000000476837]","./assets/img/ocean/animals/seahorse.jpg","[""ArrowRight""]","revaluation","ocean","30","{""ArrowUp,ArrowLeft"":23,""ArrowUp,ArrowRight"":10,""ArrowDown,ArrowLeft"":8,""ArrowDown,ArrowRight"":30}","true","ArrowDown,ArrowRight","","","","original","1","16","","",""
"html-keyboard-response","234","1058704","0.0-4.0-4.0-1.8","spark_pilot_2","7141","3","9","Female","","","","","","","null","<div style=""font-size:60px;"">+</div>","null","fixation","","","","","","","","","","","17","","",""
"revaluation","235","1062711","0.0-4.0-4.0-0.9","spark_pilot_2","7141","3","9","Female","","false","","","","","[538.2999999523163]","./assets/img/ocean/animals/seahorse.jpg","[""ArrowRight""]","revaluation","ocean","30","{""ArrowUp,ArrowLeft"":23,""ArrowUp,ArrowRight"":10,""ArrowDown,ArrowLeft"":8,""ArrowDown,ArrowRight"":30}","true","ArrowDown,ArrowRight","","","","original","1","18","","",""
"html-keyboard-response","236","1063213","0.0-4.0-4.0-1.9","spark_pilot_2","7141","3","9","Female","","","","","","","null","<div style=""font-size:60px;"">+</div>","null","fixation","","","","","","","","","","","19","","",""
"revaluation","237","1067217","0.0-4.0-4.0-0.10","spark_pilot_2","7141","3","9","Female","","false","","","","","[760.2999999523163]","./assets/img/ocean/animals/octopus.jpg","[""ArrowLeft""]","revaluation","ocean","23","{""ArrowUp,ArrowLeft"":23,""ArrowUp,ArrowRight"":10,""ArrowDown,ArrowLeft"":8,""ArrowDown,ArrowRight"":30}","true","ArrowUp,ArrowLeft","","","","original","1","20","","",""
"html-keyboard-response","238","1067719","0.0-4.0-4.0-1.10","spark_pilot_2","7141","3","9","Female","","","","","","","null","<div style=""font-size:60px;"">+</div>","null","fixation","","","","","","","","","","","21","","",""
"revaluation","239","1071726","0.0-4.0-4.0-0.11","spark_pilot_2","7141","3","9","Female","","false","","","","","[603.1000001430511]","./assets/img/ocean/animals/seahorse.jpg","[""ArrowRight""]","revaluation","ocean","30","{""ArrowUp,ArrowLeft"":23,""ArrowUp,ArrowRight"":10,""ArrowDown,ArrowLeft"":8,""ArrowDown,ArrowRight"":30}","true","ArrowDown,ArrowRight","","","","original","1","22","","",""
"html-keyboard-response","240","1072228","0.0-4.0-4.0-1.11","spark_pilot_2","7141","3","9","Female","","","","","","","null","<div style=""font-size:60px;"">+</div>","null","fixation","","","","","","","","","","","23","","",""
"revaluation","241","1076234","0.0-4.0-4.0-0.12","spark_pilot_2","7141","3","9","Female","","false","","","","","[591.2000000476837]","./assets/img/ocean/animals/octopus.jpg","[""ArrowLeft""]","revaluation","ocean","23","{""ArrowUp,ArrowLeft"":23,""ArrowUp,ArrowRight"":10,""ArrowDown,ArrowLeft"":8,""ArrowDown,ArrowRight"":30}","true","ArrowUp,ArrowLeft","","","","original","1","24","","",""
"html-keyboard-response","242","1076736","0.0-4.0-4.0-1.12","spark_pilot_2","7141","3","9","Female","","","","","","","null","<div style=""font-size:60px;"">+</div>","null","fixation","","","","","","","","","","","25","","",""
"revaluation","243","1080742","0.0-4.0-4.0-0.13","spark_pilot_2","7141","3","9","Female","","false","","","","","[538.7000000476837]","./assets/img/ocean/animals/seahorse.jpg","[""ArrowRight""]","revaluation","ocean","30","{""ArrowUp,ArrowLeft"":23,""ArrowUp,ArrowRight"":10,""ArrowDown,ArrowLeft"":8,""ArrowDown,ArrowRight"":30}","true","ArrowDown,ArrowRight","","","","original","1","26","","",""
"html-keyboard-response","244","1081244","0.0-4.0-4.0-1.13","spark_pilot_2","7141","3","9","Female","","","","","","","null","<div style=""font-size:60px;"">+</div>","null","fixation","","","","","","","","","","","27","","",""
"revaluation","245","1085250","0.0-4.0-4.0-0.14","spark_pilot_2","7141","3","9","Female","","false","","","","","[623.2000000476837]","./assets/img/ocean/animals/octopus.jpg","[""ArrowLeft""]","revaluation","ocean","23","{""ArrowUp,ArrowLeft"":23,""ArrowUp,ArrowRight"":10,""ArrowDown,ArrowLeft"":8,""ArrowDown,ArrowRight"":30}","true","ArrowUp,ArrowLeft","","","","original","1","28","","",""
"html-keyboard-response","246","1085760","0.0-4.0-4.0-1.14","spark_pilot_2","7141","3","9","Female","","","","","","","null","<div style=""font-size:60px;"">+</div>","null","fixation","","","","","","","","","","","29","","",""
"revaluation","247","1089767","0.0-4.0-4.0-0.15","spark_pilot_2","7141","3","9","Female","","false","","","","","[562.9000000953674]","./assets/img/ocean/animals/octopus.jpg","[""ArrowRight""]","revaluation","ocean","10","{""ArrowUp,ArrowLeft"":23,""ArrowUp,ArrowRight"":10,""ArrowDown,ArrowLeft"":8,""ArrowDown,ArrowRight"":30}","false","ArrowUp,ArrowRight","","","","original","1","30","","",""
"html-keyboard-response","248","1090269","0.0-4.0-4.0-1.15","spark_pilot_2","7141","3","9","Female","","","","","","","null","<div style=""font-size:60px;"">+</div>","null","fixation","","","","","","","","","","","31","","",""
"revaluation","249","1094280","0.0-4.0-4.0-0.16","spark_pilot_2","7141","3","9","Female","","false","","","","","[725.6000001430511]","./assets/img/ocean/animals/seahorse.jpg","[""ArrowRight""]","revaluation","ocean","30","{""ArrowUp,ArrowLeft"":23,""ArrowUp,ArrowRight"":10,""ArrowDown,ArrowLeft"":8,""ArrowDown,ArrowRight"":30}","true","ArrowDown,ArrowRight","","","","original","1","32","","",""
"html-keyboard-response","250","1094783","0.0-4.0-4.0-1.16","spark_pilot_2","7141","3","9","Female","","","","","","","null","<div style=""font-size:60px;"">+</div>","null","fixation","","","","","","","","","","","33","","",""
"revaluation","251","1098789","0.0-4.0-4.0-0.17","spark_pilot_2","7141","3","9","Female","","false","","","","","[667.9000000953674]","./assets/img/ocean/animals/octopus.jpg","[""ArrowLeft""]","revaluation","ocean","23","{""ArrowUp,ArrowLeft"":23,""ArrowUp,ArrowRight"":10,""ArrowDown,ArrowLeft"":8,""ArrowDown,ArrowRight"":30}","true","ArrowUp,ArrowLeft","","","","original","1","34","","",""
"html-keyboard-response","252","1099291","0.0-4.0-4.0-1.17","spark_pilot_2","7141","3","9","Female","","","","","","","null","<div style=""font-size:60px;"">+</div>","null","fixation","","","","","","","","","","","35","","",""
"learning-instructions","253","1112422","0.0-4.0-5.0-0.0","spark_pilot_2","7141","3","9","Female","","","","","","","1812.7999999523163","<p> Time to play the dot game! </p>
            <p> For one minute, click the red dots on the following screen as they appear. </p>
            <p><b> Don't look away, as you will earn bonus for clicking dots</b>. </p>","","instructions","","","","","","","","","","","","","",""
"revaluation","254","1172425","0.0-4.0-6.0-0.0","spark_pilot_2","7141","3","9","Female","","","","","","","[278,96,77,176,131,112]","","","rest","","60","","","","","0","60000","","","","","",""
"learning-instructions","255","1179864","0.0-4.0-7.0-0.0","spark_pilot_2","7141","3","9","Female","","","","","","","1324.5999999046326","<p> You have almost finished this part of the game! </p>
            <p> We are going to ask you to make a few more choices. </p>","","instructions","","","","","","","","","","","","","",""
"learning-instructions","256","1195832","0.0-4.0-7.0-0.1","spark_pilot_2","7141","3","9","Female","","","","","","","2002.4000000953674","<p> First, you need to decide whether to go up or down. When you see each picture, use the arrow keys to make your choice. </p>
            <p><b>You will not see which animal you found, but try to get to the one that will give you the most treasure.</b></p>","","instructions","","","","","","","","","","","","","",""
"revaluation","257","1196763","0.0-4.0-8.0-0.0","spark_pilot_2","7141","3","9","Female","","false","","","","","[929.5]","./assets/img/ocean/test/1.jpg","[""ArrowUp""]","first stage test","ocean","0","{""ArrowUp,ArrowLeft"":23,""ArrowUp,ArrowRight"":10,""ArrowDown,ArrowLeft"":8,""ArrowDown,ArrowRight"":30}","false","ArrowUp","false","","","original","1","","","",""
"html-keyboard-response","258","1197284","0.0-4.0-8.0-1.0","spark_pilot_2","7141","3","9","Female","","","","","","","null","<div style=""font-size:60px;"">+</div>","null","fixation","","","","","","","","","","","","","",""
"revaluation","259","1198698","0.0-4.0-8.0-0.1","spark_pilot_2","7141","3","9","Female","","false","","","","","[1410.5]","./assets/img/ocean/test/3.jpg","[""ArrowUp""]","first stage test","ocean","0","{""ArrowUp,ArrowLeft"":23,""ArrowUp,ArrowRight"":10,""ArrowDown,ArrowLeft"":8,""ArrowDown,ArrowRight"":30}","false","ArrowUp","false","","","original","1","","","",""
"html-keyboard-response","260","1199204","0.0-4.0-8.0-1.1","spark_pilot_2","7141","3","9","Female","","","","","","","null","<div style=""font-size:60px;"">+</div>","null","fixation","","","","","","","","","","","","","",""
"revaluation","261","1200019","0.0-4.0-8.0-0.2","spark_pilot_2","7141","3","9","Female","","false","","","","","[811.7000000476837]","./assets/img/ocean/test/2.jpg","[""ArrowDown""]","first stage test","ocean","0","{""ArrowUp,ArrowLeft"":23,""ArrowUp,ArrowRight"":10,""ArrowDown,ArrowLeft"":8,""ArrowDown,ArrowRight"":30}","true","ArrowDown","false","","","original","1","","","",""
"html-keyboard-response","262","1200534","0.0-4.0-8.0-1.2","spark_pilot_2","7141","3","9","Female","","","","","","","null","<div style=""font-size:60px;"">+</div>","null","fixation","","","","","","","","","","","","","",""
"revaluation","263","1201163","0.0-4.0-8.0-0.3","spark_pilot_2","7141","3","9","Female","","false","","","","","[625.4000000953674]","./assets/img/ocean/test/0.jpg","[""ArrowDown""]","first stage test","ocean","0","{""ArrowUp,ArrowLeft"":23,""ArrowUp,ArrowRight"":10,""ArrowDown,ArrowLeft"":8,""ArrowDown,ArrowRight"":30}","true","ArrowDown","false","","","original","1","","","",""
"html-keyboard-response","264","1201684","0.0-4.0-8.0-1.3","spark_pilot_2","7141","3","9","Female","","","","","","","null","<div style=""font-size:60px;"">+</div>","null","fixation","","","","","","","","","","","","","",""
"learning-instructions","265","1220033","0.0-4.0-9.0-0.0","spark_pilot_2","7141","3","9","Female","","","","","","","7012.599999904633","<p> Now you will see the animals again and can search their chests for treasure. </p>
            <p> This time, you will not see how much treasure you earned, but you will earn more bonus money for making better choices. </p>","","instructions","","","","","","","","","","","","","",""
"revaluation","266","1221196","0.0-4.0-10.0-0.0","spark_pilot_2","7141","3","9","Female","","false","","","","","[1161.4000000953674]","./assets/img/ocean/animals/octopus.jpg","[""ArrowRight""]","second stage test","ocean","0","{""ArrowUp,ArrowLeft"":23,""ArrowUp,ArrowRight"":10,""ArrowDown,ArrowLeft"":8,""ArrowDown,ArrowRight"":30}","false","ArrowUp,ArrowRight","","","","original","1","","","",""
"html-keyboard-response","267","1221715","0.0-4.0-10.0-1.0","spark_pilot_2","7141","3","9","Female","","","","","","","null","<div style=""font-size:60px;"">+</div>","null","fixation","","","","","","","","","","","","","",""
"revaluation","268","1222410","0.0-4.0-10.0-0.1","spark_pilot_2","7141","3","9","Female","","false","","","","","[690.7999999523163]","./assets/img/ocean/animals/octopus.jpg","[""ArrowLeft""]","second stage test","ocean","0","{""ArrowUp,ArrowLeft"":23,""ArrowUp,ArrowRight"":10,""ArrowDown,ArrowLeft"":8,""ArrowDown,ArrowRight"":30}","true","ArrowUp,ArrowLeft","","","","original","1","","","",""
"html-keyboard-response","269","1222924","0.0-4.0-10.0-1.1","spark_pilot_2","7141","3","9","Female","","","","","","","null","<div style=""font-size:60px;"">+</div>","null","fixation","","","","","","","","","","","","","",""
"revaluation","270","1223540","0.0-4.0-10.0-0.2","spark_pilot_2","7141","3","9","Female","","false","","","","","[611.2000000476837]","./assets/img/ocean/animals/octopus.jpg","[""ArrowLeft""]","second stage test","ocean","0","{""ArrowUp,ArrowLeft"":23,""ArrowUp,ArrowRight"":10,""ArrowDown,ArrowLeft"":8,""ArrowDown,ArrowRight"":30}","true","ArrowUp,ArrowLeft","","","","original","1","","","",""
"html-keyboard-response","271","1224054","0.0-4.0-10.0-1.2","spark_pilot_2","7141","3","9","Female","","","","","","","null","<div style=""font-size:60px;"">+</div>","null","fixation","","","","","","","","","","","","","",""
"revaluation","272","1224650","0.0-4.0-10.0-0.3","spark_pilot_2","7141","3","9","Female","","false","","","","","[591.7999999523163]","./assets/img/ocean/animals/octopus.jpg","[""ArrowLeft""]","second stage test","ocean","0","{""ArrowUp,ArrowLeft"":23,""ArrowUp,ArrowRight"":10,""ArrowDown,ArrowLeft"":8,""ArrowDown,ArrowRight"":30}","true","ArrowUp,ArrowLeft","","","","original","1","","","",""
"html-keyboard-response","273","1225165","0.0-4.0-10.0-1.3","spark_pilot_2","7141","3","9","Female","","","","","","","null","<div style=""font-size:60px;"">+</div>","null","fixation","","","","","","","","","","","","","",""
"revaluation","274","1225868","0.0-4.0-10.0-0.4","spark_pilot_2","7141","3","9","Female","","false","","","","","[697.8999998569489]","./assets/img/ocean/animals/seahorse.jpg","[""ArrowRight""]","second stage test","ocean","0","{""ArrowUp,ArrowLeft"":23,""ArrowUp,ArrowRight"":10,""ArrowDown,ArrowLeft"":8,""ArrowDown,ArrowRight"":30}","true","ArrowDown,ArrowRight","","","","original","1","","","",""
"html-keyboard-response","275","1226385","0.0-4.0-10.0-1.4","spark_pilot_2","7141","3","9","Female","","","","","","","null","<div style=""font-size:60px;"">+</div>","null","fixation","","","","","","","","","","","","","",""
"revaluation","276","1227220","0.0-4.0-10.0-0.5","spark_pilot_2","7141","3","9","Female","","false","","","","","[831.0999999046326]","./assets/img/ocean/animals/seahorse.jpg","[""ArrowRight""]","second stage test","ocean","0","{""ArrowUp,ArrowLeft"":23,""ArrowUp,ArrowRight"":10,""ArrowDown,ArrowLeft"":8,""ArrowDown,ArrowRight"":30}","true","ArrowDown,ArrowRight","","","","original","1","","","",""
"html-keyboard-response","277","1227735","0.0-4.0-10.0-1.5","spark_pilot_2","7141","3","9","Female","","","","","","","null","<div style=""font-size:60px;"">+</div>","null","fixation","","","","","","","","","","","","","",""
"revaluation","278","1228380","0.0-4.0-10.0-0.6","spark_pilot_2","7141","3","9","Female","","false","","","","","[640.8999998569489]","./assets/img/ocean/animals/seahorse.jpg","[""ArrowRight""]","second stage test","ocean","0","{""ArrowUp,ArrowLeft"":23,""ArrowUp,ArrowRight"":10,""ArrowDown,ArrowLeft"":8,""ArrowDown,ArrowRight"":30}","true","ArrowDown,ArrowRight","","","","original","1","","","",""
"html-keyboard-response","279","1228885","0.0-4.0-10.0-1.6","spark_pilot_2","7141","3","9","Female","","","","","","","null","<div style=""font-size:60px;"">+</div>","null","fixation","","","","","","","","","","","","","",""
"revaluation","280","1229626","0.0-4.0-10.0-0.7","spark_pilot_2","7141","3","9","Female","","false","","","","","[736.7999999523163]","./assets/img/ocean/animals/seahorse.jpg","[""ArrowRight""]","second stage test","ocean","0","{""ArrowUp,ArrowLeft"":23,""ArrowUp,ArrowRight"":10,""ArrowDown,ArrowLeft"":8,""ArrowDown,ArrowRight"":30}","true","ArrowDown,ArrowRight","","","","original","1","","","",""
"html-keyboard-response","281","1230135","0.0-4.0-10.0-1.7","spark_pilot_2","7141","3","9","Female","","","","","","","null","<div style=""font-size:60px;"">+</div>","null","fixation","","","","","","","","","","","","","",""
"learning-instructions","282","1235522","0.0-4.0-0.1-0.2","spark_pilot_2","7141","3","9","Female","","","","","","","2570.399999856949","<p> This time you are searching for treasure in the <b>canyon</b>.</p>","","instructions","","","","","","","","","","","","","",""
"learning-instructions","283","1253354","0.0-4.0-0.1-0.3","spark_pilot_2","7141","3","9","Female","","","","","","","582.1000001430511","<p><b>New</b> animals with <b>new</b> treasure chests live here. You need to explore to discover where the animal with the best treasure chest is.</p>
                    <p> Like before, once you figure out which animal has the chest with the most treasure, you should try to get to that animal and select that chest! </p>","","instructions","","","","","","","","","","","","","",""
"learning-instructions","284","1269683","0.0-4.0-1.1-0.1","spark_pilot_2","7141","3","9","Female","","","","","","","1590.7999999523163","<p> Remember, when you see a picture of the place, use the up and down keys to <b>find an animal</b>.</p>
            <p> When you encounter an animal, you should use the left and right keys to <b>select a treasure chest</b>.</p>
            <p> Don't forget to look out for the robber! </p>","","instructions","","","","","","","","","","","","","",""
"revaluation","285","1273717","0.0-4.0-2.1-0.50","spark_pilot_2","7141","3","9","Female","","false","","","","","[688.1000001430511]","./assets/img/canyon/catch/6.jpg","[""ArrowUp""]","value training","canyon","-10","{""ArrowUp,ArrowLeft"":26,""ArrowUp,ArrowRight"":10,""ArrowDown,ArrowLeft"":5,""ArrowDown,ArrowRight"":17}","false","ArrowUp","true","","","revaluation","2","0","","",""
"html-keyboard-response","286","1274236","0.0-4.0-2.1-1.50","spark_pilot_2","7141","3","9","Female","","","","","","","null","<div style=""font-size:60px;"">+</div>","null","fixation","","","","","","","","","","","1","","",""
"revaluation","287","1280277","0.0-4.0-2.1-0.51","spark_pilot_2","7141","3","9","Female","","false","","","","","[605.6000001430511,757.7999999523163]","./assets/img/canyon/memory/31.jpg","[""ArrowUp"",""ArrowRight""]","value training","canyon","10","{""ArrowUp,ArrowLeft"":26,""ArrowUp,ArrowRight"":10,""ArrowDown,ArrowLeft"":5,""ArrowDown,ArrowRight"":17}","false","ArrowUp,ArrowRight","false","","","revaluation","2","2","","",""
"html-keyboard-response","288","1280797","0.0-4.0-2.1-1.51","spark_pilot_2","7141","3","9","Female","","","","","","","null","<div style=""font-size:60px;"">+</div>","null","fixation","","","","","","","","","","","3","","",""
"revaluation","289","1286837","0.0-4.0-2.1-0.52","spark_pilot_2","7141","3","9","Female","","false","","","","","[645.5,558.5999999046326]","./assets/img/canyon/memory/25.jpg","[""ArrowUp"",""ArrowLeft""]","value training","canyon","26","{""ArrowUp,ArrowLeft"":26,""ArrowUp,ArrowRight"":10,""ArrowDown,ArrowLeft"":5,""ArrowDown,ArrowRight"":17}","true","ArrowUp,ArrowLeft","false","","","revaluation","2","4","","",""
"html-keyboard-response","290","1287347","0.0-4.0-2.1-1.52","spark_pilot_2","7141","3","9","Female","","","","","","","null","<div style=""font-size:60px;"">+</div>","null","fixation","","","","","","","","","","","5","","",""
"revaluation","291","1293407","0.0-4.0-2.1-0.53","spark_pilot_2","7141","3","9","Female","","false","","","","","[567.1999998092651,918.5999999046326]","./assets/img/canyon/memory/19.jpg","[""ArrowDown"",""ArrowRight""]","value training","canyon","17","{""ArrowUp,ArrowLeft"":26,""ArrowUp,ArrowRight"":10,""ArrowDown,ArrowLeft"":5,""ArrowDown,ArrowRight"":17}","false","ArrowDown,ArrowRight","false","","","revaluation","2","6","","",""
"html-keyboard-response","292","1293927","0.0-4.0-2.1-1.53","spark_pilot_2","7141","3","9","Female","","","","","","","null","<div style=""font-size:60px;"">+</div>","null","fixation","","","","","","","","","","","7","","",""
"revaluation","293","1297968","0.0-4.0-2.1-0.54","spark_pilot_2","7141","3","9","Female","","false","","","","","[427.39999985694885]","./assets/img/canyon/catch/5.jpg","[""ArrowDown""]","value training","canyon","-10","{""ArrowUp,ArrowLeft"":26,""ArrowUp,ArrowRight"":10,""ArrowDown,ArrowLeft"":5,""ArrowDown,ArrowRight"":17}","false","ArrowDown","true","","","revaluation","2","8","","",""
"html-keyboard-response","294","1298470","0.0-4.0-2.1-1.54","spark_pilot_2","7141","3","9","Female","","","","","","","null","<div style=""font-size:60px;"">+</div>","null","fixation","","","","","","","","","","","9","","",""
"revaluation","295","1304479","0.0-4.0-2.1-0.55","spark_pilot_2","7141","3","9","Female","","false","","","","","[579.7999999523163,522.5]","./assets/img/canyon/memory/25.jpg","[""ArrowDown"",""ArrowLeft""]","value training","canyon","5","{""ArrowUp,ArrowLeft"":26,""ArrowUp,ArrowRight"":10,""ArrowDown,ArrowLeft"":5,""ArrowDown,ArrowRight"":17}","false","ArrowDown,ArrowLeft","false","","","revaluation","2","10","","",""
"html-keyboard-response","296","1304980","0.0-4.0-2.1-1.55","spark_pilot_2","7141","3","9","Female","","","","","","","null","<div style=""font-size:60px;"">+</div>","null","fixation","","","","","","","","","","","11","","",""
"revaluation","297","1310988","0.0-4.0-2.1-0.56","spark_pilot_2","7141","3","9","Female","","false","","","","","[590.7000000476837,684.2999999523163]","./assets/img/canyon/memory/15.jpg","[""ArrowUp"",""ArrowLeft""]","value training","canyon","26","{""ArrowUp,ArrowLeft"":26,""ArrowUp,ArrowRight"":10,""ArrowDown,ArrowLeft"":5,""ArrowDown,ArrowRight"":17}","true","ArrowUp,ArrowLeft","false","","","revaluation","2","12","","",""
"html-keyboard-response","298","1311489","0.0-4.0-2.1-1.56","spark_pilot_2","7141","3","9","Female","","","","","","","null","<div style=""font-size:60px;"">+</div>","null","fixation","","","","","","","","","","","13","","",""
"revaluation","299","1315495","0.0-4.0-2.1-0.57","spark_pilot_2","7141","3","9","Female","","false","","","","","[449.40000009536743]","./assets/img/canyon/catch/7.jpg","[""ArrowUp""]","value training","canyon","-10","{""ArrowUp,ArrowLeft"":26,""ArrowUp,ArrowRight"":10,""ArrowDown,ArrowLeft"":5,""ArrowDown,ArrowRight"":17}","false","ArrowUp","true","","","revaluation","2","14","","",""
"html-keyboard-response","300","1315996","0.0-4.0-2.1-1.57","spark_pilot_2","7141","3","9","Female","","","","","","","null","<div style=""font-size:60px;"">+</div>","null","fixation","","","","","","","","","","","15","","",""
"revaluation","301","1322004","0.0-4.0-2.1-0.58","spark_pilot_2","7141","3","9","Female","","false","","","","","[613.6000001430511,724]","./assets/img/canyon/memory/4.jpg","[""ArrowUp"",""ArrowLeft""]","value training","canyon","26","{""ArrowUp,ArrowLeft"":26,""ArrowUp,ArrowRight"":10,""ArrowDown,ArrowLeft"":5,""ArrowDown,ArrowRight"":17}","true","ArrowUp,ArrowLeft","false","","","revaluation","2","16","","",""
"html-keyboard-response","302","1322506","0.0-4.0-2.1-1.58","spark_pilot_2","7141","3","9","Female","","","","","","","null","<div style=""font-size:60px;"">+</div>","null","fixation","","","","","","","","","","","17","","",""
"revaluation","303","1328513","0.0-4.0-2.1-0.59","spark_pilot_2","7141","3","9","Female","","false","","","","","[762.8999998569489,697.5]","./assets/img/canyon/memory/38.jpg","[""ArrowUp"",""ArrowLeft""]","value training","canyon","26","{""ArrowUp,ArrowLeft"":26,""ArrowUp,ArrowRight"":10,""ArrowDown,ArrowLeft"":5,""ArrowDown,ArrowRight"":17}","true","ArrowUp,ArrowLeft","false","","","revaluation","2","18","","",""
"html-keyboard-response","304","1329014","0.0-4.0-2.1-1.59","spark_pilot_2","7141","3","9","Female","","","","","","","null","<div style=""font-size:60px;"">+</div>","null","fixation","","","","","","","","","","","19","","",""
"revaluation","305","1333018","0.0-4.0-2.1-0.60","spark_pilot_2","7141","3","9","Female","","false","","","","","[622.6000001430511]","./assets/img/canyon/catch/0.jpg","[""spaceBar""]","value training","canyon","0","{""ArrowUp,ArrowLeft"":26,""ArrowUp,ArrowRight"":10,""ArrowDown,ArrowLeft"":5,""ArrowDown,ArrowRight"":17}","true","spaceBar","true","","","revaluation","2","20","","",""
