"trial_type","trial_index","time_elapsed","internal_node_id","task_version","subject_id","assigned_condition","age","gender","browser_interaction","success","timeout","failed_images","failed_audio","failed_video","rt","stimulus","response","task_part","environment","score","rewardMap","correct","fullState","isCatch","numberMissed","duration","condition","order","trial_num","key_press","ground_truth","bonus"
"pavlovia","0","1030","0.0-0.0","spark_pilot_2","7456","6","19","Female","[{""event"":""blur"",""trial"":1,""time"":4616},{""event"":""focus"",""trial"":1,""time"":5240},{""event"":""fullscreenenter"",""trial"":2,""time"":42062}]","","","","","","","","","","","","","","","","","","","","","","",""
"preload","1","37212","0.0-1.0","spark_pilot_2","7456","6","19","Female","[{""event"":""blur"",""trial"":1,""time"":4616},{""event"":""focus"",""trial"":1,""time"":5240},{""event"":""fullscreenenter"",""trial"":2,""time"":42062}]","true","false","[]","[]","[]","","","","","","","","","","","","","","","","","",""
"fullscreen","2","43026","0.0-2.0","spark_pilot_2","7456","6","19","Female","","true","","","","","","","","","","","","","","","","","","","","","",""
"audio-button-response","3","46546","0.0-3.0-0.0-0.0","spark_pilot_2","7456","6","19","Female","","","","","","","3456","./assets/audio/audiotest/turtle.mp3","2","audio_test","","","","","","","","","","","","","",""
"learning-instructions","4","55485","0.0-3.0-1.0-0.0","spark_pilot_2","7456","6","19","Female","","","","","","","1964.5999999940395","<p> Welcome! Please remember to stay in fullscreen mode and don't click away from the experiment. </p>","","instructions","","","","","","","","","","","","","",""
"learning-instructions","5","64850","0.0-3.0-1.0-0.1","spark_pilot_2","7456","6","19","Female","","","","","","","962","<p> Today you will be playing a game to earn treasure. </p>
            <p> At the end of the experiment, you will earn a bonus based on how much treasure you find. </p>
            <img src='./assets/img/instructions/treasure.jpg' class='instructions-image'>","","instructions","","","","","","","","","","","","","",""
"learning-instructions","6","73808","0.0-3.0-1.0-0.2","spark_pilot_2","7456","6","19","Female","","","","","","","703.6999999880791","<p> Animals have hidden treasure in treasure chests. </p>
            <p> You need to first find an animal and then choose which of their treasure chests to search. </p>
            <img src='./assets/img/space/animals/cat.jpg' class='instructions-image'>","","instructions","","","","","","","","","","","","","",""
"learning-instructions","7","88015","0.0-3.0-1.0-0.3","spark_pilot_2","7456","6","19","Female","","","","","","","1054.800000011921","<p> In each round, you will search for treasure in a different place. In the real game, there will be two rounds. </p>
            <p> You will begin with a separate, practice round where you will search for treasure in outer space. </p>
            <img src='./assets/img/space/0.jpg' class='instructions-image'>","","instructions","","","","","","","","","","","","","",""
"learning-instructions","8","102287","0.0-3.0-1.0-0.4","spark_pilot_2","7456","6","19","Female","","","","","","","2867.800000011921","<p> On every turn, you will see a picture of the place that you are in, but the specific image may be different each time. </p>
            <p> For example, both of these images mean you are in outer space. </p>
            <img src='./assets/img/instructions/outerspace.jpg' class='instructions-image'>","","instructions","","","","","","","","","","","","","",""
"learning-instructions","9","111160","0.0-3.0-1.0-0.5","spark_pilot_2","7456","6","19","Female","","","","","","","1042.300000011921","<p> You need to decide which direction to travel in. </p>
            <p> You can choose between going <b>up or down</b> by using the arrow keys. </p>
            <img src='./assets/img/instructions/updown.jpg' class='instructions-image'>","","instructions","","","","","","","","","","","","","",""
"learning-instructions","10","121116","0.0-3.0-1.0-0.6","spark_pilot_2","7456","6","19","Female","","","","","","","1141.2000000178814","<p> You will have <b>2 seconds</b> to make your choice. </p>
            <p> If you do not make a choice within 2 seconds, you will not find an animal or earn treasure. </p>
            <img src='./assets/img/instructions/2seconds.jpg' class='instructions-image'>","","instructions","","","","","","","","","","","","","",""
"learning-instructions","11","130250","0.0-3.0-1.0-0.7","spark_pilot_2","7456","6","19","Female","","","","","","","2094.5999999940395","<p> Let’s try practicing that now! </p>
            <p> When you see a picture of the place you are in, press the <b>up</b> key to travel up. </p>
            <img src='./assets/img/instructions/pressUp.jpg' class='instructions-image'>","","instructions","","","","","","","","","","","","","",""
"revaluation","12","134271","0.0-3.0-2.0-0.0","spark_pilot_2","7456","6","19","Female","","","false","","","","[802]","./assets/img/space/0.jpg","[""ArrowUp""]","first stage practice","space","0","null","null","ArrowUp","false","","","","","","","",""
"html-keyboard-response","13","134789","0.0-3.0-2.0-1.0","spark_pilot_2","7456","6","19","Female","","","","","","","null","<div style=""font-size:60px;"">+</div>","null","fixation","","","","","","","","","","","","","",""
"revaluation","14","138813","0.0-3.0-2.0-0.1","spark_pilot_2","7456","6","19","Female","","","false","","","","[759.2000000178814]","./assets/img/space/1.jpg","[""ArrowUp""]","first stage practice","space","0","null","null","ArrowUp","false","","","","","","","",""
"html-keyboard-response","15","139327","0.0-3.0-2.0-1.1","spark_pilot_2","7456","6","19","Female","","","","","","","null","<div style=""font-size:60px;"">+</div>","null","fixation","","","","","","","","","","","","","",""
"revaluation","16","143334","0.0-3.0-2.0-0.2","spark_pilot_2","7456","6","19","Female","","","false","","","","[511.59999999403954]","./assets/img/space/2.jpg","[""ArrowUp""]","first stage practice","space","0","null","null","ArrowUp","false","","","","","","","",""
"html-keyboard-response","17","143836","0.0-3.0-2.0-1.2","spark_pilot_2","7456","6","19","Female","","","","","","","null","<div style=""font-size:60px;"">+</div>","null","fixation","","","","","","","","","","","","","",""
"learning-instructions","18","150096","0.0-3.0-3.0-0.0","spark_pilot_2","7456","6","19","Female","","","","","","","1567.5999999940395","<p> Great job! Now try pressing the <b>down</b> key to travel down. </p>
            <img src='./assets/img/instructions/pressDown.jpg' class='instructions-image'>","","instructions","","","","","","","","","","","","","",""
"revaluation","19","154122","0.0-3.0-4.0-0.0","spark_pilot_2","7456","6","19","Female","","","false","","","","[614.0999999940395]","./assets/img/space/3.jpg","[""ArrowDown""]","first stage practice","space","0","null","null","ArrowDown","false","","","","","","","",""
"html-keyboard-response","20","154639","0.0-3.0-4.0-1.0","spark_pilot_2","7456","6","19","Female","","","","","","","null","<div style=""font-size:60px;"">+</div>","null","fixation","","","","","","","","","","","","","",""
"revaluation","21","158651","0.0-3.0-4.0-0.1","spark_pilot_2","7456","6","19","Female","","","false","","","","[207.19999998807907]","./assets/img/space/4.jpg","[""ArrowDown""]","first stage practice","space","0","null","null","ArrowDown","false","","","","","","","",""
"html-keyboard-response","22","159153","0.0-3.0-4.0-1.1","spark_pilot_2","7456","6","19","Female","","","","","","","null","<div style=""font-size:60px;"">+</div>","null","fixation","","","","","","","","","","","","","",""
"revaluation","23","163172","0.0-3.0-4.0-0.2","spark_pilot_2","7456","6","19","Female","","","false","","","","[536.5]","./assets/img/space/5.jpg","[""ArrowDown""]","first stage practice","space","0","null","null","ArrowDown","false","","","","","","","",""
"html-keyboard-response","24","163687","0.0-3.0-4.0-1.2","spark_pilot_2","7456","6","19","Female","","","","","","","null","<div style=""font-size:60px;"">+</div>","null","fixation","","","","","","","","","","","","","",""
"learning-instructions","25","174621","0.0-3.0-5.0-0.0","spark_pilot_2","7456","6","19","Female","","","","","","","1079.5","<p> The animals don’t move, so the animal in the upper part of a place will stay in the upper part of a place, and the animal in the lower part of a place will stay in the lower part of a place. </p>","","instructions","","","","","","","","","","","","","",""
"learning-instructions","26","184640","0.0-3.0-5.0-0.1","spark_pilot_2","7456","6","19","Female","","","","","","","890.6000000238419","<p> Each animal has two treasure chests for you to choose from. </p>
            <p> The amount of treasure in each chest can range from <b> 0 to 40 pieces.</b></p>","","instructions","","","","","","","","","","","","","",""
"learning-instructions","27","196480","0.0-3.0-5.0-0.2","spark_pilot_2","7456","6","19","Female","","","","","","","656","<p> You should decide which chest to search for treasure by using the <b>left</b> and <b>right</b> arrow keys. </p>
            <p><b> Pay attention to which animal is on the screen, as the animals have different treasure chests. </b></p>
            <img src='./assets/img/instructions/leftright.jpg' class='instructions-image'>","","instructions","","","","","","","","","","","","","",""
"learning-instructions","28","203480","0.0-3.0-5.0-0.3","spark_pilot_2","7456","6","19","Female","","","","","","","637.3000000119209","<p> Let’s try practicing that now. </p>
            <p> When you see an animal, choose which chest to search for treasure. </p>
            <img src='./assets/img/instructions/chooseChest.jpg' class='instructions-image'>","","instructions","","","","","","","","","","","","","",""
"revaluation","29","207490","0.0-3.0-6.0-0.0","spark_pilot_2","7456","6","19","Female","","","false","","","","[868.0999999940395]","./assets/img/space/animals/cat.jpg","[""ArrowRight""]","second stage practice","space","36","{""ArrowUp,ArrowLeft"":3,""ArrowUp,ArrowRight"":36,""ArrowDown,ArrowLeft"":15,""ArrowDown,ArrowRight"":23}","true","ArrowUp,ArrowRight","","","","","","","","",""
"html-keyboard-response","30","208004","0.0-3.0-6.0-1.0","spark_pilot_2","7456","6","19","Female","","","","","","","null","<div style=""font-size:60px;"">+</div>","null","fixation","","","","","","","","","","","","","",""
"revaluation","31","212017","0.0-3.0-6.0-0.1","spark_pilot_2","7456","6","19","Female","","","false","","","","[431.5]","./assets/img/space/animals/rabbit.jpg","[""ArrowRight""]","second stage practice","space","23","{""ArrowUp,ArrowLeft"":3,""ArrowUp,ArrowRight"":36,""ArrowDown,ArrowLeft"":15,""ArrowDown,ArrowRight"":23}","true","ArrowDown,ArrowRight","","","","","","","","",""
"html-keyboard-response","32","212531","0.0-3.0-6.0-1.1","spark_pilot_2","7456","6","19","Female","","","","","","","null","<div style=""font-size:60px;"">+</div>","null","fixation","","","","","","","","","","","","","",""
"revaluation","33","216554","0.0-3.0-6.0-0.2","spark_pilot_2","7456","6","19","Female","","","false","","","","[280.7999999821186]","./assets/img/space/animals/rabbit.jpg","[""ArrowLeft""]","second stage practice","space","15","{""ArrowUp,ArrowLeft"":3,""ArrowUp,ArrowRight"":36,""ArrowDown,ArrowLeft"":15,""ArrowDown,ArrowRight"":23}","false","ArrowDown,ArrowLeft","","","","","","","","",""
"html-keyboard-response","34","217069","0.0-3.0-6.0-1.2","spark_pilot_2","7456","6","19","Female","","","","","","","null","<div style=""font-size:60px;"">+</div>","null","fixation","","","","","","","","","","","","","",""
"revaluation","35","221079","0.0-3.0-6.0-0.3","spark_pilot_2","7456","6","19","Female","","","false","","","","[247.80000001192093]","./assets/img/space/animals/cat.jpg","[""ArrowRight""]","second stage practice","space","36","{""ArrowUp,ArrowLeft"":3,""ArrowUp,ArrowRight"":36,""ArrowDown,ArrowLeft"":15,""ArrowDown,ArrowRight"":23}","true","ArrowUp,ArrowRight","","","","","","","","",""
"html-keyboard-response","36","221595","0.0-3.0-6.0-1.3","spark_pilot_2","7456","6","19","Female","","","","","","","null","<div style=""font-size:60px;"">+</div>","null","fixation","","","","","","","","","","","","","",""
"learning-instructions","37","249427","0.0-3.0-7.0-0.0","spark_pilot_2","7456","6","19","Female","","","","","","","11011.59999999404","<p> Great job. Now let’s try putting it together. </p>
            <p> On each turn, you will first see a picture to remind you of the place you are in, and you need to choose whether to go up or down. </p>
            <p> Then you will see an animal and choose which of its chests to search for treasure. </p>","","instructions","","","","","","","","","","","","","",""
"learning-instructions","38","258774","0.0-3.0-7.0-0.1","spark_pilot_2","7456","6","19","Female","","","","","","","1094","<p> When you choose whether to go up or down, try to go to the animal with the chest with the most treasure. </p>
            <p> Try practicing that now! </p>","","instructions","","","","","","","","","","","","","",""
"revaluation","39","264793","0.0-3.0-8.0-0.0","spark_pilot_2","7456","6","19","Female","","","false","","","","[685.5999999940395,460.40000000596046]","./assets/img/space/6.jpg","[""ArrowUp"",""ArrowLeft""]","full practice","space","3","{""ArrowUp,ArrowLeft"":3,""ArrowUp,ArrowRight"":36,""ArrowDown,ArrowLeft"":15,""ArrowDown,ArrowRight"":23}","false","ArrowUp,ArrowLeft","false","","","","","","","",""
"html-keyboard-response","40","265295","0.0-3.0-8.0-1.0","spark_pilot_2","7456","6","19","Female","","","","","","","null","<div style=""font-size:60px;"">+</div>","null","fixation","","","","","","","","","","","","","",""
"revaluation","41","271318","0.0-3.0-8.0-0.1","spark_pilot_2","7456","6","19","Female","","","false","","","","[591.7000000178814,380.69999998807907]","./assets/img/space/7.jpg","[""ArrowDown"",""ArrowRight""]","full practice","space","23","{""ArrowUp,ArrowLeft"":3,""ArrowUp,ArrowRight"":36,""ArrowDown,ArrowLeft"":15,""ArrowDown,ArrowRight"":23}","false","ArrowDown,ArrowRight","false","","","","","","","",""
"html-keyboard-response","42","271822","0.0-3.0-8.0-1.1","spark_pilot_2","7456","6","19","Female","","","","","","","null","<div style=""font-size:60px;"">+</div>","null","fixation","","","","","","","","","","","","","",""
"revaluation","43","277849","0.0-3.0-8.0-0.2","spark_pilot_2","7456","6","19","Female","","","false","","","","[536.5999999940395,718.6999999880791]","./assets/img/space/8.jpg","[""ArrowUp"",""ArrowRight""]","full practice","space","36","{""ArrowUp,ArrowLeft"":3,""ArrowUp,ArrowRight"":36,""ArrowDown,ArrowLeft"":15,""ArrowDown,ArrowRight"":23}","true","ArrowUp,ArrowRight","false","","","","","","","",""
"html-keyboard-response","44","278352","0.0-3.0-8.0-1.2","spark_pilot_2","7456","6","19","Female","","","","","","","null","<div style=""font-size:60px;"">+</div>","null","fixation","","","","","","","","","","","","","",""
"revaluation","45","284375","0.0-3.0-8.0-0.3","spark_pilot_2","7456","6","19","Female","","","false","","","","[491.69999998807907,392.09999999403954]","./assets/img/space/9.jpg","[""ArrowDown"",""ArrowLeft""]","full practice","space","15","{""ArrowUp,ArrowLeft"":3,""ArrowUp,ArrowRight"":36,""ArrowDown,ArrowLeft"":15,""ArrowDown,ArrowRight"":23}","false","ArrowDown,ArrowLeft","false","","","","","","","",""
"html-keyboard-response","46","284891","0.0-3.0-8.0-1.3","spark_pilot_2","7456","6","19","Female","","","","","","","null","<div style=""font-size:60px;"">+</div>","null","fixation","","","","","","","","","","","","","",""
"revaluation","47","290900","0.0-3.0-8.0-0.4","spark_pilot_2","7456","6","19","Female","","","false","","","","[388.2000000178814,268.30000001192093]","./assets/img/space/10.jpg","[""ArrowUp"",""ArrowRight""]","full practice","space","36","{""ArrowUp,ArrowLeft"":3,""ArrowUp,ArrowRight"":36,""ArrowDown,ArrowLeft"":15,""ArrowDown,ArrowRight"":23}","true","ArrowUp,ArrowRight","false","","","","","","","",""
"html-keyboard-response","48","291401","0.0-3.0-8.0-1.4","spark_pilot_2","7456","6","19","Female","","","","","","","null","<div style=""font-size:60px;"">+</div>","null","fixation","","","","","","","","","","","","","",""
"learning-instructions","49","302748","0.0-3.0-9.0-0.0","spark_pilot_2","7456","6","19","Female","","","","","","","812.9000000059605","<p> One last thing: sometimes, you will see a robber. The robber can be anywhere in the picture. </p>
            <p> If you do not stop them, you will lose treasure. </p>
            <img src='./assets/img/instructions/robber.jpg' class='instructions-image'>","","instructions","","","","","","","","","","","","","",""
"learning-instructions","50","312909","0.0-3.0-9.0-0.1","spark_pilot_2","7456","6","19","Female","","","","","","","2921.300000011921","<p> If you see the robber, you should <b>press the space bar</b> rather than using the arrow keys. </p>
            <p> Try practicing that now! </p>","","instructions","","","","","","","","","","","","","",""
"revaluation","51","316926","0.0-3.0-10.0-0.0","spark_pilot_2","7456","6","19","Female","","","false","","","","[1395.5999999940395]","./assets/img/space/catch/0.jpg","[""spaceBar""]","catch practice","space","0","{""ArrowUp,ArrowLeft"":3,""ArrowUp,ArrowRight"":36,""ArrowDown,ArrowLeft"":15,""ArrowDown,ArrowRight"":23}","true","spaceBar","true","","","","","","","",""
"html-keyboard-response","52","317442","0.0-3.0-10.0-1.0","spark_pilot_2","7456","6","19","Female","","","","","","","null","<div style=""font-size:60px;"">+</div>","null","fixation","","","","","","","","","","","","","",""
"revaluation","53","321454","0.0-3.0-10.0-0.1","spark_pilot_2","7456","6","19","Female","","","false","","","","[642.2000000178814]","./assets/img/space/catch/1.jpg","[""spaceBar""]","catch practice","space","0","{""ArrowUp,ArrowLeft"":3,""ArrowUp,ArrowRight"":36,""ArrowDown,ArrowLeft"":15,""ArrowDown,ArrowRight"":23}","true","spaceBar","true","","","","","","","",""
"html-keyboard-response","54","321971","0.0-3.0-10.0-1.1","spark_pilot_2","7456","6","19","Female","","","","","","","null","<div style=""font-size:60px;"">+</div>","null","fixation","","","","","","","","","","","","","",""
"revaluation","55","325982","0.0-3.0-10.0-0.2","spark_pilot_2","7456","6","19","Female","","","false","","","","[556.1999999880791]","./assets/img/space/catch/2.jpg","[""spaceBar""]","catch practice","space","0","{""ArrowUp,ArrowLeft"":3,""ArrowUp,ArrowRight"":36,""ArrowDown,ArrowLeft"":15,""ArrowDown,ArrowRight"":23}","true","spaceBar","true","","","","","","","",""
"html-keyboard-response","56","326493","0.0-3.0-10.0-1.2","spark_pilot_2","7456","6","19","Female","","","","","","","null","<div style=""font-size:60px;"">+</div>","null","fixation","","","","","","","","","","","","","",""
"learning-instructions","57","341142","0.0-3.0-11.0-0.0","spark_pilot_2","7456","6","19","Female","","","","","","","1062.4000000059605","<p> After you explore a place to find treasure, it will be time to play a different game. </p>
            <p> During this game, red dots will appear on the screen and fall down slowly. </p>
            <p><b> You must click on them before they reach the bottom. </b></p>
            <img src='./assets/img/instructions/dotGame.jpg' class='instructions-image'>","","instructions","","","","","","","","","","","","","",""
"learning-instructions","58","347534","0.0-3.0-11.0-0.1","spark_pilot_2","7456","6","19","Female","","","","","","","725.1000000238419","<p> For every dot you click, you will earn additional treasure. </p>
            <p> Let’s try practicing that now. </p>","","instructions","","","","","","","","","","","","","",""
"revaluation","59","362540","0.0-3.0-12.0-0.0","spark_pilot_2","7456","6","19","Female","","","","","","","[100]","","","rest practice","","10","","","","","0","15000","","","","","",""
"learning-instructions","60","369862","0.0-3.0-13.0-0.0-0.0","spark_pilot_2","7456","6","19","Female","","","","","","","2071","<p> Now, you will practice a shortened version of the game to get a sense of how it all fits together. </p>","","instructions","","","","","","","","","","","","","",""
"learning-instructions","61","373959","0.0-3.0-13.0-0.0-0.1","spark_pilot_2","7456","6","19","Female","","","","","","","908.9000000059605","<p>This time you are searching for treasure in outer space.</p>","","instructions","","","","","","","","","","","","","",""
"learning-instructions","62","389643","0.0-3.0-13.0-1.0-0.0","spark_pilot_2","7456","6","19","Female","","","","","","","924.3000000119209","<p> Remember, when you see a picture of the place, use the up and down keys to <b>find an animal</b>.</p>
            <p> When you encounter an animal, you should use the left and right keys to <b>select a treasure chest</b>.</p>
            <p> Don't forget to look out for the robber! </p>","","instructions","","","","","","","","","","","","","",""
"revaluation","63","395657","0.0-3.0-13.0-2.0-0.0","spark_pilot_2","7456","6","19","Female","","","false","","","","[1068.7999999821186,415]","./assets/img/space/11.jpg","[""ArrowUp"",""ArrowRight""]","practice block","space","36","{""ArrowUp,ArrowLeft"":3,""ArrowUp,ArrowRight"":36,""ArrowDown,ArrowLeft"":15,""ArrowDown,ArrowRight"":23}","true","ArrowUp,ArrowRight","false","","","","","","","",""
"html-keyboard-response","64","396159","0.0-3.0-13.0-2.0-1.0","spark_pilot_2","7456","6","19","Female","","","","","","","null","<div style=""font-size:60px;"">+</div>","null","fixation","","","","","","","","","","","","","",""
"revaluation","65","402183","0.0-3.0-13.0-2.0-0.1","spark_pilot_2","7456","6","19","Female","","","false","","","","[382.59999999403954,361.80000001192093]","./assets/img/space/12.jpg","[""ArrowUp"",""ArrowRight""]","practice block","space","36","{""ArrowUp,ArrowLeft"":3,""ArrowUp,ArrowRight"":36,""ArrowDown,ArrowLeft"":15,""ArrowDown,ArrowRight"":23}","true","ArrowUp,ArrowRight","false","","","","","","","",""
"html-keyboard-response","66","402693","0.0-3.0-13.0-2.0-1.1","spark_pilot_2","7456","6","19","Female","","","","","","","null","<div style=""font-size:60px;"">+</div>","null","fixation","","","","","","","","","","","","","",""
"revaluation","67","408710","0.0-3.0-13.0-2.0-0.2","spark_pilot_2","7456","6","19","Female","","","false","","","","[348.90000000596046,356.90000000596046]","./assets/img/space/13.jpg","[""ArrowUp"",""ArrowRight""]","practice block","space","36","{""ArrowUp,ArrowLeft"":3,""ArrowUp,ArrowRight"":36,""ArrowDown,ArrowLeft"":15,""ArrowDown,ArrowRight"":23}","true","ArrowUp,ArrowRight","false","","","","","","","",""
"html-keyboard-response","68","409216","0.0-3.0-13.0-2.0-1.2","spark_pilot_2","7456","6","19","Female","","","","","","","null","<div style=""font-size:60px;"">+</div>","null","fixation","","","","","","","","","","","","","",""
"revaluation","69","415239","0.0-3.0-13.0-2.0-0.3","spark_pilot_2","7456","6","19","Female","","","false","","","","[497.59999999403954,272.90000000596046]","./assets/img/space/14.jpg","[""ArrowUp"",""ArrowRight""]","practice block","space","36","{""ArrowUp,ArrowLeft"":3,""ArrowUp,ArrowRight"":36,""ArrowDown,ArrowLeft"":15,""ArrowDown,ArrowRight"":23}","true","ArrowUp,ArrowRight","false","","","","","","","",""
"html-keyboard-response","70","415756","0.0-3.0-13.0-2.0-1.3","spark_pilot_2","7456","6","19","Female","","","","","","","null","<div style=""font-size:60px;"">+</div>","null","fixation","","","","","","","","","","","","","",""
"revaluation","71","421763","0.0-3.0-13.0-2.0-0.4","spark_pilot_2","7456","6","19","Female","","","false","","","","[545.5,297.09999999403954]","./assets/img/space/11.jpg","[""ArrowUp"",""ArrowRight""]","practice block","space","36","{""ArrowUp,ArrowLeft"":3,""ArrowUp,ArrowRight"":36,""ArrowDown,ArrowLeft"":15,""ArrowDown,ArrowRight"":23}","true","ArrowUp,ArrowRight","false","","","","","","","",""
"html-keyboard-response","72","422264","0.0-3.0-13.0-2.0-1.4","spark_pilot_2","7456","6","19","Female","","","","","","","null","<div style=""font-size:60px;"">+</div>","null","fixation","","","","","","","","","","","","","",""
"revaluation","73","428268","0.0-3.0-13.0-2.0-0.5","spark_pilot_2","7456","6","19","Female","","","false","","","","[881.7000000178814,515.1999999880791]","./assets/img/space/12.jpg","[""ArrowUp"",""ArrowRight""]","practice block","space","36","{""ArrowUp,ArrowLeft"":3,""ArrowUp,ArrowRight"":36,""ArrowDown,ArrowLeft"":15,""ArrowDown,ArrowRight"":23}","true","ArrowUp,ArrowRight","false","","","","","","","",""
"html-keyboard-response","74","428769","0.0-3.0-13.0-2.0-1.5","spark_pilot_2","7456","6","19","Female","","","","","","","null","<div style=""font-size:60px;"">+</div>","null","fixation","","","","","","","","","","","","","",""
"revaluation","75","434774","0.0-3.0-13.0-2.0-0.6","spark_pilot_2","7456","6","19","Female","","","false","","","","[725.8000000119209,256.09999999403954]","./assets/img/space/13.jpg","[""ArrowUp"",""ArrowRight""]","practice block","space","36","{""ArrowUp,ArrowLeft"":3,""ArrowUp,ArrowRight"":36,""ArrowDown,ArrowLeft"":15,""ArrowDown,ArrowRight"":23}","true","ArrowUp,ArrowRight","false","","","","","","","",""
"html-keyboard-response","76","435276","0.0-3.0-13.0-2.0-1.6","spark_pilot_2","7456","6","19","Female","","","","","","","null","<div style=""font-size:60px;"">+</div>","null","fixation","","","","","","","","","","","","","",""
"revaluation","77","441281","0.0-3.0-13.0-2.0-0.7","spark_pilot_2","7456","6","19","Female","","","false","","","","[628.5,241.7999999821186]","./assets/img/space/14.jpg","[""ArrowUp"",""ArrowRight""]","practice block","space","36","{""ArrowUp,ArrowLeft"":3,""ArrowUp,ArrowRight"":36,""ArrowDown,ArrowLeft"":15,""ArrowDown,ArrowRight"":23}","true","ArrowUp,ArrowRight","false","","","","","","","",""
"html-keyboard-response","78","441782","0.0-3.0-13.0-2.0-1.7","spark_pilot_2","7456","6","19","Female","","","","","","","null","<div style=""font-size:60px;"">+</div>","null","fixation","","","","","","","","","","","","","",""
"revaluation","79","445785","0.0-3.0-13.0-2.0-0.8","spark_pilot_2","7456","6","19","Female","","","false","","","","[457.2000000178814]","./assets/img/space/catch/3.jpg","[""spaceBar""]","practice block","space","0","{""ArrowUp,ArrowLeft"":3,""ArrowUp,ArrowRight"":36,""ArrowDown,ArrowLeft"":15,""ArrowDown,ArrowRight"":23}","true","spaceBar","true","","","","","","","",""
"html-keyboard-response","80","446287","0.0-3.0-13.0-2.0-1.8","spark_pilot_2","7456","6","19","Female","","","","","","","null","<div style=""font-size:60px;"">+</div>","null","fixation","","","","","","","","","","","","","",""
"learning-instructions","81","460670","0.0-3.0-13.0-3.0-0.0","spark_pilot_2","7456","6","19","Female","","","","","","","1210.699999988079","<p> Now, you will travel with a friend who will choose whether you go up or down first. </p>
            <p> On these turns, you will just see the animal that they found. You will still get to choose which chest to search for treasure.</p>","","instructions","","","","","","","","","","","","","",""
"revaluation","82","464683","0.0-3.0-13.0-4.0-0.0","spark_pilot_2","7456","6","19","Female","","","false","","","","[986]","./assets/img/space/animals/rabbit.jpg","[""ArrowRight""]","practice block","space","23","{""ArrowUp,ArrowLeft"":3,""ArrowUp,ArrowRight"":36,""ArrowDown,ArrowLeft"":15,""ArrowDown,ArrowRight"":23}","true","ArrowDown,ArrowRight","","","","","","","","",""
"html-keyboard-response","83","465190","0.0-3.0-13.0-4.0-1.0","spark_pilot_2","7456","6","19","Female","","","","","","","null","<div style=""font-size:60px;"">+</div>","null","fixation","","","","","","","","","","","","","",""
"revaluation","84","469203","0.0-3.0-13.0-4.0-0.1","spark_pilot_2","7456","6","19","Female","","","false","","","","[383.2000000178814]","./assets/img/space/animals/cat.jpg","[""ArrowRight""]","practice block","space","36","{""ArrowUp,ArrowLeft"":3,""ArrowUp,ArrowRight"":36,""ArrowDown,ArrowLeft"":15,""ArrowDown,ArrowRight"":23}","true","ArrowUp,ArrowRight","","","","","","","","",""
"html-keyboard-response","85","469720","0.0-3.0-13.0-4.0-1.1","spark_pilot_2","7456","6","19","Female","","","","","","","null","<div style=""font-size:60px;"">+</div>","null","fixation","","","","","","","","","","","","","",""
"revaluation","86","473737","0.0-3.0-13.0-4.0-0.2","spark_pilot_2","7456","6","19","Female","","","false","","","","[319.80000001192093]","./assets/img/space/animals/rabbit.jpg","[""ArrowRight""]","practice block","space","23","{""ArrowUp,ArrowLeft"":3,""ArrowUp,ArrowRight"":36,""ArrowDown,ArrowLeft"":15,""ArrowDown,ArrowRight"":23}","true","ArrowDown,ArrowRight","","","","","","","","",""
"html-keyboard-response","87","474249","0.0-3.0-13.0-4.0-1.2","spark_pilot_2","7456","6","19","Female","","","","","","","null","<div style=""font-size:60px;"">+</div>","null","fixation","","","","","","","","","","","","","",""
"revaluation","88","478265","0.0-3.0-13.0-4.0-0.3","spark_pilot_2","7456","6","19","Female","","","false","","","","[470.2000000178814]","./assets/img/space/animals/cat.jpg","[""ArrowRight""]","practice block","space","36","{""ArrowUp,ArrowLeft"":3,""ArrowUp,ArrowRight"":36,""ArrowDown,ArrowLeft"":15,""ArrowDown,ArrowRight"":23}","true","ArrowUp,ArrowRight","","","","","","","","",""
"html-keyboard-response","89","478766","0.0-3.0-13.0-4.0-1.3","spark_pilot_2","7456","6","19","Female","","","","","","","null","<div style=""font-size:60px;"">+</div>","null","fixation","","","","","","","","","","","","","",""
"learning-instructions","90","487254","0.0-3.0-13.0-5.0-0.0","spark_pilot_2","7456","6","19","Female","","","","","","","1117.5","<p> Time to play the dot game! </p>
            <p> For 15 seconds, click the red dots on the following screen as they appear. </p>","","instructions","","","","","","","","","","","","","",""
"revaluation","91","502256","0.0-3.0-13.0-6.0-0.0","spark_pilot_2","7456","6","19","Female","","","","","","","[73]","","","rest practice","","10","","","","","0","15000","","","","","",""
"learning-instructions","92","509680","0.0-3.0-13.0-7.0-0.0","spark_pilot_2","7456","6","19","Female","","","","","","","1303","<p> You have almost finished this part of the game! </p>
            <p> We are going to ask you to make a few more choices. </p>","","instructions","","","","","","","","","","","","","",""
"learning-instructions","93","525839","0.0-3.0-13.0-7.0-0.1","spark_pilot_2","7456","6","19","Female","","","","","","","2155.5999999940395","<p> First, you need to decide whether to go up or down. When you see each picture, use the arrow keys to make your choice. </p>
            <p><b>You will not see which animal you found, but try to get to the one that will give you the most treasure.</b></p>","","instructions","","","","","","","","","","","","","",""
"revaluation","94","527194","0.0-3.0-13.0-8.0","spark_pilot_2","7456","6","19","Female","","","false","","","","[1353.800000011921]","./assets/img/space/15.jpg","[""ArrowUp""]","practice block","space","0","{""ArrowUp,ArrowLeft"":3,""ArrowUp,ArrowRight"":36,""ArrowDown,ArrowLeft"":15,""ArrowDown,ArrowRight"":23}","true","ArrowUp","false","","","","","","","",""
"html-keyboard-response","95","527698","0.0-3.0-13.0-9.0","spark_pilot_2","7456","6","19","Female","","","","","","","null","<div style=""font-size:60px;"">+</div>","null","fixation","","","","","","","","","","","","","",""
"learning-instructions","96","540047","0.0-3.0-13.0-10.0-0.0","spark_pilot_2","7456","6","19","Female","","","","","","","971.9000000059605","<p> Now you will see the animals again and can search their chests for treasure. </p>
            <p> This time, you will not see how much treasure you earned, but you will earn more bonus money for making better choices. </p>","","instructions","","","","","","","","","","","","","",""
"revaluation","97","540682","0.0-3.0-13.0-11.0-0.0","spark_pilot_2","7456","6","19","Female","","","false","","","","[632.5]","./assets/img/space/animals/cat.jpg","[""ArrowRight""]","practice block","space","0","{""ArrowUp,ArrowLeft"":3,""ArrowUp,ArrowRight"":36,""ArrowDown,ArrowLeft"":15,""ArrowDown,ArrowRight"":23}","true","ArrowUp,ArrowRight","","","","","","","","",""
"html-keyboard-response","98","541193","0.0-3.0-13.0-11.0-1.0","spark_pilot_2","7456","6","19","Female","","","","","","","null","<div style=""font-size:60px;"">+</div>","null","fixation","","","","","","","","","","","","","",""
"revaluation","99","542373","0.0-3.0-13.0-11.0-0.1","spark_pilot_2","7456","6","19","Female","","","false","","","","[1178.2000000178814]","./assets/img/space/animals/rabbit.jpg","[""ArrowRight""]","practice block","space","0","{""ArrowUp,ArrowLeft"":3,""ArrowUp,ArrowRight"":36,""ArrowDown,ArrowLeft"":15,""ArrowDown,ArrowRight"":23}","true","ArrowDown,ArrowRight","","","","","","","","",""
"html-keyboard-response","100","542889","0.0-3.0-13.0-11.0-1.1","spark_pilot_2","7456","6","19","Female","","","","","","","null","<div style=""font-size:60px;"">+</div>","null","fixation","","","","","","","","","","","","","",""
"learning-instructions","101","548367","0.0-3.0-14.0-0.0","spark_pilot_2","7456","6","19","Female","","","","","","","896.6000000238419","<p> Before you start, we're going to ask you a few questions about how the game works. </p>","","instructions","","","","","","","","","","","","","",""
"comp-q","102","555231","0.0-3.0-15.0-0.0-0.0","spark_pilot_2","7456","6","19","Female","","","","","","","1272.4000000059605","<p> <b> True or False? </b> </p>
            <p> There can be 50 pieces of treasure in a given animal's chest. </p>","1","comp_question","","","","true","","","","","","","","","",""
"comp-q","103","563052","0.0-3.0-15.0-0.0-1.0","spark_pilot_2","7456","6","19","Female","","","","","","","1170.8999999761581","<p> <b> That's right! </b> The amount of treasure in each chest can range from 0 to 40 pieces. </p>","0","comp_answer","","","","","","","","","","","","","",""
"comp-q","104","570908","0.0-3.0-15.0-0.1-0.1","spark_pilot_2","7456","6","19","Female","","","","","","","750","<p> <b> True or False? </b> </p><p> In this game, all animals have the same amount of treasure in their left and right chests. </p>","1","comp_question","","","","true","","","","","","","","","",""
"comp-q","105","577028","0.0-3.0-15.0-0.1-1.1","spark_pilot_2","7456","6","19","Female","","","","","","","885.5999999940395","<p> <b> That's right! </b> Animals have different amounts of treasure in their treasure chests. </p>","0","comp_answer","","","","","","","","","","","","","",""
"comp-q","106","583506","0.0-3.0-15.0-0.2-0.2","spark_pilot_2","7456","6","19","Female","","","","","","","644","<p> <b> True or False? </b> </p><p> The same animal will always be there if you go up in the same place. </p>","0","comp_question","","","","true","","","","","","","","","",""
"comp-q","107","590828","0.0-3.0-15.0-0.2-1.2","spark_pilot_2","7456","6","19","Female","","","","","","","884","<p> <b> That's right! </b> One animal lives in the upper part and one lives in the lower part of every place. </p>","0","comp_answer","","","","","","","","","","","","","",""
"comp-q","108","598023","0.0-3.0-15.0-0.3-0.3","spark_pilot_2","7456","6","19","Female","","","","","","","1668.300000011921","<p> <b> True or False? </b> </p><p> If you see a different picture, it means you are in a new place. </p>","0","comp_question","","","","false","","","","","","","","","",""
"comp-q","109","610193","0.0-3.0-15.0-0.3-1.3","spark_pilot_2","7456","6","19","Female","","","","","","","1080.800000011921","<p> <b>Incorrect.</b> Lots of different images may show the same place. For example,  you may see three different images that all remind you that you are in outer space. </p>","0","comp_answer","","","","","","","","","","","","","",""
"comp-q","110","616306","0.0-3.0-15.0-0.4-0.4","spark_pilot_2","7456","6","19","Female","","","","","","","612.4000000059605","<p> <b> True or False? </b> </p><p> If you see a different picture, it means you are in a new place. </p>","1","comp_question","","","","true","","","","","","","","","",""
"comp-q","111","628539","0.0-3.0-15.0-0.4-1.4","spark_pilot_2","7456","6","19","Female","","","","","","","952","<p> <b> That's right! </b> Lots of different images may show the same place. For example,  you may see three different images that all remind you that you are in outer space. </p>","0","comp_answer","","","","","","","","","","","","","",""
"learning-instructions","112","641460","0.0-3.0-16.0-0.0","spark_pilot_2","7456","6","19","Female","","","","","","","3066.699999988079","<p> Good job. Remember to do your best because the amount of treasure you earn will be converted into bonus money. </p>
            <p> It’s time to start the real game! </p>","","instructions","","","","","","","","","","","","","",""
"learning-instructions","113","645331","0.0-4.0-0.0-0.0","spark_pilot_2","7456","6","19","Female","","","","","","","1104","<p> This time you are searching for treasure in the <b>canyon</b>.</p>","","instructions","","","","","","","","","","","","","",""
"learning-instructions","114","663616","0.0-4.0-0.0-0.1","spark_pilot_2","7456","6","19","Female","","","","","","","988","<p><b>New</b> animals with <b>new</b> treasure chests live here. You need to explore to discover where the animal with the best treasure chest is.</p>
                    <p> Like before, once you figure out which animal has the chest with the most treasure, you should try to get to that animal and select that chest! </p>","","instructions","","","","","","","","","","","","","",""
"learning-instructions","115","679263","0.0-4.0-1.0-0.0","spark_pilot_2","7456","6","19","Female","","","","","","","922.9000000059605","<p> Remember, when you see a picture of the place, use the up and down keys to <b>find an animal</b>.</p>
            <p> When you encounter an animal, you should use the left and right keys to <b>select a treasure chest</b>.</p>
            <p> Don't forget to look out for the robber! </p>","","instructions","","","","","","","","","","","","","",""
"revaluation","116","685291","0.0-4.0-2.0-0.0","spark_pilot_2","7456","6","19","Female","","","false","","","","[857.3999999761581,370.59999999403954]","./assets/img/canyon/memory/15.jpg","[""ArrowUp"",""ArrowLeft""]","value training","canyon","23","{""ArrowUp,ArrowLeft"":23,""ArrowUp,ArrowRight"":10,""ArrowDown,ArrowLeft"":8,""ArrowDown,ArrowRight"":30}","false","ArrowUp,ArrowLeft","false","","","revaluation","1","0","","",""
"html-keyboard-response","117","685794","0.0-4.0-2.0-1.0","spark_pilot_2","7456","6","19","Female","","","","","","","null","<div style=""font-size:60px;"">+</div>","null","fixation","","","","","","","","","","","1","","",""
"revaluation","118","691816","0.0-4.0-2.0-0.1","spark_pilot_2","7456","6","19","Female","","","false","","","","[413.2000000178814,278.59999999403954]","./assets/img/canyon/memory/16.jpg","[""ArrowUp"",""ArrowRight""]","value training","canyon","10","{""ArrowUp,ArrowLeft"":23,""ArrowUp,ArrowRight"":10,""ArrowDown,ArrowLeft"":8,""ArrowDown,ArrowRight"":30}","false","ArrowUp,ArrowRight","false","","","revaluation","1","2","","",""
"html-keyboard-response","119","692319","0.0-4.0-2.0-1.1","spark_pilot_2","7456","6","19","Female","","","","","","","null","<div style=""font-size:60px;"">+</div>","null","fixation","","","","","","","","","","","3","","",""
"revaluation","120","698341","0.0-4.0-2.0-0.2","spark_pilot_2","7456","6","19","Female","","","false","","","","[537.0999999940395,252.7999999821186]","./assets/img/canyon/memory/11.jpg","[""ArrowDown"",""ArrowRight""]","value training","canyon","30","{""ArrowUp,ArrowLeft"":23,""ArrowUp,ArrowRight"":10,""ArrowDown,ArrowLeft"":8,""ArrowDown,ArrowRight"":30}","true","ArrowDown,ArrowRight","false","","","revaluation","1","4","","",""
"html-keyboard-response","121","698856","0.0-4.0-2.0-1.2","spark_pilot_2","7456","6","19","Female","","","","","","","null","<div style=""font-size:60px;"">+</div>","null","fixation","","","","","","","","","","","5","","",""
"revaluation","122","704878","0.0-4.0-2.0-0.3","spark_pilot_2","7456","6","19","Female","","","false","","","","[574.1999999880791,344]","./assets/img/canyon/memory/33.jpg","[""ArrowDown"",""ArrowLeft""]","value training","canyon","8","{""ArrowUp,ArrowLeft"":23,""ArrowUp,ArrowRight"":10,""ArrowDown,ArrowLeft"":8,""ArrowDown,ArrowRight"":30}","false","ArrowDown,ArrowLeft","false","","","revaluation","1","6","","",""
"html-keyboard-response","123","705383","0.0-4.0-2.0-1.3","spark_pilot_2","7456","6","19","Female","","","","","","","null","<div style=""font-size:60px;"">+</div>","null","fixation","","","","","","","","","","","7","","",""
"revaluation","124","711391","0.0-4.0-2.0-0.4","spark_pilot_2","7456","6","19","Female","","","false","","","","[462.89999997615814,315.09999999403954]","./assets/img/canyon/memory/28.jpg","[""ArrowDown"",""ArrowRight""]","value training","canyon","30","{""ArrowUp,ArrowLeft"":23,""ArrowUp,ArrowRight"":10,""ArrowDown,ArrowLeft"":8,""ArrowDown,ArrowRight"":30}","true","ArrowDown,ArrowRight","false","","","revaluation","1","8","","",""
"html-keyboard-response","125","711892","0.0-4.0-2.0-1.4","spark_pilot_2","7456","6","19","Female","","","","","","","null","<div style=""font-size:60px;"">+</div>","null","fixation","","","","","","","","","","","9","","",""
"revaluation","126","717897","0.0-4.0-2.0-0.5","spark_pilot_2","7456","6","19","Female","","","false","","","","[562.7000000178814,292.40000000596046]","./assets/img/canyon/memory/25.jpg","[""ArrowDown"",""ArrowRight""]","value training","canyon","30","{""ArrowUp,ArrowLeft"":23,""ArrowUp,ArrowRight"":10,""ArrowDown,ArrowLeft"":8,""ArrowDown,ArrowRight"":30}","true","ArrowDown,ArrowRight","false","","","revaluation","1","10","","",""
"html-keyboard-response","127","718398","0.0-4.0-2.0-1.5","spark_pilot_2","7456","6","19","Female","","","","","","","null","<div style=""font-size:60px;"">+</div>","null","fixation","","","","","","","","","","","11","","",""
"revaluation","128","724403","0.0-4.0-2.0-0.6","spark_pilot_2","7456","6","19","Female","","","false","","","","[804.9000000059605,382.69999998807907]","./assets/img/canyon/memory/21.jpg","[""ArrowDown"",""ArrowRight""]","value training","canyon","30","{""ArrowUp,ArrowLeft"":23,""ArrowUp,ArrowRight"":10,""ArrowDown,ArrowLeft"":8,""ArrowDown,ArrowRight"":30}","true","ArrowDown,ArrowRight","false","","","revaluation","1","12","","",""
"html-keyboard-response","129","724905","0.0-4.0-2.0-1.6","spark_pilot_2","7456","6","19","Female","","","","","","","null","<div style=""font-size:60px;"">+</div>","null","fixation","","","","","","","","","","","13","","",""
"revaluation","130","730909","0.0-4.0-2.0-0.7","spark_pilot_2","7456","6","19","Female","","","false","","","","[685.8000000119209,260]","./assets/img/canyon/memory/5.jpg","[""ArrowDown"",""ArrowRight""]","value training","canyon","30","{""ArrowUp,ArrowLeft"":23,""ArrowUp,ArrowRight"":10,""ArrowDown,ArrowLeft"":8,""ArrowDown,ArrowRight"":30}","true","ArrowDown,ArrowRight","false","","","revaluation","1","14","","",""
"html-keyboard-response","131","731410","0.0-4.0-2.0-1.7","spark_pilot_2","7456","6","19","Female","","","","","","","null","<div style=""font-size:60px;"">+</div>","null","fixation","","","","","","","","","","","15","","",""
"revaluation","132","737414","0.0-4.0-2.0-0.8","spark_pilot_2","7456","6","19","Female","","","false","","","","[610.6999999880791,269.5]","./assets/img/canyon/memory/37.jpg","[""ArrowDown"",""ArrowRight""]","value training","canyon","30","{""ArrowUp,ArrowLeft"":23,""ArrowUp,ArrowRight"":10,""ArrowDown,ArrowLeft"":8,""ArrowDown,ArrowRight"":30}","true","ArrowDown,ArrowRight","false","","","revaluation","1","16","","",""
"html-keyboard-response","133","737915","0.0-4.0-2.0-1.8","spark_pilot_2","7456","6","19","Female","","","","","","","null","<div style=""font-size:60px;"">+</div>","null","fixation","","","","","","","","","","","17","","",""
"revaluation","134","743919","0.0-4.0-2.0-0.9","spark_pilot_2","7456","6","19","Female","","","false","","","","[616.1999999880791,264]","./assets/img/canyon/memory/28.jpg","[""ArrowDown"",""ArrowRight""]","value training","canyon","30","{""ArrowUp,ArrowLeft"":23,""ArrowUp,ArrowRight"":10,""ArrowDown,ArrowLeft"":8,""ArrowDown,ArrowRight"":30}","true","ArrowDown,ArrowRight","false","","","revaluation","1","18","","",""
"html-keyboard-response","135","744421","0.0-4.0-2.0-1.9","spark_pilot_2","7456","6","19","Female","","","","","","","null","<div style=""font-size:60px;"">+</div>","null","fixation","","","","","","","","","","","19","","",""
"revaluation","136","750425","0.0-4.0-2.0-0.10","spark_pilot_2","7456","6","19","Female","","","false","","","","[624.5,210.09999999403954]","./assets/img/canyon/memory/20.jpg","[""ArrowDown"",""ArrowRight""]","value training","canyon","30","{""ArrowUp,ArrowLeft"":23,""ArrowUp,ArrowRight"":10,""ArrowDown,ArrowLeft"":8,""ArrowDown,ArrowRight"":30}","true","ArrowDown,ArrowRight","false","","","revaluation","1","20","","",""
"html-keyboard-response","137","750928","0.0-4.0-2.0-1.10","spark_pilot_2","7456","6","19","Female","","","","","","","null","<div style=""font-size:60px;"">+</div>","null","fixation","","","","","","","","","","","21","","",""
"revaluation","138","756934","0.0-4.0-2.0-0.11","spark_pilot_2","7456","6","19","Female","","","false","","","","[937.5,397.19999998807907]","./assets/img/canyon/memory/2.jpg","[""ArrowDown"",""ArrowRight""]","value training","canyon","30","{""ArrowUp,ArrowLeft"":23,""ArrowUp,ArrowRight"":10,""ArrowDown,ArrowLeft"":8,""ArrowDown,ArrowRight"":30}","true","ArrowDown,ArrowRight","false","","","revaluation","1","22","","",""
"html-keyboard-response","139","757436","0.0-4.0-2.0-1.11","spark_pilot_2","7456","6","19","Female","","","","","","","null","<div style=""font-size:60px;"">+</div>","null","fixation","","","","","","","","","","","23","","",""
"revaluation","140","763441","0.0-4.0-2.0-0.12","spark_pilot_2","7456","6","19","Female","","","false","","","","[922.6999999880791,331.19999998807907]","./assets/img/canyon/memory/39.jpg","[""ArrowDown"",""ArrowRight""]","value training","canyon","30","{""ArrowUp,ArrowLeft"":23,""ArrowUp,ArrowRight"":10,""ArrowDown,ArrowLeft"":8,""ArrowDown,ArrowRight"":30}","true","ArrowDown,ArrowRight","false","","","revaluation","1","24","","",""
"html-keyboard-response","141","763942","0.0-4.0-2.0-1.12","spark_pilot_2","7456","6","19","Female","","","","","","","null","<div style=""font-size:60px;"">+</div>","null","fixation","","","","","","","","","","","25","","",""
"revaluation","142","767946","0.0-4.0-2.0-0.13","spark_pilot_2","7456","6","19","Female","","","false","","","","[679.4000000059605]","./assets/img/canyon/catch/1.jpg","[""spaceBar""]","value training","canyon","0","{""ArrowUp,ArrowLeft"":23,""ArrowUp,ArrowRight"":10,""ArrowDown,ArrowLeft"":8,""ArrowDown,ArrowRight"":30}","true","spaceBar","true","","","revaluation","1","26","","",""
"html-keyboard-response","143","768447","0.0-4.0-2.0-1.13","spark_pilot_2","7456","6","19","Female","","","","","","","null","<div style=""font-size:60px;"">+</div>","null","fixation","","","","","","","","","","","27","","",""
"revaluation","144","774452","0.0-4.0-2.0-0.14","spark_pilot_2","7456","6","19","Female","","","false","","","","[734.6999999880791,249.7000000178814]","./assets/img/canyon/memory/22.jpg","[""ArrowDown"",""ArrowRight""]","value training","canyon","30","{""ArrowUp,ArrowLeft"":23,""ArrowUp,ArrowRight"":10,""ArrowDown,ArrowLeft"":8,""ArrowDown,ArrowRight"":30}","true","ArrowDown,ArrowRight","false","","","revaluation","1","28","","",""
"html-keyboard-response","145","774959","0.0-4.0-2.0-1.14","spark_pilot_2","7456","6","19","Female","","","","","","","null","<div style=""font-size:60px;"">+</div>","null","fixation","","","","","","","","","","","29","","",""
"revaluation","146","780964","0.0-4.0-2.0-0.15","spark_pilot_2","7456","6","19","Female","","","false","","","","[903.4000000059605,262.7999999821186]","./assets/img/canyon/memory/37.jpg","[""ArrowDown"",""ArrowRight""]","value training","canyon","30","{""ArrowUp,ArrowLeft"":23,""ArrowUp,ArrowRight"":10,""ArrowDown,ArrowLeft"":8,""ArrowDown,ArrowRight"":30}","true","ArrowDown,ArrowRight","false","","","revaluation","1","30","","",""
"html-keyboard-response","147","781466","0.0-4.0-2.0-1.15","spark_pilot_2","7456","6","19","Female","","","","","","","null","<div style=""font-size:60px;"">+</div>","null","fixation","","","","","","","","","","","31","","",""
"revaluation","148","787470","0.0-4.0-2.0-0.16","spark_pilot_2","7456","6","19","Female","","","false","","","","[529.3000000119209,265.30000001192093]","./assets/img/canyon/memory/3.jpg","[""ArrowDown"",""ArrowRight""]","value training","canyon","30","{""ArrowUp,ArrowLeft"":23,""ArrowUp,ArrowRight"":10,""ArrowDown,ArrowLeft"":8,""ArrowDown,ArrowRight"":30}","true","ArrowDown,ArrowRight","false","","","revaluation","1","32","","",""
"html-keyboard-response","149","787971","0.0-4.0-2.0-1.16","spark_pilot_2","7456","6","19","Female","","","","","","","null","<div style=""font-size:60px;"">+</div>","null","fixation","","","","","","","","","","","33","","",""
"revaluation","150","791975","0.0-4.0-2.0-0.17","spark_pilot_2","7456","6","19","Female","","","false","","","","[616.5999999940395]","./assets/img/canyon/catch/5.jpg","[""spaceBar""]","value training","canyon","0","{""ArrowUp,ArrowLeft"":23,""ArrowUp,ArrowRight"":10,""ArrowDown,ArrowLeft"":8,""ArrowDown,ArrowRight"":30}","true","spaceBar","true","","","revaluation","1","34","","",""
"html-keyboard-response","151","792477","0.0-4.0-2.0-1.17","spark_pilot_2","7456","6","19","Female","","","","","","","null","<div style=""font-size:60px;"">+</div>","null","fixation","","","","","","","","","","","35","","",""
"revaluation","152","796481","0.0-4.0-2.0-0.18","spark_pilot_2","7456","6","19","Female","","","false","","","","[600.5999999940395]","./assets/img/canyon/catch/7.jpg","[""spaceBar""]","value training","canyon","0","{""ArrowUp,ArrowLeft"":23,""ArrowUp,ArrowRight"":10,""ArrowDown,ArrowLeft"":8,""ArrowDown,ArrowRight"":30}","true","spaceBar","true","","","revaluation","1","36","","",""
"html-keyboard-response","153","796983","0.0-4.0-2.0-1.18","spark_pilot_2","7456","6","19","Female","","","","","","","null","<div style=""font-size:60px;"">+</div>","null","fixation","","","","","","","","","","","37","","",""
"revaluation","154","800987","0.0-4.0-2.0-0.19","spark_pilot_2","7456","6","19","Female","","","false","","","","[503.80000001192093]","./assets/img/canyon/catch/3.jpg","[""spaceBar""]","value training","canyon","0","{""ArrowUp,ArrowLeft"":23,""ArrowUp,ArrowRight"":10,""ArrowDown,ArrowLeft"":8,""ArrowDown,ArrowRight"":30}","true","spaceBar","true","","","revaluation","1","38","","",""
"html-keyboard-response","155","801488","0.0-4.0-2.0-1.19","spark_pilot_2","7456","6","19","Female","","","","","","","null","<div style=""font-size:60px;"">+</div>","null","fixation","","","","","","","","","","","39","","",""
"revaluation","156","807494","0.0-4.0-2.0-0.20","spark_pilot_2","7456","6","19","Female","","","false","","","","[686.5999999940395,262.90000000596046]","./assets/img/canyon/memory/22.jpg","[""ArrowDown"",""ArrowRight""]","value training","canyon","30","{""ArrowUp,ArrowLeft"":23,""ArrowUp,ArrowRight"":10,""ArrowDown,ArrowLeft"":8,""ArrowDown,ArrowRight"":30}","true","ArrowDown,ArrowRight","false","","","revaluation","1","40","","",""
"html-keyboard-response","157","807995","0.0-4.0-2.0-1.20","spark_pilot_2","7456","6","19","Female","","","","","","","null","<div style=""font-size:60px;"">+</div>","null","fixation","","","","","","","","","","","41","","",""
"revaluation","158","814001","0.0-4.0-2.0-0.21","spark_pilot_2","7456","6","19","Female","","","false","","","","[827.8999999761581,344.40000000596046]","./assets/img/canyon/memory/7.jpg","[""ArrowDown"",""ArrowRight""]","value training","canyon","30","{""ArrowUp,ArrowLeft"":23,""ArrowUp,ArrowRight"":10,""ArrowDown,ArrowLeft"":8,""ArrowDown,ArrowRight"":30}","true","ArrowDown,ArrowRight","false","","","revaluation","1","42","","",""
"html-keyboard-response","159","814502","0.0-4.0-2.0-1.21","spark_pilot_2","7456","6","19","Female","","","","","","","null","<div style=""font-size:60px;"">+</div>","null","fixation","","","","","","","","","","","43","","",""
"revaluation","160","820508","0.0-4.0-2.0-0.22","spark_pilot_2","7456","6","19","Female","","","false","","","","[688.7999999821186,243.90000000596046]","./assets/img/canyon/memory/20.jpg","[""ArrowDown"",""ArrowRight""]","value training","canyon","30","{""ArrowUp,ArrowLeft"":23,""ArrowUp,ArrowRight"":10,""ArrowDown,ArrowLeft"":8,""ArrowDown,ArrowRight"":30}","true","ArrowDown,ArrowRight","false","","","revaluation","1","44","","",""
"html-keyboard-response","161","821009","0.0-4.0-2.0-1.22","spark_pilot_2","7456","6","19","Female","","","","","","","null","<div style=""font-size:60px;"">+</div>","null","fixation","","","","","","","","","","","45","","",""
"revaluation","162","827014","0.0-4.0-2.0-0.23","spark_pilot_2","7456","6","19","Female","","","false","","","","[801.2999999821186,236.40000000596046]","./assets/img/canyon/memory/11.jpg","[""ArrowDown"",""ArrowRight""]","value training","canyon","30","{""ArrowUp,ArrowLeft"":23,""ArrowUp,ArrowRight"":10,""ArrowDown,ArrowLeft"":8,""ArrowDown,ArrowRight"":30}","true","ArrowDown,ArrowRight","false","","","revaluation","1","46","","",""
"html-keyboard-response","163","827515","0.0-4.0-2.0-1.23","spark_pilot_2","7456","6","19","Female","","","","","","","null","<div style=""font-size:60px;"">+</div>","null","fixation","","","","","","","","","","","47","","",""
"revaluation","164","833522","0.0-4.0-2.0-0.24","spark_pilot_2","7456","6","19","Female","","","false","","","","[619.2000000178814,232.7999999821186]","./assets/img/canyon/memory/26.jpg","[""ArrowDown"",""ArrowRight""]","value training","canyon","30","{""ArrowUp,ArrowLeft"":23,""ArrowUp,ArrowRight"":10,""ArrowDown,ArrowLeft"":8,""ArrowDown,ArrowRight"":30}","true","ArrowDown,ArrowRight","false","","","revaluation","1","48","","",""
"html-keyboard-response","165","834023","0.0-4.0-2.0-1.24","spark_pilot_2","7456","6","19","Female","","","","","","","null","<div style=""font-size:60px;"">+</div>","null","fixation","","","","","","","","","","","49","","",""
"revaluation","166","840029","0.0-4.0-2.0-0.25","spark_pilot_2","7456","6","19","Female","","","false","","","","[562.5,242.40000000596046]","./assets/img/canyon/memory/38.jpg","[""ArrowDown"",""ArrowRight""]","value training","canyon","30","{""ArrowUp,ArrowLeft"":23,""ArrowUp,ArrowRight"":10,""ArrowDown,ArrowLeft"":8,""ArrowDown,ArrowRight"":30}","true","ArrowDown,ArrowRight","false","","","revaluation","1","50","","",""
"html-keyboard-response","167","840530","0.0-4.0-2.0-1.25","spark_pilot_2","7456","6","19","Female","","","","","","","null","<div style=""font-size:60px;"">+</div>","null","fixation","","","","","","","","","","","51","","",""
"revaluation","168","846536","0.0-4.0-2.0-0.26","spark_pilot_2","7456","6","19","Female","","","false","","","","[651.4000000059605,275.19999998807907]","./assets/img/canyon/memory/9.jpg","[""ArrowDown"",""ArrowRight""]","value training","canyon","30","{""ArrowUp,ArrowLeft"":23,""ArrowUp,ArrowRight"":10,""ArrowDown,ArrowLeft"":8,""ArrowDown,ArrowRight"":30}","true","ArrowDown,ArrowRight","false","","","revaluation","1","52","","",""
"html-keyboard-response","169","847039","0.0-4.0-2.0-1.26","spark_pilot_2","7456","6","19","Female","","","","","","","null","<div style=""font-size:60px;"">+</div>","null","fixation","","","","","","","","","","","53","","",""
"revaluation","170","851043","0.0-4.0-2.0-0.27","spark_pilot_2","7456","6","19","Female","","","false","","","","[558.7000000178814]","./assets/img/canyon/catch/0.jpg","[""spaceBar""]","value training","canyon","0","{""ArrowUp,ArrowLeft"":23,""ArrowUp,ArrowRight"":10,""ArrowDown,ArrowLeft"":8,""ArrowDown,ArrowRight"":30}","true","spaceBar","true","","","revaluation","1","54","","",""
"html-keyboard-response","171","851544","0.0-4.0-2.0-1.27","spark_pilot_2","7456","6","19","Female","","","","","","","null","<div style=""font-size:60px;"">+</div>","null","fixation","","","","","","","","","","","55","","",""
"revaluation","172","855549","0.0-4.0-2.0-0.28","spark_pilot_2","7456","6","19","Female","","","false","","","","[654]","./assets/img/canyon/catch/4.jpg","[""spaceBar""]","value training","canyon","0","{""ArrowUp,ArrowLeft"":23,""ArrowUp,ArrowRight"":10,""ArrowDown,ArrowLeft"":8,""ArrowDown,ArrowRight"":30}","true","spaceBar","true","","","revaluation","1","56","","",""
"html-keyboard-response","173","856050","0.0-4.0-2.0-1.28","spark_pilot_2","7456","6","19","Female","","","","","","","null","<div style=""font-size:60px;"">+</div>","null","fixation","","","","","","","","","","","57","","",""
"revaluation","174","862065","0.0-4.0-2.0-0.29","spark_pilot_2","7456","6","19","Female","","","false","","","","[830,308]","./assets/img/canyon/memory/26.jpg","[""ArrowDown"",""ArrowRight""]","value training","canyon","30","{""ArrowUp,ArrowLeft"":23,""ArrowUp,ArrowRight"":10,""ArrowDown,ArrowLeft"":8,""ArrowDown,ArrowRight"":30}","true","ArrowDown,ArrowRight","false","","","revaluation","1","58","","",""
"html-keyboard-response","175","862567","0.0-4.0-2.0-1.29","spark_pilot_2","7456","6","19","Female","","","","","","","null","<div style=""font-size:60px;"">+</div>","null","fixation","","","","","","","","","","","59","","",""
"revaluation","176","868572","0.0-4.0-2.0-0.30","spark_pilot_2","7456","6","19","Female","","","false","","","","[580.2999999821186,262.59999999403954]","./assets/img/canyon/memory/6.jpg","[""ArrowDown"",""ArrowRight""]","value training","canyon","30","{""ArrowUp,ArrowLeft"":23,""ArrowUp,ArrowRight"":10,""ArrowDown,ArrowLeft"":8,""ArrowDown,ArrowRight"":30}","true","ArrowDown,ArrowRight","false","","","revaluation","1","60","","",""
"html-keyboard-response","177","869073","0.0-4.0-2.0-1.30","spark_pilot_2","7456","6","19","Female","","","","","","","null","<div style=""font-size:60px;"">+</div>","null","fixation","","","","","","","","","","","61","","",""
"revaluation","178","875079","0.0-4.0-2.0-0.31","spark_pilot_2","7456","6","19","Female","","","false","","","","[926.8000000119209,255.09999999403954]","./assets/img/canyon/memory/16.jpg","[""ArrowDown"",""ArrowRight""]","value training","canyon","30","{""ArrowUp,ArrowLeft"":23,""ArrowUp,ArrowRight"":10,""ArrowDown,ArrowLeft"":8,""ArrowDown,ArrowRight"":30}","true","ArrowDown,ArrowRight","false","","","revaluation","1","62","","",""
"html-keyboard-response","179","875581","0.0-4.0-2.0-1.31","spark_pilot_2","7456","6","19","Female","","","","","","","null","<div style=""font-size:60px;"">+</div>","null","fixation","","","","","","","","","","","63","","",""
"revaluation","180","881587","0.0-4.0-2.0-0.32","spark_pilot_2","7456","6","19","Female","","","false","","","","[493.59999999403954,218.10000002384186]","./assets/img/canyon/memory/5.jpg","[""ArrowDown"",""ArrowRight""]","value training","canyon","30","{""ArrowUp,ArrowLeft"":23,""ArrowUp,ArrowRight"":10,""ArrowDown,ArrowLeft"":8,""ArrowDown,ArrowRight"":30}","true","ArrowDown,ArrowRight","false","","","revaluation","1","64","","",""
"html-keyboard-response","181","882088","0.0-4.0-2.0-1.32","spark_pilot_2","7456","6","19","Female","","","","","","","null","<div style=""font-size:60px;"">+</div>","null","fixation","","","","","","","","","","","65","","",""
"revaluation","182","888092","0.0-4.0-2.0-0.33","spark_pilot_2","7456","6","19","Female","","","false","","","","[860.6999999880791,579.8000000119209]","./assets/img/canyon/memory/7.jpg","[""ArrowDown"",""ArrowRight""]","value training","canyon","30","{""ArrowUp,ArrowLeft"":23,""ArrowUp,ArrowRight"":10,""ArrowDown,ArrowLeft"":8,""ArrowDown,ArrowRight"":30}","true","ArrowDown,ArrowRight","false","","","revaluation","1","66","","",""
"html-keyboard-response","183","888593","0.0-4.0-2.0-1.33","spark_pilot_2","7456","6","19","Female","","","","","","","null","<div style=""font-size:60px;"">+</div>","null","fixation","","","","","","","","","","","67","","",""
"revaluation","184","894598","0.0-4.0-2.0-0.34","spark_pilot_2","7456","6","19","Female","","","false","","","","[521.2999999821186,204.89999997615814]","./assets/img/canyon/memory/21.jpg","[""ArrowDown"",""ArrowRight""]","value training","canyon","30","{""ArrowUp,ArrowLeft"":23,""ArrowUp,ArrowRight"":10,""ArrowDown,ArrowLeft"":8,""ArrowDown,ArrowRight"":30}","true","ArrowDown,ArrowRight","false","","","revaluation","1","68","","",""
"html-keyboard-response","185","895100","0.0-4.0-2.0-1.34","spark_pilot_2","7456","6","19","Female","","","","","","","null","<div style=""font-size:60px;"">+</div>","null","fixation","","","","","","","","","","","69","","",""
"revaluation","186","899104","0.0-4.0-2.0-0.35","spark_pilot_2","7456","6","19","Female","","","false","","","","[746.9000000059605]","./assets/img/canyon/catch/2.jpg","[""spaceBar""]","value training","canyon","0","{""ArrowUp,ArrowLeft"":23,""ArrowUp,ArrowRight"":10,""ArrowDown,ArrowLeft"":8,""ArrowDown,ArrowRight"":30}","true","spaceBar","true","","","revaluation","1","70","","",""
"html-keyboard-response","187","899606","0.0-4.0-2.0-1.35","spark_pilot_2","7456","6","19","Female","","","","","","","null","<div style=""font-size:60px;"">+</div>","null","fixation","","","","","","","","","","","71","","",""
"revaluation","188","903610","0.0-4.0-2.0-0.36","spark_pilot_2","7456","6","19","Female","","","true","","","","[]","./assets/img/canyon/memory/25.jpg","[]","value training","canyon","-5","{""ArrowUp,ArrowLeft"":23,""ArrowUp,ArrowRight"":10,""ArrowDown,ArrowLeft"":8,""ArrowDown,ArrowRight"":30}","false","","false","","","revaluation","1","72","","",""
"html-keyboard-response","189","904111","0.0-4.0-2.0-1.36","spark_pilot_2","7456","6","19","Female","","","","","","","null","<div style=""font-size:60px;"">+</div>","null","fixation","","","","","","","","","","","73","","",""
"revaluation","190","910117","0.0-4.0-2.0-0.37","spark_pilot_2","7456","6","19","Female","","","false","","","","[811.5,300.40000000596046]","./assets/img/canyon/memory/38.jpg","[""ArrowDown"",""ArrowRight""]","value training","canyon","30","{""ArrowUp,ArrowLeft"":23,""ArrowUp,ArrowRight"":10,""ArrowDown,ArrowLeft"":8,""ArrowDown,ArrowRight"":30}","true","ArrowDown,ArrowRight","false","","","revaluation","1","74","","",""
"html-keyboard-response","191","910619","0.0-4.0-2.0-1.37","spark_pilot_2","7456","6","19","Female","","","","","","","null","<div style=""font-size:60px;"">+</div>","null","fixation","","","","","","","","","","","75","","",""
"revaluation","192","914623","0.0-4.0-2.0-0.38","spark_pilot_2","7456","6","19","Female","","","false","","","","[453.7999999821186]","./assets/img/canyon/catch/6.jpg","[""spaceBar""]","value training","canyon","0","{""ArrowUp,ArrowLeft"":23,""ArrowUp,ArrowRight"":10,""ArrowDown,ArrowLeft"":8,""ArrowDown,ArrowRight"":30}","true","spaceBar","true","","","revaluation","1","76","","",""
"html-keyboard-response","193","915124","0.0-4.0-2.0-1.38","spark_pilot_2","7456","6","19","Female","","","","","","","null","<div style=""font-size:60px;"">+</div>","null","fixation","","","","","","","","","","","77","","",""
"revaluation","194","921130","0.0-4.0-2.0-0.39","spark_pilot_2","7456","6","19","Female","","","false","","","","[693.1000000238419,293.80000001192093]","./assets/img/canyon/memory/29.jpg","[""ArrowDown"",""ArrowRight""]","value training","canyon","30","{""ArrowUp,ArrowLeft"":23,""ArrowUp,ArrowRight"":10,""ArrowDown,ArrowLeft"":8,""ArrowDown,ArrowRight"":30}","true","ArrowDown,ArrowRight","false","","","revaluation","1","78","","",""
"html-keyboard-response","195","921631","0.0-4.0-2.0-1.39","spark_pilot_2","7456","6","19","Female","","","","","","","null","<div style=""font-size:60px;"">+</div>","null","fixation","","","","","","","","","","","79","","",""
"revaluation","196","927635","0.0-4.0-2.0-0.40","spark_pilot_2","7456","6","19","Female","","","false","","","","[425.59999999403954,227.90000000596046]","./assets/img/canyon/memory/33.jpg","[""ArrowDown"",""ArrowRight""]","value training","canyon","30","{""ArrowUp,ArrowLeft"":23,""ArrowUp,ArrowRight"":10,""ArrowDown,ArrowLeft"":8,""ArrowDown,ArrowRight"":30}","true","ArrowDown,ArrowRight","false","","","revaluation","1","80","","",""
"html-keyboard-response","197","928137","0.0-4.0-2.0-1.40","spark_pilot_2","7456","6","19","Female","","","","","","","null","<div style=""font-size:60px;"">+</div>","null","fixation","","","","","","","","","","","81","","",""
"revaluation","198","934142","0.0-4.0-2.0-0.41","spark_pilot_2","7456","6","19","Female","","","false","","","","[474.09999999403954,228.09999999403954]","./assets/img/canyon/memory/35.jpg","[""ArrowDown"",""ArrowRight""]","value training","canyon","30","{""ArrowUp,ArrowLeft"":23,""ArrowUp,ArrowRight"":10,""ArrowDown,ArrowLeft"":8,""ArrowDown,ArrowRight"":30}","true","ArrowDown,ArrowRight","false","","","revaluation","1","82","","",""
"html-keyboard-response","199","934646","0.0-4.0-2.0-1.41","spark_pilot_2","7456","6","19","Female","","","","","","","null","<div style=""font-size:60px;"">+</div>","null","fixation","","","","","","","","","","","83","","",""
"revaluation","200","940650","0.0-4.0-2.0-0.42","spark_pilot_2","7456","6","19","Female","","","false","","","","[396.59999999403954,451.90000000596046]","./assets/img/canyon/memory/35.jpg","[""ArrowDown"",""ArrowRight""]","value training","canyon","30","{""ArrowUp,ArrowLeft"":23,""ArrowUp,ArrowRight"":10,""ArrowDown,ArrowLeft"":8,""ArrowDown,ArrowRight"":30}","true","ArrowDown,ArrowRight","false","","","revaluation","1","84","","",""
"html-keyboard-response","201","941152","0.0-4.0-2.0-1.42","spark_pilot_2","7456","6","19","Female","","","","","","","null","<div style=""font-size:60px;"">+</div>","null","fixation","","","","","","","","","","","85","","",""
"revaluation","202","947158","0.0-4.0-2.0-0.43","spark_pilot_2","7456","6","19","Female","","","false","","","","[470,232.09999999403954]","./assets/img/canyon/memory/15.jpg","[""ArrowDown"",""ArrowRight""]","value training","canyon","30","{""ArrowUp,ArrowLeft"":23,""ArrowUp,ArrowRight"":10,""ArrowDown,ArrowLeft"":8,""ArrowDown,ArrowRight"":30}","true","ArrowDown,ArrowRight","false","","","revaluation","1","86","","",""
"html-keyboard-response","203","947659","0.0-4.0-2.0-1.43","spark_pilot_2","7456","6","19","Female","","","","","","","null","<div style=""font-size:60px;"">+</div>","null","fixation","","","","","","","","","","","87","","",""
"revaluation","204","953664","0.0-4.0-2.0-0.44","spark_pilot_2","7456","6","19","Female","","","false","","","","[731.0999999940395,712.2000000178814]","./assets/img/canyon/memory/6.jpg","[""ArrowDown"",""ArrowRight""]","value training","canyon","30","{""ArrowUp,ArrowLeft"":23,""ArrowUp,ArrowRight"":10,""ArrowDown,ArrowLeft"":8,""ArrowDown,ArrowRight"":30}","true","ArrowDown,ArrowRight","false","","","revaluation","1","88","","",""
"html-keyboard-response","205","954166","0.0-4.0-2.0-1.44","spark_pilot_2","7456","6","19","Female","","","","","","","null","<div style=""font-size:60px;"">+</div>","null","fixation","","","","","","","","","","","89","","",""
"revaluation","206","960171","0.0-4.0-2.0-0.45","spark_pilot_2","7456","6","19","Female","","","false","","","","[745.8999999761581,262.10000002384186]","./assets/img/canyon/memory/29.jpg","[""ArrowDown"",""ArrowRight""]","value training","canyon","30","{""ArrowUp,ArrowLeft"":23,""ArrowUp,ArrowRight"":10,""ArrowDown,ArrowLeft"":8,""ArrowDown,ArrowRight"":30}","true","ArrowDown,ArrowRight","false","","","revaluation","1","90","","",""
"html-keyboard-response","207","960673","0.0-4.0-2.0-1.45","spark_pilot_2","7456","6","19","Female","","","","","","","null","<div style=""font-size:60px;"">+</div>","null","fixation","","","","","","","","","","","91","","",""
"revaluation","208","966678","0.0-4.0-2.0-0.46","spark_pilot_2","7456","6","19","Female","","","false","","","","[674.1999999880791,501.59999999403954]","./assets/img/canyon/memory/9.jpg","[""ArrowDown"",""ArrowRight""]","value training","canyon","30","{""ArrowUp,ArrowLeft"":23,""ArrowUp,ArrowRight"":10,""ArrowDown,ArrowLeft"":8,""ArrowDown,ArrowRight"":30}","true","ArrowDown,ArrowRight","false","","","revaluation","1","92","","",""
"html-keyboard-response","209","967180","0.0-4.0-2.0-1.46","spark_pilot_2","7456","6","19","Female","","","","","","","null","<div style=""font-size:60px;"">+</div>","null","fixation","","","","","","","","","","","93","","",""
"revaluation","210","973186","0.0-4.0-2.0-0.47","spark_pilot_2","7456","6","19","Female","","","false","","","","[405,367.5]","./assets/img/canyon/memory/3.jpg","[""ArrowDown"",""ArrowRight""]","value training","canyon","30","{""ArrowUp,ArrowLeft"":23,""ArrowUp,ArrowRight"":10,""ArrowDown,ArrowLeft"":8,""ArrowDown,ArrowRight"":30}","true","ArrowDown,ArrowRight","false","","","revaluation","1","94","","",""
"html-keyboard-response","211","973687","0.0-4.0-2.0-1.47","spark_pilot_2","7456","6","19","Female","","","","","","","null","<div style=""font-size:60px;"">+</div>","null","fixation","","","","","","","","","","","95","","",""
"revaluation","212","979691","0.0-4.0-2.0-0.48","spark_pilot_2","7456","6","19","Female","","","false","","","","[764.6000000238419,293.40000000596046]","./assets/img/canyon/memory/39.jpg","[""ArrowDown"",""ArrowRight""]","value training","canyon","30","{""ArrowUp,ArrowLeft"":23,""ArrowUp,ArrowRight"":10,""ArrowDown,ArrowLeft"":8,""ArrowDown,ArrowRight"":30}","true","ArrowDown,ArrowRight","false","","","revaluation","1","96","","",""
"html-keyboard-response","213","980193","0.0-4.0-2.0-1.48","spark_pilot_2","7456","6","19","Female","","","","","","","null","<div style=""font-size:60px;"">+</div>","null","fixation","","","","","","","","","","","97","","",""
"revaluation","214","986196","0.0-4.0-2.0-0.49","spark_pilot_2","7456","6","19","Female","","","false","","","","[532.9000000059605,234.59999999403954]","./assets/img/canyon/memory/2.jpg","[""ArrowDown"",""ArrowRight""]","value training","canyon","30","{""ArrowUp,ArrowLeft"":23,""ArrowUp,ArrowRight"":10,""ArrowDown,ArrowLeft"":8,""ArrowDown,ArrowRight"":30}","true","ArrowDown,ArrowRight","false","","","revaluation","1","98","","",""
"html-keyboard-response","215","986698","0.0-4.0-2.0-1.49","spark_pilot_2","7456","6","19","Female","","","","","","","null","<div style=""font-size:60px;"">+</div>","null","fixation","","","","","","","","","","","99","","",""
"learning-instructions","216","1110316","0.0-4.0-3.0-0.0","spark_pilot_2","7456","6","19","Female","","","","","","","110484.39999997616","<p> Now, you will travel with a friend who will choose whether you go up or down first. </p>
            <p> On these turns, you will just see the animal that they found. You will still get to choose which chest to search for treasure.</p>","","instructions","","","","","","","","","","","","","",""
"revaluation","217","1114321","0.0-4.0-4.0-0.0","spark_pilot_2","7456","6","19","Female","","","false","","","","[1180.199999988079]","./assets/img/canyon/animals/lion.jpg","[""ArrowLeft""]","revaluation","canyon","27","{""ArrowUp,ArrowLeft"":27,""ArrowUp,ArrowRight"":15,""ArrowDown,ArrowLeft"":21,""ArrowDown,ArrowRight"":7}","true","ArrowUp,ArrowLeft","","","","revaluation","1","0","","",""
"html-keyboard-response","218","1114824","0.0-4.0-4.0-1.0","spark_pilot_2","7456","6","19","Female","","","","","","","null","<div style=""font-size:60px;"">+</div>","null","fixation","","","","","","","","","","","1","","",""
"revaluation","219","1118833","0.0-4.0-4.0-0.1","spark_pilot_2","7456","6","19","Female","","","false","","","","[557.2999999821186]","./assets/img/canyon/animals/lion.jpg","[""ArrowLeft""]","revaluation","canyon","27","{""ArrowUp,ArrowLeft"":27,""ArrowUp,ArrowRight"":15,""ArrowDown,ArrowLeft"":21,""ArrowDown,ArrowRight"":7}","true","ArrowUp,ArrowLeft","","","","revaluation","1","2","","",""
"html-keyboard-response","220","1119349","0.0-4.0-4.0-1.1","spark_pilot_2","7456","6","19","Female","","","","","","","null","<div style=""font-size:60px;"">+</div>","null","fixation","","","","","","","","","","","3","","",""
"revaluation","221","1123352","0.0-4.0-4.0-0.2","spark_pilot_2","7456","6","19","Female","","","false","","","","[567.7000000178814]","./assets/img/canyon/animals/giraffe.jpg","[""ArrowRight""]","revaluation","canyon","7","{""ArrowUp,ArrowLeft"":27,""ArrowUp,ArrowRight"":15,""ArrowDown,ArrowLeft"":21,""ArrowDown,ArrowRight"":7}","false","ArrowDown,ArrowRight","","","","revaluation","1","4","","",""
"html-keyboard-response","222","1123853","0.0-4.0-4.0-1.2","spark_pilot_2","7456","6","19","Female","","","","","","","null","<div style=""font-size:60px;"">+</div>","null","fixation","","","","","","","","","","","5","","",""
"revaluation","223","1127858","0.0-4.0-4.0-0.3","spark_pilot_2","7456","6","19","Female","","","false","","","","[421.7999999821186]","./assets/img/canyon/animals/lion.jpg","[""ArrowLeft""]","revaluation","canyon","27","{""ArrowUp,ArrowLeft"":27,""ArrowUp,ArrowRight"":15,""ArrowDown,ArrowLeft"":21,""ArrowDown,ArrowRight"":7}","true","ArrowUp,ArrowLeft","","","","revaluation","1","6","","",""
"html-keyboard-response","224","1128360","0.0-4.0-4.0-1.3","spark_pilot_2","7456","6","19","Female","","","","","","","null","<div style=""font-size:60px;"">+</div>","null","fixation","","","","","","","","","","","7","","",""
"revaluation","225","1132364","0.0-4.0-4.0-0.4","spark_pilot_2","7456","6","19","Female","","","false","","","","[454]","./assets/img/canyon/animals/lion.jpg","[""ArrowLeft""]","revaluation","canyon","27","{""ArrowUp,ArrowLeft"":27,""ArrowUp,ArrowRight"":15,""ArrowDown,ArrowLeft"":21,""ArrowDown,ArrowRight"":7}","true","ArrowUp,ArrowLeft","","","","revaluation","1","8","","",""
"html-keyboard-response","226","1132866","0.0-4.0-4.0-1.4","spark_pilot_2","7456","6","19","Female","","","","","","","null","<div style=""font-size:60px;"">+</div>","null","fixation","","","","","","","","","","","9","","",""
"revaluation","227","1136870","0.0-4.0-4.0-0.5","spark_pilot_2","7456","6","19","Female","","","false","","","","[343.40000000596046]","./assets/img/canyon/animals/giraffe.jpg","[""ArrowLeft""]","revaluation","canyon","21","{""ArrowUp,ArrowLeft"":27,""ArrowUp,ArrowRight"":15,""ArrowDown,ArrowLeft"":21,""ArrowDown,ArrowRight"":7}","true","ArrowDown,ArrowLeft","","","","revaluation","1","10","","",""
"html-keyboard-response","228","1137372","0.0-4.0-4.0-1.5","spark_pilot_2","7456","6","19","Female","","","","","","","null","<div style=""font-size:60px;"">+</div>","null","fixation","","","","","","","","","","","11","","",""
"revaluation","229","1141377","0.0-4.0-4.0-0.6","spark_pilot_2","7456","6","19","Female","","","false","","","","[395.30000001192093]","./assets/img/canyon/animals/giraffe.jpg","[""ArrowLeft""]","revaluation","canyon","21","{""ArrowUp,ArrowLeft"":27,""ArrowUp,ArrowRight"":15,""ArrowDown,ArrowLeft"":21,""ArrowDown,ArrowRight"":7}","true","ArrowDown,ArrowLeft","","","","revaluation","1","12","","",""
"html-keyboard-response","230","1141878","0.0-4.0-4.0-1.6","spark_pilot_2","7456","6","19","Female","","","","","","","null","<div style=""font-size:60px;"">+</div>","null","fixation","","","","","","","","","","","13","","",""
"revaluation","231","1145882","0.0-4.0-4.0-0.7","spark_pilot_2","7456","6","19","Female","","","false","","","","[339.7999999821186]","./assets/img/canyon/animals/lion.jpg","[""ArrowRight""]","revaluation","canyon","15","{""ArrowUp,ArrowLeft"":27,""ArrowUp,ArrowRight"":15,""ArrowDown,ArrowLeft"":21,""ArrowDown,ArrowRight"":7}","false","ArrowUp,ArrowRight","","","","revaluation","1","14","","",""
"html-keyboard-response","232","1146383","0.0-4.0-4.0-1.7","spark_pilot_2","7456","6","19","Female","","","","","","","null","<div style=""font-size:60px;"">+</div>","null","fixation","","","","","","","","","","","15","","",""
"revaluation","233","1150387","0.0-4.0-4.0-0.8","spark_pilot_2","7456","6","19","Female","","","false","","","","[237.39999997615814]","./assets/img/canyon/animals/giraffe.jpg","[""ArrowLeft""]","revaluation","canyon","21","{""ArrowUp,ArrowLeft"":27,""ArrowUp,ArrowRight"":15,""ArrowDown,ArrowLeft"":21,""ArrowDown,ArrowRight"":7}","true","ArrowDown,ArrowLeft","","","","revaluation","1","16","","",""
"html-keyboard-response","234","1150888","0.0-4.0-4.0-1.8","spark_pilot_2","7456","6","19","Female","","","","","","","null","<div style=""font-size:60px;"">+</div>","null","fixation","","","","","","","","","","","17","","",""
"revaluation","235","1154892","0.0-4.0-4.0-0.9","spark_pilot_2","7456","6","19","Female","","","false","","","","[293.30000001192093]","./assets/img/canyon/animals/giraffe.jpg","[""ArrowLeft""]","revaluation","canyon","21","{""ArrowUp,ArrowLeft"":27,""ArrowUp,ArrowRight"":15,""ArrowDown,ArrowLeft"":21,""ArrowDown,ArrowRight"":7}","true","ArrowDown,ArrowLeft","","","","revaluation","1","18","","",""
"html-keyboard-response","236","1155393","0.0-4.0-4.0-1.9","spark_pilot_2","7456","6","19","Female","","","","","","","null","<div style=""font-size:60px;"">+</div>","null","fixation","","","","","","","","","","","19","","",""
"revaluation","237","1159397","0.0-4.0-4.0-0.10","spark_pilot_2","7456","6","19","Female","","","false","","","","[201]","./assets/img/canyon/animals/lion.jpg","[""ArrowLeft""]","revaluation","canyon","27","{""ArrowUp,ArrowLeft"":27,""ArrowUp,ArrowRight"":15,""ArrowDown,ArrowLeft"":21,""ArrowDown,ArrowRight"":7}","true","ArrowUp,ArrowLeft","","","","revaluation","1","20","","",""
"html-keyboard-response","238","1159898","0.0-4.0-4.0-1.10","spark_pilot_2","7456","6","19","Female","","","","","","","null","<div style=""font-size:60px;"">+</div>","null","fixation","","","","","","","","","","","21","","",""
"revaluation","239","1163903","0.0-4.0-4.0-0.11","spark_pilot_2","7456","6","19","Female","","","false","","","","[253.30000001192093]","./assets/img/canyon/animals/giraffe.jpg","[""ArrowLeft""]","revaluation","canyon","21","{""ArrowUp,ArrowLeft"":27,""ArrowUp,ArrowRight"":15,""ArrowDown,ArrowLeft"":21,""ArrowDown,ArrowRight"":7}","true","ArrowDown,ArrowLeft","","","","revaluation","1","22","","",""
"html-keyboard-response","240","1164404","0.0-4.0-4.0-1.11","spark_pilot_2","7456","6","19","Female","","","","","","","null","<div style=""font-size:60px;"">+</div>","null","fixation","","","","","","","","","","","23","","",""
"revaluation","241","1168409","0.0-4.0-4.0-0.12","spark_pilot_2","7456","6","19","Female","","","false","","","","[269.09999999403954]","./assets/img/canyon/animals/lion.jpg","[""ArrowLeft""]","revaluation","canyon","27","{""ArrowUp,ArrowLeft"":27,""ArrowUp,ArrowRight"":15,""ArrowDown,ArrowLeft"":21,""ArrowDown,ArrowRight"":7}","true","ArrowUp,ArrowLeft","","","","revaluation","1","24","","",""
"html-keyboard-response","242","1168911","0.0-4.0-4.0-1.12","spark_pilot_2","7456","6","19","Female","","","","","","","null","<div style=""font-size:60px;"">+</div>","null","fixation","","","","","","","","","","","25","","",""
"revaluation","243","1172915","0.0-4.0-4.0-0.13","spark_pilot_2","7456","6","19","Female","","","false","","","","[426]","./assets/img/canyon/animals/lion.jpg","[""ArrowLeft""]","revaluation","canyon","27","{""ArrowUp,ArrowLeft"":27,""ArrowUp,ArrowRight"":15,""ArrowDown,ArrowLeft"":21,""ArrowDown,ArrowRight"":7}","true","ArrowUp,ArrowLeft","","","","revaluation","1","26","","",""
"html-keyboard-response","244","1173416","0.0-4.0-4.0-1.13","spark_pilot_2","7456","6","19","Female","","","","","","","null","<div style=""font-size:60px;"">+</div>","null","fixation","","","","","","","","","","","27","","",""
"revaluation","245","1177420","0.0-4.0-4.0-0.14","spark_pilot_2","7456","6","19","Female","","","false","","","","[398.60000002384186]","./assets/img/canyon/animals/lion.jpg","[""ArrowLeft""]","revaluation","canyon","27","{""ArrowUp,ArrowLeft"":27,""ArrowUp,ArrowRight"":15,""ArrowDown,ArrowLeft"":21,""ArrowDown,ArrowRight"":7}","true","ArrowUp,ArrowLeft","","","","revaluation","1","28","","",""
"html-keyboard-response","246","1177922","0.0-4.0-4.0-1.14","spark_pilot_2","7456","6","19","Female","","","","","","","null","<div style=""font-size:60px;"">+</div>","null","fixation","","","","","","","","","","","29","","",""
"revaluation","247","1181926","0.0-4.0-4.0-0.15","spark_pilot_2","7456","6","19","Female","","","false","","","","[256.5]","./assets/img/canyon/animals/giraffe.jpg","[""ArrowLeft""]","revaluation","canyon","21","{""ArrowUp,ArrowLeft"":27,""ArrowUp,ArrowRight"":15,""ArrowDown,ArrowLeft"":21,""ArrowDown,ArrowRight"":7}","true","ArrowDown,ArrowLeft","","","","revaluation","1","30","","",""
"html-keyboard-response","248","1182428","0.0-4.0-4.0-1.15","spark_pilot_2","7456","6","19","Female","","","","","","","null","<div style=""font-size:60px;"">+</div>","null","fixation","","","","","","","","","","","31","","",""
"revaluation","249","1186432","0.0-4.0-4.0-0.16","spark_pilot_2","7456","6","19","Female","","","false","","","","[418.30000001192093]","./assets/img/canyon/animals/giraffe.jpg","[""ArrowLeft""]","revaluation","canyon","21","{""ArrowUp,ArrowLeft"":27,""ArrowUp,ArrowRight"":15,""ArrowDown,ArrowLeft"":21,""ArrowDown,ArrowRight"":7}","true","ArrowDown,ArrowLeft","","","","revaluation","1","32","","",""
"html-keyboard-response","250","1186934","0.0-4.0-4.0-1.16","spark_pilot_2","7456","6","19","Female","","","","","","","null","<div style=""font-size:60px;"">+</div>","null","fixation","","","","","","","","","","","33","","",""
"revaluation","251","1190937","0.0-4.0-4.0-0.17","spark_pilot_2","7456","6","19","Female","","","false","","","","[319.40000000596046]","./assets/img/canyon/animals/giraffe.jpg","[""ArrowLeft""]","revaluation","canyon","21","{""ArrowUp,ArrowLeft"":27,""ArrowUp,ArrowRight"":15,""ArrowDown,ArrowLeft"":21,""ArrowDown,ArrowRight"":7}","true","ArrowDown,ArrowLeft","","","","revaluation","1","34","","",""
"html-keyboard-response","252","1191439","0.0-4.0-4.0-1.17","spark_pilot_2","7456","6","19","Female","","","","","","","null","<div style=""font-size:60px;"">+</div>","null","fixation","","","","","","","","","","","35","","",""
"learning-instructions","253","1206888","0.0-4.0-5.0-0.0","spark_pilot_2","7456","6","19","Female","","","","","","","3824","<p> Time to play the dot game! </p>
            <p> For one minute, click the red dots on the following screen as they appear. </p>
            <p><b> Don't look away, as you will earn bonus for clicking dots</b>. </p>","","instructions","","","","","","","","","","","","","",""
"revaluation","254","1266890","0.0-4.0-6.0-0.0","spark_pilot_2","7456","6","19","Female","","","","","","","[43,75,40,43,40,51,41]","","","rest","","70","","","","","0","60000","","","","","",""
"learning-instructions","255","1282887","0.0-4.0-7.0-0.0","spark_pilot_2","7456","6","19","Female","","","","","","","9654.200000017881","<p> You have almost finished this part of the game! </p>
            <p> We are going to ask you to make a few more choices. </p>","","instructions","","","","","","","","","","","","","",""
"learning-instructions","256","1297722","0.0-4.0-7.0-0.1","spark_pilot_2","7456","6","19","Female","","","","","","","862.3000000119209","<p> First, you need to decide whether to go up or down. When you see each picture, use the arrow keys to make your choice. </p>
            <p><b>You will not see which animal you found, but try to get to the one that will give you the most treasure.</b></p>","","instructions","","","","","","","","","","","","","",""
"revaluation","257","1298755","0.0-4.0-8.0-0.0","spark_pilot_2","7456","6","19","Female","","","false","","","","[1031.5]","./assets/img/canyon/test/2.jpg","[""ArrowUp""]","first stage test","canyon","0","{""ArrowUp,ArrowLeft"":27,""ArrowUp,ArrowRight"":15,""ArrowDown,ArrowLeft"":21,""ArrowDown,ArrowRight"":7}","true","ArrowUp","false","","","revaluation","1","","","",""
"html-keyboard-response","258","1299263","0.0-4.0-8.0-1.0","spark_pilot_2","7456","6","19","Female","","","","","","","null","<div style=""font-size:60px;"">+</div>","null","fixation","","","","","","","","","","","","","",""
"revaluation","259","1301856","0.0-4.0-8.0-0.1","spark_pilot_2","7456","6","19","Female","","","false","","","","[2590.199999988079]","./assets/img/canyon/test/0.jpg","[""ArrowUp""]","first stage test","canyon","0","{""ArrowUp,ArrowLeft"":27,""ArrowUp,ArrowRight"":15,""ArrowDown,ArrowLeft"":21,""ArrowDown,ArrowRight"":7}","true","ArrowUp","false","","","revaluation","1","","","",""
"html-keyboard-response","260","1302371","0.0-4.0-8.0-1.1","spark_pilot_2","7456","6","19","Female","","","","","","","null","<div style=""font-size:60px;"">+</div>","null","fixation","","","","","","","","","","","","","",""
"revaluation","261","1304764","0.0-4.0-8.0-0.2","spark_pilot_2","7456","6","19","Female","","","false","","","","[2391.199999988079]","./assets/img/canyon/test/1.jpg","[""ArrowDown""]","first stage test","canyon","0","{""ArrowUp,ArrowLeft"":27,""ArrowUp,ArrowRight"":15,""ArrowDown,ArrowLeft"":21,""ArrowDown,ArrowRight"":7}","false","ArrowDown","false","","","revaluation","1","","","",""
"html-keyboard-response","262","1305277","0.0-4.0-8.0-1.2","spark_pilot_2","7456","6","19","Female","","","","","","","null","<div style=""font-size:60px;"">+</div>","null","fixation","","","","","","","","","","","","","",""
"revaluation","263","1305645","0.0-4.0-8.0-0.3","spark_pilot_2","7456","6","19","Female","","","false","","","","[365.5]","./assets/img/canyon/test/3.jpg","[""ArrowDown""]","first stage test","canyon","0","{""ArrowUp,ArrowLeft"":27,""ArrowUp,ArrowRight"":15,""ArrowDown,ArrowLeft"":21,""ArrowDown,ArrowRight"":7}","false","ArrowDown","false","","","revaluation","1","","","",""
"html-keyboard-response","264","1306152","0.0-4.0-8.0-1.3","spark_pilot_2","7456","6","19","Female","","","","","","","null","<div style=""font-size:60px;"">+</div>","null","fixation","","","","","","","","","","","","","",""
"learning-instructions","265","1319378","0.0-4.0-9.0-0.0","spark_pilot_2","7456","6","19","Female","","","","","","","1879.199999988079","<p> Now you will see the animals again and can search their chests for treasure. </p>
            <p> This time, you will not see how much treasure you earned, but you will earn more bonus money for making better choices. </p>","","instructions","","","","","","","","","","","","","",""
"revaluation","266","1320250","0.0-4.0-10.0-0.0","spark_pilot_2","7456","6","19","Female","","","false","","","","[870]","./assets/img/canyon/animals/lion.jpg","[""ArrowLeft""]","second stage test","canyon","0","{""ArrowUp,ArrowLeft"":27,""ArrowUp,ArrowRight"":15,""ArrowDown,ArrowLeft"":21,""ArrowDown,ArrowRight"":7}","true","ArrowUp,ArrowLeft","","","","revaluation","1","","","",""
"html-keyboard-response","267","1320762","0.0-4.0-10.0-1.0","spark_pilot_2","7456","6","19","Female","","","","","","","null","<div style=""font-size:60px;"">+</div>","null","fixation","","","","","","","","","","","","","",""
"revaluation","268","1321094","0.0-4.0-10.0-0.1","spark_pilot_2","7456","6","19","Female","","","false","","","","[329]","./assets/img/canyon/animals/lion.jpg","[""ArrowLeft""]","second stage test","canyon","0","{""ArrowUp,ArrowLeft"":27,""ArrowUp,ArrowRight"":15,""ArrowDown,ArrowLeft"":21,""ArrowDown,ArrowRight"":7}","true","ArrowUp,ArrowLeft","","","","revaluation","1","","","",""
"html-keyboard-response","269","1321605","0.0-4.0-10.0-1.1","spark_pilot_2","7456","6","19","Female","","","","","","","null","<div style=""font-size:60px;"">+</div>","null","fixation","","","","","","","","","","","","","",""
"revaluation","270","1321871","0.0-4.0-10.0-0.2","spark_pilot_2","7456","6","19","Female","","","false","","","","[264.09999999403954]","./assets/img/canyon/animals/lion.jpg","[""ArrowLeft""]","second stage test","canyon","0","{""ArrowUp,ArrowLeft"":27,""ArrowUp,ArrowRight"":15,""ArrowDown,ArrowLeft"":21,""ArrowDown,ArrowRight"":7}","true","ArrowUp,ArrowLeft","","","","revaluation","1","","","",""
"html-keyboard-response","271","1322386","0.0-4.0-10.0-1.2","spark_pilot_2","7456","6","19","Female","","","","","","","null","<div style=""font-size:60px;"">+</div>","null","fixation","","","","","","","","","","","","","",""
"revaluation","272","1322652","0.0-4.0-10.0-0.3","spark_pilot_2","7456","6","19","Female","","","false","","","","[264.7999999821186]","./assets/img/canyon/animals/lion.jpg","[""ArrowLeft""]","second stage test","canyon","0","{""ArrowUp,ArrowLeft"":27,""ArrowUp,ArrowRight"":15,""ArrowDown,ArrowLeft"":21,""ArrowDown,ArrowRight"":7}","true","ArrowUp,ArrowLeft","","","","revaluation","1","","","",""
"html-keyboard-response","273","1323157","0.0-4.0-10.0-1.3","spark_pilot_2","7456","6","19","Female","","","","","","","null","<div style=""font-size:60px;"">+</div>","null","fixation","","","","","","","","","","","","","",""
"revaluation","274","1323403","0.0-4.0-10.0-0.4","spark_pilot_2","7456","6","19","Female","","","false","","","","[244.30000001192093]","./assets/img/canyon/animals/giraffe.jpg","[""ArrowLeft""]","second stage test","canyon","0","{""ArrowUp,ArrowLeft"":27,""ArrowUp,ArrowRight"":15,""ArrowDown,ArrowLeft"":21,""ArrowDown,ArrowRight"":7}","true","ArrowDown,ArrowLeft","","","","revaluation","1","","","",""
"html-keyboard-response","275","1323917","0.0-4.0-10.0-1.4","spark_pilot_2","7456","6","19","Female","","","","","","","null","<div style=""font-size:60px;"">+</div>","null","fixation","","","","","","","","","","","","","",""
"revaluation","276","1324113","0.0-4.0-10.0-0.5","spark_pilot_2","7456","6","19","Female","","","false","","","","[193.09999999403954]","./assets/img/canyon/animals/giraffe.jpg","[""ArrowLeft""]","second stage test","canyon","0","{""ArrowUp,ArrowLeft"":27,""ArrowUp,ArrowRight"":15,""ArrowDown,ArrowLeft"":21,""ArrowDown,ArrowRight"":7}","true","ArrowDown,ArrowLeft","","","","revaluation","1","","","",""
"html-keyboard-response","277","1324615","0.0-4.0-10.0-1.5","spark_pilot_2","7456","6","19","Female","","","","","","","null","<div style=""font-size:60px;"">+</div>","null","fixation","","","","","","","","","","","","","",""
"revaluation","278","1324713","0.0-4.0-10.0-0.6","spark_pilot_2","7456","6","19","Female","","","false","","","","[95.89999997615814]","./assets/img/canyon/animals/giraffe.jpg","[""ArrowLeft""]","second stage test","canyon","0","{""ArrowUp,ArrowLeft"":27,""ArrowUp,ArrowRight"":15,""ArrowDown,ArrowLeft"":21,""ArrowDown,ArrowRight"":7}","true","ArrowDown,ArrowLeft","","","","revaluation","1","","","",""
"html-keyboard-response","279","1325226","0.0-4.0-10.0-1.6","spark_pilot_2","7456","6","19","Female","","","","","","","null","<div style=""font-size:60px;"">+</div>","null","fixation","","","","","","","","","","","","","",""
"revaluation","280","1325416","0.0-4.0-10.0-0.7","spark_pilot_2","7456","6","19","Female","","","false","","","","[188.19999998807907]","./assets/img/canyon/animals/giraffe.jpg","[""ArrowLeft""]","second stage test","canyon","0","{""ArrowUp,ArrowLeft"":27,""ArrowUp,ArrowRight"":15,""ArrowDown,ArrowLeft"":21,""ArrowDown,ArrowRight"":7}","true","ArrowDown,ArrowLeft","","","","revaluation","1","","","",""
"html-keyboard-response","281","1325919","0.0-4.0-10.0-1.7","spark_pilot_2","7456","6","19","Female","","","","","","","null","<div style=""font-size:60px;"">+</div>","null","fixation","","","","","","","","","","","","","",""
"learning-instructions","282","1329941","0.0-4.0-0.1-0.2","spark_pilot_2","7456","6","19","Female","","","","","","","1315.699999988079","<p> This time you are searching for treasure in the <b>ocean</b>.</p>","","instructions","","","","","","","","","","","","","",""
"learning-instructions","283","1425080","0.0-4.0-0.1-0.3","spark_pilot_2","7456","6","19","Female","","","","","","","77885.89999997616","<p><b>New</b> animals with <b>new</b> treasure chests live here. You need to explore to discover where the animal with the best treasure chest is.</p>
                    <p> Like before, once you figure out which animal has the chest with the most treasure, you should try to get to that animal and select that chest! </p>","","instructions","","","","","","","","","","","","","",""
"learning-instructions","284","1440855","0.0-4.0-1.1-0.1","spark_pilot_2","7456","6","19","Female","","","","","","","817.2000000178814","<p> Remember, when you see a picture of the place, use the up and down keys to <b>find an animal</b>.</p>
            <p> When you encounter an animal, you should use the left and right keys to <b>select a treasure chest</b>.</p>
            <p> Don't forget to look out for the robber! </p>","","instructions","","","","","","","","","","","","","",""
"revaluation","285","1444864","0.0-4.0-2.1-0.50","spark_pilot_2","7456","6","19","Female","","","false","","","","[774.3000000119209]","./assets/img/ocean/catch/7.jpg","[""ArrowUp""]","value training","ocean","-10","{""ArrowUp,ArrowLeft"":26,""ArrowUp,ArrowRight"":10,""ArrowDown,ArrowLeft"":5,""ArrowDown,ArrowRight"":17}","false","ArrowUp","true","","","original","2","0","","",""
"html-keyboard-response","286","1445365","0.0-4.0-2.1-1.50","spark_pilot_2","7456","6","19","Female","","","","","","","null","<div style=""font-size:60px;"">+</div>","null","fixation","","","","","","","","","","","1","","",""
"revaluation","287","1449385","0.0-4.0-2.1-0.51","spark_pilot_2","7456","6","19","Female","","","false","","","","[697.1000000238419]","./assets/img/ocean/catch/1.jpg","[""spaceBar""]","value training","ocean","0","{""ArrowUp,ArrowLeft"":26,""ArrowUp,ArrowRight"":10,""ArrowDown,ArrowLeft"":5,""ArrowDown,ArrowRight"":17}","true","spaceBar","true","","","original","2","2","","",""
"html-keyboard-response","288","1449903","0.0-4.0-2.1-1.51","spark_pilot_2","7456","6","19","Female","","","","","","","null","<div style=""font-size:60px;"">+</div>","null","fixation","","","","","","","","","","","3","","",""
"revaluation","289","1455917","0.0-4.0-2.1-0.52","spark_pilot_2","7456","6","19","Female","","","false","","","","[543.3000000119209,344.09999999403954]","./assets/img/ocean/memory/25.jpg","[""ArrowUp"",""ArrowLeft""]","value training","ocean","26","{""ArrowUp,ArrowLeft"":26,""ArrowUp,ArrowRight"":10,""ArrowDown,ArrowLeft"":5,""ArrowDown,ArrowRight"":17}","true","ArrowUp,ArrowLeft","false","","","original","2","4","","",""
"html-keyboard-response","290","1456424","0.0-4.0-2.1-1.52","spark_pilot_2","7456","6","19","Female","","","","","","","null","<div style=""font-size:60px;"">+</div>","null","fixation","","","","","","","","","","","5","","",""
"revaluation","291","1462445","0.0-4.0-2.1-0.53","spark_pilot_2","7456","6","19","Female","","","false","","","","[904.2000000178814,370.30000001192093]","./assets/img/ocean/memory/20.jpg","[""ArrowUp"",""ArrowRight""]","value training","ocean","10","{""ArrowUp,ArrowLeft"":26,""ArrowUp,ArrowRight"":10,""ArrowDown,ArrowLeft"":5,""ArrowDown,ArrowRight"":17}","false","ArrowUp,ArrowRight","false","","","original","2","6","","",""
"html-keyboard-response","292","1462960","0.0-4.0-2.1-1.53","spark_pilot_2","7456","6","19","Female","","","","","","","null","<div style=""font-size:60px;"">+</div>","null","fixation","","","","","","","","","","","7","","",""
"revaluation","293","1468996","0.0-4.0-2.1-0.54","spark_pilot_2","7456","6","19","Female","","","false","","","","[798.5,549.5999999940395]","./assets/img/ocean/memory/9.jpg","[""ArrowDown"",""ArrowLeft""]","value training","ocean","5","{""ArrowUp,ArrowLeft"":26,""ArrowUp,ArrowRight"":10,""ArrowDown,ArrowLeft"":5,""ArrowDown,ArrowRight"":17}","false","ArrowDown,ArrowLeft","false","","","original","2","8","","",""
"html-keyboard-response","294","1469499","0.0-4.0-2.1-1.54","spark_pilot_2","7456","6","19","Female","","","","","","","null","<div style=""font-size:60px;"">+</div>","null","fixation","","","","","","","","","","","9","","",""
"revaluation","295","1475503","0.0-4.0-2.1-0.55","spark_pilot_2","7456","6","19","Female","","","false","","","","[495.40000000596046,242.69999998807907]","./assets/img/ocean/memory/11.jpg","[""ArrowDown"",""ArrowRight""]","value training","ocean","17","{""ArrowUp,ArrowLeft"":26,""ArrowUp,ArrowRight"":10,""ArrowDown,ArrowLeft"":5,""ArrowDown,ArrowRight"":17}","false","ArrowDown,ArrowRight","false","","","original","2","10","","",""
"html-keyboard-response","296","1476005","0.0-4.0-2.1-1.55","spark_pilot_2","7456","6","19","Female","","","","","","","null","<div style=""font-size:60px;"">+</div>","null","fixation","","","","","","","","","","","11","","",""
"revaluation","297","1482010","0.0-4.0-2.1-0.56","spark_pilot_2","7456","6","19","Female","","","false","","","","[524.0999999940395,263.30000001192093]","./assets/img/ocean/memory/29.jpg","[""ArrowUp"",""ArrowLeft""]","value training","ocean","26","{""ArrowUp,ArrowLeft"":26,""ArrowUp,ArrowRight"":10,""ArrowDown,ArrowLeft"":5,""ArrowDown,ArrowRight"":17}","true","ArrowUp,ArrowLeft","false","","","original","2","12","","",""
"html-keyboard-response","298","1482512","0.0-4.0-2.1-1.56","spark_pilot_2","7456","6","19","Female","","","","","","","null","<div style=""font-size:60px;"">+</div>","null","fixation","","","","","","","","","","","13","","",""
"revaluation","299","1488516","0.0-4.0-2.1-0.57","spark_pilot_2","7456","6","19","Female","","","false","","","","[428.10000002384186,228.30000001192093]","./assets/img/ocean/memory/7.jpg","[""ArrowUp"",""ArrowLeft""]","value training","ocean","26","{""ArrowUp,ArrowLeft"":26,""ArrowUp,ArrowRight"":10,""ArrowDown,ArrowLeft"":5,""ArrowDown,ArrowRight"":17}","true","ArrowUp,ArrowLeft","false","","","original","2","14","","",""
"html-keyboard-response","300","1489018","0.0-4.0-2.1-1.57","spark_pilot_2","7456","6","19","Female","","","","","","","null","<div style=""font-size:60px;"">+</div>","null","fixation","","","","","","","","","","","15","","",""
"revaluation","301","1495024","0.0-4.0-2.1-0.58","spark_pilot_2","7456","6","19","Female","","","false","","","","[415.2000000178814,229.59999999403954]","./assets/img/ocean/memory/16.jpg","[""ArrowUp"",""ArrowLeft""]","value training","ocean","26","{""ArrowUp,ArrowLeft"":26,""ArrowUp,ArrowRight"":10,""ArrowDown,ArrowLeft"":5,""ArrowDown,ArrowRight"":17}","true","ArrowUp,ArrowLeft","false","","","original","2","16","","",""
"html-keyboard-response","302","1495527","0.0-4.0-2.1-1.58","spark_pilot_2","7456","6","19","Female","","","","","","","null","<div style=""font-size:60px;"">+</div>","null","fixation","","","","","","","","","","","17","","",""
"revaluation","303","1501531","0.0-4.0-2.1-0.59","spark_pilot_2","7456","6","19","Female","","","false","","","","[632,231.80000001192093]","./assets/img/ocean/memory/15.jpg","[""ArrowUp"",""ArrowLeft""]","value training","ocean","26","{""ArrowUp,ArrowLeft"":26,""ArrowUp,ArrowRight"":10,""ArrowDown,ArrowLeft"":5,""ArrowDown,ArrowRight"":17}","true","ArrowUp,ArrowLeft","false","","","original","2","18","","",""
"html-keyboard-response","304","1502032","0.0-4.0-2.1-1.59","spark_pilot_2","7456","6","19","Female","","","","","","","null","<div style=""font-size:60px;"">+</div>","null","fixation","","","","","","","","","","","19","","",""
