"trial_type","trial_index","time_elapsed","internal_node_id","task_version","subject_id","assigned_condition","age","gender","success","timeout","failed_images","failed_audio","failed_video","browser_interaction","rt","stimulus","response","task_part","environment","score","rewardMap","correct","fullState","isCatch","numberMissed","duration","condition","order","trial_num","key_press","ground_truth","bonus"
"pavlovia","0","1224","0.0-0.0","spark_pilot_2","7580","2","21","Male","","","","","","","","","","","","","","","","","","","","","","","",""
"preload","1","6280","0.0-1.0","spark_pilot_2","7580","2","21","Male","true","false","[]","[]","[]","[{""event"":""fullscreenenter"",""trial"":2,""time"":12172}]","","","","","","","","","","","","","","","","","",""
"fullscreen","2","13160","0.0-2.0","spark_pilot_2","7580","2","21","Male","true","","","","","","","","","","","","","","","","","","","","","","",""
"audio-button-response","3","23162","0.0-3.0-0.0-0.0","spark_pilot_2","7580","2","21","Male","","","","","","","9491","./assets/audio/audiotest/turtle.mp3","4","audio_test","","","","","","","","","","","","","",""
"audio-button-response","4","25374","0.0-3.0-0.1-0.1","spark_pilot_2","7580","2","21","Male","","","","","","","1200","./assets/audio/audiotest/turtle.mp3","2","audio_test","","","","","","","","","","","","","",""
"learning-instructions","5","34219","0.0-3.0-1.0-0.0","spark_pilot_2","7580","2","21","Male","","","","","","","1870.6000000014901","<p> Welcome! Please remember to stay in fullscreen mode and don't click away from the experiment. </p>","","instructions","","","","","","","","","","","","","",""
"learning-instructions","6","43564","0.0-3.0-1.0-0.1","spark_pilot_2","7580","2","21","Male","","","","","","","927.1999999992549","<p> Today you will be playing a game to earn treasure. </p>
            <p> At the end of the experiment, you will earn a bonus based on how much treasure you find. </p>
            <img src='./assets/img/instructions/treasure.jpg' class='instructions-image'>","","instructions","","","","","","","","","","","","","",""
"learning-instructions","7","86231","0.0-3.0-1.0-0.2","spark_pilot_2","7580","2","21","Male","","","","","","","34393.5","<p> Animals have hidden treasure in treasure chests. </p>
            <p> You need to first find an animal and then choose which of their treasure chests to search. </p>
            <img src='./assets/img/space/animals/cat.jpg' class='instructions-image'>","","instructions","","","","","","","","","","","","","",""
"learning-instructions","8","101970","0.0-3.0-1.0-0.3","spark_pilot_2","7580","2","21","Male","","","","","","","2563.9000000003725","<p> In each round, you will search for treasure in a different place. In the real game, there will be two rounds. </p>
            <p> You will begin with a separate, practice round where you will search for treasure in outer space. </p>
            <img src='./assets/img/space/0.jpg' class='instructions-image'>","","instructions","","","","","","","","","","","","","",""
"learning-instructions","9","116011","0.0-3.0-1.0-0.4","spark_pilot_2","7580","2","21","Male","","","","","","","2595.5","<p> On every turn, you will see a picture of the place that you are in, but the specific image may be different each time. </p>
            <p> For example, both of these images mean you are in outer space. </p>
            <img src='./assets/img/instructions/outerspace.jpg' class='instructions-image'>","","instructions","","","","","","","","","","","","","",""
"learning-instructions","10","126574","0.0-3.0-1.0-0.5","spark_pilot_2","7580","2","21","Male","","","","","","","2707.89999999851","<p> You need to decide which direction to travel in. </p>
            <p> You can choose between going <b>up or down</b> by using the arrow keys. </p>
            <img src='./assets/img/instructions/updown.jpg' class='instructions-image'>","","instructions","","","","","","","","","","","","","",""
"learning-instructions","11","136569","0.0-3.0-1.0-0.6","spark_pilot_2","7580","2","21","Male","","","","","","","1152.800000000745","<p> You will have <b>2 seconds</b> to make your choice. </p>
            <p> If you do not make a choice within 2 seconds, you will not find an animal or earn treasure. </p>
            <img src='./assets/img/instructions/2seconds.jpg' class='instructions-image'>","","instructions","","","","","","","","","","","","","",""
"learning-instructions","12","144601","0.0-3.0-1.0-0.7","spark_pilot_2","7580","2","21","Male","","","","","","","995.3000000007451","<p> Let’s try practicing that now! </p>
            <p> When you see a picture of the place you are in, press the <b>up</b> key to travel up. </p>
            <img src='./assets/img/instructions/pressUp.jpg' class='instructions-image'>","","instructions","","","","","","","","","","","","","",""
"revaluation","13","148630","0.0-3.0-2.0-0.0","spark_pilot_2","7580","2","21","Male","","false","","","","","[876.2000000011176]","./assets/img/space/0.jpg","[""ArrowUp""]","first stage practice","space","0","null","null","ArrowUp","false","","","","","","","",""
"html-keyboard-response","14","149147","0.0-3.0-2.0-1.0","spark_pilot_2","7580","2","21","Male","","","","","","","null","<div style=""font-size:60px;"">+</div>","null","fixation","","","","","","","","","","","","","",""
"revaluation","15","153170","0.0-3.0-2.0-0.1","spark_pilot_2","7580","2","21","Male","","false","","","","","[652.4000000003725]","./assets/img/space/1.jpg","[""ArrowUp""]","first stage practice","space","0","null","null","ArrowUp","false","","","","","","","",""
"html-keyboard-response","16","153673","0.0-3.0-2.0-1.1","spark_pilot_2","7580","2","21","Male","","","","","","","null","<div style=""font-size:60px;"">+</div>","null","fixation","","","","","","","","","","","","","",""
"revaluation","17","157692","0.0-3.0-2.0-0.2","spark_pilot_2","7580","2","21","Male","","false","","","","","[662.5]","./assets/img/space/2.jpg","[""ArrowUp""]","first stage practice","space","0","null","null","ArrowUp","false","","","","","","","",""
"html-keyboard-response","18","158208","0.0-3.0-2.0-1.2","spark_pilot_2","7580","2","21","Male","","","","","","","null","<div style=""font-size:60px;"">+</div>","null","fixation","","","","","","","","","","","","","",""
"learning-instructions","19","164431","0.0-3.0-3.0-0.0","spark_pilot_2","7580","2","21","Male","","","","","","","1525.0999999996275","<p> Great job! Now try pressing the <b>down</b> key to travel down. </p>
            <img src='./assets/img/instructions/pressDown.jpg' class='instructions-image'>","","instructions","","","","","","","","","","","","","",""
"revaluation","20","168448","0.0-3.0-4.0-0.0","spark_pilot_2","7580","2","21","Male","","false","","","","","[339.1000000014901]","./assets/img/space/3.jpg","[""ArrowDown""]","first stage practice","space","0","null","null","ArrowDown","false","","","","","","","",""
"html-keyboard-response","21","168966","0.0-3.0-4.0-1.0","spark_pilot_2","7580","2","21","Male","","","","","","","null","<div style=""font-size:60px;"">+</div>","null","fixation","","","","","","","","","","","","","",""
"revaluation","22","172976","0.0-3.0-4.0-0.1","spark_pilot_2","7580","2","21","Male","","false","","","","","[279.40000000037253]","./assets/img/space/4.jpg","[""ArrowDown""]","first stage practice","space","0","null","null","ArrowDown","false","","","","","","","",""
"html-keyboard-response","23","173493","0.0-3.0-4.0-1.1","spark_pilot_2","7580","2","21","Male","","","","","","","null","<div style=""font-size:60px;"">+</div>","null","fixation","","","","","","","","","","","","","",""
"revaluation","24","177499","0.0-3.0-4.0-0.2","spark_pilot_2","7580","2","21","Male","","false","","","","","[1217.4000000003725]","./assets/img/space/5.jpg","[""ArrowDown""]","first stage practice","space","0","null","null","ArrowDown","false","","","","","","","",""
"html-keyboard-response","25","178015","0.0-3.0-4.0-1.2","spark_pilot_2","7580","2","21","Male","","","","","","","null","<div style=""font-size:60px;"">+</div>","null","fixation","","","","","","","","","","","","","",""
"learning-instructions","26","194677","0.0-3.0-5.0-0.0","spark_pilot_2","7580","2","21","Male","","","","","","","6821.5","<p> The animals don’t move, so the animal in the upper part of a place will stay in the upper part of a place, and the animal in the lower part of a place will stay in the lower part of a place. </p>","","instructions","","","","","","","","","","","","","",""
"learning-instructions","27","208966","0.0-3.0-5.0-0.1","spark_pilot_2","7580","2","21","Male","","","","","","","5150.60000000149","<p> Each animal has two treasure chests for you to choose from. </p>
            <p> The amount of treasure in each chest can range from <b> 0 to 40 pieces.</b></p>","","instructions","","","","","","","","","","","","","",""
"learning-instructions","28","232916","0.0-3.0-5.0-0.2","spark_pilot_2","7580","2","21","Male","","","","","","","12750.400000000373","<p> You should decide which chest to search for treasure by using the <b>left</b> and <b>right</b> arrow keys. </p>
            <p><b> Pay attention to which animal is on the screen, as the animals have different treasure chests. </b></p>
            <img src='./assets/img/instructions/leftright.jpg' class='instructions-image'>","","instructions","","","","","","","","","","","","","",""
"learning-instructions","29","240039","0.0-3.0-5.0-0.3","spark_pilot_2","7580","2","21","Male","","","","","","","743.4000000003725","<p> Let’s try practicing that now. </p>
            <p> When you see an animal, choose which chest to search for treasure. </p>
            <img src='./assets/img/instructions/chooseChest.jpg' class='instructions-image'>","","instructions","","","","","","","","","","","","","",""
"revaluation","30","244056","0.0-3.0-6.0-0.0","spark_pilot_2","7580","2","21","Male","","true","","","","","[]","./assets/img/space/animals/cat.jpg","[]","second stage practice","space","-5","{""ArrowUp,ArrowLeft"":3,""ArrowUp,ArrowRight"":36,""ArrowDown,ArrowLeft"":15,""ArrowDown,ArrowRight"":23}","false","ArrowUp","","","","","","","","",""
"html-keyboard-response","31","244560","0.0-3.0-6.0-1.0","spark_pilot_2","7580","2","21","Male","","","","","","","null","<div style=""font-size:60px;"">+</div>","null","fixation","","","","","","","","","","","","","",""
"revaluation","32","248577","0.0-3.0-6.0-0.1","spark_pilot_2","7580","2","21","Male","","true","","","","","[]","./assets/img/space/animals/rabbit.jpg","[]","second stage practice","space","-5","{""ArrowUp,ArrowLeft"":3,""ArrowUp,ArrowRight"":36,""ArrowDown,ArrowLeft"":15,""ArrowDown,ArrowRight"":23}","false","ArrowDown","","","","","","","","",""
"html-keyboard-response","33","249092","0.0-3.0-6.0-1.1","spark_pilot_2","7580","2","21","Male","","","","","","","null","<div style=""font-size:60px;"">+</div>","null","fixation","","","","","","","","","","","","","",""
"revaluation","34","253106","0.0-3.0-6.0-0.2","spark_pilot_2","7580","2","21","Male","","true","","","","","[]","./assets/img/space/animals/cat.jpg","[]","second stage practice","space","-5","{""ArrowUp,ArrowLeft"":3,""ArrowUp,ArrowRight"":36,""ArrowDown,ArrowLeft"":15,""ArrowDown,ArrowRight"":23}","false","ArrowUp","","","","","","","","",""
"html-keyboard-response","35","253608","0.0-3.0-6.0-1.2","spark_pilot_2","7580","2","21","Male","","","","","","","null","<div style=""font-size:60px;"">+</div>","null","fixation","","","","","","","","","","","","","",""
"revaluation","36","257619","0.0-3.0-6.0-0.3","spark_pilot_2","7580","2","21","Male","","true","","","","","[]","./assets/img/space/animals/rabbit.jpg","[]","second stage practice","space","-5","{""ArrowUp,ArrowLeft"":3,""ArrowUp,ArrowRight"":36,""ArrowDown,ArrowLeft"":15,""ArrowDown,ArrowRight"":23}","false","ArrowDown","","","","","","","","",""
"html-keyboard-response","37","258134","0.0-3.0-6.0-1.3","spark_pilot_2","7580","2","21","Male","","","","","","","null","<div style=""font-size:60px;"">+</div>","null","fixation","","","","","","","","","","","","","",""
"learning-instructions","38","279046","0.0-3.0-7.0-0.0","spark_pilot_2","7580","2","21","Male","","","","","","","4100.5","<p> Great job. Now let’s try putting it together. </p>
            <p> On each turn, you will first see a picture to remind you of the place you are in, and you need to choose whether to go up or down. </p>
            <p> Then you will see an animal and choose which of its chests to search for treasure. </p>","","instructions","","","","","","","","","","","","","",""
"learning-instructions","39","289790","0.0-3.0-7.0-0.1","spark_pilot_2","7580","2","21","Male","","","","","","","2464.2000000011176","<p> When you choose whether to go up or down, try to go to the animal with the chest with the most treasure. </p>
            <p> Try practicing that now! </p>","","instructions","","","","","","","","","","","","","",""
"revaluation","40","295800","0.0-3.0-8.0-0.0","spark_pilot_2","7580","2","21","Male","","false","","","","","[1059.5999999996275,1110.9000000003725]","./assets/img/space/6.jpg","[""ArrowUp"",""ArrowRight""]","full practice","space","36","{""ArrowUp,ArrowLeft"":3,""ArrowUp,ArrowRight"":36,""ArrowDown,ArrowLeft"":15,""ArrowDown,ArrowRight"":23}","true","ArrowUp,ArrowRight","false","","","","","","","",""
"html-keyboard-response","41","296305","0.0-3.0-8.0-1.0","spark_pilot_2","7580","2","21","Male","","","","","","","null","<div style=""font-size:60px;"">+</div>","null","fixation","","","","","","","","","","","","","",""
"revaluation","42","302334","0.0-3.0-8.0-0.1","spark_pilot_2","7580","2","21","Male","","false","","","","","[434.59999999962747,667]","./assets/img/space/7.jpg","[""ArrowUp"",""ArrowLeft""]","full practice","space","3","{""ArrowUp,ArrowLeft"":3,""ArrowUp,ArrowRight"":36,""ArrowDown,ArrowLeft"":15,""ArrowDown,ArrowRight"":23}","false","ArrowUp,ArrowLeft","false","","","","","","","",""
"html-keyboard-response","43","302836","0.0-3.0-8.0-1.1","spark_pilot_2","7580","2","21","Male","","","","","","","null","<div style=""font-size:60px;"">+</div>","null","fixation","","","","","","","","","","","","","",""
"revaluation","44","308861","0.0-3.0-8.0-0.2","spark_pilot_2","7580","2","21","Male","","false","","","","","[458.8999999985099,254.80000000074506]","./assets/img/space/8.jpg","[""ArrowUp"",""ArrowRight""]","full practice","space","36","{""ArrowUp,ArrowLeft"":3,""ArrowUp,ArrowRight"":36,""ArrowDown,ArrowLeft"":15,""ArrowDown,ArrowRight"":23}","true","ArrowUp,ArrowRight","false","","","","","","","",""
"html-keyboard-response","45","309364","0.0-3.0-8.0-1.2","spark_pilot_2","7580","2","21","Male","","","","","","","null","<div style=""font-size:60px;"">+</div>","null","fixation","","","","","","","","","","","","","",""
"revaluation","46","315390","0.0-3.0-8.0-0.3","spark_pilot_2","7580","2","21","Male","","false","","","","","[761.5,403.69999999925494]","./assets/img/space/9.jpg","[""ArrowUp"",""ArrowRight""]","full practice","space","36","{""ArrowUp,ArrowLeft"":3,""ArrowUp,ArrowRight"":36,""ArrowDown,ArrowLeft"":15,""ArrowDown,ArrowRight"":23}","true","ArrowUp,ArrowRight","false","","","","","","","",""
"html-keyboard-response","47","315903","0.0-3.0-8.0-1.3","spark_pilot_2","7580","2","21","Male","","","","","","","null","<div style=""font-size:60px;"">+</div>","null","fixation","","","","","","","","","","","","","",""
"revaluation","48","321909","0.0-3.0-8.0-0.4","spark_pilot_2","7580","2","21","Male","","false","","","","","[453.90000000037253,378.90000000037253]","./assets/img/space/10.jpg","[""ArrowUp"",""ArrowRight""]","full practice","space","36","{""ArrowUp,ArrowLeft"":3,""ArrowUp,ArrowRight"":36,""ArrowDown,ArrowLeft"":15,""ArrowDown,ArrowRight"":23}","true","ArrowUp,ArrowRight","false","","","","","","","",""
"html-keyboard-response","49","322410","0.0-3.0-8.0-1.4","spark_pilot_2","7580","2","21","Male","","","","","","","null","<div style=""font-size:60px;"">+</div>","null","fixation","","","","","","","","","","","","","",""
"learning-instructions","50","334119","0.0-3.0-9.0-0.0","spark_pilot_2","7580","2","21","Male","","","","","","","1332.699999999255","<p> One last thing: sometimes, you will see a robber. The robber can be anywhere in the picture. </p>
            <p> If you do not stop them, you will lose treasure. </p>
            <img src='./assets/img/instructions/robber.jpg' class='instructions-image'>","","instructions","","","","","","","","","","","","","",""
"learning-instructions","51","342781","0.0-3.0-9.0-0.1","spark_pilot_2","7580","2","21","Male","","","","","","","1495.5999999996275","<p> If you see the robber, you should <b>press the space bar</b> rather than using the arrow keys. </p>
            <p> Try practicing that now! </p>","","instructions","","","","","","","","","","","","","",""
"revaluation","52","346797","0.0-3.0-10.0-0.0","spark_pilot_2","7580","2","21","Male","","false","","","","","[801]","./assets/img/space/catch/0.jpg","[""ArrowUp""]","catch practice","space","-10","{""ArrowUp,ArrowLeft"":3,""ArrowUp,ArrowRight"":36,""ArrowDown,ArrowLeft"":15,""ArrowDown,ArrowRight"":23}","false","ArrowUp","true","","","","","","","",""
"html-keyboard-response","53","347299","0.0-3.0-10.0-1.0","spark_pilot_2","7580","2","21","Male","","","","","","","null","<div style=""font-size:60px;"">+</div>","null","fixation","","","","","","","","","","","","","",""
"revaluation","54","351309","0.0-3.0-10.0-0.1","spark_pilot_2","7580","2","21","Male","","false","","","","","[447.40000000037253]","./assets/img/space/catch/1.jpg","[""spaceBar""]","catch practice","space","0","{""ArrowUp,ArrowLeft"":3,""ArrowUp,ArrowRight"":36,""ArrowDown,ArrowLeft"":15,""ArrowDown,ArrowRight"":23}","true","spaceBar","true","","","","","","","",""
"html-keyboard-response","55","351823","0.0-3.0-10.0-1.1","spark_pilot_2","7580","2","21","Male","","","","","","","null","<div style=""font-size:60px;"">+</div>","null","fixation","","","","","","","","","","","","","",""
"revaluation","56","355834","0.0-3.0-10.0-0.2","spark_pilot_2","7580","2","21","Male","","false","","","","","[620.4000000003725]","./assets/img/space/catch/2.jpg","[""ArrowUp""]","catch practice","space","-10","{""ArrowUp,ArrowLeft"":3,""ArrowUp,ArrowRight"":36,""ArrowDown,ArrowLeft"":15,""ArrowDown,ArrowRight"":23}","false","ArrowUp","true","","","","","","","",""
"html-keyboard-response","57","356350","0.0-3.0-10.0-1.2","spark_pilot_2","7580","2","21","Male","","","","","","","null","<div style=""font-size:60px;"">+</div>","null","fixation","","","","","","","","","","","","","",""
"learning-instructions","58","371270","0.0-3.0-11.0-0.0","spark_pilot_2","7580","2","21","Male","","","","","","","1314.9000000003725","<p> After you explore a place to find treasure, it will be time to play a different game. </p>
            <p> During this game, red dots will appear on the screen and fall down slowly. </p>
            <p><b> You must click on them before they reach the bottom. </b></p>
            <img src='./assets/img/instructions/dotGame.jpg' class='instructions-image'>","","instructions","","","","","","","","","","","","","",""
"learning-instructions","59","378078","0.0-3.0-11.0-0.1","spark_pilot_2","7580","2","21","Male","","","","","","","1133","<p> For every dot you click, you will earn additional treasure. </p>
            <p> Let’s try practicing that now. </p>","","instructions","","","","","","","","","","","","","",""
"revaluation","60","393083","0.0-3.0-12.0-0.0","spark_pilot_2","7580","2","21","Male","","","","","","","[89]","","","rest practice","","10","","","","","0","15000","","","","","",""
"learning-instructions","61","399672","0.0-3.0-13.0-0.0-0.0","spark_pilot_2","7580","2","21","Male","","","","","","","1316.7000000011176","<p> Now, you will practice a shortened version of the game to get a sense of how it all fits together. </p>","","instructions","","","","","","","","","","","","","",""
"learning-instructions","62","408011","0.0-3.0-13.0-0.0-0.1","spark_pilot_2","7580","2","21","Male","","","","","","","5146.10000000149","<p>This time you are searching for treasure in outer space.</p>","","instructions","","","","","","","","","","","","","",""
"learning-instructions","63","426700","0.0-3.0-13.0-1.0-0.0","spark_pilot_2","7580","2","21","Male","","","","","","","3904.5","<p> Remember, when you see a picture of the place, use the up and down keys to <b>find an animal</b>.</p>
            <p> When you encounter an animal, you should use the left and right keys to <b>select a treasure chest</b>.</p>
            <p> Don't forget to look out for the robber! </p>","","instructions","","","","","","","","","","","","","",""
"revaluation","64","430726","0.0-3.0-13.0-2.0-0.0","spark_pilot_2","7580","2","21","Male","","true","","","","","[]","./assets/img/space/11.jpg","[]","practice block","space","-5","{""ArrowUp,ArrowLeft"":3,""ArrowUp,ArrowRight"":36,""ArrowDown,ArrowLeft"":15,""ArrowDown,ArrowRight"":23}","false","","false","","","","","","","",""
"html-keyboard-response","65","431238","0.0-3.0-13.0-2.0-1.0","spark_pilot_2","7580","2","21","Male","","","","","","","null","<div style=""font-size:60px;"">+</div>","null","fixation","","","","","","","","","","","","","",""
"revaluation","66","437267","0.0-3.0-13.0-2.0-0.1","spark_pilot_2","7580","2","21","Male","","false","","","","","[1886.300000000745,573.3000000007451]","./assets/img/space/12.jpg","[""ArrowUp"",""ArrowRight""]","practice block","space","36","{""ArrowUp,ArrowLeft"":3,""ArrowUp,ArrowRight"":36,""ArrowDown,ArrowLeft"":15,""ArrowDown,ArrowRight"":23}","true","ArrowUp,ArrowRight","false","","","","","","","",""
"html-keyboard-response","67","437769","0.0-3.0-13.0-2.0-1.1","spark_pilot_2","7580","2","21","Male","","","","","","","null","<div style=""font-size:60px;"">+</div>","null","fixation","","","","","","","","","","","","","",""
"revaluation","68","443793","0.0-3.0-13.0-2.0-0.2","spark_pilot_2","7580","2","21","Male","","false","","","","","[1697.4000000003725,1922.199999999255]","./assets/img/space/13.jpg","[""ArrowUp"",""ArrowRight""]","practice block","space","36","{""ArrowUp,ArrowLeft"":3,""ArrowUp,ArrowRight"":36,""ArrowDown,ArrowLeft"":15,""ArrowDown,ArrowRight"":23}","true","ArrowUp,ArrowRight","false","","","","","","","",""
"html-keyboard-response","69","444296","0.0-3.0-13.0-2.0-1.2","spark_pilot_2","7580","2","21","Male","","","","","","","null","<div style=""font-size:60px;"">+</div>","null","fixation","","","","","","","","","","","","","",""
"revaluation","70","448301","0.0-3.0-13.0-2.0-0.3","spark_pilot_2","7580","2","21","Male","","true","","","","","[]","./assets/img/space/14.jpg","[]","practice block","space","-5","{""ArrowUp,ArrowLeft"":3,""ArrowUp,ArrowRight"":36,""ArrowDown,ArrowLeft"":15,""ArrowDown,ArrowRight"":23}","false","","false","","","","","","","",""
"html-keyboard-response","71","448818","0.0-3.0-13.0-2.0-1.3","spark_pilot_2","7580","2","21","Male","","","","","","","null","<div style=""font-size:60px;"">+</div>","null","fixation","","","","","","","","","","","","","",""
"revaluation","72","454828","0.0-3.0-13.0-2.0-0.4","spark_pilot_2","7580","2","21","Male","","false","","","","","[628.0999999996275,525.1000000014901]","./assets/img/space/11.jpg","[""ArrowUp"",""ArrowRight""]","practice block","space","36","{""ArrowUp,ArrowLeft"":3,""ArrowUp,ArrowRight"":36,""ArrowDown,ArrowLeft"":15,""ArrowDown,ArrowRight"":23}","true","ArrowUp,ArrowRight","false","","","","","","","",""
"html-keyboard-response","73","455331","0.0-3.0-13.0-2.0-1.4","spark_pilot_2","7580","2","21","Male","","","","","","","null","<div style=""font-size:60px;"">+</div>","null","fixation","","","","","","","","","","","","","",""
"revaluation","74","461336","0.0-3.0-13.0-2.0-0.5","spark_pilot_2","7580","2","21","Male","","false","","","","","[442.80000000074506,490.59999999962747]","./assets/img/space/12.jpg","[""ArrowUp"",""ArrowRight""]","practice block","space","36","{""ArrowUp,ArrowLeft"":3,""ArrowUp,ArrowRight"":36,""ArrowDown,ArrowLeft"":15,""ArrowDown,ArrowRight"":23}","true","ArrowUp,ArrowRight","false","","","","","","","",""
"html-keyboard-response","75","461838","0.0-3.0-13.0-2.0-1.5","spark_pilot_2","7580","2","21","Male","","","","","","","null","<div style=""font-size:60px;"">+</div>","null","fixation","","","","","","","","","","","","","",""
"revaluation","76","467843","0.0-3.0-13.0-2.0-0.6","spark_pilot_2","7580","2","21","Male","","false","","","","","[512.8000000007451,522.8999999985099]","./assets/img/space/13.jpg","[""ArrowUp"",""ArrowRight""]","practice block","space","36","{""ArrowUp,ArrowLeft"":3,""ArrowUp,ArrowRight"":36,""ArrowDown,ArrowLeft"":15,""ArrowDown,ArrowRight"":23}","true","ArrowUp,ArrowRight","false","","","","","","","",""
"html-keyboard-response","77","468345","0.0-3.0-13.0-2.0-1.6","spark_pilot_2","7580","2","21","Male","","","","","","","null","<div style=""font-size:60px;"">+</div>","null","fixation","","","","","","","","","","","","","",""
"revaluation","78","474349","0.0-3.0-13.0-2.0-0.7","spark_pilot_2","7580","2","21","Male","","false","","","","","[437.40000000037253,539.5999999996275]","./assets/img/space/14.jpg","[""ArrowUp"",""ArrowRight""]","practice block","space","36","{""ArrowUp,ArrowLeft"":3,""ArrowUp,ArrowRight"":36,""ArrowDown,ArrowLeft"":15,""ArrowDown,ArrowRight"":23}","true","ArrowUp,ArrowRight","false","","","","","","","",""
"html-keyboard-response","79","474851","0.0-3.0-13.0-2.0-1.7","spark_pilot_2","7580","2","21","Male","","","","","","","null","<div style=""font-size:60px;"">+</div>","null","fixation","","","","","","","","","","","","","",""
"revaluation","80","478855","0.0-3.0-13.0-2.0-0.8","spark_pilot_2","7580","2","21","Male","","false","","","","","[484.30000000074506]","./assets/img/space/catch/3.jpg","[""ArrowUp""]","practice block","space","-10","{""ArrowUp,ArrowLeft"":3,""ArrowUp,ArrowRight"":36,""ArrowDown,ArrowLeft"":15,""ArrowDown,ArrowRight"":23}","false","ArrowUp","true","","","","","","","",""
"html-keyboard-response","81","479356","0.0-3.0-13.0-2.0-1.8","spark_pilot_2","7580","2","21","Male","","","","","","","null","<div style=""font-size:60px;"">+</div>","null","fixation","","","","","","","","","","","","","",""
"learning-instructions","82","493003","0.0-3.0-13.0-3.0-0.0","spark_pilot_2","7580","2","21","Male","","","","","","","673.1999999992549","<p> Now, you will travel with a friend who will choose whether you go up or down first. </p>
            <p> On these turns, you will just see the animal that they found. You will still get to choose which chest to search for treasure.</p>","","instructions","","","","","","","","","","","","","",""
"revaluation","83","497011","0.0-3.0-13.0-4.0-0.0","spark_pilot_2","7580","2","21","Male","","false","","","","","[907.0999999996275]","./assets/img/space/animals/cat.jpg","[""ArrowRight""]","practice block","space","36","{""ArrowUp,ArrowLeft"":3,""ArrowUp,ArrowRight"":36,""ArrowDown,ArrowLeft"":15,""ArrowDown,ArrowRight"":23}","true","ArrowUp,ArrowRight","","","","","","","","",""
"html-keyboard-response","84","497526","0.0-3.0-13.0-4.0-1.0","spark_pilot_2","7580","2","21","Male","","","","","","","null","<div style=""font-size:60px;"">+</div>","null","fixation","","","","","","","","","","","","","",""
"revaluation","85","501538","0.0-3.0-13.0-4.0-0.1","spark_pilot_2","7580","2","21","Male","","false","","","","","[558.4000000003725]","./assets/img/space/animals/rabbit.jpg","[""ArrowRight""]","practice block","space","23","{""ArrowUp,ArrowLeft"":3,""ArrowUp,ArrowRight"":36,""ArrowDown,ArrowLeft"":15,""ArrowDown,ArrowRight"":23}","true","ArrowDown,ArrowRight","","","","","","","","",""
"html-keyboard-response","86","502052","0.0-3.0-13.0-4.0-1.1","spark_pilot_2","7580","2","21","Male","","","","","","","null","<div style=""font-size:60px;"">+</div>","null","fixation","","","","","","","","","","","","","",""
"revaluation","87","506062","0.0-3.0-13.0-4.0-0.2","spark_pilot_2","7580","2","21","Male","","false","","","","","[547.5]","./assets/img/space/animals/rabbit.jpg","[""ArrowRight""]","practice block","space","23","{""ArrowUp,ArrowLeft"":3,""ArrowUp,ArrowRight"":36,""ArrowDown,ArrowLeft"":15,""ArrowDown,ArrowRight"":23}","true","ArrowDown,ArrowRight","","","","","","","","",""
"html-keyboard-response","88","506563","0.0-3.0-13.0-4.0-1.2","spark_pilot_2","7580","2","21","Male","","","","","","","null","<div style=""font-size:60px;"">+</div>","null","fixation","","","","","","","","","","","","","",""
"revaluation","89","510581","0.0-3.0-13.0-4.0-0.3","spark_pilot_2","7580","2","21","Male","","false","","","","","[791.6999999992549]","./assets/img/space/animals/cat.jpg","[""ArrowRight""]","practice block","space","36","{""ArrowUp,ArrowLeft"":3,""ArrowUp,ArrowRight"":36,""ArrowDown,ArrowLeft"":15,""ArrowDown,ArrowRight"":23}","true","ArrowUp,ArrowRight","","","","","","","","",""
"html-keyboard-response","90","511092","0.0-3.0-13.0-4.0-1.3","spark_pilot_2","7580","2","21","Male","","","","","","","null","<div style=""font-size:60px;"">+</div>","null","fixation","","","","","","","","","","","","","",""
"learning-instructions","91","519629","0.0-3.0-13.0-5.0-0.0","spark_pilot_2","7580","2","21","Male","","","","","","","1178.5999999996275","<p> Time to play the dot game! </p>
            <p> For 15 seconds, click the red dots on the following screen as they appear. </p>","","instructions","","","","","","","","","","","","","",""
"revaluation","92","534631","0.0-3.0-13.0-6.0-0.0","spark_pilot_2","7580","2","21","Male","","","","","","","[68]","","","rest practice","","10","","","","","0","15000","","","","","",""
"learning-instructions","93","541862","0.0-3.0-13.0-7.0-0.0","spark_pilot_2","7580","2","21","Male","","","","","","","1091.6000000014901","<p> You have almost finished this part of the game! </p>
            <p> We are going to ask you to make a few more choices. </p>","","instructions","","","","","","","","","","","","","",""
"learning-instructions","94","557691","0.0-3.0-13.0-7.0-0.1","spark_pilot_2","7580","2","21","Male","","","","","","","1809.4000000003725","<p> First, you need to decide whether to go up or down. When you see each picture, use the arrow keys to make your choice. </p>
            <p><b>You will not see which animal you found, but try to get to the one that will give you the most treasure.</b></p>","","instructions","","","","","","","","","","","","","",""
"revaluation","95","559456","0.0-3.0-13.0-8.0","spark_pilot_2","7580","2","21","Male","","false","","","","","[1763.7999999988824]","./assets/img/space/15.jpg","[""ArrowUp""]","practice block","space","0","{""ArrowUp,ArrowLeft"":3,""ArrowUp,ArrowRight"":36,""ArrowDown,ArrowLeft"":15,""ArrowDown,ArrowRight"":23}","true","ArrowUp","false","","","","","","","",""
"html-keyboard-response","96","559969","0.0-3.0-13.0-9.0","spark_pilot_2","7580","2","21","Male","","","","","","","null","<div style=""font-size:60px;"">+</div>","null","fixation","","","","","","","","","","","","","",""
"learning-instructions","97","582373","0.0-3.0-13.0-10.0-0.0","spark_pilot_2","7580","2","21","Male","","","","","","","11031.900000000373","<p> Now you will see the animals again and can search their chests for treasure. </p>
            <p> This time, you will not see how much treasure you earned, but you will earn more bonus money for making better choices. </p>","","instructions","","","","","","","","","","","","","",""
"revaluation","98","583382","0.0-3.0-13.0-11.0-0.0","spark_pilot_2","7580","2","21","Male","","false","","","","","[1007.5]","./assets/img/space/animals/cat.jpg","[""ArrowRight""]","practice block","space","0","{""ArrowUp,ArrowLeft"":3,""ArrowUp,ArrowRight"":36,""ArrowDown,ArrowLeft"":15,""ArrowDown,ArrowRight"":23}","true","ArrowUp,ArrowRight","","","","","","","","",""
"html-keyboard-response","99","583893","0.0-3.0-13.0-11.0-1.0","spark_pilot_2","7580","2","21","Male","","","","","","","null","<div style=""font-size:60px;"">+</div>","null","fixation","","","","","","","","","","","","","",""
"revaluation","100","584297","0.0-3.0-13.0-11.0-0.1","spark_pilot_2","7580","2","21","Male","","false","","","","","[401.5]","./assets/img/space/animals/rabbit.jpg","[""ArrowRight""]","practice block","space","0","{""ArrowUp,ArrowLeft"":3,""ArrowUp,ArrowRight"":36,""ArrowDown,ArrowLeft"":15,""ArrowDown,ArrowRight"":23}","true","ArrowDown,ArrowRight","","","","","","","","",""
"html-keyboard-response","101","584799","0.0-3.0-13.0-11.0-1.1","spark_pilot_2","7580","2","21","Male","","","","","","","null","<div style=""font-size:60px;"">+</div>","null","fixation","","","","","","","","","","","","","",""
"learning-instructions","102","591939","0.0-3.0-14.0-0.0","spark_pilot_2","7580","2","21","Male","","","","","","","2567.9000000003725","<p> Before you start, we're going to ask you a few questions about how the game works. </p>","","instructions","","","","","","","","","","","","","",""
"comp-q","103","600014","0.0-3.0-15.0-0.0-0.0","spark_pilot_2","7580","2","21","Male","","","","","","","2480.2000000011176","<p> <b> True or False? </b> </p>
            <p> There can be 50 pieces of treasure in a given animal's chest. </p>","0","comp_question","","","","false","","","","","","","","","",""
"comp-q","104","607833","0.0-3.0-15.0-0.0-1.0","spark_pilot_2","7580","2","21","Male","","","","","","","1291.9000000003725","<p> <b>Incorrect.</b> The amount of treasure in each chest can range from 0 to 40 pieces. </p>","0","comp_answer","","","","","","","","","","","","","",""
"comp-q","105","616075","0.0-3.0-15.0-0.1-0.1","spark_pilot_2","7580","2","21","Male","","","","","","","2685.9000000003725","<p> <b> True or False? </b> </p>
            <p> There can be 50 pieces of treasure in a given animal's chest. </p>","1","comp_question","","","","true","","","","","","","","","",""
"comp-q","106","624688","0.0-3.0-15.0-0.1-1.1","spark_pilot_2","7580","2","21","Male","","","","","","","1918.0999999996275","<p> <b> That's right! </b> The amount of treasure in each chest can range from 0 to 40 pieces. </p>","0","comp_answer","","","","","","","","","","","","","",""
"comp-q","107","632437","0.0-3.0-15.0-0.2-0.2","spark_pilot_2","7580","2","21","Male","","","","","","","627.3999999985099","<p> <b> True or False? </b> </p><p> In this game, all animals have the same amount of treasure in their left and right chests. </p>","0","comp_question","","","","false","","","","","","","","","",""
"comp-q","108","638246","0.0-3.0-15.0-0.2-1.2","spark_pilot_2","7580","2","21","Male","","","","","","","705.7999999988824","<p> <b>Incorrect.</b> Animals have different amounts of treasure in their treasure chests. </p>","0","comp_answer","","","","","","","","","","","","","",""
"comp-q","109","646962","0.0-3.0-15.0-0.3-0.3","spark_pilot_2","7580","2","21","Male","","","","","","","1631.9000000003725","<p> <b> True or False? </b> </p><p> In this game, all animals have the same amount of treasure in their left and right chests. </p>","1","comp_question","","","","true","","","","","","","","","",""
"comp-q","110","653480","0.0-3.0-15.0-0.3-1.3","spark_pilot_2","7580","2","21","Male","","","","","","","1279.7999999988824","<p> <b> That's right! </b> Animals have different amounts of treasure in their treasure chests. </p>","0","comp_answer","","","","","","","","","","","","","",""
"comp-q","111","659849","0.0-3.0-15.0-0.4-0.4","spark_pilot_2","7580","2","21","Male","","","","","","","519.3000000007451","<p> <b> True or False? </b> </p><p> The same animal will always be there if you go up in the same place. </p>","0","comp_question","","","","true","","","","","","","","","",""
"comp-q","112","669832","0.0-3.0-15.0-0.4-1.4","spark_pilot_2","7580","2","21","Male","","","","","","","3542","<p> <b> That's right! </b> One animal lives in the upper part and one lives in the lower part of every place. </p>","0","comp_answer","","","","","","","","","","","","","",""
"comp-q","113","680804","0.0-3.0-15.0-0.5-0.5","spark_pilot_2","7580","2","21","Male","","","","","","","5444.199999999255","<p> <b> True or False? </b> </p><p> If you see a different picture, it means you are in a new place. </p>","0","comp_question","","","","false","","","","","","","","","",""
"comp-q","114","693702","0.0-3.0-15.0-0.5-1.5","spark_pilot_2","7580","2","21","Male","","","","","","","1801.2000000011176","<p> <b>Incorrect.</b> Lots of different images may show the same place. For example,  you may see three different images that all remind you that you are in outer space. </p>","0","comp_answer","","","","","","","","","","","","","",""
"comp-q","115","701332","0.0-3.0-15.0-0.6-0.6","spark_pilot_2","7580","2","21","Male","","","","","","","2121.9000000003725","<p> <b> True or False? </b> </p><p> If you see a different picture, it means you are in a new place. </p>","1","comp_question","","","","true","","","","","","","","","",""
"comp-q","116","713468","0.0-3.0-15.0-0.6-1.6","spark_pilot_2","7580","2","21","Male","","","","","","","897.4000000003725","<p> <b> That's right! </b> Lots of different images may show the same place. For example,  you may see three different images that all remind you that you are in outer space. </p>","0","comp_answer","","","","","","","","","","","","","",""
"learning-instructions","117","731815","0.0-3.0-16.0-0.0","spark_pilot_2","7580","2","21","Male","","","","","","","8485.400000000373","<p> Good job. Remember to do your best because the amount of treasure you earn will be converted into bonus money. </p>
            <p> It’s time to start the real game! </p>","","instructions","","","","","","","","","","","","","",""
"learning-instructions","118","735762","0.0-4.0-0.0-0.0","spark_pilot_2","7580","2","21","Male","","","","","","","1140.9000000003725","<p> This time you are searching for treasure in the <b>ocean</b>.</p>","","instructions","","","","","","","","","","","","","",""
"learning-instructions","119","753917","0.0-4.0-0.0-0.1","spark_pilot_2","7580","2","21","Male","","","","","","","856.5999999996275","<p><b>New</b> animals with <b>new</b> treasure chests live here. You need to explore to discover where the animal with the best treasure chest is.</p>
                    <p> Like before, once you figure out which animal has the chest with the most treasure, you should try to get to that animal and select that chest! </p>","","instructions","","","","","","","","","","","","","",""
"learning-instructions","120","773140","0.0-4.0-1.0-0.0","spark_pilot_2","7580","2","21","Male","","","","","","","4498.9000000003725","<p> Remember, when you see a picture of the place, use the up and down keys to <b>find an animal</b>.</p>
            <p> When you encounter an animal, you should use the left and right keys to <b>select a treasure chest</b>.</p>
            <p> Don't forget to look out for the robber! </p>","","instructions","","","","","","","","","","","","","",""
"revaluation","121","779149","0.0-4.0-2.0-0.0","spark_pilot_2","7580","2","21","Male","","false","","","","","[1023.2000000011176,886.5]","./assets/img/ocean/memory/28.jpg","[""ArrowDown"",""ArrowRight""]","value training","ocean","30","{""ArrowUp,ArrowLeft"":23,""ArrowUp,ArrowRight"":10,""ArrowDown,ArrowLeft"":8,""ArrowDown,ArrowRight"":30}","true","ArrowDown,ArrowRight","false","","","revaluation","1","0","","",""
"html-keyboard-response","122","779652","0.0-4.0-2.0-1.0","spark_pilot_2","7580","2","21","Male","","","","","","","null","<div style=""font-size:60px;"">+</div>","null","fixation","","","","","","","","","","","1","","",""
"revaluation","123","783659","0.0-4.0-2.0-0.1","spark_pilot_2","7580","2","21","Male","","false","","","","","[482.69999999925494]","./assets/img/ocean/catch/5.jpg","[""ArrowUp""]","value training","ocean","-10","{""ArrowUp,ArrowLeft"":23,""ArrowUp,ArrowRight"":10,""ArrowDown,ArrowLeft"":8,""ArrowDown,ArrowRight"":30}","false","ArrowUp","true","","","revaluation","1","2","","",""
"html-keyboard-response","124","784161","0.0-4.0-2.0-1.1","spark_pilot_2","7580","2","21","Male","","","","","","","null","<div style=""font-size:60px;"">+</div>","null","fixation","","","","","","","","","","","3","","",""
"revaluation","125","788173","0.0-4.0-2.0-0.2","spark_pilot_2","7580","2","21","Male","","false","","","","","[668.2999999988824]","./assets/img/ocean/catch/7.jpg","[""spaceBar""]","value training","ocean","0","{""ArrowUp,ArrowLeft"":23,""ArrowUp,ArrowRight"":10,""ArrowDown,ArrowLeft"":8,""ArrowDown,ArrowRight"":30}","true","spaceBar","true","","","revaluation","1","4","","",""
"html-keyboard-response","126","788687","0.0-4.0-2.0-1.2","spark_pilot_2","7580","2","21","Male","","","","","","","null","<div style=""font-size:60px;"">+</div>","null","fixation","","","","","","","","","","","5","","",""
"revaluation","127","794702","0.0-4.0-2.0-0.3","spark_pilot_2","7580","2","21","Male","","true","","","","","[1062.300000000745]","./assets/img/ocean/memory/36.jpg","[""ArrowUp""]","value training","ocean","-5","{""ArrowUp,ArrowLeft"":23,""ArrowUp,ArrowRight"":10,""ArrowDown,ArrowLeft"":8,""ArrowDown,ArrowRight"":30}","false","ArrowUp","false","","","revaluation","1","6","","",""
"html-keyboard-response","128","795217","0.0-4.0-2.0-1.3","spark_pilot_2","7580","2","21","Male","","","","","","","null","<div style=""font-size:60px;"">+</div>","null","fixation","","","","","","","","","","","7","","",""
"revaluation","129","801221","0.0-4.0-2.0-0.4","spark_pilot_2","7580","2","21","Male","","false","","","","","[654.5999999996275,766.5]","./assets/img/ocean/memory/34.jpg","[""ArrowUp"",""ArrowRight""]","value training","ocean","10","{""ArrowUp,ArrowLeft"":23,""ArrowUp,ArrowRight"":10,""ArrowDown,ArrowLeft"":8,""ArrowDown,ArrowRight"":30}","false","ArrowUp,ArrowRight","false","","","revaluation","1","8","","",""
"html-keyboard-response","130","801722","0.0-4.0-2.0-1.4","spark_pilot_2","7580","2","21","Male","","","","","","","null","<div style=""font-size:60px;"">+</div>","null","fixation","","","","","","","","","","","9","","",""
"revaluation","131","807726","0.0-4.0-2.0-0.5","spark_pilot_2","7580","2","21","Male","","false","","","","","[648.5999999996275,658.4000000003725]","./assets/img/ocean/memory/30.jpg","[""ArrowUp"",""ArrowRight""]","value training","ocean","10","{""ArrowUp,ArrowLeft"":23,""ArrowUp,ArrowRight"":10,""ArrowDown,ArrowLeft"":8,""ArrowDown,ArrowRight"":30}","false","ArrowUp,ArrowRight","false","","","revaluation","1","10","","",""
"html-keyboard-response","132","808228","0.0-4.0-2.0-1.5","spark_pilot_2","7580","2","21","Male","","","","","","","null","<div style=""font-size:60px;"">+</div>","null","fixation","","","","","","","","","","","11","","",""
"revaluation","133","814233","0.0-4.0-2.0-0.6","spark_pilot_2","7580","2","21","Male","","false","","","","","[532.5,650.5]","./assets/img/ocean/memory/4.jpg","[""ArrowUp"",""ArrowRight""]","value training","ocean","10","{""ArrowUp,ArrowLeft"":23,""ArrowUp,ArrowRight"":10,""ArrowDown,ArrowLeft"":8,""ArrowDown,ArrowRight"":30}","false","ArrowUp,ArrowRight","false","","","revaluation","1","12","","",""
"html-keyboard-response","134","814736","0.0-4.0-2.0-1.6","spark_pilot_2","7580","2","21","Male","","","","","","","null","<div style=""font-size:60px;"">+</div>","null","fixation","","","","","","","","","","","13","","",""
"revaluation","135","820743","0.0-4.0-2.0-0.7","spark_pilot_2","7580","2","21","Male","","false","","","","","[485.2999999988824,527.5]","./assets/img/ocean/memory/6.jpg","[""ArrowUp"",""ArrowRight""]","value training","ocean","10","{""ArrowUp,ArrowLeft"":23,""ArrowUp,ArrowRight"":10,""ArrowDown,ArrowLeft"":8,""ArrowDown,ArrowRight"":30}","false","ArrowUp,ArrowRight","false","","","revaluation","1","14","","",""
"html-keyboard-response","136","821245","0.0-4.0-2.0-1.7","spark_pilot_2","7580","2","21","Male","","","","","","","null","<div style=""font-size:60px;"">+</div>","null","fixation","","","","","","","","","","","15","","",""
"revaluation","137","827250","0.0-4.0-2.0-0.8","spark_pilot_2","7580","2","21","Male","","false","","","","","[622,872.6999999992549]","./assets/img/ocean/memory/15.jpg","[""ArrowUp"",""ArrowRight""]","value training","ocean","10","{""ArrowUp,ArrowLeft"":23,""ArrowUp,ArrowRight"":10,""ArrowDown,ArrowLeft"":8,""ArrowDown,ArrowRight"":30}","false","ArrowUp,ArrowRight","false","","","revaluation","1","16","","",""
"html-keyboard-response","138","827752","0.0-4.0-2.0-1.8","spark_pilot_2","7580","2","21","Male","","","","","","","null","<div style=""font-size:60px;"">+</div>","null","fixation","","","","","","","","","","","17","","",""
"revaluation","139","833758","0.0-4.0-2.0-0.9","spark_pilot_2","7580","2","21","Male","","false","","","","","[695,1793.9000000003725]","./assets/img/ocean/memory/19.jpg","[""ArrowUp"",""ArrowRight""]","value training","ocean","10","{""ArrowUp,ArrowLeft"":23,""ArrowUp,ArrowRight"":10,""ArrowDown,ArrowLeft"":8,""ArrowDown,ArrowRight"":30}","false","ArrowUp,ArrowRight","false","","","revaluation","1","18","","",""
"html-keyboard-response","140","834261","0.0-4.0-2.0-1.9","spark_pilot_2","7580","2","21","Male","","","","","","","null","<div style=""font-size:60px;"">+</div>","null","fixation","","","","","","","","","","","19","","",""
"revaluation","141","840267","0.0-4.0-2.0-0.10","spark_pilot_2","7580","2","21","Male","","false","","","","","[350.40000000037253,494.40000000037253]","./assets/img/ocean/memory/24.jpg","[""ArrowUp"",""ArrowRight""]","value training","ocean","10","{""ArrowUp,ArrowLeft"":23,""ArrowUp,ArrowRight"":10,""ArrowDown,ArrowLeft"":8,""ArrowDown,ArrowRight"":30}","false","ArrowUp,ArrowRight","false","","","revaluation","1","20","","",""
"html-keyboard-response","142","840769","0.0-4.0-2.0-1.10","spark_pilot_2","7580","2","21","Male","","","","","","","null","<div style=""font-size:60px;"">+</div>","null","fixation","","","","","","","","","","","21","","",""
"revaluation","143","846774","0.0-4.0-2.0-0.11","spark_pilot_2","7580","2","21","Male","","false","","","","","[588.7999999988824,502.2999999988824]","./assets/img/ocean/memory/15.jpg","[""ArrowUp"",""ArrowRight""]","value training","ocean","10","{""ArrowUp,ArrowLeft"":23,""ArrowUp,ArrowRight"":10,""ArrowDown,ArrowLeft"":8,""ArrowDown,ArrowRight"":30}","false","ArrowUp,ArrowRight","false","","","revaluation","1","22","","",""
"html-keyboard-response","144","847276","0.0-4.0-2.0-1.11","spark_pilot_2","7580","2","21","Male","","","","","","","null","<div style=""font-size:60px;"">+</div>","null","fixation","","","","","","","","","","","23","","",""
"revaluation","145","853281","0.0-4.0-2.0-0.12","spark_pilot_2","7580","2","21","Male","","false","","","","","[487.09999999962747,470.7000000011176]","./assets/img/ocean/memory/24.jpg","[""ArrowUp"",""ArrowRight""]","value training","ocean","10","{""ArrowUp,ArrowLeft"":23,""ArrowUp,ArrowRight"":10,""ArrowDown,ArrowLeft"":8,""ArrowDown,ArrowRight"":30}","false","ArrowUp,ArrowRight","false","","","revaluation","1","24","","",""
"html-keyboard-response","146","853782","0.0-4.0-2.0-1.12","spark_pilot_2","7580","2","21","Male","","","","","","","null","<div style=""font-size:60px;"">+</div>","null","fixation","","","","","","","","","","","25","","",""
"revaluation","147","859788","0.0-4.0-2.0-0.13","spark_pilot_2","7580","2","21","Male","","false","","","","","[79.29999999888241,412.90000000037253]","./assets/img/ocean/memory/0.jpg","[""ArrowUp"",""ArrowRight""]","value training","ocean","10","{""ArrowUp,ArrowLeft"":23,""ArrowUp,ArrowRight"":10,""ArrowDown,ArrowLeft"":8,""ArrowDown,ArrowRight"":30}","false","ArrowUp,ArrowRight","false","","","revaluation","1","26","","",""
"html-keyboard-response","148","860290","0.0-4.0-2.0-1.13","spark_pilot_2","7580","2","21","Male","","","","","","","null","<div style=""font-size:60px;"">+</div>","null","fixation","","","","","","","","","","","27","","",""
"revaluation","149","864294","0.0-4.0-2.0-0.14","spark_pilot_2","7580","2","21","Male","","false","","","","","[559]","./assets/img/ocean/catch/6.jpg","[""ArrowUp""]","value training","ocean","-10","{""ArrowUp,ArrowLeft"":23,""ArrowUp,ArrowRight"":10,""ArrowDown,ArrowLeft"":8,""ArrowDown,ArrowRight"":30}","false","ArrowUp","true","","","revaluation","1","28","","",""
"html-keyboard-response","150","864795","0.0-4.0-2.0-1.14","spark_pilot_2","7580","2","21","Male","","","","","","","null","<div style=""font-size:60px;"">+</div>","null","fixation","","","","","","","","","","","29","","",""
"revaluation","151","870799","0.0-4.0-2.0-0.15","spark_pilot_2","7580","2","21","Male","","false","","","","","[863.5999999996275,502]","./assets/img/ocean/memory/6.jpg","[""ArrowUp"",""ArrowLeft""]","value training","ocean","23","{""ArrowUp,ArrowLeft"":23,""ArrowUp,ArrowRight"":10,""ArrowDown,ArrowLeft"":8,""ArrowDown,ArrowRight"":30}","false","ArrowUp,ArrowLeft","false","","","revaluation","1","30","","",""
"html-keyboard-response","152","871301","0.0-4.0-2.0-1.15","spark_pilot_2","7580","2","21","Male","","","","","","","null","<div style=""font-size:60px;"">+</div>","null","fixation","","","","","","","","","","","31","","",""
"revaluation","153","877308","0.0-4.0-2.0-0.16","spark_pilot_2","7580","2","21","Male","","false","","","","","[750.7000000011176,378.80000000074506]","./assets/img/ocean/memory/0.jpg","[""ArrowUp"",""ArrowLeft""]","value training","ocean","23","{""ArrowUp,ArrowLeft"":23,""ArrowUp,ArrowRight"":10,""ArrowDown,ArrowLeft"":8,""ArrowDown,ArrowRight"":30}","false","ArrowUp,ArrowLeft","false","","","revaluation","1","32","","",""
"html-keyboard-response","154","877810","0.0-4.0-2.0-1.16","spark_pilot_2","7580","2","21","Male","","","","","","","null","<div style=""font-size:60px;"">+</div>","null","fixation","","","","","","","","","","","33","","",""
"revaluation","155","883829","0.0-4.0-2.0-0.17","spark_pilot_2","7580","2","21","Male","","false","","","","","[480.90000000037253,746.6999999992549]","./assets/img/ocean/memory/8.jpg","[""ArrowDown"",""ArrowRight""]","value training","ocean","30","{""ArrowUp,ArrowLeft"":23,""ArrowUp,ArrowRight"":10,""ArrowDown,ArrowLeft"":8,""ArrowDown,ArrowRight"":30}","true","ArrowDown,ArrowRight","false","","","revaluation","1","34","","",""
"html-keyboard-response","156","884330","0.0-4.0-2.0-1.17","spark_pilot_2","7580","2","21","Male","","","","","","","null","<div style=""font-size:60px;"">+</div>","null","fixation","","","","","","","","","","","35","","",""
"revaluation","157","890335","0.0-4.0-2.0-0.18","spark_pilot_2","7580","2","21","Male","","false","","","","","[337.09999999962747,388.3999999985099]","./assets/img/ocean/memory/8.jpg","[""ArrowUp"",""ArrowRight""]","value training","ocean","10","{""ArrowUp,ArrowLeft"":23,""ArrowUp,ArrowRight"":10,""ArrowDown,ArrowLeft"":8,""ArrowDown,ArrowRight"":30}","false","ArrowUp,ArrowRight","false","","","revaluation","1","36","","",""
"html-keyboard-response","158","890837","0.0-4.0-2.0-1.18","spark_pilot_2","7580","2","21","Male","","","","","","","null","<div style=""font-size:60px;"">+</div>","null","fixation","","","","","","","","","","","37","","",""
"revaluation","159","896842","0.0-4.0-2.0-0.19","spark_pilot_2","7580","2","21","Male","","false","","","","","[41.90000000037253,443.1000000014901]","./assets/img/ocean/memory/18.jpg","[""ArrowUp"",""ArrowLeft""]","value training","ocean","23","{""ArrowUp,ArrowLeft"":23,""ArrowUp,ArrowRight"":10,""ArrowDown,ArrowLeft"":8,""ArrowDown,ArrowRight"":30}","false","ArrowUp,ArrowLeft","false","","","revaluation","1","38","","",""
"html-keyboard-response","160","897343","0.0-4.0-2.0-1.19","spark_pilot_2","7580","2","21","Male","","","","","","","null","<div style=""font-size:60px;"">+</div>","null","fixation","","","","","","","","","","","39","","",""
"revaluation","161","903348","0.0-4.0-2.0-0.20","spark_pilot_2","7580","2","21","Male","","false","","","","","[36.80000000074506,635.8000000007451]","./assets/img/ocean/memory/19.jpg","[""ArrowUp"",""ArrowLeft""]","value training","ocean","23","{""ArrowUp,ArrowLeft"":23,""ArrowUp,ArrowRight"":10,""ArrowDown,ArrowLeft"":8,""ArrowDown,ArrowRight"":30}","false","ArrowUp,ArrowLeft","false","","","revaluation","1","40","","",""
"html-keyboard-response","162","903849","0.0-4.0-2.0-1.20","spark_pilot_2","7580","2","21","Male","","","","","","","null","<div style=""font-size:60px;"">+</div>","null","fixation","","","","","","","","","","","41","","",""
"revaluation","163","909854","0.0-4.0-2.0-0.21","spark_pilot_2","7580","2","21","Male","","false","","","","","[437.40000000037253,1776]","./assets/img/ocean/memory/21.jpg","[""ArrowUp"",""ArrowLeft""]","value training","ocean","23","{""ArrowUp,ArrowLeft"":23,""ArrowUp,ArrowRight"":10,""ArrowDown,ArrowLeft"":8,""ArrowDown,ArrowRight"":30}","false","ArrowUp,ArrowLeft","false","","","revaluation","1","42","","",""
"html-keyboard-response","164","910356","0.0-4.0-2.0-1.21","spark_pilot_2","7580","2","21","Male","","","","","","","null","<div style=""font-size:60px;"">+</div>","null","fixation","","","","","","","","","","","43","","",""
"revaluation","165","914360","0.0-4.0-2.0-0.22","spark_pilot_2","7580","2","21","Male","","true","","","","","[]","./assets/img/ocean/memory/26.jpg","[]","value training","ocean","-5","{""ArrowUp,ArrowLeft"":23,""ArrowUp,ArrowRight"":10,""ArrowDown,ArrowLeft"":8,""ArrowDown,ArrowRight"":30}","false","","false","","","revaluation","1","44","","",""
"html-keyboard-response","166","914862","0.0-4.0-2.0-1.22","spark_pilot_2","7580","2","21","Male","","","","","","","null","<div style=""font-size:60px;"">+</div>","null","fixation","","","","","","","","","","","45","","",""
"revaluation","167","918867","0.0-4.0-2.0-0.23","spark_pilot_2","7580","2","21","Male","","false","","","","","[126.5]","./assets/img/ocean/catch/4.jpg","[""ArrowUp""]","value training","ocean","-10","{""ArrowUp,ArrowLeft"":23,""ArrowUp,ArrowRight"":10,""ArrowDown,ArrowLeft"":8,""ArrowDown,ArrowRight"":30}","false","ArrowUp","true","","","revaluation","1","46","","",""
"html-keyboard-response","168","919368","0.0-4.0-2.0-1.23","spark_pilot_2","7580","2","21","Male","","","","","","","null","<div style=""font-size:60px;"">+</div>","null","fixation","","","","","","","","","","","47","","",""
"revaluation","169","925373","0.0-4.0-2.0-0.24","spark_pilot_2","7580","2","21","Male","","false","","","","","[111.29999999888241,882.2999999988824]","./assets/img/ocean/memory/10.jpg","[""ArrowUp"",""ArrowLeft""]","value training","ocean","23","{""ArrowUp,ArrowLeft"":23,""ArrowUp,ArrowRight"":10,""ArrowDown,ArrowLeft"":8,""ArrowDown,ArrowRight"":30}","false","ArrowUp,ArrowLeft","false","","","revaluation","1","48","","",""
"html-keyboard-response","170","925874","0.0-4.0-2.0-1.24","spark_pilot_2","7580","2","21","Male","","","","","","","null","<div style=""font-size:60px;"">+</div>","null","fixation","","","","","","","","","","","49","","",""
"revaluation","171","931879","0.0-4.0-2.0-0.25","spark_pilot_2","7580","2","21","Male","","true","","","","","[72.89999999850988]","./assets/img/ocean/memory/22.jpg","[""ArrowDown""]","value training","ocean","-5","{""ArrowUp,ArrowLeft"":23,""ArrowUp,ArrowRight"":10,""ArrowDown,ArrowLeft"":8,""ArrowDown,ArrowRight"":30}","false","ArrowDown","false","","","revaluation","1","50","","",""
"html-keyboard-response","172","932381","0.0-4.0-2.0-1.25","spark_pilot_2","7580","2","21","Male","","","","","","","null","<div style=""font-size:60px;"">+</div>","null","fixation","","","","","","","","","","","51","","",""
"revaluation","173","936385","0.0-4.0-2.0-0.26","spark_pilot_2","7580","2","21","Male","","false","","","","","[3.5]","./assets/img/ocean/catch/1.jpg","[""ArrowUp""]","value training","ocean","-10","{""ArrowUp,ArrowLeft"":23,""ArrowUp,ArrowRight"":10,""ArrowDown,ArrowLeft"":8,""ArrowDown,ArrowRight"":30}","false","ArrowUp","true","","","revaluation","1","52","","",""
"html-keyboard-response","174","936887","0.0-4.0-2.0-1.26","spark_pilot_2","7580","2","21","Male","","","","","","","null","<div style=""font-size:60px;"">+</div>","null","fixation","","","","","","","","","","","53","","",""
"revaluation","175","940891","0.0-4.0-2.0-0.27","spark_pilot_2","7580","2","21","Male","","true","","","","","[]","./assets/img/ocean/memory/35.jpg","[]","value training","ocean","-5","{""ArrowUp,ArrowLeft"":23,""ArrowUp,ArrowRight"":10,""ArrowDown,ArrowLeft"":8,""ArrowDown,ArrowRight"":30}","false","","false","","","revaluation","1","54","","",""
"html-keyboard-response","176","941393","0.0-4.0-2.0-1.27","spark_pilot_2","7580","2","21","Male","","","","","","","null","<div style=""font-size:60px;"">+</div>","null","fixation","","","","","","","","","","","55","","",""
"revaluation","177","945398","0.0-4.0-2.0-0.28","spark_pilot_2","7580","2","21","Male","","false","","","","","[263.59999999962747]","./assets/img/ocean/catch/2.jpg","[""ArrowUp""]","value training","ocean","-10","{""ArrowUp,ArrowLeft"":23,""ArrowUp,ArrowRight"":10,""ArrowDown,ArrowLeft"":8,""ArrowDown,ArrowRight"":30}","false","ArrowUp","true","","","revaluation","1","56","","",""
"html-keyboard-response","178","945900","0.0-4.0-2.0-1.28","spark_pilot_2","7580","2","21","Male","","","","","","","null","<div style=""font-size:60px;"">+</div>","null","fixation","","","","","","","","","","","57","","",""
"revaluation","179","949904","0.0-4.0-2.0-0.29","spark_pilot_2","7580","2","21","Male","","false","","","","","[486.19999999925494]","./assets/img/ocean/catch/3.jpg","[""spaceBar""]","value training","ocean","0","{""ArrowUp,ArrowLeft"":23,""ArrowUp,ArrowRight"":10,""ArrowDown,ArrowLeft"":8,""ArrowDown,ArrowRight"":30}","true","spaceBar","true","","","revaluation","1","58","","",""
"html-keyboard-response","180","950406","0.0-4.0-2.0-1.29","spark_pilot_2","7580","2","21","Male","","","","","","","null","<div style=""font-size:60px;"">+</div>","null","fixation","","","","","","","","","","","59","","",""
"revaluation","181","956411","0.0-4.0-2.0-0.30","spark_pilot_2","7580","2","21","Male","","false","","","","","[594.3999999985099,557.4000000003725]","./assets/img/ocean/memory/36.jpg","[""ArrowUp"",""ArrowRight""]","value training","ocean","10","{""ArrowUp,ArrowLeft"":23,""ArrowUp,ArrowRight"":10,""ArrowDown,ArrowLeft"":8,""ArrowDown,ArrowRight"":30}","false","ArrowUp,ArrowRight","false","","","revaluation","1","60","","",""
"html-keyboard-response","182","956913","0.0-4.0-2.0-1.30","spark_pilot_2","7580","2","21","Male","","","","","","","null","<div style=""font-size:60px;"">+</div>","null","fixation","","","","","","","","","","","61","","",""
"revaluation","183","962919","0.0-4.0-2.0-0.31","spark_pilot_2","7580","2","21","Male","","false","","","","","[451.90000000037253,1900.7000000011176]","./assets/img/ocean/memory/28.jpg","[""ArrowUp"",""ArrowLeft""]","value training","ocean","23","{""ArrowUp,ArrowLeft"":23,""ArrowUp,ArrowRight"":10,""ArrowDown,ArrowLeft"":8,""ArrowDown,ArrowRight"":30}","false","ArrowUp,ArrowLeft","false","","","revaluation","1","62","","",""
"html-keyboard-response","184","963420","0.0-4.0-2.0-1.31","spark_pilot_2","7580","2","21","Male","","","","","","","null","<div style=""font-size:60px;"">+</div>","null","fixation","","","","","","","","","","","63","","",""
"revaluation","185","969426","0.0-4.0-2.0-0.32","spark_pilot_2","7580","2","21","Male","","true","","","","","[906.2999999988824]","./assets/img/ocean/memory/1.jpg","[""ArrowUp""]","value training","ocean","-5","{""ArrowUp,ArrowLeft"":23,""ArrowUp,ArrowRight"":10,""ArrowDown,ArrowLeft"":8,""ArrowDown,ArrowRight"":30}","false","ArrowUp","false","","","revaluation","1","64","","",""
"html-keyboard-response","186","969928","0.0-4.0-2.0-1.32","spark_pilot_2","7580","2","21","Male","","","","","","","null","<div style=""font-size:60px;"">+</div>","null","fixation","","","","","","","","","","","65","","",""
"revaluation","187","975933","0.0-4.0-2.0-0.33","spark_pilot_2","7580","2","21","Male","","false","","","","","[395.80000000074506,395.8999999985099]","./assets/img/ocean/memory/11.jpg","[""ArrowUp"",""ArrowRight""]","value training","ocean","10","{""ArrowUp,ArrowLeft"":23,""ArrowUp,ArrowRight"":10,""ArrowDown,ArrowLeft"":8,""ArrowDown,ArrowRight"":30}","false","ArrowUp,ArrowRight","false","","","revaluation","1","66","","",""
"html-keyboard-response","188","976434","0.0-4.0-2.0-1.33","spark_pilot_2","7580","2","21","Male","","","","","","","null","<div style=""font-size:60px;"">+</div>","null","fixation","","","","","","","","","","","67","","",""
"revaluation","189","982441","0.0-4.0-2.0-0.34","spark_pilot_2","7580","2","21","Male","","false","","","","","[226.69999999925494,260.40000000037253]","./assets/img/ocean/memory/4.jpg","[""ArrowUp"",""ArrowLeft""]","value training","ocean","23","{""ArrowUp,ArrowLeft"":23,""ArrowUp,ArrowRight"":10,""ArrowDown,ArrowLeft"":8,""ArrowDown,ArrowRight"":30}","false","ArrowUp,ArrowLeft","false","","","revaluation","1","68","","",""
"html-keyboard-response","190","982942","0.0-4.0-2.0-1.34","spark_pilot_2","7580","2","21","Male","","","","","","","null","<div style=""font-size:60px;"">+</div>","null","fixation","","","","","","","","","","","69","","",""
"revaluation","191","988948","0.0-4.0-2.0-0.35","spark_pilot_2","7580","2","21","Male","","false","","","","","[357.69999999925494,763.0999999996275]","./assets/img/ocean/memory/11.jpg","[""ArrowDown"",""ArrowRight""]","value training","ocean","30","{""ArrowUp,ArrowLeft"":23,""ArrowUp,ArrowRight"":10,""ArrowDown,ArrowLeft"":8,""ArrowDown,ArrowRight"":30}","true","ArrowDown,ArrowRight","false","","","revaluation","1","70","","",""
"html-keyboard-response","192","989449","0.0-4.0-2.0-1.35","spark_pilot_2","7580","2","21","Male","","","","","","","null","<div style=""font-size:60px;"">+</div>","null","fixation","","","","","","","","","","","71","","",""
"revaluation","193","995455","0.0-4.0-2.0-0.36","spark_pilot_2","7580","2","21","Male","","false","","","","","[1041.7000000011176,685.4000000003725]","./assets/img/ocean/memory/39.jpg","[""ArrowUp"",""ArrowLeft""]","value training","ocean","23","{""ArrowUp,ArrowLeft"":23,""ArrowUp,ArrowRight"":10,""ArrowDown,ArrowLeft"":8,""ArrowDown,ArrowRight"":30}","false","ArrowUp,ArrowLeft","false","","","revaluation","1","72","","",""
"html-keyboard-response","194","995957","0.0-4.0-2.0-1.36","spark_pilot_2","7580","2","21","Male","","","","","","","null","<div style=""font-size:60px;"">+</div>","null","fixation","","","","","","","","","","","73","","",""
"revaluation","195","1001963","0.0-4.0-2.0-0.37","spark_pilot_2","7580","2","21","Male","","true","","","","","[1333.9000000003725]","./assets/img/ocean/memory/10.jpg","[""ArrowDown""]","value training","ocean","-5","{""ArrowUp,ArrowLeft"":23,""ArrowUp,ArrowRight"":10,""ArrowDown,ArrowLeft"":8,""ArrowDown,ArrowRight"":30}","false","ArrowDown","false","","","revaluation","1","74","","",""
"html-keyboard-response","196","1002465","0.0-4.0-2.0-1.37","spark_pilot_2","7580","2","21","Male","","","","","","","null","<div style=""font-size:60px;"">+</div>","null","fixation","","","","","","","","","","","75","","",""
"revaluation","197","1006468","0.0-4.0-2.0-0.38","spark_pilot_2","7580","2","21","Male","","true","","","","","[]","./assets/img/ocean/memory/22.jpg","[]","value training","ocean","-5","{""ArrowUp,ArrowLeft"":23,""ArrowUp,ArrowRight"":10,""ArrowDown,ArrowLeft"":8,""ArrowDown,ArrowRight"":30}","false","","false","","","revaluation","1","76","","",""
"html-keyboard-response","198","1006970","0.0-4.0-2.0-1.38","spark_pilot_2","7580","2","21","Male","","","","","","","null","<div style=""font-size:60px;"">+</div>","null","fixation","","","","","","","","","","","77","","",""
"revaluation","199","1010982","0.0-4.0-2.0-0.39","spark_pilot_2","7580","2","21","Male","","true","","","","","[]","./assets/img/ocean/memory/34.jpg","[]","value training","ocean","-5","{""ArrowUp,ArrowLeft"":23,""ArrowUp,ArrowRight"":10,""ArrowDown,ArrowLeft"":8,""ArrowDown,ArrowRight"":30}","false","","false","","","revaluation","1","78","","",""
"html-keyboard-response","200","1011483","0.0-4.0-2.0-1.39","spark_pilot_2","7580","2","21","Male","","","","","","","null","<div style=""font-size:60px;"">+</div>","null","fixation","","","","","","","","","","","79","","",""
"revaluation","201","1015487","0.0-4.0-2.0-0.40","spark_pilot_2","7580","2","21","Male","","true","","","","","[]","./assets/img/ocean/memory/26.jpg","[]","value training","ocean","-5","{""ArrowUp,ArrowLeft"":23,""ArrowUp,ArrowRight"":10,""ArrowDown,ArrowLeft"":8,""ArrowDown,ArrowRight"":30}","false","","false","","","revaluation","1","80","","",""
"html-keyboard-response","202","1015989","0.0-4.0-2.0-1.40","spark_pilot_2","7580","2","21","Male","","","","","","","null","<div style=""font-size:60px;"">+</div>","null","fixation","","","","","","","","","","","81","","",""
"revaluation","203","1021994","0.0-4.0-2.0-0.41","spark_pilot_2","7580","2","21","Male","","false","","","","","[220.5,721.7000000011176]","./assets/img/ocean/memory/5.jpg","[""ArrowUp"",""ArrowRight""]","value training","ocean","10","{""ArrowUp,ArrowLeft"":23,""ArrowUp,ArrowRight"":10,""ArrowDown,ArrowLeft"":8,""ArrowDown,ArrowRight"":30}","false","ArrowUp,ArrowRight","false","","","revaluation","1","82","","",""
"html-keyboard-response","204","1022495","0.0-4.0-2.0-1.41","spark_pilot_2","7580","2","21","Male","","","","","","","null","<div style=""font-size:60px;"">+</div>","null","fixation","","","","","","","","","","","83","","",""
"revaluation","205","1026500","0.0-4.0-2.0-0.42","spark_pilot_2","7580","2","21","Male","","true","","","","","[]","./assets/img/ocean/memory/5.jpg","[]","value training","ocean","-5","{""ArrowUp,ArrowLeft"":23,""ArrowUp,ArrowRight"":10,""ArrowDown,ArrowLeft"":8,""ArrowDown,ArrowRight"":30}","false","","false","","","revaluation","1","84","","",""
"html-keyboard-response","206","1027002","0.0-4.0-2.0-1.42","spark_pilot_2","7580","2","21","Male","","","","","","","null","<div style=""font-size:60px;"">+</div>","null","fixation","","","","","","","","","","","85","","",""
"revaluation","207","1033010","0.0-4.0-2.0-0.43","spark_pilot_2","7580","2","21","Male","","true","","","","","[439.09999999962747]","./assets/img/ocean/memory/18.jpg","[""ArrowUp""]","value training","ocean","-5","{""ArrowUp,ArrowLeft"":23,""ArrowUp,ArrowRight"":10,""ArrowDown,ArrowLeft"":8,""ArrowDown,ArrowRight"":30}","false","ArrowUp","false","","","revaluation","1","86","","",""
"html-keyboard-response","208","1033512","0.0-4.0-2.0-1.43","spark_pilot_2","7580","2","21","Male","","","","","","","null","<div style=""font-size:60px;"">+</div>","null","fixation","","","","","","","","","","","87","","",""
"revaluation","209","1039517","0.0-4.0-2.0-0.44","spark_pilot_2","7580","2","21","Male","","true","","","","","[1250.699999999255]","./assets/img/ocean/memory/30.jpg","[""ArrowUp""]","value training","ocean","-5","{""ArrowUp,ArrowLeft"":23,""ArrowUp,ArrowRight"":10,""ArrowDown,ArrowLeft"":8,""ArrowDown,ArrowRight"":30}","false","ArrowUp","false","","","revaluation","1","88","","",""
"html-keyboard-response","210","1040019","0.0-4.0-2.0-1.44","spark_pilot_2","7580","2","21","Male","","","","","","","null","<div style=""font-size:60px;"">+</div>","null","fixation","","","","","","","","","","","89","","",""
"revaluation","211","1046023","0.0-4.0-2.0-0.45","spark_pilot_2","7580","2","21","Male","","false","","","","","[1103.5,288]","./assets/img/ocean/memory/39.jpg","[""ArrowUp"",""ArrowRight""]","value training","ocean","10","{""ArrowUp,ArrowLeft"":23,""ArrowUp,ArrowRight"":10,""ArrowDown,ArrowLeft"":8,""ArrowDown,ArrowRight"":30}","false","ArrowUp,ArrowRight","false","","","revaluation","1","90","","",""
"html-keyboard-response","212","1046525","0.0-4.0-2.0-1.45","spark_pilot_2","7580","2","21","Male","","","","","","","null","<div style=""font-size:60px;"">+</div>","null","fixation","","","","","","","","","","","91","","",""
"revaluation","213","1050533","0.0-4.0-2.0-0.46","spark_pilot_2","7580","2","21","Male","","true","","","","","[]","./assets/img/ocean/memory/1.jpg","[]","value training","ocean","-5","{""ArrowUp,ArrowLeft"":23,""ArrowUp,ArrowRight"":10,""ArrowDown,ArrowLeft"":8,""ArrowDown,ArrowRight"":30}","false","","false","","","revaluation","1","92","","",""
"html-keyboard-response","214","1051035","0.0-4.0-2.0-1.46","spark_pilot_2","7580","2","21","Male","","","","","","","null","<div style=""font-size:60px;"">+</div>","null","fixation","","","","","","","","","","","93","","",""
"revaluation","215","1055041","0.0-4.0-2.0-0.47","spark_pilot_2","7580","2","21","Male","","true","","","","","[]","./assets/img/ocean/memory/35.jpg","[]","value training","ocean","-5","{""ArrowUp,ArrowLeft"":23,""ArrowUp,ArrowRight"":10,""ArrowDown,ArrowLeft"":8,""ArrowDown,ArrowRight"":30}","false","","false","","","revaluation","1","94","","",""
"html-keyboard-response","216","1055542","0.0-4.0-2.0-1.47","spark_pilot_2","7580","2","21","Male","","","","","","","null","<div style=""font-size:60px;"">+</div>","null","fixation","","","","","","","","","","","95","","",""
"revaluation","217","1059547","0.0-4.0-2.0-0.48","spark_pilot_2","7580","2","21","Male","","false","","","","","[407.2000000011176]","./assets/img/ocean/catch/0.jpg","[""ArrowUp""]","value training","ocean","-10","{""ArrowUp,ArrowLeft"":23,""ArrowUp,ArrowRight"":10,""ArrowDown,ArrowLeft"":8,""ArrowDown,ArrowRight"":30}","false","ArrowUp","true","","","revaluation","1","96","","",""
"html-keyboard-response","218","1060049","0.0-4.0-2.0-1.48","spark_pilot_2","7580","2","21","Male","","","","","","","null","<div style=""font-size:60px;"">+</div>","null","fixation","","","","","","","","","","","97","","",""
"revaluation","219","1066054","0.0-4.0-2.0-0.49","spark_pilot_2","7580","2","21","Male","","false","","","","","[1128.199999999255,1368.800000000745]","./assets/img/ocean/memory/21.jpg","[""ArrowUp"",""ArrowRight""]","value training","ocean","10","{""ArrowUp,ArrowLeft"":23,""ArrowUp,ArrowRight"":10,""ArrowDown,ArrowLeft"":8,""ArrowDown,ArrowRight"":30}","false","ArrowUp,ArrowRight","false","","","revaluation","1","98","","",""
"html-keyboard-response","220","1066556","0.0-4.0-2.0-1.49","spark_pilot_2","7580","2","21","Male","","","","","","","null","<div style=""font-size:60px;"">+</div>","null","fixation","","","","","","","","","","","99","","",""
"learning-instructions","221","1082745","0.0-4.0-3.0-0.0","spark_pilot_2","7580","2","21","Male","","","","","","","2790.60000000149","<p> Now, you will travel with a friend who will choose whether you go up or down first. </p>
            <p> On these turns, you will just see the animal that they found. You will still get to choose which chest to search for treasure.</p>","","instructions","","","","","","","","","","","","","",""
"revaluation","222","1086760","0.0-4.0-4.0-0.0","spark_pilot_2","7580","2","21","Male","","false","","","","","[1137.5]","./assets/img/ocean/animals/seahorse.jpg","[""ArrowRight""]","revaluation","ocean","7","{""ArrowUp,ArrowLeft"":27,""ArrowUp,ArrowRight"":15,""ArrowDown,ArrowLeft"":21,""ArrowDown,ArrowRight"":7}","false","ArrowDown,ArrowRight","","","","revaluation","1","0","","",""
"html-keyboard-response","223","1087272","0.0-4.0-4.0-1.0","spark_pilot_2","7580","2","21","Male","","","","","","","null","<div style=""font-size:60px;"">+</div>","null","fixation","","","","","","","","","","","1","","",""
"revaluation","224","1091287","0.0-4.0-4.0-0.1","spark_pilot_2","7580","2","21","Male","","false","","","","","[1019.0999999996275]","./assets/img/ocean/animals/seahorse.jpg","[""ArrowRight""]","revaluation","ocean","7","{""ArrowUp,ArrowLeft"":27,""ArrowUp,ArrowRight"":15,""ArrowDown,ArrowLeft"":21,""ArrowDown,ArrowRight"":7}","false","ArrowDown,ArrowRight","","","","revaluation","1","2","","",""
"html-keyboard-response","225","1091789","0.0-4.0-4.0-1.1","spark_pilot_2","7580","2","21","Male","","","","","","","null","<div style=""font-size:60px;"">+</div>","null","fixation","","","","","","","","","","","3","","",""
"revaluation","226","1095810","0.0-4.0-4.0-0.2","spark_pilot_2","7580","2","21","Male","","false","","","","","[1242]","./assets/img/ocean/animals/octopus.jpg","[""ArrowRight""]","revaluation","ocean","15","{""ArrowUp,ArrowLeft"":27,""ArrowUp,ArrowRight"":15,""ArrowDown,ArrowLeft"":21,""ArrowDown,ArrowRight"":7}","false","ArrowUp,ArrowRight","","","","revaluation","1","4","","",""
"html-keyboard-response","227","1096314","0.0-4.0-4.0-1.2","spark_pilot_2","7580","2","21","Male","","","","","","","null","<div style=""font-size:60px;"">+</div>","null","fixation","","","","","","","","","","","5","","",""
"revaluation","228","1100333","0.0-4.0-4.0-0.3","spark_pilot_2","7580","2","21","Male","","false","","","","","[517.9000000003725]","./assets/img/ocean/animals/seahorse.jpg","[""ArrowRight""]","revaluation","ocean","7","{""ArrowUp,ArrowLeft"":27,""ArrowUp,ArrowRight"":15,""ArrowDown,ArrowLeft"":21,""ArrowDown,ArrowRight"":7}","false","ArrowDown,ArrowRight","","","","revaluation","1","6","","",""
"html-keyboard-response","229","1100836","0.0-4.0-4.0-1.3","spark_pilot_2","7580","2","21","Male","","","","","","","null","<div style=""font-size:60px;"">+</div>","null","fixation","","","","","","","","","","","7","","",""
"revaluation","230","1104850","0.0-4.0-4.0-0.4","spark_pilot_2","7580","2","21","Male","","false","","","","","[119.5]","./assets/img/ocean/animals/seahorse.jpg","[""ArrowLeft""]","revaluation","ocean","21","{""ArrowUp,ArrowLeft"":27,""ArrowUp,ArrowRight"":15,""ArrowDown,ArrowLeft"":21,""ArrowDown,ArrowRight"":7}","true","ArrowDown,ArrowLeft","","","","revaluation","1","8","","",""
"html-keyboard-response","231","1105363","0.0-4.0-4.0-1.4","spark_pilot_2","7580","2","21","Male","","","","","","","null","<div style=""font-size:60px;"">+</div>","null","fixation","","","","","","","","","","","9","","",""
"revaluation","232","1109369","0.0-4.0-4.0-0.5","spark_pilot_2","7580","2","21","Male","","false","","","","","[1009.9000000003725]","./assets/img/ocean/animals/octopus.jpg","[""ArrowLeft""]","revaluation","ocean","27","{""ArrowUp,ArrowLeft"":27,""ArrowUp,ArrowRight"":15,""ArrowDown,ArrowLeft"":21,""ArrowDown,ArrowRight"":7}","true","ArrowUp,ArrowLeft","","","","revaluation","1","10","","",""
"html-keyboard-response","233","1109871","0.0-4.0-4.0-1.5","spark_pilot_2","7580","2","21","Male","","","","","","","null","<div style=""font-size:60px;"">+</div>","null","fixation","","","","","","","","","","","11","","",""
"revaluation","234","1113877","0.0-4.0-4.0-0.6","spark_pilot_2","7580","2","21","Male","","false","","","","","[1298]","./assets/img/ocean/animals/seahorse.jpg","[""ArrowLeft""]","revaluation","ocean","21","{""ArrowUp,ArrowLeft"":27,""ArrowUp,ArrowRight"":15,""ArrowDown,ArrowLeft"":21,""ArrowDown,ArrowRight"":7}","true","ArrowDown,ArrowLeft","","","","revaluation","1","12","","",""
"html-keyboard-response","235","1114378","0.0-4.0-4.0-1.6","spark_pilot_2","7580","2","21","Male","","","","","","","null","<div style=""font-size:60px;"">+</div>","null","fixation","","","","","","","","","","","13","","",""
"revaluation","236","1118383","0.0-4.0-4.0-0.7","spark_pilot_2","7580","2","21","Male","","true","","","","","[]","./assets/img/ocean/animals/octopus.jpg","[]","revaluation","ocean","-5","{""ArrowUp,ArrowLeft"":27,""ArrowUp,ArrowRight"":15,""ArrowDown,ArrowLeft"":21,""ArrowDown,ArrowRight"":7}","false","ArrowUp","","","","revaluation","1","14","","",""
"html-keyboard-response","237","1118886","0.0-4.0-4.0-1.7","spark_pilot_2","7580","2","21","Male","","","","","","","null","<div style=""font-size:60px;"">+</div>","null","fixation","","","","","","","","","","","15","","",""
"revaluation","238","1122889","0.0-4.0-4.0-0.8","spark_pilot_2","7580","2","21","Male","","false","","","","","[17.59999999962747]","./assets/img/ocean/animals/octopus.jpg","[""ArrowLeft""]","revaluation","ocean","27","{""ArrowUp,ArrowLeft"":27,""ArrowUp,ArrowRight"":15,""ArrowDown,ArrowLeft"":21,""ArrowDown,ArrowRight"":7}","true","ArrowUp,ArrowLeft","","","","revaluation","1","16","","",""
"html-keyboard-response","239","1123391","0.0-4.0-4.0-1.8","spark_pilot_2","7580","2","21","Male","","","","","","","null","<div style=""font-size:60px;"">+</div>","null","fixation","","","","","","","","","","","17","","",""
"revaluation","240","1127398","0.0-4.0-4.0-0.9","spark_pilot_2","7580","2","21","Male","","true","","","","","[]","./assets/img/ocean/animals/octopus.jpg","[]","revaluation","ocean","-5","{""ArrowUp,ArrowLeft"":27,""ArrowUp,ArrowRight"":15,""ArrowDown,ArrowLeft"":21,""ArrowDown,ArrowRight"":7}","false","ArrowUp","","","","revaluation","1","18","","",""
"html-keyboard-response","241","1127899","0.0-4.0-4.0-1.9","spark_pilot_2","7580","2","21","Male","","","","","","","null","<div style=""font-size:60px;"">+</div>","null","fixation","","","","","","","","","","","19","","",""
"revaluation","242","1131903","0.0-4.0-4.0-0.10","spark_pilot_2","7580","2","21","Male","","true","","","","","[]","./assets/img/ocean/animals/octopus.jpg","[]","revaluation","ocean","-5","{""ArrowUp,ArrowLeft"":27,""ArrowUp,ArrowRight"":15,""ArrowDown,ArrowLeft"":21,""ArrowDown,ArrowRight"":7}","false","ArrowUp","","","","revaluation","1","20","","",""
"html-keyboard-response","243","1132404","0.0-4.0-4.0-1.10","spark_pilot_2","7580","2","21","Male","","","","","","","null","<div style=""font-size:60px;"">+</div>","null","fixation","","","","","","","","","","","21","","",""
"revaluation","244","1136408","0.0-4.0-4.0-0.11","spark_pilot_2","7580","2","21","Male","","false","","","","","[469]","./assets/img/ocean/animals/seahorse.jpg","[""ArrowLeft""]","revaluation","ocean","21","{""ArrowUp,ArrowLeft"":27,""ArrowUp,ArrowRight"":15,""ArrowDown,ArrowLeft"":21,""ArrowDown,ArrowRight"":7}","true","ArrowDown,ArrowLeft","","","","revaluation","1","22","","",""
"html-keyboard-response","245","1136911","0.0-4.0-4.0-1.11","spark_pilot_2","7580","2","21","Male","","","","","","","null","<div style=""font-size:60px;"">+</div>","null","fixation","","","","","","","","","","","23","","",""
"revaluation","246","1140914","0.0-4.0-4.0-0.12","spark_pilot_2","7580","2","21","Male","","false","","","","","[56.09999999962747]","./assets/img/ocean/animals/octopus.jpg","[""ArrowRight""]","revaluation","ocean","15","{""ArrowUp,ArrowLeft"":27,""ArrowUp,ArrowRight"":15,""ArrowDown,ArrowLeft"":21,""ArrowDown,ArrowRight"":7}","false","ArrowUp,ArrowRight","","","","revaluation","1","24","","",""
"html-keyboard-response","247","1141416","0.0-4.0-4.0-1.12","spark_pilot_2","7580","2","21","Male","","","","","","","null","<div style=""font-size:60px;"">+</div>","null","fixation","","","","","","","","","","","25","","",""
"revaluation","248","1145420","0.0-4.0-4.0-0.13","spark_pilot_2","7580","2","21","Male","","false","","","","","[741.8000000007451]","./assets/img/ocean/animals/seahorse.jpg","[""ArrowRight""]","revaluation","ocean","7","{""ArrowUp,ArrowLeft"":27,""ArrowUp,ArrowRight"":15,""ArrowDown,ArrowLeft"":21,""ArrowDown,ArrowRight"":7}","false","ArrowDown,ArrowRight","","","","revaluation","1","26","","",""
"html-keyboard-response","249","1145922","0.0-4.0-4.0-1.13","spark_pilot_2","7580","2","21","Male","","","","","","","null","<div style=""font-size:60px;"">+</div>","null","fixation","","","","","","","","","","","27","","",""
"revaluation","250","1149936","0.0-4.0-4.0-0.14","spark_pilot_2","7580","2","21","Male","","false","","","","","[73.90000000037253]","./assets/img/ocean/animals/seahorse.jpg","[""ArrowLeft""]","revaluation","ocean","21","{""ArrowUp,ArrowLeft"":27,""ArrowUp,ArrowRight"":15,""ArrowDown,ArrowLeft"":21,""ArrowDown,ArrowRight"":7}","true","ArrowDown,ArrowLeft","","","","revaluation","1","28","","",""
"html-keyboard-response","251","1150437","0.0-4.0-4.0-1.14","spark_pilot_2","7580","2","21","Male","","","","","","","null","<div style=""font-size:60px;"">+</div>","null","fixation","","","","","","","","","","","29","","",""
"revaluation","252","1154441","0.0-4.0-4.0-0.15","spark_pilot_2","7580","2","21","Male","","false","","","","","[186.5]","./assets/img/ocean/animals/seahorse.jpg","[""ArrowLeft""]","revaluation","ocean","21","{""ArrowUp,ArrowLeft"":27,""ArrowUp,ArrowRight"":15,""ArrowDown,ArrowLeft"":21,""ArrowDown,ArrowRight"":7}","true","ArrowDown,ArrowLeft","","","","revaluation","1","30","","",""
"html-keyboard-response","253","1154942","0.0-4.0-4.0-1.15","spark_pilot_2","7580","2","21","Male","","","","","","","null","<div style=""font-size:60px;"">+</div>","null","fixation","","","","","","","","","","","31","","",""
"revaluation","254","1158946","0.0-4.0-4.0-0.16","spark_pilot_2","7580","2","21","Male","","false","","","","","[364.90000000037253]","./assets/img/ocean/animals/octopus.jpg","[""ArrowLeft""]","revaluation","ocean","27","{""ArrowUp,ArrowLeft"":27,""ArrowUp,ArrowRight"":15,""ArrowDown,ArrowLeft"":21,""ArrowDown,ArrowRight"":7}","true","ArrowUp,ArrowLeft","","","","revaluation","1","32","","",""
"html-keyboard-response","255","1159447","0.0-4.0-4.0-1.16","spark_pilot_2","7580","2","21","Male","","","","","","","null","<div style=""font-size:60px;"">+</div>","null","fixation","","","","","","","","","","","33","","",""
"revaluation","256","1163452","0.0-4.0-4.0-0.17","spark_pilot_2","7580","2","21","Male","","false","","","","","[3.400000000372529]","./assets/img/ocean/animals/octopus.jpg","[""ArrowLeft""]","revaluation","ocean","27","{""ArrowUp,ArrowLeft"":27,""ArrowUp,ArrowRight"":15,""ArrowDown,ArrowLeft"":21,""ArrowDown,ArrowRight"":7}","true","ArrowUp,ArrowLeft","","","","revaluation","1","34","","",""
"html-keyboard-response","257","1163954","0.0-4.0-4.0-1.17","spark_pilot_2","7580","2","21","Male","","","","","","","null","<div style=""font-size:60px;"">+</div>","null","fixation","","","","","","","","","","","35","","",""
"learning-instructions","258","1203008","0.0-4.0-5.0-0.0","spark_pilot_2","7580","2","21","Male","","","","","","","27220.89999999851","<p> Time to play the dot game! </p>
            <p> For one minute, click the red dots on the following screen as they appear. </p>
            <p><b> Don't look away, as you will earn bonus for clicking dots</b>. </p>","","instructions","","","","","","","","","","","","","",""
"revaluation","259","1263011","0.0-4.0-6.0-0.0","spark_pilot_2","7580","2","21","Male","","","","","","","[108,114,130,235,74,177]","","","rest","","60","","","","","0","60000","","","","","",""
"learning-instructions","260","1273170","0.0-4.0-7.0-0.0","spark_pilot_2","7580","2","21","Male","","","","","","","3551.4000000003725","<p> You have almost finished this part of the game! </p>
            <p> We are going to ask you to make a few more choices. </p>","","instructions","","","","","","","","","","","","","",""
"learning-instructions","261","1293390","0.0-4.0-7.0-0.1","spark_pilot_2","7580","2","21","Male","","","","","","","6252.4000000003725","<p> First, you need to decide whether to go up or down. When you see each picture, use the arrow keys to make your choice. </p>
            <p><b>You will not see which animal you found, but try to get to the one that will give you the most treasure.</b></p>","","instructions","","","","","","","","","","","","","",""
"revaluation","262","1294862","0.0-4.0-8.0-0.0","spark_pilot_2","7580","2","21","Male","","false","","","","","[1470.4000000003725]","./assets/img/ocean/test/0.jpg","[""ArrowUp""]","first stage test","ocean","0","{""ArrowUp,ArrowLeft"":27,""ArrowUp,ArrowRight"":15,""ArrowDown,ArrowLeft"":21,""ArrowDown,ArrowRight"":7}","true","ArrowUp","false","","","revaluation","1","","","",""
"html-keyboard-response","263","1295366","0.0-4.0-8.0-1.0","spark_pilot_2","7580","2","21","Male","","","","","","","null","<div style=""font-size:60px;"">+</div>","null","fixation","","","","","","","","","","","","","",""
"revaluation","264","1295857","0.0-4.0-8.0-0.1","spark_pilot_2","7580","2","21","Male","","false","","","","","[489]","./assets/img/ocean/test/3.jpg","[""ArrowUp""]","first stage test","ocean","0","{""ArrowUp,ArrowLeft"":27,""ArrowUp,ArrowRight"":15,""ArrowDown,ArrowLeft"":21,""ArrowDown,ArrowRight"":7}","true","ArrowUp","false","","","revaluation","1","","","",""
"html-keyboard-response","265","1296359","0.0-4.0-8.0-1.1","spark_pilot_2","7580","2","21","Male","","","","","","","null","<div style=""font-size:60px;"">+</div>","null","fixation","","","","","","","","","","","","","",""
"revaluation","266","1296751","0.0-4.0-8.0-0.2","spark_pilot_2","7580","2","21","Male","","false","","","","","[390.40000000037253]","./assets/img/ocean/test/2.jpg","[""ArrowUp""]","first stage test","ocean","0","{""ArrowUp,ArrowLeft"":27,""ArrowUp,ArrowRight"":15,""ArrowDown,ArrowLeft"":21,""ArrowDown,ArrowRight"":7}","true","ArrowUp","false","","","revaluation","1","","","",""
"html-keyboard-response","267","1297260","0.0-4.0-8.0-1.2","spark_pilot_2","7580","2","21","Male","","","","","","","null","<div style=""font-size:60px;"">+</div>","null","fixation","","","","","","","","","","","","","",""
"revaluation","268","1297698","0.0-4.0-8.0-0.3","spark_pilot_2","7580","2","21","Male","","false","","","","","[436.2999999988824]","./assets/img/ocean/test/1.jpg","[""ArrowDown""]","first stage test","ocean","0","{""ArrowUp,ArrowLeft"":27,""ArrowUp,ArrowRight"":15,""ArrowDown,ArrowLeft"":21,""ArrowDown,ArrowRight"":7}","false","ArrowDown","false","","","revaluation","1","","","",""
"html-keyboard-response","269","1298212","0.0-4.0-8.0-1.3","spark_pilot_2","7580","2","21","Male","","","","","","","null","<div style=""font-size:60px;"">+</div>","null","fixation","","","","","","","","","","","","","",""
"learning-instructions","270","1318747","0.0-4.0-9.0-0.0","spark_pilot_2","7580","2","21","Male","","","","","","","9199.199999999255","<p> Now you will see the animals again and can search their chests for treasure. </p>
            <p> This time, you will not see how much treasure you earned, but you will earn more bonus money for making better choices. </p>","","instructions","","","","","","","","","","","","","",""
"revaluation","271","1319958","0.0-4.0-10.0-0.0","spark_pilot_2","7580","2","21","Male","","false","","","","","[1209.7000000011176]","./assets/img/ocean/animals/octopus.jpg","[""ArrowRight""]","second stage test","ocean","0","{""ArrowUp,ArrowLeft"":27,""ArrowUp,ArrowRight"":15,""ArrowDown,ArrowLeft"":21,""ArrowDown,ArrowRight"":7}","false","ArrowUp,ArrowRight","","","","revaluation","1","","","",""
"html-keyboard-response","272","1320467","0.0-4.0-10.0-1.0","spark_pilot_2","7580","2","21","Male","","","","","","","null","<div style=""font-size:60px;"">+</div>","null","fixation","","","","","","","","","","","","","",""
"revaluation","273","1321016","0.0-4.0-10.0-0.1","spark_pilot_2","7580","2","21","Male","","false","","","","","[546.8000000007451]","./assets/img/ocean/animals/octopus.jpg","[""ArrowRight""]","second stage test","ocean","0","{""ArrowUp,ArrowLeft"":27,""ArrowUp,ArrowRight"":15,""ArrowDown,ArrowLeft"":21,""ArrowDown,ArrowRight"":7}","false","ArrowUp,ArrowRight","","","","revaluation","1","","","",""
"html-keyboard-response","274","1321526","0.0-4.0-10.0-1.1","spark_pilot_2","7580","2","21","Male","","","","","","","null","<div style=""font-size:60px;"">+</div>","null","fixation","","","","","","","","","","","","","",""
"revaluation","275","1322129","0.0-4.0-10.0-0.2","spark_pilot_2","7580","2","21","Male","","false","","","","","[600.6999999992549]","./assets/img/ocean/animals/octopus.jpg","[""ArrowRight""]","second stage test","ocean","0","{""ArrowUp,ArrowLeft"":27,""ArrowUp,ArrowRight"":15,""ArrowDown,ArrowLeft"":21,""ArrowDown,ArrowRight"":7}","false","ArrowUp,ArrowRight","","","","revaluation","1","","","",""
"html-keyboard-response","276","1322631","0.0-4.0-10.0-1.2","spark_pilot_2","7580","2","21","Male","","","","","","","null","<div style=""font-size:60px;"">+</div>","null","fixation","","","","","","","","","","","","","",""
"revaluation","277","1323584","0.0-4.0-10.0-0.3","spark_pilot_2","7580","2","21","Male","","false","","","","","[950.3000000007451]","./assets/img/ocean/animals/octopus.jpg","[""ArrowLeft""]","second stage test","ocean","0","{""ArrowUp,ArrowLeft"":27,""ArrowUp,ArrowRight"":15,""ArrowDown,ArrowLeft"":21,""ArrowDown,ArrowRight"":7}","true","ArrowUp,ArrowLeft","","","","revaluation","1","","","",""
"html-keyboard-response","278","1324094","0.0-4.0-10.0-1.3","spark_pilot_2","7580","2","21","Male","","","","","","","null","<div style=""font-size:60px;"">+</div>","null","fixation","","","","","","","","","","","","","",""
"revaluation","279","1324379","0.0-4.0-10.0-0.4","spark_pilot_2","7580","2","21","Male","","false","","","","","[282.19999999925494]","./assets/img/ocean/animals/seahorse.jpg","[""ArrowRight""]","second stage test","ocean","0","{""ArrowUp,ArrowLeft"":27,""ArrowUp,ArrowRight"":15,""ArrowDown,ArrowLeft"":21,""ArrowDown,ArrowRight"":7}","false","ArrowDown,ArrowRight","","","","revaluation","1","","","",""
"html-keyboard-response","280","1324892","0.0-4.0-10.0-1.4","spark_pilot_2","7580","2","21","Male","","","","","","","null","<div style=""font-size:60px;"">+</div>","null","fixation","","","","","","","","","","","","","",""
"revaluation","281","1325290","0.0-4.0-10.0-0.5","spark_pilot_2","7580","2","21","Male","","false","","","","","[396.09999999962747]","./assets/img/ocean/animals/seahorse.jpg","[""ArrowRight""]","second stage test","ocean","0","{""ArrowUp,ArrowLeft"":27,""ArrowUp,ArrowRight"":15,""ArrowDown,ArrowLeft"":21,""ArrowDown,ArrowRight"":7}","false","ArrowDown,ArrowRight","","","","revaluation","1","","","",""
"html-keyboard-response","282","1325802","0.0-4.0-10.0-1.5","spark_pilot_2","7580","2","21","Male","","","","","","","null","<div style=""font-size:60px;"">+</div>","null","fixation","","","","","","","","","","","","","",""
"revaluation","283","1326340","0.0-4.0-10.0-0.6","spark_pilot_2","7580","2","21","Male","","false","","","","","[535.5999999996275]","./assets/img/ocean/animals/seahorse.jpg","[""ArrowRight""]","second stage test","ocean","0","{""ArrowUp,ArrowLeft"":27,""ArrowUp,ArrowRight"":15,""ArrowDown,ArrowLeft"":21,""ArrowDown,ArrowRight"":7}","false","ArrowDown,ArrowRight","","","","revaluation","1","","","",""
"html-keyboard-response","284","1326847","0.0-4.0-10.0-1.6","spark_pilot_2","7580","2","21","Male","","","","","","","null","<div style=""font-size:60px;"">+</div>","null","fixation","","","","","","","","","","","","","",""
"revaluation","285","1327740","0.0-4.0-10.0-0.7","spark_pilot_2","7580","2","21","Male","","false","","","","","[891.0999999996275]","./assets/img/ocean/animals/seahorse.jpg","[""ArrowRight""]","second stage test","ocean","0","{""ArrowUp,ArrowLeft"":27,""ArrowUp,ArrowRight"":15,""ArrowDown,ArrowLeft"":21,""ArrowDown,ArrowRight"":7}","false","ArrowDown,ArrowRight","","","","revaluation","1","","","",""
"html-keyboard-response","286","1328255","0.0-4.0-10.0-1.7","spark_pilot_2","7580","2","21","Male","","","","","","","null","<div style=""font-size:60px;"">+</div>","null","fixation","","","","","","","","","","","","","",""
"learning-instructions","287","1344935","0.0-4.0-0.1-0.2","spark_pilot_2","7580","2","21","Male","","","","","","","13907","<p> This time you are searching for treasure in the <b>canyon</b>.</p>","","instructions","","","","","","","","","","","","","",""
"learning-instructions","288","1367063","0.0-4.0-0.1-0.3","spark_pilot_2","7580","2","21","Male","","","","","","","4885.4000000003725","<p><b>New</b> animals with <b>new</b> treasure chests live here. You need to explore to discover where the animal with the best treasure chest is.</p>
                    <p> Like before, once you figure out which animal has the chest with the most treasure, you should try to get to that animal and select that chest! </p>","","instructions","","","","","","","","","","","","","",""
"learning-instructions","289","1385033","0.0-4.0-1.1-0.1","spark_pilot_2","7580","2","21","Male","","","","","","","3245.5","<p> Remember, when you see a picture of the place, use the up and down keys to <b>find an animal</b>.</p>
            <p> When you encounter an animal, you should use the left and right keys to <b>select a treasure chest</b>.</p>
            <p> Don't forget to look out for the robber! </p>","","instructions","","","","","","","","","","","","","",""
"revaluation","290","1391075","0.0-4.0-2.1-0.50","spark_pilot_2","7580","2","21","Male","","false","","","","","[1677,610.2000000011176]","./assets/img/canyon/memory/6.jpg","[""ArrowUp"",""ArrowRight""]","value training","canyon","10","{""ArrowUp,ArrowLeft"":26,""ArrowUp,ArrowRight"":10,""ArrowDown,ArrowLeft"":5,""ArrowDown,ArrowRight"":17}","false","ArrowUp,ArrowRight","false","","","original","2","0","","",""
"html-keyboard-response","291","1391590","0.0-4.0-2.1-1.50","spark_pilot_2","7580","2","21","Male","","","","","","","null","<div style=""font-size:60px;"">+</div>","null","fixation","","","","","","","","","","","1","","",""
"revaluation","292","1397620","0.0-4.0-2.1-0.51","spark_pilot_2","7580","2","21","Male","","false","","","","","[1697.800000000745,857.4000000003725]","./assets/img/canyon/memory/30.jpg","[""ArrowDown"",""ArrowLeft""]","value training","canyon","5","{""ArrowUp,ArrowLeft"":26,""ArrowUp,ArrowRight"":10,""ArrowDown,ArrowLeft"":5,""ArrowDown,ArrowRight"":17}","false","ArrowDown,ArrowLeft","false","","","original","2","2","","",""
"html-keyboard-response","293","1398134","0.0-4.0-2.1-1.51","spark_pilot_2","7580","2","21","Male","","","","","","","null","<div style=""font-size:60px;"">+</div>","null","fixation","","","","","","","","","","","3","","",""
"revaluation","294","1402143","0.0-4.0-2.1-0.52","spark_pilot_2","7580","2","21","Male","","true","","","","","[]","./assets/img/canyon/memory/35.jpg","[]","value training","canyon","-5","{""ArrowUp,ArrowLeft"":26,""ArrowUp,ArrowRight"":10,""ArrowDown,ArrowLeft"":5,""ArrowDown,ArrowRight"":17}","false","","false","","","original","2","4","","",""
"html-keyboard-response","295","1402658","0.0-4.0-2.1-1.52","spark_pilot_2","7580","2","21","Male","","","","","","","null","<div style=""font-size:60px;"">+</div>","null","fixation","","","","","","","","","","","5","","",""
"revaluation","296","1406667","0.0-4.0-2.1-0.53","spark_pilot_2","7580","2","21","Male","","true","","","","","[]","./assets/img/canyon/memory/4.jpg","[]","value training","canyon","-5","{""ArrowUp,ArrowLeft"":26,""ArrowUp,ArrowRight"":10,""ArrowDown,ArrowLeft"":5,""ArrowDown,ArrowRight"":17}","false","","false","","","original","2","6","","",""
"html-keyboard-response","297","1407182","0.0-4.0-2.1-1.53","spark_pilot_2","7580","2","21","Male","","","","","","","null","<div style=""font-size:60px;"">+</div>","null","fixation","","","","","","","","","","","7","","",""
"revaluation","298","1413194","0.0-4.0-2.1-0.54","spark_pilot_2","7580","2","21","Male","","true","","","","","[989.2000000011176]","./assets/img/canyon/memory/30.jpg","[""ArrowUp""]","value training","canyon","-5","{""ArrowUp,ArrowLeft"":26,""ArrowUp,ArrowRight"":10,""ArrowDown,ArrowLeft"":5,""ArrowDown,ArrowRight"":17}","false","ArrowUp","false","","","original","2","8","","",""
"html-keyboard-response","299","1413696","0.0-4.0-2.1-1.54","spark_pilot_2","7580","2","21","Male","","","","","","","null","<div style=""font-size:60px;"">+</div>","null","fixation","","","","","","","","","","","9","","",""
"revaluation","300","1419701","0.0-4.0-2.1-0.55","spark_pilot_2","7580","2","21","Male","","true","","","","","[1291.0999999996275]","./assets/img/canyon/memory/39.jpg","[""ArrowUp""]","value training","canyon","-5","{""ArrowUp,ArrowLeft"":26,""ArrowUp,ArrowRight"":10,""ArrowDown,ArrowLeft"":5,""ArrowDown,ArrowRight"":17}","false","ArrowUp","false","","","original","2","10","","",""
"html-keyboard-response","301","1420203","0.0-4.0-2.1-1.55","spark_pilot_2","7580","2","21","Male","","","","","","","null","<div style=""font-size:60px;"">+</div>","null","fixation","","","","","","","","","","","11","","",""
"revaluation","302","1426208","0.0-4.0-2.1-0.56","spark_pilot_2","7580","2","21","Male","","false","","","","","[534.2999999988824,45.40000000037253]","./assets/img/canyon/memory/4.jpg","[""ArrowUp"",""ArrowRight""]","value training","canyon","10","{""ArrowUp,ArrowLeft"":26,""ArrowUp,ArrowRight"":10,""ArrowDown,ArrowLeft"":5,""ArrowDown,ArrowRight"":17}","false","ArrowUp,ArrowRight","false","","","original","2","12","","",""
"html-keyboard-response","303","1426711","0.0-4.0-2.1-1.56","spark_pilot_2","7580","2","21","Male","","","","","","","null","<div style=""font-size:60px;"">+</div>","null","fixation","","","","","","","","","","","13","","",""
"revaluation","304","1432715","0.0-4.0-2.1-0.57","spark_pilot_2","7580","2","21","Male","","true","","","","","[1953.1000000014901]","./assets/img/canyon/memory/18.jpg","[""ArrowUp""]","value training","canyon","-5","{""ArrowUp,ArrowLeft"":26,""ArrowUp,ArrowRight"":10,""ArrowDown,ArrowLeft"":5,""ArrowDown,ArrowRight"":17}","false","ArrowUp","false","","","original","2","14","","",""
"html-keyboard-response","305","1433217","0.0-4.0-2.1-1.57","spark_pilot_2","7580","2","21","Male","","","","","","","null","<div style=""font-size:60px;"">+</div>","null","fixation","","","","","","","","","","","15","","",""
"revaluation","306","1437220","0.0-4.0-2.1-0.58","spark_pilot_2","7580","2","21","Male","","false","","","","","[1848.5]","./assets/img/canyon/catch/3.jpg","[""ArrowUp""]","value training","canyon","-10","{""ArrowUp,ArrowLeft"":26,""ArrowUp,ArrowRight"":10,""ArrowDown,ArrowLeft"":5,""ArrowDown,ArrowRight"":17}","false","ArrowUp","true","","","original","2","16","","",""
"html-keyboard-response","307","1437723","0.0-4.0-2.1-1.58","spark_pilot_2","7580","2","21","Male","","","","","","","null","<div style=""font-size:60px;"">+</div>","null","fixation","","","","","","","","","","","17","","",""
"revaluation","308","1443729","0.0-4.0-2.1-0.59","spark_pilot_2","7580","2","21","Male","","false","","","","","[57.09999999962747,33.19999999925494]","./assets/img/canyon/memory/36.jpg","[""ArrowUp"",""ArrowLeft""]","value training","canyon","26","{""ArrowUp,ArrowLeft"":26,""ArrowUp,ArrowRight"":10,""ArrowDown,ArrowLeft"":5,""ArrowDown,ArrowRight"":17}","true","ArrowUp,ArrowLeft","false","","","original","2","18","","",""
"html-keyboard-response","309","1444230","0.0-4.0-2.1-1.59","spark_pilot_2","7580","2","21","Male","","","","","","","null","<div style=""font-size:60px;"">+</div>","null","fixation","","","","","","","","","","","19","","",""
"revaluation","310","1448234","0.0-4.0-2.1-0.60","spark_pilot_2","7580","2","21","Male","","false","","","","","[1839.300000000745]","./assets/img/canyon/catch/6.jpg","[""spaceBar""]","value training","canyon","0","{""ArrowUp,ArrowLeft"":26,""ArrowUp,ArrowRight"":10,""ArrowDown,ArrowLeft"":5,""ArrowDown,ArrowRight"":17}","true","spaceBar","true","","","original","2","20","","",""
"html-keyboard-response","311","1448736","0.0-4.0-2.1-1.60","spark_pilot_2","7580","2","21","Male","","","","","","","null","<div style=""font-size:60px;"">+</div>","null","fixation","","","","","","","","","","","21","","",""
"revaluation","312","1452740","0.0-4.0-2.1-0.61","spark_pilot_2","7580","2","21","Male","","true","","","","","[]","./assets/img/canyon/memory/19.jpg","[]","value training","canyon","-5","{""ArrowUp,ArrowLeft"":26,""ArrowUp,ArrowRight"":10,""ArrowDown,ArrowLeft"":5,""ArrowDown,ArrowRight"":17}","false","","false","","","original","2","22","","",""
