"trial_type","trial_index","time_elapsed","internal_node_id","task_version","subject_id","assigned_condition","age","gender","success","timeout","failed_images","failed_audio","failed_video","browser_interaction","rt","stimulus","response","task_part","environment","score","rewardMap","correct","fullState","isCatch","numberMissed","duration","condition","order","trial_num","key_press","ground_truth","bonus"
"pavlovia","0","914","0.0-0.0","spark_pilot_2","7451","1","19","Female","","","","","","","","","","","","","","","","","","","","","","","",""
"preload","1","12070","0.0-1.0","spark_pilot_2","7451","1","19","Female","true","false","[]","[]","[]","[{""event"":""fullscreenenter"",""trial"":2,""time"":22260}]","","","","","","","","","","","","","","","","","",""
"fullscreen","2","23222","0.0-2.0","spark_pilot_2","7451","1","19","Female","true","","","","","","","","","","","","","","","","","","","","","","",""
"audio-button-response","3","25855","0.0-3.0-0.0-0.0","spark_pilot_2","7451","1","19","Female","","","","","","","2291","./assets/audio/audiotest/turtle.mp3","2","audio_test","","","","","","","","","","","","","",""
"learning-instructions","4","34124","0.0-3.0-1.0-0.0","spark_pilot_2","7451","1","19","Female","","","","","","","1257.3999999761581","<p> Welcome! Please remember to stay in fullscreen mode and don't click away from the experiment. </p>","","instructions","","","","","","","","","","","","","",""
"learning-instructions","5","46600","0.0-3.0-1.0-0.1","spark_pilot_2","7451","1","19","Female","","","","","","","4024","<p> Today you will be playing a game to earn treasure. </p>
            <p> At the end of the experiment, you will earn a bonus based on how much treasure you find. </p>
            <img src='./assets/img/instructions/treasure.jpg' class='instructions-image'>","","instructions","","","","","","","","","","","","","",""
"learning-instructions","6","55550","0.0-3.0-1.0-0.2","spark_pilot_2","7451","1","19","Female","","","","","","","654.3000000119209","<p> Animals have hidden treasure in treasure chests. </p>
            <p> You need to first find an animal and then choose which of their treasure chests to search. </p>
            <img src='./assets/img/space/animals/cat.jpg' class='instructions-image'>","","instructions","","","","","","","","","","","","","",""
"learning-instructions","7","70274","0.0-3.0-1.0-0.3","spark_pilot_2","7451","1","19","Female","","","","","","","1563","<p> In each round, you will search for treasure in a different place. In the real game, there will be two rounds. </p>
            <p> You will begin with a separate, practice round where you will search for treasure in outer space. </p>
            <img src='./assets/img/space/0.jpg' class='instructions-image'>","","instructions","","","","","","","","","","","","","",""
"learning-instructions","8","82748","0.0-3.0-1.0-0.4","spark_pilot_2","7451","1","19","Female","","","","","","","1037.199999988079","<p> On every turn, you will see a picture of the place that you are in, but the specific image may be different each time. </p>
            <p> For example, both of these images mean you are in outer space. </p>
            <img src='./assets/img/instructions/outerspace.jpg' class='instructions-image'>","","instructions","","","","","","","","","","","","","",""
"learning-instructions","9","91350","0.0-3.0-1.0-0.5","spark_pilot_2","7451","1","19","Female","","","","","","","746.3000000119209","<p> You need to decide which direction to travel in. </p>
            <p> You can choose between going <b>up or down</b> by using the arrow keys. </p>
            <img src='./assets/img/instructions/updown.jpg' class='instructions-image'>","","instructions","","","","","","","","","","","","","",""
"learning-instructions","10","105610","0.0-3.0-1.0-0.6","spark_pilot_2","7451","1","19","Female","","","","","","","5399.5","<p> You will have <b>2 seconds</b> to make your choice. </p>
            <p> If you do not make a choice within 2 seconds, you will not find an animal or earn treasure. </p>
            <img src='./assets/img/instructions/2seconds.jpg' class='instructions-image'>","","instructions","","","","","","","","","","","","","",""
"learning-instructions","11","113639","0.0-3.0-1.0-0.7","spark_pilot_2","7451","1","19","Female","","","","","","","968","<p> Let’s try practicing that now! </p>
            <p> When you see a picture of the place you are in, press the <b>up</b> key to travel up. </p>
            <img src='./assets/img/instructions/pressUp.jpg' class='instructions-image'>","","instructions","","","","","","","","","","","","","",""
"revaluation","12","117685","0.0-3.0-2.0-0.0","spark_pilot_2","7451","1","19","Female","","false","","","","","[790.3000000119209]","./assets/img/space/0.jpg","[""ArrowUp""]","first stage practice","space","0","null","null","ArrowUp","false","","","","","","","",""
"html-keyboard-response","13","118203","0.0-3.0-2.0-1.0","spark_pilot_2","7451","1","19","Female","","","","","","","null","<div style=""font-size:60px;"">+</div>","null","fixation","","","","","","","","","","","","","",""
"revaluation","14","122231","0.0-3.0-2.0-0.1","spark_pilot_2","7451","1","19","Female","","false","","","","","[1533.199999988079]","./assets/img/space/1.jpg","[""ArrowUp""]","first stage practice","space","0","null","null","ArrowUp","false","","","","","","","",""
"html-keyboard-response","15","122736","0.0-3.0-2.0-1.1","spark_pilot_2","7451","1","19","Female","","","","","","","null","<div style=""font-size:60px;"">+</div>","null","fixation","","","","","","","","","","","","","",""
"revaluation","16","126760","0.0-3.0-2.0-0.2","spark_pilot_2","7451","1","19","Female","","true","","","","","[]","./assets/img/space/2.jpg","[]","first stage practice","space","-5","null","null","","false","","","","","","","",""
"html-keyboard-response","17","127279","0.0-3.0-2.0-1.2","spark_pilot_2","7451","1","19","Female","","","","","","","null","<div style=""font-size:60px;"">+</div>","null","fixation","","","","","","","","","","","","","",""
"learning-instructions","18","135032","0.0-3.0-3.0-0.0","spark_pilot_2","7451","1","19","Female","","","","","","","3030","<p> Great job! Now try pressing the <b>down</b> key to travel down. </p>
            <img src='./assets/img/instructions/pressDown.jpg' class='instructions-image'>","","instructions","","","","","","","","","","","","","",""
"revaluation","19","139043","0.0-3.0-4.0-0.0","spark_pilot_2","7451","1","19","Female","","false","","","","","[680.2999999523163]","./assets/img/space/3.jpg","[""ArrowDown""]","first stage practice","space","0","null","null","ArrowDown","false","","","","","","","",""
"html-keyboard-response","20","139550","0.0-3.0-4.0-1.0","spark_pilot_2","7451","1","19","Female","","","","","","","null","<div style=""font-size:60px;"">+</div>","null","fixation","","","","","","","","","","","","","",""
"revaluation","21","143576","0.0-3.0-4.0-0.1","spark_pilot_2","7451","1","19","Female","","false","","","","","[497.89999997615814]","./assets/img/space/4.jpg","[""ArrowDown""]","first stage practice","space","0","null","null","ArrowDown","false","","","","","","","",""
"html-keyboard-response","22","144080","0.0-3.0-4.0-1.1","spark_pilot_2","7451","1","19","Female","","","","","","","null","<div style=""font-size:60px;"">+</div>","null","fixation","","","","","","","","","","","","","",""
"revaluation","23","148101","0.0-3.0-4.0-0.2","spark_pilot_2","7451","1","19","Female","","false","","","","","[619.3999999761581]","./assets/img/space/5.jpg","[""ArrowDown""]","first stage practice","space","0","null","null","ArrowDown","false","","","","","","","",""
"html-keyboard-response","24","148608","0.0-3.0-4.0-1.2","spark_pilot_2","7451","1","19","Female","","","","","","","null","<div style=""font-size:60px;"">+</div>","null","fixation","","","","","","","","","","","","","",""
"learning-instructions","25","161314","0.0-3.0-5.0-0.0","spark_pilot_2","7451","1","19","Female","","","","","","","2813","<p> The animals don’t move, so the animal in the upper part of a place will stay in the upper part of a place, and the animal in the lower part of a place will stay in the lower part of a place. </p>","","instructions","","","","","","","","","","","","","",""
"learning-instructions","26","171238","0.0-3.0-5.0-0.1","spark_pilot_2","7451","1","19","Female","","","","","","","786.7999999523163","<p> Each animal has two treasure chests for you to choose from. </p>
            <p> The amount of treasure in each chest can range from <b> 0 to 40 pieces.</b></p>","","instructions","","","","","","","","","","","","","",""
"learning-instructions","27","184494","0.0-3.0-5.0-0.2","spark_pilot_2","7451","1","19","Female","","","","","","","2062.699999988079","<p> You should decide which chest to search for treasure by using the <b>left</b> and <b>right</b> arrow keys. </p>
            <p><b> Pay attention to which animal is on the screen, as the animals have different treasure chests. </b></p>
            <img src='./assets/img/instructions/leftright.jpg' class='instructions-image'>","","instructions","","","","","","","","","","","","","",""
"learning-instructions","28","192171","0.0-3.0-5.0-0.3","spark_pilot_2","7451","1","19","Female","","","","","","","1311.5","<p> Let’s try practicing that now. </p>
            <p> When you see an animal, choose which chest to search for treasure. </p>
            <img src='./assets/img/instructions/chooseChest.jpg' class='instructions-image'>","","instructions","","","","","","","","","","","","","",""
"revaluation","29","196199","0.0-3.0-6.0-0.0","spark_pilot_2","7451","1","19","Female","","false","","","","","[731.2000000476837]","./assets/img/space/animals/cat.jpg","[""ArrowRight""]","second stage practice","space","36","{""ArrowUp,ArrowLeft"":3,""ArrowUp,ArrowRight"":36,""ArrowDown,ArrowLeft"":15,""ArrowDown,ArrowRight"":23}","true","ArrowUp,ArrowRight","","","","","","","","",""
"html-keyboard-response","30","196705","0.0-3.0-6.0-1.0","spark_pilot_2","7451","1","19","Female","","","","","","","null","<div style=""font-size:60px;"">+</div>","null","fixation","","","","","","","","","","","","","",""
"revaluation","31","200726","0.0-3.0-6.0-0.1","spark_pilot_2","7451","1","19","Female","","false","","","","","[644.4000000357628]","./assets/img/space/animals/rabbit.jpg","[""ArrowLeft""]","second stage practice","space","15","{""ArrowUp,ArrowLeft"":3,""ArrowUp,ArrowRight"":36,""ArrowDown,ArrowLeft"":15,""ArrowDown,ArrowRight"":23}","false","ArrowDown,ArrowLeft","","","","","","","","",""
"html-keyboard-response","32","201235","0.0-3.0-6.0-1.1","spark_pilot_2","7451","1","19","Female","","","","","","","null","<div style=""font-size:60px;"">+</div>","null","fixation","","","","","","","","","","","","","",""
"revaluation","33","205259","0.0-3.0-6.0-0.2","spark_pilot_2","7451","1","19","Female","","false","","","","","[1194.8999999761581]","./assets/img/space/animals/cat.jpg","[""ArrowRight""]","second stage practice","space","36","{""ArrowUp,ArrowLeft"":3,""ArrowUp,ArrowRight"":36,""ArrowDown,ArrowLeft"":15,""ArrowDown,ArrowRight"":23}","true","ArrowUp,ArrowRight","","","","","","","","",""
"html-keyboard-response","34","205766","0.0-3.0-6.0-1.2","spark_pilot_2","7451","1","19","Female","","","","","","","null","<div style=""font-size:60px;"">+</div>","null","fixation","","","","","","","","","","","","","",""
"revaluation","35","209787","0.0-3.0-6.0-0.3","spark_pilot_2","7451","1","19","Female","","false","","","","","[553.5]","./assets/img/space/animals/rabbit.jpg","[""ArrowRight""]","second stage practice","space","23","{""ArrowUp,ArrowLeft"":3,""ArrowUp,ArrowRight"":36,""ArrowDown,ArrowLeft"":15,""ArrowDown,ArrowRight"":23}","true","ArrowDown,ArrowRight","","","","","","","","",""
"html-keyboard-response","36","210294","0.0-3.0-6.0-1.3","spark_pilot_2","7451","1","19","Female","","","","","","","null","<div style=""font-size:60px;"">+</div>","null","fixation","","","","","","","","","","","","","",""
"learning-instructions","37","241007","0.0-3.0-7.0-0.0","spark_pilot_2","7451","1","19","Female","","","","","","","13857.399999976158","<p> Great job. Now let’s try putting it together. </p>
            <p> On each turn, you will first see a picture to remind you of the place you are in, and you need to choose whether to go up or down. </p>
            <p> Then you will see an animal and choose which of its chests to search for treasure. </p>","","instructions","","","","","","","","","","","","","",""
"learning-instructions","38","250428","0.0-3.0-7.0-0.1","spark_pilot_2","7451","1","19","Female","","","","","","","1117.0999999642372","<p> When you choose whether to go up or down, try to go to the animal with the chest with the most treasure. </p>
            <p> Try practicing that now! </p>","","instructions","","","","","","","","","","","","","",""
"revaluation","39","256452","0.0-3.0-8.0-0.0","spark_pilot_2","7451","1","19","Female","","false","","","","","[990.6000000238419,789.8000000119209]","./assets/img/space/6.jpg","[""ArrowUp"",""ArrowRight""]","full practice","space","36","{""ArrowUp,ArrowLeft"":3,""ArrowUp,ArrowRight"":36,""ArrowDown,ArrowLeft"":15,""ArrowDown,ArrowRight"":23}","true","ArrowUp,ArrowRight","false","","","","","","","",""
"html-keyboard-response","40","256957","0.0-3.0-8.0-1.0","spark_pilot_2","7451","1","19","Female","","","","","","","null","<div style=""font-size:60px;"">+</div>","null","fixation","","","","","","","","","","","","","",""
"revaluation","41","263009","0.0-3.0-8.0-0.1","spark_pilot_2","7451","1","19","Female","","false","","","","","[860.6999999880791,624.0999999642372]","./assets/img/space/7.jpg","[""ArrowDown"",""ArrowLeft""]","full practice","space","15","{""ArrowUp,ArrowLeft"":3,""ArrowUp,ArrowRight"":36,""ArrowDown,ArrowLeft"":15,""ArrowDown,ArrowRight"":23}","false","ArrowDown,ArrowLeft","false","","","","","","","",""
"html-keyboard-response","42","263520","0.0-3.0-8.0-1.1","spark_pilot_2","7451","1","19","Female","","","","","","","null","<div style=""font-size:60px;"">+</div>","null","fixation","","","","","","","","","","","","","",""
"revaluation","43","269558","0.0-3.0-8.0-0.2","spark_pilot_2","7451","1","19","Female","","false","","","","","[657.3999999761581,559.5]","./assets/img/space/8.jpg","[""ArrowUp"",""ArrowRight""]","full practice","space","36","{""ArrowUp,ArrowLeft"":3,""ArrowUp,ArrowRight"":36,""ArrowDown,ArrowLeft"":15,""ArrowDown,ArrowRight"":23}","true","ArrowUp,ArrowRight","false","","","","","","","",""
"html-keyboard-response","44","270070","0.0-3.0-8.0-1.2","spark_pilot_2","7451","1","19","Female","","","","","","","null","<div style=""font-size:60px;"">+</div>","null","fixation","","","","","","","","","","","","","",""
"revaluation","45","276097","0.0-3.0-8.0-0.3","spark_pilot_2","7451","1","19","Female","","false","","","","","[569.3000000119209,493.10000002384186]","./assets/img/space/9.jpg","[""ArrowUp"",""ArrowRight""]","full practice","space","36","{""ArrowUp,ArrowLeft"":3,""ArrowUp,ArrowRight"":36,""ArrowDown,ArrowLeft"":15,""ArrowDown,ArrowRight"":23}","true","ArrowUp,ArrowRight","false","","","","","","","",""
"html-keyboard-response","46","276618","0.0-3.0-8.0-1.3","spark_pilot_2","7451","1","19","Female","","","","","","","null","<div style=""font-size:60px;"">+</div>","null","fixation","","","","","","","","","","","","","",""
"revaluation","47","282643","0.0-3.0-8.0-0.4","spark_pilot_2","7451","1","19","Female","","false","","","","","[791.5,469.9000000357628]","./assets/img/space/10.jpg","[""ArrowUp"",""ArrowRight""]","full practice","space","36","{""ArrowUp,ArrowLeft"":3,""ArrowUp,ArrowRight"":36,""ArrowDown,ArrowLeft"":15,""ArrowDown,ArrowRight"":23}","true","ArrowUp,ArrowRight","false","","","","","","","",""
"html-keyboard-response","48","283152","0.0-3.0-8.0-1.4","spark_pilot_2","7451","1","19","Female","","","","","","","null","<div style=""font-size:60px;"">+</div>","null","fixation","","","","","","","","","","","","","",""
"learning-instructions","49","297626","0.0-3.0-9.0-0.0","spark_pilot_2","7451","1","19","Female","","","","","","","4136.599999964237","<p> One last thing: sometimes, you will see a robber. The robber can be anywhere in the picture. </p>
            <p> If you do not stop them, you will lose treasure. </p>
            <img src='./assets/img/instructions/robber.jpg' class='instructions-image'>","","instructions","","","","","","","","","","","","","",""
"learning-instructions","50","306027","0.0-3.0-9.0-0.1","spark_pilot_2","7451","1","19","Female","","","","","","","1208.1000000238419","<p> If you see the robber, you should <b>press the space bar</b> rather than using the arrow keys. </p>
            <p> Try practicing that now! </p>","","instructions","","","","","","","","","","","","","",""
"revaluation","51","310054","0.0-3.0-10.0-0.0","spark_pilot_2","7451","1","19","Female","","false","","","","","[956.3999999761581]","./assets/img/space/catch/0.jpg","[""ArrowUp""]","catch practice","space","-10","{""ArrowUp,ArrowLeft"":3,""ArrowUp,ArrowRight"":36,""ArrowDown,ArrowLeft"":15,""ArrowDown,ArrowRight"":23}","false","ArrowUp","true","","","","","","","",""
"html-keyboard-response","52","310565","0.0-3.0-10.0-1.0","spark_pilot_2","7451","1","19","Female","","","","","","","null","<div style=""font-size:60px;"">+</div>","null","fixation","","","","","","","","","","","","","",""
"revaluation","53","314586","0.0-3.0-10.0-0.1","spark_pilot_2","7451","1","19","Female","","false","","","","","[764.6999999880791]","./assets/img/space/catch/1.jpg","[""spaceBar""]","catch practice","space","0","{""ArrowUp,ArrowLeft"":3,""ArrowUp,ArrowRight"":36,""ArrowDown,ArrowLeft"":15,""ArrowDown,ArrowRight"":23}","true","spaceBar","true","","","","","","","",""
"html-keyboard-response","54","315091","0.0-3.0-10.0-1.1","spark_pilot_2","7451","1","19","Female","","","","","","","null","<div style=""font-size:60px;"">+</div>","null","fixation","","","","","","","","","","","","","",""
"revaluation","55","319112","0.0-3.0-10.0-0.2","spark_pilot_2","7451","1","19","Female","","false","","","","","[438.30000001192093]","./assets/img/space/catch/2.jpg","[""spaceBar""]","catch practice","space","0","{""ArrowUp,ArrowLeft"":3,""ArrowUp,ArrowRight"":36,""ArrowDown,ArrowLeft"":15,""ArrowDown,ArrowRight"":23}","true","spaceBar","true","","","","","","","",""
"html-keyboard-response","56","319626","0.0-3.0-10.0-1.2","spark_pilot_2","7451","1","19","Female","","","","","","","null","<div style=""font-size:60px;"">+</div>","null","fixation","","","","","","","","","","","","","",""
"learning-instructions","57","335187","0.0-3.0-11.0-0.0","spark_pilot_2","7451","1","19","Female","","","","","","","1889.300000011921","<p> After you explore a place to find treasure, it will be time to play a different game. </p>
            <p> During this game, red dots will appear on the screen and fall down slowly. </p>
            <p><b> You must click on them before they reach the bottom. </b></p>
            <img src='./assets/img/instructions/dotGame.jpg' class='instructions-image'>","","instructions","","","","","","","","","","","","","",""
"learning-instructions","58","355942","0.0-3.0-11.0-0.1","spark_pilot_2","7451","1","19","Female","","","","","","","15064.899999976158","<p> For every dot you click, you will earn additional treasure. </p>
            <p> Let’s try practicing that now. </p>","","instructions","","","","","","","","","","","","","",""
"revaluation","59","370960","0.0-3.0-12.0-0.0","spark_pilot_2","7451","1","19","Female","","","","","","","[85]","","","rest practice","","10","","","","","0","15000","","","","","",""
"learning-instructions","60","376778","0.0-3.0-13.0-0.0-0.0","spark_pilot_2","7451","1","19","Female","","","","","","","550.5","<p> Now, you will practice a shortened version of the game to get a sense of how it all fits together. </p>","","instructions","","","","","","","","","","","","","",""
"learning-instructions","61","381168","0.0-3.0-13.0-0.0-0.1","spark_pilot_2","7451","1","19","Female","","","","","","","1210.6000000238419","<p>This time you are searching for treasure in outer space.</p>","","instructions","","","","","","","","","","","","","",""
"learning-instructions","62","397076","0.0-3.0-13.0-1.0-0.0","spark_pilot_2","7451","1","19","Female","","","","","","","1087.199999988079","<p> Remember, when you see a picture of the place, use the up and down keys to <b>find an animal</b>.</p>
            <p> When you encounter an animal, you should use the left and right keys to <b>select a treasure chest</b>.</p>
            <p> Don't forget to look out for the robber! </p>","","instructions","","","","","","","","","","","","","",""
"revaluation","63","403106","0.0-3.0-13.0-2.0-0.0","spark_pilot_2","7451","1","19","Female","","false","","","","","[1508.800000011921,540.5]","./assets/img/space/11.jpg","[""ArrowUp"",""ArrowRight""]","practice block","space","36","{""ArrowUp,ArrowLeft"":3,""ArrowUp,ArrowRight"":36,""ArrowDown,ArrowLeft"":15,""ArrowDown,ArrowRight"":23}","true","ArrowUp,ArrowRight","false","","","","","","","",""
"html-keyboard-response","64","403615","0.0-3.0-13.0-2.0-1.0","spark_pilot_2","7451","1","19","Female","","","","","","","null","<div style=""font-size:60px;"">+</div>","null","fixation","","","","","","","","","","","","","",""
"revaluation","65","409656","0.0-3.0-13.0-2.0-0.1","spark_pilot_2","7451","1","19","Female","","false","","","","","[1224.199999988079,394.80000001192093]","./assets/img/space/12.jpg","[""ArrowUp"",""ArrowRight""]","practice block","space","36","{""ArrowUp,ArrowLeft"":3,""ArrowUp,ArrowRight"":36,""ArrowDown,ArrowLeft"":15,""ArrowDown,ArrowRight"":23}","true","ArrowUp,ArrowRight","false","","","","","","","",""
"html-keyboard-response","66","410163","0.0-3.0-13.0-2.0-1.1","spark_pilot_2","7451","1","19","Female","","","","","","","null","<div style=""font-size:60px;"">+</div>","null","fixation","","","","","","","","","","","","","",""
"revaluation","67","416195","0.0-3.0-13.0-2.0-0.2","spark_pilot_2","7451","1","19","Female","","false","","","","","[1775.800000011921,409.89999997615814]","./assets/img/space/13.jpg","[""ArrowUp"",""ArrowLeft""]","practice block","space","3","{""ArrowUp,ArrowLeft"":3,""ArrowUp,ArrowRight"":36,""ArrowDown,ArrowLeft"":15,""ArrowDown,ArrowRight"":23}","false","ArrowUp,ArrowLeft","false","","","","","","","",""
"html-keyboard-response","68","416715","0.0-3.0-13.0-2.0-1.2","spark_pilot_2","7451","1","19","Female","","","","","","","null","<div style=""font-size:60px;"">+</div>","null","fixation","","","","","","","","","","","","","",""
"revaluation","69","422753","0.0-3.0-13.0-2.0-0.3","spark_pilot_2","7451","1","19","Female","","false","","","","","[853.1999999880791,437.5]","./assets/img/space/14.jpg","[""ArrowUp"",""ArrowRight""]","practice block","space","36","{""ArrowUp,ArrowLeft"":3,""ArrowUp,ArrowRight"":36,""ArrowDown,ArrowLeft"":15,""ArrowDown,ArrowRight"":23}","true","ArrowUp,ArrowRight","false","","","","","","","",""
"html-keyboard-response","70","423265","0.0-3.0-13.0-2.0-1.3","spark_pilot_2","7451","1","19","Female","","","","","","","null","<div style=""font-size:60px;"">+</div>","null","fixation","","","","","","","","","","","","","",""
"revaluation","71","427292","0.0-3.0-13.0-2.0-0.4","spark_pilot_2","7451","1","19","Female","","true","","","","","[]","./assets/img/space/11.jpg","[]","practice block","space","-5","{""ArrowUp,ArrowLeft"":3,""ArrowUp,ArrowRight"":36,""ArrowDown,ArrowLeft"":15,""ArrowDown,ArrowRight"":23}","false","","false","","","","","","","",""
"html-keyboard-response","72","427802","0.0-3.0-13.0-2.0-1.4","spark_pilot_2","7451","1","19","Female","","","","","","","null","<div style=""font-size:60px;"">+</div>","null","fixation","","","","","","","","","","","","","",""
"revaluation","73","433812","0.0-3.0-13.0-2.0-0.5","spark_pilot_2","7451","1","19","Female","","false","","","","","[1197.4000000357628,346.39999997615814]","./assets/img/space/12.jpg","[""ArrowUp"",""ArrowRight""]","practice block","space","36","{""ArrowUp,ArrowLeft"":3,""ArrowUp,ArrowRight"":36,""ArrowDown,ArrowLeft"":15,""ArrowDown,ArrowRight"":23}","true","ArrowUp,ArrowRight","false","","","","","","","",""
"html-keyboard-response","74","434315","0.0-3.0-13.0-2.0-1.5","spark_pilot_2","7451","1","19","Female","","","","","","","null","<div style=""font-size:60px;"">+</div>","null","fixation","","","","","","","","","","","","","",""
"revaluation","75","440332","0.0-3.0-13.0-2.0-0.6","spark_pilot_2","7451","1","19","Female","","false","","","","","[1312.5,314.80000001192093]","./assets/img/space/13.jpg","[""ArrowUp"",""ArrowRight""]","practice block","space","36","{""ArrowUp,ArrowLeft"":3,""ArrowUp,ArrowRight"":36,""ArrowDown,ArrowLeft"":15,""ArrowDown,ArrowRight"":23}","true","ArrowUp,ArrowRight","false","","","","","","","",""
"html-keyboard-response","76","440838","0.0-3.0-13.0-2.0-1.6","spark_pilot_2","7451","1","19","Female","","","","","","","null","<div style=""font-size:60px;"">+</div>","null","fixation","","","","","","","","","","","","","",""
"revaluation","77","446862","0.0-3.0-13.0-2.0-0.7","spark_pilot_2","7451","1","19","Female","","false","","","","","[1221.300000011921,284.19999998807907]","./assets/img/space/14.jpg","[""ArrowDown"",""ArrowRight""]","practice block","space","23","{""ArrowUp,ArrowLeft"":3,""ArrowUp,ArrowRight"":36,""ArrowDown,ArrowLeft"":15,""ArrowDown,ArrowRight"":23}","false","ArrowDown,ArrowRight","false","","","","","","","",""
"html-keyboard-response","78","447364","0.0-3.0-13.0-2.0-1.7","spark_pilot_2","7451","1","19","Female","","","","","","","null","<div style=""font-size:60px;"">+</div>","null","fixation","","","","","","","","","","","","","",""
"revaluation","79","451381","0.0-3.0-13.0-2.0-0.8","spark_pilot_2","7451","1","19","Female","","false","","","","","[815.1999999880791]","./assets/img/space/catch/3.jpg","[""spaceBar""]","practice block","space","0","{""ArrowUp,ArrowLeft"":3,""ArrowUp,ArrowRight"":36,""ArrowDown,ArrowLeft"":15,""ArrowDown,ArrowRight"":23}","true","spaceBar","true","","","","","","","",""
"html-keyboard-response","80","451888","0.0-3.0-13.0-2.0-1.8","spark_pilot_2","7451","1","19","Female","","","","","","","null","<div style=""font-size:60px;"">+</div>","null","fixation","","","","","","","","","","","","","",""
"learning-instructions","81","467743","0.0-3.0-13.0-3.0-0.0","spark_pilot_2","7451","1","19","Female","","","","","","","2602.100000023842","<p> Now, you will travel with a friend who will choose whether you go up or down first. </p>
            <p> On these turns, you will just see the animal that they found. You will still get to choose which chest to search for treasure.</p>","","instructions","","","","","","","","","","","","","",""
"revaluation","82","471756","0.0-3.0-13.0-4.0-0.0","spark_pilot_2","7451","1","19","Female","","false","","","","","[899.7999999523163]","./assets/img/space/animals/cat.jpg","[""ArrowRight""]","practice block","space","36","{""ArrowUp,ArrowLeft"":3,""ArrowUp,ArrowRight"":36,""ArrowDown,ArrowLeft"":15,""ArrowDown,ArrowRight"":23}","true","ArrowUp,ArrowRight","","","","","","","","",""
"html-keyboard-response","83","472261","0.0-3.0-13.0-4.0-1.0","spark_pilot_2","7451","1","19","Female","","","","","","","null","<div style=""font-size:60px;"">+</div>","null","fixation","","","","","","","","","","","","","",""
"revaluation","84","476294","0.0-3.0-13.0-4.0-0.1","spark_pilot_2","7451","1","19","Female","","false","","","","","[1218.2999999523163]","./assets/img/space/animals/rabbit.jpg","[""ArrowLeft""]","practice block","space","15","{""ArrowUp,ArrowLeft"":3,""ArrowUp,ArrowRight"":36,""ArrowDown,ArrowLeft"":15,""ArrowDown,ArrowRight"":23}","false","ArrowDown,ArrowLeft","","","","","","","","",""
"html-keyboard-response","85","476800","0.0-3.0-13.0-4.0-1.1","spark_pilot_2","7451","1","19","Female","","","","","","","null","<div style=""font-size:60px;"">+</div>","null","fixation","","","","","","","","","","","","","",""
"revaluation","86","480814","0.0-3.0-13.0-4.0-0.2","spark_pilot_2","7451","1","19","Female","","false","","","","","[469.19999998807907]","./assets/img/space/animals/cat.jpg","[""ArrowRight""]","practice block","space","36","{""ArrowUp,ArrowLeft"":3,""ArrowUp,ArrowRight"":36,""ArrowDown,ArrowLeft"":15,""ArrowDown,ArrowRight"":23}","true","ArrowUp,ArrowRight","","","","","","","","",""
"html-keyboard-response","87","481318","0.0-3.0-13.0-4.0-1.2","spark_pilot_2","7451","1","19","Female","","","","","","","null","<div style=""font-size:60px;"">+</div>","null","fixation","","","","","","","","","","","","","",""
"revaluation","88","485341","0.0-3.0-13.0-4.0-0.3","spark_pilot_2","7451","1","19","Female","","false","","","","","[349.19999998807907]","./assets/img/space/animals/rabbit.jpg","[""ArrowRight""]","practice block","space","23","{""ArrowUp,ArrowLeft"":3,""ArrowUp,ArrowRight"":36,""ArrowDown,ArrowLeft"":15,""ArrowDown,ArrowRight"":23}","true","ArrowDown,ArrowRight","","","","","","","","",""
"html-keyboard-response","89","485850","0.0-3.0-13.0-4.0-1.3","spark_pilot_2","7451","1","19","Female","","","","","","","null","<div style=""font-size:60px;"">+</div>","null","fixation","","","","","","","","","","","","","",""
"learning-instructions","90","498672","0.0-3.0-13.0-5.0-0.0","spark_pilot_2","7451","1","19","Female","","","","","","","5433.900000035763","<p> Time to play the dot game! </p>
            <p> For 15 seconds, click the red dots on the following screen as they appear. </p>","","instructions","","","","","","","","","","","","","",""
"revaluation","91","513680","0.0-3.0-13.0-6.0-0.0","spark_pilot_2","7451","1","19","Female","","","","","","","[67]","","","rest practice","","10","","","","","0","15000","","","","","",""
"learning-instructions","92","521450","0.0-3.0-13.0-7.0-0.0","spark_pilot_2","7451","1","19","Female","","","","","","","1612.6000000238419","<p> You have almost finished this part of the game! </p>
            <p> We are going to ask you to make a few more choices. </p>","","instructions","","","","","","","","","","","","","",""
"learning-instructions","93","561307","0.0-3.0-13.0-7.0-0.1","spark_pilot_2","7451","1","19","Female","","","","","","","25833","<p> First, you need to decide whether to go up or down. When you see each picture, use the arrow keys to make your choice. </p>
            <p><b>You will not see which animal you found, but try to get to the one that will give you the most treasure.</b></p>","","instructions","","","","","","","","","","","","","",""
"revaluation","94","562606","0.0-3.0-13.0-8.0","spark_pilot_2","7451","1","19","Female","","false","","","","","[1296.199999988079]","./assets/img/space/15.jpg","[""ArrowUp""]","practice block","space","0","{""ArrowUp,ArrowLeft"":3,""ArrowUp,ArrowRight"":36,""ArrowDown,ArrowLeft"":15,""ArrowDown,ArrowRight"":23}","true","ArrowUp","false","","","","","","","",""
"html-keyboard-response","95","563116","0.0-3.0-13.0-9.0","spark_pilot_2","7451","1","19","Female","","","","","","","null","<div style=""font-size:60px;"">+</div>","null","fixation","","","","","","","","","","","","","",""
"learning-instructions","96","576438","0.0-3.0-13.0-10.0-0.0","spark_pilot_2","7451","1","19","Female","","","","","","","1904.699999988079","<p> Now you will see the animals again and can search their chests for treasure. </p>
            <p> This time, you will not see how much treasure you earned, but you will earn more bonus money for making better choices. </p>","","instructions","","","","","","","","","","","","","",""
"revaluation","97","577193","0.0-3.0-13.0-11.0-0.0","spark_pilot_2","7451","1","19","Female","","false","","","","","[750.8000000119209]","./assets/img/space/animals/cat.jpg","[""ArrowRight""]","practice block","space","0","{""ArrowUp,ArrowLeft"":3,""ArrowUp,ArrowRight"":36,""ArrowDown,ArrowLeft"":15,""ArrowDown,ArrowRight"":23}","true","ArrowUp,ArrowRight","","","","","","","","",""
"html-keyboard-response","98","577702","0.0-3.0-13.0-11.0-1.0","spark_pilot_2","7451","1","19","Female","","","","","","","null","<div style=""font-size:60px;"">+</div>","null","fixation","","","","","","","","","","","","","",""
"revaluation","99","578222","0.0-3.0-13.0-11.0-0.1","spark_pilot_2","7451","1","19","Female","","false","","","","","[513.6999999880791]","./assets/img/space/animals/rabbit.jpg","[""ArrowRight""]","practice block","space","0","{""ArrowUp,ArrowLeft"":3,""ArrowUp,ArrowRight"":36,""ArrowDown,ArrowLeft"":15,""ArrowDown,ArrowRight"":23}","true","ArrowDown,ArrowRight","","","","","","","","",""
"html-keyboard-response","100","578740","0.0-3.0-13.0-11.0-1.1","spark_pilot_2","7451","1","19","Female","","","","","","","null","<div style=""font-size:60px;"">+</div>","null","fixation","","","","","","","","","","","","","",""
"learning-instructions","101","584044","0.0-3.0-14.0-0.0","spark_pilot_2","7451","1","19","Female","","","","","","","701.8000000119209","<p> Before you start, we're going to ask you a few questions about how the game works. </p>","","instructions","","","","","","","","","","","","","",""
"comp-q","102","590484","0.0-3.0-15.0-0.0-0.0","spark_pilot_2","7451","1","19","Female","","","","","","","844.5","<p> <b> True or False? </b> </p>
            <p> There can be 50 pieces of treasure in a given animal's chest. </p>","1","comp_question","","","","true","","","","","","","","","",""
"comp-q","103","601573","0.0-3.0-15.0-0.0-1.0","spark_pilot_2","7451","1","19","Female","","","","","","","4400.5","<p> <b> That's right! </b> The amount of treasure in each chest can range from 0 to 40 pieces. </p>","0","comp_answer","","","","","","","","","","","","","",""
"comp-q","104","609821","0.0-3.0-15.0-0.1-0.1","spark_pilot_2","7451","1","19","Female","","","","","","","1108.800000011921","<p> <b> True or False? </b> </p><p> In this game, all animals have the same amount of treasure in their left and right chests. </p>","1","comp_question","","","","true","","","","","","","","","",""
"comp-q","105","616991","0.0-3.0-15.0-0.1-1.1","spark_pilot_2","7451","1","19","Female","","","","","","","1937.8999999761581","<p> <b> That's right! </b> Animals have different amounts of treasure in their treasure chests. </p>","0","comp_answer","","","","","","","","","","","","","",""
"comp-q","106","623834","0.0-3.0-15.0-0.2-0.2","spark_pilot_2","7451","1","19","Female","","","","","","","992.1000000238419","<p> <b> True or False? </b> </p><p> The same animal will always be there if you go up in the same place. </p>","1","comp_question","","","","false","","","","","","","","","",""
"comp-q","107","633636","0.0-3.0-15.0-0.2-1.2","spark_pilot_2","7451","1","19","Female","","","","","","","3424.399999976158","<p> <b>Incorrect.</b> One animal lives in the upper part and one lives in the lower part of every place. </p>","0","comp_answer","","","","","","","","","","","","","",""
"comp-q","108","640188","0.0-3.0-15.0-0.3-0.3","spark_pilot_2","7451","1","19","Female","","","","","","","735.8999999761581","<p> <b> True or False? </b> </p><p> The same animal will always be there if you go up in the same place. </p>","0","comp_question","","","","true","","","","","","","","","",""
"comp-q","109","647878","0.0-3.0-15.0-0.3-1.3","spark_pilot_2","7451","1","19","Female","","","","","","","1235.300000011921","<p> <b> That's right! </b> One animal lives in the upper part and one lives in the lower part of every place. </p>","0","comp_answer","","","","","","","","","","","","","",""
"comp-q","110","653950","0.0-3.0-15.0-0.4-0.4","spark_pilot_2","7451","1","19","Female","","","","","","","547.7000000476837","<p> <b> True or False? </b> </p><p> If you see a different picture, it means you are in a new place. </p>","0","comp_question","","","","false","","","","","","","","","",""
"comp-q","111","672447","0.0-3.0-15.0-0.4-1.4","spark_pilot_2","7451","1","19","Female","","","","","","","7374.899999976158","<p> <b>Incorrect.</b> Lots of different images may show the same place. For example,  you may see three different images that all remind you that you are in outer space. </p>","0","comp_answer","","","","","","","","","","","","","",""
"comp-q","112","678751","0.0-3.0-15.0-0.5-0.5","spark_pilot_2","7451","1","19","Female","","","","","","","799.6000000238419","<p> <b> True or False? </b> </p><p> If you see a different picture, it means you are in a new place. </p>","1","comp_question","","","","true","","","","","","","","","",""
"comp-q","113","692094","0.0-3.0-15.0-0.5-1.5","spark_pilot_2","7451","1","19","Female","","","","","","","2106.300000011921","<p> <b> That's right! </b> Lots of different images may show the same place. For example,  you may see three different images that all remind you that you are in outer space. </p>","0","comp_answer","","","","","","","","","","","","","",""
"learning-instructions","114","702991","0.0-3.0-16.0-0.0","spark_pilot_2","7451","1","19","Female","","","","","","","1002.6000000238419","<p> Good job. Remember to do your best because the amount of treasure you earn will be converted into bonus money. </p>
            <p> It’s time to start the real game! </p>","","instructions","","","","","","","","","","","","","",""
"learning-instructions","115","706521","0.0-4.0-0.0-0.0","spark_pilot_2","7451","1","19","Female","","","","","","","813","<p> This time you are searching for treasure in the <b>ocean</b>.</p>","","instructions","","","","","","","","","","","","","",""
"learning-instructions","116","724950","0.0-4.0-0.0-0.1","spark_pilot_2","7451","1","19","Female","","","","","","","1122.5","<p><b>New</b> animals with <b>new</b> treasure chests live here. You need to explore to discover where the animal with the best treasure chest is.</p>
                    <p> Like before, once you figure out which animal has the chest with the most treasure, you should try to get to that animal and select that chest! </p>","","instructions","","","","","","","","","","","","","",""
"learning-instructions","117","740112","0.0-4.0-1.0-0.0","spark_pilot_2","7451","1","19","Female","","","","","","","434.39999997615814","<p> Remember, when you see a picture of the place, use the up and down keys to <b>find an animal</b>.</p>
            <p> When you encounter an animal, you should use the left and right keys to <b>select a treasure chest</b>.</p>
            <p> Don't forget to look out for the robber! </p>","","instructions","","","","","","","","","","","","","",""
"revaluation","118","744137","0.0-4.0-2.0-0.0","spark_pilot_2","7451","1","19","Female","","false","","","","","[1074.1000000238419]","./assets/img/ocean/catch/5.jpg","[""ArrowUp""]","value training","ocean","-10","{""ArrowUp,ArrowLeft"":26,""ArrowUp,ArrowRight"":10,""ArrowDown,ArrowLeft"":5,""ArrowDown,ArrowRight"":17}","false","ArrowUp","true","","","original","1","0","","",""
"html-keyboard-response","119","744660","0.0-4.0-2.0-1.0","spark_pilot_2","7451","1","19","Female","","","","","","","null","<div style=""font-size:60px;"">+</div>","null","fixation","","","","","","","","","","","1","","",""
"revaluation","120","750691","0.0-4.0-2.0-0.1","spark_pilot_2","7451","1","19","Female","","false","","","","","[918.3999999761581,515.5]","./assets/img/ocean/memory/37.jpg","[""ArrowUp"",""ArrowLeft""]","value training","ocean","26","{""ArrowUp,ArrowLeft"":26,""ArrowUp,ArrowRight"":10,""ArrowDown,ArrowLeft"":5,""ArrowDown,ArrowRight"":17}","true","ArrowUp,ArrowLeft","false","","","original","1","2","","",""
"html-keyboard-response","121","751201","0.0-4.0-2.0-1.1","spark_pilot_2","7451","1","19","Female","","","","","","","null","<div style=""font-size:60px;"">+</div>","null","fixation","","","","","","","","","","","3","","",""
"revaluation","122","757219","0.0-4.0-2.0-0.2","spark_pilot_2","7451","1","19","Female","","false","","","","","[1069.800000011921,637.6000000238419]","./assets/img/ocean/memory/1.jpg","[""ArrowDown"",""ArrowLeft""]","value training","ocean","5","{""ArrowUp,ArrowLeft"":26,""ArrowUp,ArrowRight"":10,""ArrowDown,ArrowLeft"":5,""ArrowDown,ArrowRight"":17}","false","ArrowDown,ArrowLeft","false","","","original","1","4","","",""
"html-keyboard-response","123","757730","0.0-4.0-2.0-1.2","spark_pilot_2","7451","1","19","Female","","","","","","","null","<div style=""font-size:60px;"">+</div>","null","fixation","","","","","","","","","","","5","","",""
"revaluation","124","763762","0.0-4.0-2.0-0.3","spark_pilot_2","7451","1","19","Female","","false","","","","","[1150.699999988079,314.9000000357628]","./assets/img/ocean/memory/19.jpg","[""ArrowUp"",""ArrowRight""]","value training","ocean","10","{""ArrowUp,ArrowLeft"":26,""ArrowUp,ArrowRight"":10,""ArrowDown,ArrowLeft"":5,""ArrowDown,ArrowRight"":17}","false","ArrowUp,ArrowRight","false","","","original","1","6","","",""
"html-keyboard-response","125","764268","0.0-4.0-2.0-1.3","spark_pilot_2","7451","1","19","Female","","","","","","","null","<div style=""font-size:60px;"">+</div>","null","fixation","","","","","","","","","","","7","","",""
"revaluation","126","770301","0.0-4.0-2.0-0.4","spark_pilot_2","7451","1","19","Female","","false","","","","","[1252.8999999761581,325.5999999642372]","./assets/img/ocean/memory/6.jpg","[""ArrowDown"",""ArrowRight""]","value training","ocean","17","{""ArrowUp,ArrowLeft"":26,""ArrowUp,ArrowRight"":10,""ArrowDown,ArrowLeft"":5,""ArrowDown,ArrowRight"":17}","false","ArrowDown,ArrowRight","false","","","original","1","8","","",""
"html-keyboard-response","127","770811","0.0-4.0-2.0-1.4","spark_pilot_2","7451","1","19","Female","","","","","","","null","<div style=""font-size:60px;"">+</div>","null","fixation","","","","","","","","","","","9","","",""
"revaluation","128","776831","0.0-4.0-2.0-0.5","spark_pilot_2","7451","1","19","Female","","false","","","","","[820.1999999880791,309.39999997615814]","./assets/img/ocean/memory/39.jpg","[""ArrowUp"",""ArrowLeft""]","value training","ocean","26","{""ArrowUp,ArrowLeft"":26,""ArrowUp,ArrowRight"":10,""ArrowDown,ArrowLeft"":5,""ArrowDown,ArrowRight"":17}","true","ArrowUp,ArrowLeft","false","","","original","1","10","","",""
"html-keyboard-response","129","777338","0.0-4.0-2.0-1.5","spark_pilot_2","7451","1","19","Female","","","","","","","null","<div style=""font-size:60px;"">+</div>","null","fixation","","","","","","","","","","","11","","",""
"revaluation","130","783358","0.0-4.0-2.0-0.6","spark_pilot_2","7451","1","19","Female","","false","","","","","[1075.300000011921,329.30000001192093]","./assets/img/ocean/memory/29.jpg","[""ArrowUp"",""ArrowLeft""]","value training","ocean","26","{""ArrowUp,ArrowLeft"":26,""ArrowUp,ArrowRight"":10,""ArrowDown,ArrowLeft"":5,""ArrowDown,ArrowRight"":17}","true","ArrowUp,ArrowLeft","false","","","original","1","12","","",""
"html-keyboard-response","131","783868","0.0-4.0-2.0-1.6","spark_pilot_2","7451","1","19","Female","","","","","","","null","<div style=""font-size:60px;"">+</div>","null","fixation","","","","","","","","","","","13","","",""
"revaluation","132","789882","0.0-4.0-2.0-0.7","spark_pilot_2","7451","1","19","Female","","false","","","","","[1383.699999988079,278.19999998807907]","./assets/img/ocean/memory/31.jpg","[""ArrowUp"",""ArrowLeft""]","value training","ocean","26","{""ArrowUp,ArrowLeft"":26,""ArrowUp,ArrowRight"":10,""ArrowDown,ArrowLeft"":5,""ArrowDown,ArrowRight"":17}","true","ArrowUp,ArrowLeft","false","","","original","1","14","","",""
"html-keyboard-response","133","790392","0.0-4.0-2.0-1.7","spark_pilot_2","7451","1","19","Female","","","","","","","null","<div style=""font-size:60px;"">+</div>","null","fixation","","","","","","","","","","","15","","",""
"revaluation","134","796402","0.0-4.0-2.0-0.8","spark_pilot_2","7451","1","19","Female","","false","","","","","[1212.8999999761581,239.80000001192093]","./assets/img/ocean/memory/34.jpg","[""ArrowUp"",""ArrowLeft""]","value training","ocean","26","{""ArrowUp,ArrowLeft"":26,""ArrowUp,ArrowRight"":10,""ArrowDown,ArrowLeft"":5,""ArrowDown,ArrowRight"":17}","true","ArrowUp,ArrowLeft","false","","","original","1","16","","",""
"html-keyboard-response","135","796906","0.0-4.0-2.0-1.8","spark_pilot_2","7451","1","19","Female","","","","","","","null","<div style=""font-size:60px;"">+</div>","null","fixation","","","","","","","","","","","17","","",""
"revaluation","136","802937","0.0-4.0-2.0-0.9","spark_pilot_2","7451","1","19","Female","","false","","","","","[803.1000000238419,236.4000000357628]","./assets/img/ocean/memory/36.jpg","[""ArrowUp"",""ArrowLeft""]","value training","ocean","26","{""ArrowUp,ArrowLeft"":26,""ArrowUp,ArrowRight"":10,""ArrowDown,ArrowLeft"":5,""ArrowDown,ArrowRight"":17}","true","ArrowUp,ArrowLeft","false","","","original","1","18","","",""
"html-keyboard-response","137","803446","0.0-4.0-2.0-1.9","spark_pilot_2","7451","1","19","Female","","","","","","","null","<div style=""font-size:60px;"">+</div>","null","fixation","","","","","","","","","","","19","","",""
"revaluation","138","809471","0.0-4.0-2.0-0.10","spark_pilot_2","7451","1","19","Female","","false","","","","","[894.6000000238419,241]","./assets/img/ocean/memory/39.jpg","[""ArrowUp"",""ArrowLeft""]","value training","ocean","26","{""ArrowUp,ArrowLeft"":26,""ArrowUp,ArrowRight"":10,""ArrowDown,ArrowLeft"":5,""ArrowDown,ArrowRight"":17}","true","ArrowUp,ArrowLeft","false","","","original","1","20","","",""
"html-keyboard-response","139","809979","0.0-4.0-2.0-1.10","spark_pilot_2","7451","1","19","Female","","","","","","","null","<div style=""font-size:60px;"">+</div>","null","fixation","","","","","","","","","","","21","","",""
"revaluation","140","815998","0.0-4.0-2.0-0.11","spark_pilot_2","7451","1","19","Female","","false","","","","","[1251.6000000238419,298.30000001192093]","./assets/img/ocean/memory/14.jpg","[""ArrowUp"",""ArrowLeft""]","value training","ocean","26","{""ArrowUp,ArrowLeft"":26,""ArrowUp,ArrowRight"":10,""ArrowDown,ArrowLeft"":5,""ArrowDown,ArrowRight"":17}","true","ArrowUp,ArrowLeft","false","","","original","1","22","","",""
"html-keyboard-response","141","816506","0.0-4.0-2.0-1.11","spark_pilot_2","7451","1","19","Female","","","","","","","null","<div style=""font-size:60px;"">+</div>","null","fixation","","","","","","","","","","","23","","",""
"revaluation","142","822526","0.0-4.0-2.0-0.12","spark_pilot_2","7451","1","19","Female","","false","","","","","[1234,249.5]","./assets/img/ocean/memory/13.jpg","[""ArrowUp"",""ArrowLeft""]","value training","ocean","26","{""ArrowUp,ArrowLeft"":26,""ArrowUp,ArrowRight"":10,""ArrowDown,ArrowLeft"":5,""ArrowDown,ArrowRight"":17}","true","ArrowUp,ArrowLeft","false","","","original","1","24","","",""
"html-keyboard-response","143","823034","0.0-4.0-2.0-1.12","spark_pilot_2","7451","1","19","Female","","","","","","","null","<div style=""font-size:60px;"">+</div>","null","fixation","","","","","","","","","","","25","","",""
"revaluation","144","829049","0.0-4.0-2.0-0.13","spark_pilot_2","7451","1","19","Female","","false","","","","","[1165.8999999761581,281.60000002384186]","./assets/img/ocean/memory/29.jpg","[""ArrowUp"",""ArrowLeft""]","value training","ocean","26","{""ArrowUp,ArrowLeft"":26,""ArrowUp,ArrowRight"":10,""ArrowDown,ArrowLeft"":5,""ArrowDown,ArrowRight"":17}","true","ArrowUp,ArrowLeft","false","","","original","1","26","","",""
"html-keyboard-response","145","829557","0.0-4.0-2.0-1.13","spark_pilot_2","7451","1","19","Female","","","","","","","null","<div style=""font-size:60px;"">+</div>","null","fixation","","","","","","","","","","","27","","",""
"revaluation","146","835579","0.0-4.0-2.0-0.14","spark_pilot_2","7451","1","19","Female","","false","","","","","[1312.5,307]","./assets/img/ocean/memory/5.jpg","[""ArrowUp"",""ArrowLeft""]","value training","ocean","26","{""ArrowUp,ArrowLeft"":26,""ArrowUp,ArrowRight"":10,""ArrowDown,ArrowLeft"":5,""ArrowDown,ArrowRight"":17}","true","ArrowUp,ArrowLeft","false","","","original","1","28","","",""
"html-keyboard-response","147","836082","0.0-4.0-2.0-1.14","spark_pilot_2","7451","1","19","Female","","","","","","","null","<div style=""font-size:60px;"">+</div>","null","fixation","","","","","","","","","","","29","","",""
"revaluation","148","842114","0.0-4.0-2.0-0.15","spark_pilot_2","7451","1","19","Female","","false","","","","","[1086.5,299.5]","./assets/img/ocean/memory/11.jpg","[""ArrowUp"",""ArrowLeft""]","value training","ocean","26","{""ArrowUp,ArrowLeft"":26,""ArrowUp,ArrowRight"":10,""ArrowDown,ArrowLeft"":5,""ArrowDown,ArrowRight"":17}","true","ArrowUp,ArrowLeft","false","","","original","1","30","","",""
"html-keyboard-response","149","842617","0.0-4.0-2.0-1.15","spark_pilot_2","7451","1","19","Female","","","","","","","null","<div style=""font-size:60px;"">+</div>","null","fixation","","","","","","","","","","","31","","",""
"revaluation","150","848646","0.0-4.0-2.0-0.16","spark_pilot_2","7451","1","19","Female","","false","","","","","[1234.300000011921,282.7999999523163]","./assets/img/ocean/memory/19.jpg","[""ArrowUp"",""ArrowLeft""]","value training","ocean","26","{""ArrowUp,ArrowLeft"":26,""ArrowUp,ArrowRight"":10,""ArrowDown,ArrowLeft"":5,""ArrowDown,ArrowRight"":17}","true","ArrowUp,ArrowLeft","false","","","original","1","32","","",""
"html-keyboard-response","151","849149","0.0-4.0-2.0-1.16","spark_pilot_2","7451","1","19","Female","","","","","","","null","<div style=""font-size:60px;"">+</div>","null","fixation","","","","","","","","","","","33","","",""
"revaluation","152","855167","0.0-4.0-2.0-0.17","spark_pilot_2","7451","1","19","Female","","false","","","","","[882.3000000119209,310.19999998807907]","./assets/img/ocean/memory/12.jpg","[""ArrowUp"",""ArrowLeft""]","value training","ocean","26","{""ArrowUp,ArrowLeft"":26,""ArrowUp,ArrowRight"":10,""ArrowDown,ArrowLeft"":5,""ArrowDown,ArrowRight"":17}","true","ArrowUp,ArrowLeft","false","","","original","1","34","","",""
"html-keyboard-response","153","855676","0.0-4.0-2.0-1.17","spark_pilot_2","7451","1","19","Female","","","","","","","null","<div style=""font-size:60px;"">+</div>","null","fixation","","","","","","","","","","","35","","",""
"revaluation","154","861709","0.0-4.0-2.0-0.18","spark_pilot_2","7451","1","19","Female","","false","","","","","[1114.300000011921,273.4000000357628]","./assets/img/ocean/memory/23.jpg","[""ArrowUp"",""ArrowLeft""]","value training","ocean","26","{""ArrowUp,ArrowLeft"":26,""ArrowUp,ArrowRight"":10,""ArrowDown,ArrowLeft"":5,""ArrowDown,ArrowRight"":17}","true","ArrowUp,ArrowLeft","false","","","original","1","36","","",""
"html-keyboard-response","155","862216","0.0-4.0-2.0-1.18","spark_pilot_2","7451","1","19","Female","","","","","","","null","<div style=""font-size:60px;"">+</div>","null","fixation","","","","","","","","","","","37","","",""
"revaluation","156","868239","0.0-4.0-2.0-0.19","spark_pilot_2","7451","1","19","Female","","false","","","","","[952.9000000357628,435.7999999523163]","./assets/img/ocean/memory/1.jpg","[""ArrowUp"",""ArrowLeft""]","value training","ocean","26","{""ArrowUp,ArrowLeft"":26,""ArrowUp,ArrowRight"":10,""ArrowDown,ArrowLeft"":5,""ArrowDown,ArrowRight"":17}","true","ArrowUp,ArrowLeft","false","","","original","1","38","","",""
"html-keyboard-response","157","868742","0.0-4.0-2.0-1.19","spark_pilot_2","7451","1","19","Female","","","","","","","null","<div style=""font-size:60px;"">+</div>","null","fixation","","","","","","","","","","","39","","",""
"revaluation","158","874762","0.0-4.0-2.0-0.20","spark_pilot_2","7451","1","19","Female","","false","","","","","[1290.199999988079,244.30000001192093]","./assets/img/ocean/memory/14.jpg","[""ArrowUp"",""ArrowLeft""]","value training","ocean","26","{""ArrowUp,ArrowLeft"":26,""ArrowUp,ArrowRight"":10,""ArrowDown,ArrowLeft"":5,""ArrowDown,ArrowRight"":17}","true","ArrowUp,ArrowLeft","false","","","original","1","40","","",""
"html-keyboard-response","159","875264","0.0-4.0-2.0-1.20","spark_pilot_2","7451","1","19","Female","","","","","","","null","<div style=""font-size:60px;"">+</div>","null","fixation","","","","","","","","","","","41","","",""
"revaluation","160","879281","0.0-4.0-2.0-0.21","spark_pilot_2","7451","1","19","Female","","false","","","","","[926.3000000119209]","./assets/img/ocean/catch/7.jpg","[""spaceBar""]","value training","ocean","0","{""ArrowUp,ArrowLeft"":26,""ArrowUp,ArrowRight"":10,""ArrowDown,ArrowLeft"":5,""ArrowDown,ArrowRight"":17}","true","spaceBar","true","","","original","1","42","","",""
"html-keyboard-response","161","879790","0.0-4.0-2.0-1.21","spark_pilot_2","7451","1","19","Female","","","","","","","null","<div style=""font-size:60px;"">+</div>","null","fixation","","","","","","","","","","","43","","",""
"revaluation","162","883811","0.0-4.0-2.0-0.22","spark_pilot_2","7451","1","19","Female","","false","","","","","[709.3999999761581]","./assets/img/ocean/catch/0.jpg","[""spaceBar""]","value training","ocean","0","{""ArrowUp,ArrowLeft"":26,""ArrowUp,ArrowRight"":10,""ArrowDown,ArrowLeft"":5,""ArrowDown,ArrowRight"":17}","true","spaceBar","true","","","original","1","44","","",""
"html-keyboard-response","163","884318","0.0-4.0-2.0-1.22","spark_pilot_2","7451","1","19","Female","","","","","","","null","<div style=""font-size:60px;"">+</div>","null","fixation","","","","","","","","","","","45","","",""
"revaluation","164","890343","0.0-4.0-2.0-0.23","spark_pilot_2","7451","1","19","Female","","false","","","","","[710.0999999642372,337.2000000476837]","./assets/img/ocean/memory/36.jpg","[""ArrowUp"",""ArrowLeft""]","value training","ocean","26","{""ArrowUp,ArrowLeft"":26,""ArrowUp,ArrowRight"":10,""ArrowDown,ArrowLeft"":5,""ArrowDown,ArrowRight"":17}","true","ArrowUp,ArrowLeft","false","","","original","1","46","","",""
"html-keyboard-response","165","890846","0.0-4.0-2.0-1.23","spark_pilot_2","7451","1","19","Female","","","","","","","null","<div style=""font-size:60px;"">+</div>","null","fixation","","","","","","","","","","","47","","",""
"revaluation","166","896869","0.0-4.0-2.0-0.24","spark_pilot_2","7451","1","19","Female","","false","","","","","[714.5,356.7999999523163]","./assets/img/ocean/memory/13.jpg","[""ArrowUp"",""ArrowLeft""]","value training","ocean","26","{""ArrowUp,ArrowLeft"":26,""ArrowUp,ArrowRight"":10,""ArrowDown,ArrowLeft"":5,""ArrowDown,ArrowRight"":17}","true","ArrowUp,ArrowLeft","false","","","original","1","48","","",""
"html-keyboard-response","167","897371","0.0-4.0-2.0-1.24","spark_pilot_2","7451","1","19","Female","","","","","","","null","<div style=""font-size:60px;"">+</div>","null","fixation","","","","","","","","","","","49","","",""
"revaluation","168","901389","0.0-4.0-2.0-0.25","spark_pilot_2","7451","1","19","Female","","false","","","","","[836.1999999880791]","./assets/img/ocean/catch/4.jpg","[""spaceBar""]","value training","ocean","0","{""ArrowUp,ArrowLeft"":26,""ArrowUp,ArrowRight"":10,""ArrowDown,ArrowLeft"":5,""ArrowDown,ArrowRight"":17}","true","spaceBar","true","","","original","1","50","","",""
"html-keyboard-response","169","901896","0.0-4.0-2.0-1.25","spark_pilot_2","7451","1","19","Female","","","","","","","null","<div style=""font-size:60px;"">+</div>","null","fixation","","","","","","","","","","","51","","",""
"revaluation","170","907920","0.0-4.0-2.0-0.26","spark_pilot_2","7451","1","19","Female","","false","","","","","[1257.5,577.6000000238419]","./assets/img/ocean/memory/31.jpg","[""ArrowUp"",""ArrowLeft""]","value training","ocean","26","{""ArrowUp,ArrowLeft"":26,""ArrowUp,ArrowRight"":10,""ArrowDown,ArrowLeft"":5,""ArrowDown,ArrowRight"":17}","true","ArrowUp,ArrowLeft","false","","","original","1","52","","",""
"html-keyboard-response","171","908424","0.0-4.0-2.0-1.26","spark_pilot_2","7451","1","19","Female","","","","","","","null","<div style=""font-size:60px;"">+</div>","null","fixation","","","","","","","","","","","53","","",""
"revaluation","172","914442","0.0-4.0-2.0-0.27","spark_pilot_2","7451","1","19","Female","","false","","","","","[1084.3999999761581,393.2000000476837]","./assets/img/ocean/memory/10.jpg","[""ArrowUp"",""ArrowLeft""]","value training","ocean","26","{""ArrowUp,ArrowLeft"":26,""ArrowUp,ArrowRight"":10,""ArrowDown,ArrowLeft"":5,""ArrowDown,ArrowRight"":17}","true","ArrowUp,ArrowLeft","false","","","original","1","54","","",""
"html-keyboard-response","173","914948","0.0-4.0-2.0-1.27","spark_pilot_2","7451","1","19","Female","","","","","","","null","<div style=""font-size:60px;"">+</div>","null","fixation","","","","","","","","","","","55","","",""
"revaluation","174","918959","0.0-4.0-2.0-0.28","spark_pilot_2","7451","1","19","Female","","false","","","","","[582.9000000357628]","./assets/img/ocean/catch/2.jpg","[""spaceBar""]","value training","ocean","0","{""ArrowUp,ArrowLeft"":26,""ArrowUp,ArrowRight"":10,""ArrowDown,ArrowLeft"":5,""ArrowDown,ArrowRight"":17}","true","spaceBar","true","","","original","1","56","","",""
"html-keyboard-response","175","919469","0.0-4.0-2.0-1.28","spark_pilot_2","7451","1","19","Female","","","","","","","null","<div style=""font-size:60px;"">+</div>","null","fixation","","","","","","","","","","","57","","",""
"revaluation","176","925494","0.0-4.0-2.0-0.29","spark_pilot_2","7451","1","19","Female","","false","","","","","[1018.6000000238419,285.5999999642372]","./assets/img/ocean/memory/26.jpg","[""ArrowUp"",""ArrowLeft""]","value training","ocean","26","{""ArrowUp,ArrowLeft"":26,""ArrowUp,ArrowRight"":10,""ArrowDown,ArrowLeft"":5,""ArrowDown,ArrowRight"":17}","true","ArrowUp,ArrowLeft","false","","","original","1","58","","",""
"html-keyboard-response","177","925996","0.0-4.0-2.0-1.29","spark_pilot_2","7451","1","19","Female","","","","","","","null","<div style=""font-size:60px;"">+</div>","null","fixation","","","","","","","","","","","59","","",""
"revaluation","178","932008","0.0-4.0-2.0-0.30","spark_pilot_2","7451","1","19","Female","","false","","","","","[563.8000000119209,410.5]","./assets/img/ocean/memory/16.jpg","[""ArrowUp"",""ArrowLeft""]","value training","ocean","26","{""ArrowUp,ArrowLeft"":26,""ArrowUp,ArrowRight"":10,""ArrowDown,ArrowLeft"":5,""ArrowDown,ArrowRight"":17}","true","ArrowUp,ArrowLeft","false","","","original","1","60","","",""
"html-keyboard-response","179","932518","0.0-4.0-2.0-1.30","spark_pilot_2","7451","1","19","Female","","","","","","","null","<div style=""font-size:60px;"">+</div>","null","fixation","","","","","","","","","","","61","","",""
"revaluation","180","936540","0.0-4.0-2.0-0.31","spark_pilot_2","7451","1","19","Female","","false","","","","","[720.6999999880791]","./assets/img/ocean/catch/1.jpg","[""spaceBar""]","value training","ocean","0","{""ArrowUp,ArrowLeft"":26,""ArrowUp,ArrowRight"":10,""ArrowDown,ArrowLeft"":5,""ArrowDown,ArrowRight"":17}","true","spaceBar","true","","","original","1","62","","",""
"html-keyboard-response","181","937045","0.0-4.0-2.0-1.31","spark_pilot_2","7451","1","19","Female","","","","","","","null","<div style=""font-size:60px;"">+</div>","null","fixation","","","","","","","","","","","63","","",""
"revaluation","182","943071","0.0-4.0-2.0-0.32","spark_pilot_2","7451","1","19","Female","","false","","","","","[967.3000000119209,273.80000001192093]","./assets/img/ocean/memory/12.jpg","[""ArrowUp"",""ArrowLeft""]","value training","ocean","26","{""ArrowUp,ArrowLeft"":26,""ArrowUp,ArrowRight"":10,""ArrowDown,ArrowLeft"":5,""ArrowDown,ArrowRight"":17}","true","ArrowUp,ArrowLeft","false","","","original","1","64","","",""
"html-keyboard-response","183","943580","0.0-4.0-2.0-1.32","spark_pilot_2","7451","1","19","Female","","","","","","","null","<div style=""font-size:60px;"">+</div>","null","fixation","","","","","","","","","","","65","","",""
"revaluation","184","949605","0.0-4.0-2.0-0.33","spark_pilot_2","7451","1","19","Female","","false","","","","","[960,267]","./assets/img/ocean/memory/0.jpg","[""ArrowUp"",""ArrowLeft""]","value training","ocean","26","{""ArrowUp,ArrowLeft"":26,""ArrowUp,ArrowRight"":10,""ArrowDown,ArrowLeft"":5,""ArrowDown,ArrowRight"":17}","true","ArrowUp,ArrowLeft","false","","","original","1","66","","",""
"html-keyboard-response","185","950115","0.0-4.0-2.0-1.33","spark_pilot_2","7451","1","19","Female","","","","","","","null","<div style=""font-size:60px;"">+</div>","null","fixation","","","","","","","","","","","67","","",""
"revaluation","186","956137","0.0-4.0-2.0-0.34","spark_pilot_2","7451","1","19","Female","","false","","","","","[587.6000000238419,517.5]","./assets/img/ocean/memory/5.jpg","[""ArrowUp"",""ArrowLeft""]","value training","ocean","26","{""ArrowUp,ArrowLeft"":26,""ArrowUp,ArrowRight"":10,""ArrowDown,ArrowLeft"":5,""ArrowDown,ArrowRight"":17}","true","ArrowUp,ArrowLeft","false","","","original","1","68","","",""
"html-keyboard-response","187","956642","0.0-4.0-2.0-1.34","spark_pilot_2","7451","1","19","Female","","","","","","","null","<div style=""font-size:60px;"">+</div>","null","fixation","","","","","","","","","","","69","","",""
"revaluation","188","962671","0.0-4.0-2.0-0.35","spark_pilot_2","7451","1","19","Female","","false","","","","","[1079.699999988079,298.10000002384186]","./assets/img/ocean/memory/0.jpg","[""ArrowUp"",""ArrowLeft""]","value training","ocean","26","{""ArrowUp,ArrowLeft"":26,""ArrowUp,ArrowRight"":10,""ArrowDown,ArrowLeft"":5,""ArrowDown,ArrowRight"":17}","true","ArrowUp,ArrowLeft","false","","","original","1","70","","",""
"html-keyboard-response","189","963182","0.0-4.0-2.0-1.35","spark_pilot_2","7451","1","19","Female","","","","","","","null","<div style=""font-size:60px;"">+</div>","null","fixation","","","","","","","","","","","71","","",""
"revaluation","190","969209","0.0-4.0-2.0-0.36","spark_pilot_2","7451","1","19","Female","","false","","","","","[809.9000000357628,345.60000002384186]","./assets/img/ocean/memory/10.jpg","[""ArrowUp"",""ArrowLeft""]","value training","ocean","26","{""ArrowUp,ArrowLeft"":26,""ArrowUp,ArrowRight"":10,""ArrowDown,ArrowLeft"":5,""ArrowDown,ArrowRight"":17}","true","ArrowUp,ArrowLeft","false","","","original","1","72","","",""
"html-keyboard-response","191","969711","0.0-4.0-2.0-1.36","spark_pilot_2","7451","1","19","Female","","","","","","","null","<div style=""font-size:60px;"">+</div>","null","fixation","","","","","","","","","","","73","","",""
"revaluation","192","973722","0.0-4.0-2.0-0.37","spark_pilot_2","7451","1","19","Female","","false","","","","","[1033.199999988079]","./assets/img/ocean/catch/3.jpg","[""spaceBar""]","value training","ocean","0","{""ArrowUp,ArrowLeft"":26,""ArrowUp,ArrowRight"":10,""ArrowDown,ArrowLeft"":5,""ArrowDown,ArrowRight"":17}","true","spaceBar","true","","","original","1","74","","",""
"html-keyboard-response","193","974231","0.0-4.0-2.0-1.37","spark_pilot_2","7451","1","19","Female","","","","","","","null","<div style=""font-size:60px;"">+</div>","null","fixation","","","","","","","","","","","75","","",""
"revaluation","194","978246","0.0-4.0-2.0-0.38","spark_pilot_2","7451","1","19","Female","","false","","","","","[741.6999999880791]","./assets/img/ocean/catch/6.jpg","[""spaceBar""]","value training","ocean","0","{""ArrowUp,ArrowLeft"":26,""ArrowUp,ArrowRight"":10,""ArrowDown,ArrowLeft"":5,""ArrowDown,ArrowRight"":17}","true","spaceBar","true","","","original","1","76","","",""
"html-keyboard-response","195","978757","0.0-4.0-2.0-1.38","spark_pilot_2","7451","1","19","Female","","","","","","","null","<div style=""font-size:60px;"">+</div>","null","fixation","","","","","","","","","","","77","","",""
"revaluation","196","984783","0.0-4.0-2.0-0.39","spark_pilot_2","7451","1","19","Female","","false","","","","","[703.1000000238419,397.80000001192093]","./assets/img/ocean/memory/11.jpg","[""ArrowUp"",""ArrowLeft""]","value training","ocean","26","{""ArrowUp,ArrowLeft"":26,""ArrowUp,ArrowRight"":10,""ArrowDown,ArrowLeft"":5,""ArrowDown,ArrowRight"":17}","true","ArrowUp,ArrowLeft","false","","","original","1","78","","",""
"html-keyboard-response","197","985286","0.0-4.0-2.0-1.39","spark_pilot_2","7451","1","19","Female","","","","","","","null","<div style=""font-size:60px;"">+</div>","null","fixation","","","","","","","","","","","79","","",""
"revaluation","198","991311","0.0-4.0-2.0-0.40","spark_pilot_2","7451","1","19","Female","","false","","","","","[1406.699999988079,340.4000000357628]","./assets/img/ocean/memory/4.jpg","[""ArrowUp"",""ArrowLeft""]","value training","ocean","26","{""ArrowUp,ArrowLeft"":26,""ArrowUp,ArrowRight"":10,""ArrowDown,ArrowLeft"":5,""ArrowDown,ArrowRight"":17}","true","ArrowUp,ArrowLeft","false","","","original","1","80","","",""
"html-keyboard-response","199","991817","0.0-4.0-2.0-1.40","spark_pilot_2","7451","1","19","Female","","","","","","","null","<div style=""font-size:60px;"">+</div>","null","fixation","","","","","","","","","","","81","","",""
"revaluation","200","997840","0.0-4.0-2.0-0.41","spark_pilot_2","7451","1","19","Female","","false","","","","","[583,206.89999997615814]","./assets/img/ocean/memory/4.jpg","[""ArrowUp"",""ArrowLeft""]","value training","ocean","26","{""ArrowUp,ArrowLeft"":26,""ArrowUp,ArrowRight"":10,""ArrowDown,ArrowLeft"":5,""ArrowDown,ArrowRight"":17}","true","ArrowUp,ArrowLeft","false","","","original","1","82","","",""
"html-keyboard-response","201","998349","0.0-4.0-2.0-1.41","spark_pilot_2","7451","1","19","Female","","","","","","","null","<div style=""font-size:60px;"">+</div>","null","fixation","","","","","","","","","","","83","","",""
"revaluation","202","1004378","0.0-4.0-2.0-0.42","spark_pilot_2","7451","1","19","Female","","false","","","","","[1131.5,374.60000002384186]","./assets/img/ocean/memory/34.jpg","[""ArrowUp"",""ArrowLeft""]","value training","ocean","26","{""ArrowUp,ArrowLeft"":26,""ArrowUp,ArrowRight"":10,""ArrowDown,ArrowLeft"":5,""ArrowDown,ArrowRight"":17}","true","ArrowUp,ArrowLeft","false","","","original","1","84","","",""
"html-keyboard-response","203","1004884","0.0-4.0-2.0-1.42","spark_pilot_2","7451","1","19","Female","","","","","","","null","<div style=""font-size:60px;"">+</div>","null","fixation","","","","","","","","","","","85","","",""
"revaluation","204","1010907","0.0-4.0-2.0-0.43","spark_pilot_2","7451","1","19","Female","","false","","","","","[935.3000000119209,253.89999997615814]","./assets/img/ocean/memory/20.jpg","[""ArrowUp"",""ArrowLeft""]","value training","ocean","26","{""ArrowUp,ArrowLeft"":26,""ArrowUp,ArrowRight"":10,""ArrowDown,ArrowLeft"":5,""ArrowDown,ArrowRight"":17}","true","ArrowUp,ArrowLeft","false","","","original","1","86","","",""
"html-keyboard-response","205","1011410","0.0-4.0-2.0-1.43","spark_pilot_2","7451","1","19","Female","","","","","","","null","<div style=""font-size:60px;"">+</div>","null","fixation","","","","","","","","","","","87","","",""
"revaluation","206","1017436","0.0-4.0-2.0-0.44","spark_pilot_2","7451","1","19","Female","","false","","","","","[758,304.80000001192093]","./assets/img/ocean/memory/23.jpg","[""ArrowUp"",""ArrowLeft""]","value training","ocean","26","{""ArrowUp,ArrowLeft"":26,""ArrowUp,ArrowRight"":10,""ArrowDown,ArrowLeft"":5,""ArrowDown,ArrowRight"":17}","true","ArrowUp,ArrowLeft","false","","","original","1","88","","",""
"html-keyboard-response","207","1017938","0.0-4.0-2.0-1.44","spark_pilot_2","7451","1","19","Female","","","","","","","null","<div style=""font-size:60px;"">+</div>","null","fixation","","","","","","","","","","","89","","",""
"revaluation","208","1023957","0.0-4.0-2.0-0.45","spark_pilot_2","7451","1","19","Female","","false","","","","","[651.1999999880791,353.69999998807907]","./assets/img/ocean/memory/37.jpg","[""ArrowUp"",""ArrowLeft""]","value training","ocean","26","{""ArrowUp,ArrowLeft"":26,""ArrowUp,ArrowRight"":10,""ArrowDown,ArrowLeft"":5,""ArrowDown,ArrowRight"":17}","true","ArrowUp,ArrowLeft","false","","","original","1","90","","",""
"html-keyboard-response","209","1024462","0.0-4.0-2.0-1.45","spark_pilot_2","7451","1","19","Female","","","","","","","null","<div style=""font-size:60px;"">+</div>","null","fixation","","","","","","","","","","","91","","",""
"revaluation","210","1030484","0.0-4.0-2.0-0.46","spark_pilot_2","7451","1","19","Female","","false","","","","","[599.6000000238419,384.5]","./assets/img/ocean/memory/6.jpg","[""ArrowUp"",""ArrowLeft""]","value training","ocean","26","{""ArrowUp,ArrowLeft"":26,""ArrowUp,ArrowRight"":10,""ArrowDown,ArrowLeft"":5,""ArrowDown,ArrowRight"":17}","true","ArrowUp,ArrowLeft","false","","","original","1","92","","",""
"html-keyboard-response","211","1030992","0.0-4.0-2.0-1.46","spark_pilot_2","7451","1","19","Female","","","","","","","null","<div style=""font-size:60px;"">+</div>","null","fixation","","","","","","","","","","","93","","",""
"revaluation","212","1037017","0.0-4.0-2.0-0.47","spark_pilot_2","7451","1","19","Female","","false","","","","","[948.0999999642372,363]","./assets/img/ocean/memory/26.jpg","[""ArrowUp"",""ArrowLeft""]","value training","ocean","26","{""ArrowUp,ArrowLeft"":26,""ArrowUp,ArrowRight"":10,""ArrowDown,ArrowLeft"":5,""ArrowDown,ArrowRight"":17}","true","ArrowUp,ArrowLeft","false","","","original","1","94","","",""
"html-keyboard-response","213","1037526","0.0-4.0-2.0-1.47","spark_pilot_2","7451","1","19","Female","","","","","","","null","<div style=""font-size:60px;"">+</div>","null","fixation","","","","","","","","","","","95","","",""
"revaluation","214","1043554","0.0-4.0-2.0-0.48","spark_pilot_2","7451","1","19","Female","","false","","","","","[634.1999999880791,295.69999998807907]","./assets/img/ocean/memory/16.jpg","[""ArrowUp"",""ArrowLeft""]","value training","ocean","26","{""ArrowUp,ArrowLeft"":26,""ArrowUp,ArrowRight"":10,""ArrowDown,ArrowLeft"":5,""ArrowDown,ArrowRight"":17}","true","ArrowUp,ArrowLeft","false","","","original","1","96","","",""
"html-keyboard-response","215","1044059","0.0-4.0-2.0-1.48","spark_pilot_2","7451","1","19","Female","","","","","","","null","<div style=""font-size:60px;"">+</div>","null","fixation","","","","","","","","","","","97","","",""
"revaluation","216","1050083","0.0-4.0-2.0-0.49","spark_pilot_2","7451","1","19","Female","","false","","","","","[781.1000000238419,317.5999999642372]","./assets/img/ocean/memory/20.jpg","[""ArrowUp"",""ArrowLeft""]","value training","ocean","26","{""ArrowUp,ArrowLeft"":26,""ArrowUp,ArrowRight"":10,""ArrowDown,ArrowLeft"":5,""ArrowDown,ArrowRight"":17}","true","ArrowUp,ArrowLeft","false","","","original","1","98","","",""
"html-keyboard-response","217","1050592","0.0-4.0-2.0-1.49","spark_pilot_2","7451","1","19","Female","","","","","","","null","<div style=""font-size:60px;"">+</div>","null","fixation","","","","","","","","","","","99","","",""
"learning-instructions","218","1073392","0.0-4.0-3.0-0.0","spark_pilot_2","7451","1","19","Female","","","","","","","9602.100000023842","<p> Now, you will travel with a friend who will choose whether you go up or down first. </p>
            <p> On these turns, you will just see the animal that they found. You will still get to choose which chest to search for treasure.</p>","","instructions","","","","","","","","","","","","","",""
"revaluation","219","1077407","0.0-4.0-4.0-0.0","spark_pilot_2","7451","1","19","Female","","false","","","","","[933.6000000238419]","./assets/img/ocean/animals/seahorse.jpg","[""ArrowRight""]","revaluation","ocean","17","{""ArrowUp,ArrowLeft"":26,""ArrowUp,ArrowRight"":10,""ArrowDown,ArrowLeft"":5,""ArrowDown,ArrowRight"":17}","true","ArrowDown,ArrowRight","","","","original","1","0","","",""
"html-keyboard-response","220","1077926","0.0-4.0-4.0-1.0","spark_pilot_2","7451","1","19","Female","","","","","","","null","<div style=""font-size:60px;"">+</div>","null","fixation","","","","","","","","","","","1","","",""
"revaluation","221","1081958","0.0-4.0-4.0-0.1","spark_pilot_2","7451","1","19","Female","","false","","","","","[554.5]","./assets/img/ocean/animals/seahorse.jpg","[""ArrowRight""]","revaluation","ocean","17","{""ArrowUp,ArrowLeft"":26,""ArrowUp,ArrowRight"":10,""ArrowDown,ArrowLeft"":5,""ArrowDown,ArrowRight"":17}","true","ArrowDown,ArrowRight","","","","original","1","2","","",""
"html-keyboard-response","222","1082467","0.0-4.0-4.0-1.1","spark_pilot_2","7451","1","19","Female","","","","","","","null","<div style=""font-size:60px;"">+</div>","null","fixation","","","","","","","","","","","3","","",""
"revaluation","223","1086494","0.0-4.0-4.0-0.2","spark_pilot_2","7451","1","19","Female","","false","","","","","[542.8999999761581]","./assets/img/ocean/animals/octopus.jpg","[""ArrowLeft""]","revaluation","ocean","26","{""ArrowUp,ArrowLeft"":26,""ArrowUp,ArrowRight"":10,""ArrowDown,ArrowLeft"":5,""ArrowDown,ArrowRight"":17}","true","ArrowUp,ArrowLeft","","","","original","1","4","","",""
"html-keyboard-response","224","1087002","0.0-4.0-4.0-1.2","spark_pilot_2","7451","1","19","Female","","","","","","","null","<div style=""font-size:60px;"">+</div>","null","fixation","","","","","","","","","","","5","","",""
"revaluation","225","1091036","0.0-4.0-4.0-0.3","spark_pilot_2","7451","1","19","Female","","false","","","","","[657.0999999642372]","./assets/img/ocean/animals/octopus.jpg","[""ArrowLeft""]","revaluation","ocean","26","{""ArrowUp,ArrowLeft"":26,""ArrowUp,ArrowRight"":10,""ArrowDown,ArrowLeft"":5,""ArrowDown,ArrowRight"":17}","true","ArrowUp,ArrowLeft","","","","original","1","6","","",""
"html-keyboard-response","226","1091547","0.0-4.0-4.0-1.3","spark_pilot_2","7451","1","19","Female","","","","","","","null","<div style=""font-size:60px;"">+</div>","null","fixation","","","","","","","","","","","7","","",""
"revaluation","227","1095557","0.0-4.0-4.0-0.4","spark_pilot_2","7451","1","19","Female","","false","","","","","[552.6000000238419]","./assets/img/ocean/animals/seahorse.jpg","[""ArrowRight""]","revaluation","ocean","17","{""ArrowUp,ArrowLeft"":26,""ArrowUp,ArrowRight"":10,""ArrowDown,ArrowLeft"":5,""ArrowDown,ArrowRight"":17}","true","ArrowDown,ArrowRight","","","","original","1","8","","",""
"html-keyboard-response","228","1096064","0.0-4.0-4.0-1.4","spark_pilot_2","7451","1","19","Female","","","","","","","null","<div style=""font-size:60px;"">+</div>","null","fixation","","","","","","","","","","","9","","",""
"revaluation","229","1100073","0.0-4.0-4.0-0.5","spark_pilot_2","7451","1","19","Female","","false","","","","","[474.69999998807907]","./assets/img/ocean/animals/octopus.jpg","[""ArrowLeft""]","revaluation","ocean","26","{""ArrowUp,ArrowLeft"":26,""ArrowUp,ArrowRight"":10,""ArrowDown,ArrowLeft"":5,""ArrowDown,ArrowRight"":17}","true","ArrowUp,ArrowLeft","","","","original","1","10","","",""
"html-keyboard-response","230","1100581","0.0-4.0-4.0-1.5","spark_pilot_2","7451","1","19","Female","","","","","","","null","<div style=""font-size:60px;"">+</div>","null","fixation","","","","","","","","","","","11","","",""
"revaluation","231","1104597","0.0-4.0-4.0-0.6","spark_pilot_2","7451","1","19","Female","","false","","","","","[688.8000000119209]","./assets/img/ocean/animals/octopus.jpg","[""ArrowLeft""]","revaluation","ocean","26","{""ArrowUp,ArrowLeft"":26,""ArrowUp,ArrowRight"":10,""ArrowDown,ArrowLeft"":5,""ArrowDown,ArrowRight"":17}","true","ArrowUp,ArrowLeft","","","","original","1","12","","",""
"html-keyboard-response","232","1105101","0.0-4.0-4.0-1.6","spark_pilot_2","7451","1","19","Female","","","","","","","null","<div style=""font-size:60px;"">+</div>","null","fixation","","","","","","","","","","","13","","",""
"revaluation","233","1109118","0.0-4.0-4.0-0.7","spark_pilot_2","7451","1","19","Female","","false","","","","","[535.3000000119209]","./assets/img/ocean/animals/octopus.jpg","[""ArrowLeft""]","revaluation","ocean","26","{""ArrowUp,ArrowLeft"":26,""ArrowUp,ArrowRight"":10,""ArrowDown,ArrowLeft"":5,""ArrowDown,ArrowRight"":17}","true","ArrowUp,ArrowLeft","","","","original","1","14","","",""
"html-keyboard-response","234","1109627","0.0-4.0-4.0-1.7","spark_pilot_2","7451","1","19","Female","","","","","","","null","<div style=""font-size:60px;"">+</div>","null","fixation","","","","","","","","","","","15","","",""
"revaluation","235","1113646","0.0-4.0-4.0-0.8","spark_pilot_2","7451","1","19","Female","","false","","","","","[511.0999999642372]","./assets/img/ocean/animals/seahorse.jpg","[""ArrowRight""]","revaluation","ocean","17","{""ArrowUp,ArrowLeft"":26,""ArrowUp,ArrowRight"":10,""ArrowDown,ArrowLeft"":5,""ArrowDown,ArrowRight"":17}","true","ArrowDown,ArrowRight","","","","original","1","16","","",""
"html-keyboard-response","236","1114149","0.0-4.0-4.0-1.8","spark_pilot_2","7451","1","19","Female","","","","","","","null","<div style=""font-size:60px;"">+</div>","null","fixation","","","","","","","","","","","17","","",""
"revaluation","237","1118168","0.0-4.0-4.0-0.9","spark_pilot_2","7451","1","19","Female","","false","","","","","[710.7999999523163]","./assets/img/ocean/animals/seahorse.jpg","[""ArrowRight""]","revaluation","ocean","17","{""ArrowUp,ArrowLeft"":26,""ArrowUp,ArrowRight"":10,""ArrowDown,ArrowLeft"":5,""ArrowDown,ArrowRight"":17}","true","ArrowDown,ArrowRight","","","","original","1","18","","",""
"html-keyboard-response","238","1118677","0.0-4.0-4.0-1.9","spark_pilot_2","7451","1","19","Female","","","","","","","null","<div style=""font-size:60px;"">+</div>","null","fixation","","","","","","","","","","","19","","",""
"revaluation","239","1122690","0.0-4.0-4.0-0.10","spark_pilot_2","7451","1","19","Female","","false","","","","","[421.4000000357628]","./assets/img/ocean/animals/octopus.jpg","[""ArrowLeft""]","revaluation","ocean","26","{""ArrowUp,ArrowLeft"":26,""ArrowUp,ArrowRight"":10,""ArrowDown,ArrowLeft"":5,""ArrowDown,ArrowRight"":17}","true","ArrowUp,ArrowLeft","","","","original","1","20","","",""
"html-keyboard-response","240","1123196","0.0-4.0-4.0-1.10","spark_pilot_2","7451","1","19","Female","","","","","","","null","<div style=""font-size:60px;"">+</div>","null","fixation","","","","","","","","","","","21","","",""
"revaluation","241","1127208","0.0-4.0-4.0-0.11","spark_pilot_2","7451","1","19","Female","","false","","","","","[575]","./assets/img/ocean/animals/octopus.jpg","[""ArrowLeft""]","revaluation","ocean","26","{""ArrowUp,ArrowLeft"":26,""ArrowUp,ArrowRight"":10,""ArrowDown,ArrowLeft"":5,""ArrowDown,ArrowRight"":17}","true","ArrowUp,ArrowLeft","","","","original","1","22","","",""
"html-keyboard-response","242","1127715","0.0-4.0-4.0-1.11","spark_pilot_2","7451","1","19","Female","","","","","","","null","<div style=""font-size:60px;"">+</div>","null","fixation","","","","","","","","","","","23","","",""
"revaluation","243","1131735","0.0-4.0-4.0-0.12","spark_pilot_2","7451","1","19","Female","","false","","","","","[656.5]","./assets/img/ocean/animals/octopus.jpg","[""ArrowLeft""]","revaluation","ocean","26","{""ArrowUp,ArrowLeft"":26,""ArrowUp,ArrowRight"":10,""ArrowDown,ArrowLeft"":5,""ArrowDown,ArrowRight"":17}","true","ArrowUp,ArrowLeft","","","","original","1","24","","",""
"html-keyboard-response","244","1132242","0.0-4.0-4.0-1.12","spark_pilot_2","7451","1","19","Female","","","","","","","null","<div style=""font-size:60px;"">+</div>","null","fixation","","","","","","","","","","","25","","",""
"revaluation","245","1136260","0.0-4.0-4.0-0.13","spark_pilot_2","7451","1","19","Female","","false","","","","","[467.5]","./assets/img/ocean/animals/seahorse.jpg","[""ArrowRight""]","revaluation","ocean","17","{""ArrowUp,ArrowLeft"":26,""ArrowUp,ArrowRight"":10,""ArrowDown,ArrowLeft"":5,""ArrowDown,ArrowRight"":17}","true","ArrowDown,ArrowRight","","","","original","1","26","","",""
"html-keyboard-response","246","1136769","0.0-4.0-4.0-1.13","spark_pilot_2","7451","1","19","Female","","","","","","","null","<div style=""font-size:60px;"">+</div>","null","fixation","","","","","","","","","","","27","","",""
"revaluation","247","1140795","0.0-4.0-4.0-0.14","spark_pilot_2","7451","1","19","Female","","false","","","","","[510.60000002384186]","./assets/img/ocean/animals/seahorse.jpg","[""ArrowRight""]","revaluation","ocean","17","{""ArrowUp,ArrowLeft"":26,""ArrowUp,ArrowRight"":10,""ArrowDown,ArrowLeft"":5,""ArrowDown,ArrowRight"":17}","true","ArrowDown,ArrowRight","","","","original","1","28","","",""
"html-keyboard-response","248","1141304","0.0-4.0-4.0-1.14","spark_pilot_2","7451","1","19","Female","","","","","","","null","<div style=""font-size:60px;"">+</div>","null","fixation","","","","","","","","","","","29","","",""
"revaluation","249","1145322","0.0-4.0-4.0-0.15","spark_pilot_2","7451","1","19","Female","","false","","","","","[576.3000000119209]","./assets/img/ocean/animals/seahorse.jpg","[""ArrowRight""]","revaluation","ocean","17","{""ArrowUp,ArrowLeft"":26,""ArrowUp,ArrowRight"":10,""ArrowDown,ArrowLeft"":5,""ArrowDown,ArrowRight"":17}","true","ArrowDown,ArrowRight","","","","original","1","30","","",""
"html-keyboard-response","250","1145830","0.0-4.0-4.0-1.15","spark_pilot_2","7451","1","19","Female","","","","","","","null","<div style=""font-size:60px;"">+</div>","null","fixation","","","","","","","","","","","31","","",""
"revaluation","251","1149846","0.0-4.0-4.0-0.16","spark_pilot_2","7451","1","19","Female","","false","","","","","[500.5]","./assets/img/ocean/animals/seahorse.jpg","[""ArrowRight""]","revaluation","ocean","17","{""ArrowUp,ArrowLeft"":26,""ArrowUp,ArrowRight"":10,""ArrowDown,ArrowLeft"":5,""ArrowDown,ArrowRight"":17}","true","ArrowDown,ArrowRight","","","","original","1","32","","",""
"html-keyboard-response","252","1150358","0.0-4.0-4.0-1.16","spark_pilot_2","7451","1","19","Female","","","","","","","null","<div style=""font-size:60px;"">+</div>","null","fixation","","","","","","","","","","","33","","",""
"revaluation","253","1154379","0.0-4.0-4.0-0.17","spark_pilot_2","7451","1","19","Female","","false","","","","","[631.1999999880791]","./assets/img/ocean/animals/octopus.jpg","[""ArrowLeft""]","revaluation","ocean","26","{""ArrowUp,ArrowLeft"":26,""ArrowUp,ArrowRight"":10,""ArrowDown,ArrowLeft"":5,""ArrowDown,ArrowRight"":17}","true","ArrowUp,ArrowLeft","","","","original","1","34","","",""
"html-keyboard-response","254","1154882","0.0-4.0-4.0-1.17","spark_pilot_2","7451","1","19","Female","","","","","","","null","<div style=""font-size:60px;"">+</div>","null","fixation","","","","","","","","","","","35","","",""
"learning-instructions","255","1179074","0.0-4.0-5.0-0.0","spark_pilot_2","7451","1","19","Female","","","","","","","12501.300000011921","<p> Time to play the dot game! </p>
            <p> For one minute, click the red dots on the following screen as they appear. </p>
            <p><b> Don't look away, as you will earn bonus for clicking dots</b>. </p>","","instructions","","","","","","","","","","","","","",""
"revaluation","256","1239080","0.0-4.0-6.0-0.0","spark_pilot_2","7451","1","19","Female","","","","","","","[76,72,71,51,59,104,59,39]","","","rest","","80","","","","","0","60000","","","","","",""
"learning-instructions","257","1246021","0.0-4.0-7.0-0.0","spark_pilot_2","7451","1","19","Female","","","","","","","544.6999999880791","<p> You have almost finished this part of the game! </p>
            <p> We are going to ask you to make a few more choices. </p>","","instructions","","","","","","","","","","","","","",""
"learning-instructions","258","1265756","0.0-4.0-7.0-0.1","spark_pilot_2","7451","1","19","Female","","","","","","","5770.399999976158","<p> First, you need to decide whether to go up or down. When you see each picture, use the arrow keys to make your choice. </p>
            <p><b>You will not see which animal you found, but try to get to the one that will give you the most treasure.</b></p>","","instructions","","","","","","","","","","","","","",""
"revaluation","259","1266790","0.0-4.0-8.0-0.0","spark_pilot_2","7451","1","19","Female","","false","","","","","[1032]","./assets/img/ocean/test/2.jpg","[""ArrowUp""]","first stage test","ocean","0","{""ArrowUp,ArrowLeft"":26,""ArrowUp,ArrowRight"":10,""ArrowDown,ArrowLeft"":5,""ArrowDown,ArrowRight"":17}","true","ArrowUp","false","","","original","1","","","",""
"html-keyboard-response","260","1267303","0.0-4.0-8.0-1.0","spark_pilot_2","7451","1","19","Female","","","","","","","null","<div style=""font-size:60px;"">+</div>","null","fixation","","","","","","","","","","","","","",""
"revaluation","261","1267933","0.0-4.0-8.0-0.1","spark_pilot_2","7451","1","19","Female","","false","","","","","[624.1000000238419]","./assets/img/ocean/test/1.jpg","[""ArrowUp""]","first stage test","ocean","0","{""ArrowUp,ArrowLeft"":26,""ArrowUp,ArrowRight"":10,""ArrowDown,ArrowLeft"":5,""ArrowDown,ArrowRight"":17}","true","ArrowUp","false","","","original","1","","","",""
"html-keyboard-response","262","1268443","0.0-4.0-8.0-1.1","spark_pilot_2","7451","1","19","Female","","","","","","","null","<div style=""font-size:60px;"">+</div>","null","fixation","","","","","","","","","","","","","",""
"revaluation","263","1269023","0.0-4.0-8.0-0.2","spark_pilot_2","7451","1","19","Female","","false","","","","","[573.1999999880791]","./assets/img/ocean/test/3.jpg","[""ArrowUp""]","first stage test","ocean","0","{""ArrowUp,ArrowLeft"":26,""ArrowUp,ArrowRight"":10,""ArrowDown,ArrowLeft"":5,""ArrowDown,ArrowRight"":17}","true","ArrowUp","false","","","original","1","","","",""
"html-keyboard-response","264","1269542","0.0-4.0-8.0-1.2","spark_pilot_2","7451","1","19","Female","","","","","","","null","<div style=""font-size:60px;"">+</div>","null","fixation","","","","","","","","","","","","","",""
"revaluation","265","1270124","0.0-4.0-8.0-0.3","spark_pilot_2","7451","1","19","Female","","false","","","","","[573.8000000119209]","./assets/img/ocean/test/0.jpg","[""ArrowUp""]","first stage test","ocean","0","{""ArrowUp,ArrowLeft"":26,""ArrowUp,ArrowRight"":10,""ArrowDown,ArrowLeft"":5,""ArrowDown,ArrowRight"":17}","true","ArrowUp","false","","","original","1","","","",""
"html-keyboard-response","266","1270630","0.0-4.0-8.0-1.3","spark_pilot_2","7451","1","19","Female","","","","","","","null","<div style=""font-size:60px;"">+</div>","null","fixation","","","","","","","","","","","","","",""
"learning-instructions","267","1282935","0.0-4.0-9.0-0.0","spark_pilot_2","7451","1","19","Female","","","","","","","968.9000000357628","<p> Now you will see the animals again and can search their chests for treasure. </p>
            <p> This time, you will not see how much treasure you earned, but you will earn more bonus money for making better choices. </p>","","instructions","","","","","","","","","","","","","",""
"revaluation","268","1283764","0.0-4.0-10.0-0.0","spark_pilot_2","7451","1","19","Female","","false","","","","","[826.3999999761581]","./assets/img/ocean/animals/octopus.jpg","[""ArrowLeft""]","second stage test","ocean","0","{""ArrowUp,ArrowLeft"":26,""ArrowUp,ArrowRight"":10,""ArrowDown,ArrowLeft"":5,""ArrowDown,ArrowRight"":17}","true","ArrowUp,ArrowLeft","","","","original","1","","","",""
"html-keyboard-response","269","1284283","0.0-4.0-10.0-1.0","spark_pilot_2","7451","1","19","Female","","","","","","","null","<div style=""font-size:60px;"">+</div>","null","fixation","","","","","","","","","","","","","",""
"revaluation","270","1284763","0.0-4.0-10.0-0.1","spark_pilot_2","7451","1","19","Female","","false","","","","","[474.5]","./assets/img/ocean/animals/octopus.jpg","[""ArrowLeft""]","second stage test","ocean","0","{""ArrowUp,ArrowLeft"":26,""ArrowUp,ArrowRight"":10,""ArrowDown,ArrowLeft"":5,""ArrowDown,ArrowRight"":17}","true","ArrowUp,ArrowLeft","","","","original","1","","","",""
"html-keyboard-response","271","1285279","0.0-4.0-10.0-1.1","spark_pilot_2","7451","1","19","Female","","","","","","","null","<div style=""font-size:60px;"">+</div>","null","fixation","","","","","","","","","","","","","",""
"revaluation","272","1285694","0.0-4.0-10.0-0.2","spark_pilot_2","7451","1","19","Female","","false","","","","","[407.89999997615814]","./assets/img/ocean/animals/octopus.jpg","[""ArrowLeft""]","second stage test","ocean","0","{""ArrowUp,ArrowLeft"":26,""ArrowUp,ArrowRight"":10,""ArrowDown,ArrowLeft"":5,""ArrowDown,ArrowRight"":17}","true","ArrowUp,ArrowLeft","","","","original","1","","","",""
"html-keyboard-response","273","1286196","0.0-4.0-10.0-1.2","spark_pilot_2","7451","1","19","Female","","","","","","","null","<div style=""font-size:60px;"">+</div>","null","fixation","","","","","","","","","","","","","",""
"revaluation","274","1286583","0.0-4.0-10.0-0.3","spark_pilot_2","7451","1","19","Female","","false","","","","","[381.30000001192093]","./assets/img/ocean/animals/octopus.jpg","[""ArrowLeft""]","second stage test","ocean","0","{""ArrowUp,ArrowLeft"":26,""ArrowUp,ArrowRight"":10,""ArrowDown,ArrowLeft"":5,""ArrowDown,ArrowRight"":17}","true","ArrowUp,ArrowLeft","","","","original","1","","","",""
"html-keyboard-response","275","1287093","0.0-4.0-10.0-1.3","spark_pilot_2","7451","1","19","Female","","","","","","","null","<div style=""font-size:60px;"">+</div>","null","fixation","","","","","","","","","","","","","",""
"revaluation","276","1287594","0.0-4.0-10.0-0.4","spark_pilot_2","7451","1","19","Female","","false","","","","","[495.0999999642372]","./assets/img/ocean/animals/seahorse.jpg","[""ArrowRight""]","second stage test","ocean","0","{""ArrowUp,ArrowLeft"":26,""ArrowUp,ArrowRight"":10,""ArrowDown,ArrowLeft"":5,""ArrowDown,ArrowRight"":17}","true","ArrowDown,ArrowRight","","","","original","1","","","",""
"html-keyboard-response","277","1288103","0.0-4.0-10.0-1.4","spark_pilot_2","7451","1","19","Female","","","","","","","null","<div style=""font-size:60px;"">+</div>","null","fixation","","","","","","","","","","","","","",""
"revaluation","278","1288564","0.0-4.0-10.0-0.5","spark_pilot_2","7451","1","19","Female","","false","","","","","[455.60000002384186]","./assets/img/ocean/animals/seahorse.jpg","[""ArrowRight""]","second stage test","ocean","0","{""ArrowUp,ArrowLeft"":26,""ArrowUp,ArrowRight"":10,""ArrowDown,ArrowLeft"":5,""ArrowDown,ArrowRight"":17}","true","ArrowDown,ArrowRight","","","","original","1","","","",""
"html-keyboard-response","279","1289072","0.0-4.0-10.0-1.5","spark_pilot_2","7451","1","19","Female","","","","","","","null","<div style=""font-size:60px;"">+</div>","null","fixation","","","","","","","","","","","","","",""
"revaluation","280","1289543","0.0-4.0-10.0-0.6","spark_pilot_2","7451","1","19","Female","","false","","","","","[463.4000000357628]","./assets/img/ocean/animals/seahorse.jpg","[""ArrowRight""]","second stage test","ocean","0","{""ArrowUp,ArrowLeft"":26,""ArrowUp,ArrowRight"":10,""ArrowDown,ArrowLeft"":5,""ArrowDown,ArrowRight"":17}","true","ArrowDown,ArrowRight","","","","original","1","","","",""
"html-keyboard-response","281","1290054","0.0-4.0-10.0-1.6","spark_pilot_2","7451","1","19","Female","","","","","","","null","<div style=""font-size:60px;"">+</div>","null","fixation","","","","","","","","","","","","","",""
"revaluation","282","1290474","0.0-4.0-10.0-0.7","spark_pilot_2","7451","1","19","Female","","false","","","","","[413]","./assets/img/ocean/animals/seahorse.jpg","[""ArrowRight""]","second stage test","ocean","0","{""ArrowUp,ArrowLeft"":26,""ArrowUp,ArrowRight"":10,""ArrowDown,ArrowLeft"":5,""ArrowDown,ArrowRight"":17}","true","ArrowDown,ArrowRight","","","","original","1","","","",""
"html-keyboard-response","283","1290981","0.0-4.0-10.0-1.7","spark_pilot_2","7451","1","19","Female","","","","","","","null","<div style=""font-size:60px;"">+</div>","null","fixation","","","","","","","","","","","","","",""
"learning-instructions","284","1294888","0.0-4.0-0.1-0.2","spark_pilot_2","7451","1","19","Female","","","","","","","1122","<p> This time you are searching for treasure in the <b>canyon</b>.</p>","","instructions","","","","","","","","","","","","","",""
"learning-instructions","285","1312815","0.0-4.0-0.1-0.3","spark_pilot_2","7451","1","19","Female","","","","","","","669","<p><b>New</b> animals with <b>new</b> treasure chests live here. You need to explore to discover where the animal with the best treasure chest is.</p>
                    <p> Like before, once you figure out which animal has the chest with the most treasure, you should try to get to that animal and select that chest! </p>","","instructions","","","","","","","","","","","","","",""
"learning-instructions","286","1328687","0.0-4.0-1.1-0.1","spark_pilot_2","7451","1","19","Female","","","","","","","1140.699999988079","<p> Remember, when you see a picture of the place, use the up and down keys to <b>find an animal</b>.</p>
            <p> When you encounter an animal, you should use the left and right keys to <b>select a treasure chest</b>.</p>
            <p> Don't forget to look out for the robber! </p>","","instructions","","","","","","","","","","","","","",""
"revaluation","287","1334720","0.0-4.0-2.1-0.50","spark_pilot_2","7451","1","19","Female","","false","","","","","[1052.2000000476837,498.0999999642372]","./assets/img/canyon/memory/26.jpg","[""ArrowDown"",""ArrowRight""]","value training","canyon","30","{""ArrowUp,ArrowLeft"":23,""ArrowUp,ArrowRight"":10,""ArrowDown,ArrowLeft"":8,""ArrowDown,ArrowRight"":30}","true","ArrowDown,ArrowRight","false","","","revaluation","2","0","","",""
"html-keyboard-response","288","1335232","0.0-4.0-2.1-1.50","spark_pilot_2","7451","1","19","Female","","","","","","","null","<div style=""font-size:60px;"">+</div>","null","fixation","","","","","","","","","","","1","","",""
"revaluation","289","1341256","0.0-4.0-2.1-0.51","spark_pilot_2","7451","1","19","Female","","false","","","","","[694.1999999880791,312.7000000476837]","./assets/img/canyon/memory/0.jpg","[""ArrowDown"",""ArrowRight""]","value training","canyon","30","{""ArrowUp,ArrowLeft"":23,""ArrowUp,ArrowRight"":10,""ArrowDown,ArrowLeft"":8,""ArrowDown,ArrowRight"":30}","true","ArrowDown,ArrowRight","false","","","revaluation","2","2","","",""
"html-keyboard-response","290","1341765","0.0-4.0-2.1-1.51","spark_pilot_2","7451","1","19","Female","","","","","","","null","<div style=""font-size:60px;"">+</div>","null","fixation","","","","","","","","","","","3","","",""
"revaluation","291","1347790","0.0-4.0-2.1-0.52","spark_pilot_2","7451","1","19","Female","","false","","","","","[941.1999999880791,478.19999998807907]","./assets/img/canyon/memory/26.jpg","[""ArrowDown"",""ArrowRight""]","value training","canyon","30","{""ArrowUp,ArrowLeft"":23,""ArrowUp,ArrowRight"":10,""ArrowDown,ArrowLeft"":8,""ArrowDown,ArrowRight"":30}","true","ArrowDown,ArrowRight","false","","","revaluation","2","4","","",""
"html-keyboard-response","292","1348301","0.0-4.0-2.1-1.52","spark_pilot_2","7451","1","19","Female","","","","","","","null","<div style=""font-size:60px;"">+</div>","null","fixation","","","","","","","","","","","5","","",""
"revaluation","293","1354330","0.0-4.0-2.1-0.53","spark_pilot_2","7451","1","19","Female","","false","","","","","[824.5,306.60000002384186]","./assets/img/canyon/memory/6.jpg","[""ArrowDown"",""ArrowRight""]","value training","canyon","30","{""ArrowUp,ArrowLeft"":23,""ArrowUp,ArrowRight"":10,""ArrowDown,ArrowLeft"":8,""ArrowDown,ArrowRight"":30}","true","ArrowDown,ArrowRight","false","","","revaluation","2","6","","",""
"html-keyboard-response","294","1354851","0.0-4.0-2.1-1.53","spark_pilot_2","7451","1","19","Female","","","","","","","null","<div style=""font-size:60px;"">+</div>","null","fixation","","","","","","","","","","","7","","",""
"revaluation","295","1360873","0.0-4.0-2.1-0.54","spark_pilot_2","7451","1","19","Female","","false","","","","","[1115.7000000476837,367.0999999642372]","./assets/img/canyon/memory/34.jpg","[""ArrowDown"",""ArrowRight""]","value training","canyon","30","{""ArrowUp,ArrowLeft"":23,""ArrowUp,ArrowRight"":10,""ArrowDown,ArrowLeft"":8,""ArrowDown,ArrowRight"":30}","true","ArrowDown,ArrowRight","false","","","revaluation","2","8","","",""
"html-keyboard-response","296","1361377","0.0-4.0-2.1-1.54","spark_pilot_2","7451","1","19","Female","","","","","","","null","<div style=""font-size:60px;"">+</div>","null","fixation","","","","","","","","","","","9","","",""
"revaluation","297","1365393","0.0-4.0-2.1-0.55","spark_pilot_2","7451","1","19","Female","","false","","","","","[1089.6000000238419]","./assets/img/canyon/catch/0.jpg","[""spaceBar""]","value training","canyon","0","{""ArrowUp,ArrowLeft"":23,""ArrowUp,ArrowRight"":10,""ArrowDown,ArrowLeft"":8,""ArrowDown,ArrowRight"":30}","true","spaceBar","true","","","revaluation","2","10","","",""
"html-keyboard-response","298","1365903","0.0-4.0-2.1-1.55","spark_pilot_2","7451","1","19","Female","","","","","","","null","<div style=""font-size:60px;"">+</div>","null","fixation","","","","","","","","","","","11","","",""
"revaluation","299","1371928","0.0-4.0-2.1-0.56","spark_pilot_2","7451","1","19","Female","","false","","","","","[512.8000000119209,296.30000001192093]","./assets/img/canyon/memory/14.jpg","[""ArrowDown"",""ArrowLeft""]","value training","canyon","8","{""ArrowUp,ArrowLeft"":23,""ArrowUp,ArrowRight"":10,""ArrowDown,ArrowLeft"":8,""ArrowDown,ArrowRight"":30}","false","ArrowDown,ArrowLeft","false","","","revaluation","2","12","","",""
"html-keyboard-response","300","1372433","0.0-4.0-2.1-1.56","spark_pilot_2","7451","1","19","Female","","","","","","","null","<div style=""font-size:60px;"">+</div>","null","fixation","","","","","","","","","","","13","","",""
"revaluation","301","1378448","0.0-4.0-2.1-0.57","spark_pilot_2","7451","1","19","Female","","false","","","","","[703.3000000119209,299.9000000357628]","./assets/img/canyon/memory/13.jpg","[""ArrowUp"",""ArrowRight""]","value training","canyon","10","{""ArrowUp,ArrowLeft"":23,""ArrowUp,ArrowRight"":10,""ArrowDown,ArrowLeft"":8,""ArrowDown,ArrowRight"":30}","false","ArrowUp,ArrowRight","false","","","revaluation","2","14","","",""
"html-keyboard-response","302","1378957","0.0-4.0-2.1-1.57","spark_pilot_2","7451","1","19","Female","","","","","","","null","<div style=""font-size:60px;"">+</div>","null","fixation","","","","","","","","","","","15","","",""
"revaluation","303","1384980","0.0-4.0-2.1-0.58","spark_pilot_2","7451","1","19","Female","","false","","","","","[681.8000000119209,263.4000000357628]","./assets/img/canyon/memory/1.jpg","[""ArrowUp"",""ArrowLeft""]","value training","canyon","23","{""ArrowUp,ArrowLeft"":23,""ArrowUp,ArrowRight"":10,""ArrowDown,ArrowLeft"":8,""ArrowDown,ArrowRight"":30}","false","ArrowUp,ArrowLeft","false","","","revaluation","2","16","","",""
"html-keyboard-response","304","1385485","0.0-4.0-2.1-1.58","spark_pilot_2","7451","1","19","Female","","","","","","","null","<div style=""font-size:60px;"">+</div>","null","fixation","","","","","","","","","","","17","","",""
"revaluation","305","1391506","0.0-4.0-2.1-0.59","spark_pilot_2","7451","1","19","Female","","false","","","","","[462.5,321.69999998807907]","./assets/img/canyon/memory/4.jpg","[""ArrowDown"",""ArrowRight""]","value training","canyon","30","{""ArrowUp,ArrowLeft"":23,""ArrowUp,ArrowRight"":10,""ArrowDown,ArrowLeft"":8,""ArrowDown,ArrowRight"":30}","true","ArrowDown,ArrowRight","false","","","revaluation","2","18","","",""
"html-keyboard-response","306","1392017","0.0-4.0-2.1-1.59","spark_pilot_2","7451","1","19","Female","","","","","","","null","<div style=""font-size:60px;"">+</div>","null","fixation","","","","","","","","","","","19","","",""
