"trial_type","trial_index","time_elapsed","internal_node_id","task_version","subject_id","assigned_condition","age","gender","success","timeout","failed_images","failed_audio","failed_video","browser_interaction","rt","stimulus","response","task_part","environment","score","rewardMap","correct","fullState","isCatch","numberMissed","duration","condition","order","trial_num","key_press","ground_truth","bonus"
"pavlovia","0","1080","0.0-0.0","spark_pilot_2","7782","7","18","Male","","","","","","","","","","","","","","","","","","","","","","","",""
"preload","1","27168","0.0-1.0","spark_pilot_2","7782","7","18","Male","true","false","[]","[]","[]","[{""event"":""fullscreenenter"",""trial"":2,""time"":77020},{""event"":""blur"",""trial"":3,""time"":113478},{""event"":""focus"",""trial"":3,""time"":121679},{""event"":""blur"",""trial"":471,""time"":2275182},{""event"":""focus"",""trial"":471,""time"":2325763}]","","","","","","","","","","","","","","","","","",""
"fullscreen","2","78015","0.0-2.0","spark_pilot_2","7782","7","18","Male","true","","","","","[{""event"":""fullscreenenter"",""trial"":2,""time"":77020},{""event"":""blur"",""trial"":3,""time"":113478},{""event"":""focus"",""trial"":3,""time"":121679},{""event"":""blur"",""trial"":471,""time"":2275182},{""event"":""focus"",""trial"":471,""time"":2325763}]","","","","","","","","","","","","","","","","","",""
"audio-button-response","3","122706","0.0-3.0-0.0-0.0","spark_pilot_2","7782","7","18","Male","","","","","","","44597","./assets/audio/audiotest/turtle.mp3","4","audio_test","","","","","","","","","","","","","",""
"audio-button-response","4","125107","0.0-3.0-0.1-0.1","spark_pilot_2","7782","7","18","Male","","","","","","","1253","./assets/audio/audiotest/turtle.mp3","2","audio_test","","","","","","","","","","","","","",""
"learning-instructions","5","133425","0.0-3.0-1.0-0.0","spark_pilot_2","7782","7","18","Male","","","","","","","1325.4000000357628","<p> Welcome! Please remember to stay in fullscreen mode and don't click away from the experiment. </p>","","instructions","","","","","","","","","","","","","",""
"learning-instructions","6","162593","0.0-3.0-1.0-0.1","spark_pilot_2","7782","7","18","Male","","","","","","","20755.30000001192","<p> Today you will be playing a game to earn treasure. </p>
            <p> At the end of the experiment, you will earn a bonus based on how much treasure you find. </p>
            <img src='./assets/img/instructions/treasure.jpg' class='instructions-image'>","","instructions","","","","","","","","","","","","","",""
"learning-instructions","7","171568","0.0-3.0-1.0-0.2","spark_pilot_2","7782","7","18","Male","","","","","","","713.3000000119209","<p> Animals have hidden treasure in treasure chests. </p>
            <p> You need to first find an animal and then choose which of their treasure chests to search. </p>
            <img src='./assets/img/space/animals/cat.jpg' class='instructions-image'>","","instructions","","","","","","","","","","","","","",""
"learning-instructions","8","192094","0.0-3.0-1.0-0.3","spark_pilot_2","7782","7","18","Male","","","","","","","7381.399999976158","<p> In each round, you will search for treasure in a different place. In the real game, there will be two rounds. </p>
            <p> You will begin with a separate, practice round where you will search for treasure in outer space. </p>
            <img src='./assets/img/space/0.jpg' class='instructions-image'>","","instructions","","","","","","","","","","","","","",""
"learning-instructions","9","213243","0.0-3.0-1.0-0.4","spark_pilot_2","7782","7","18","Male","","","","","","","9734.199999988079","<p> On every turn, you will see a picture of the place that you are in, but the specific image may be different each time. </p>
            <p> For example, both of these images mean you are in outer space. </p>
            <img src='./assets/img/instructions/outerspace.jpg' class='instructions-image'>","","instructions","","","","","","","","","","","","","",""
"learning-instructions","10","221889","0.0-3.0-1.0-0.5","spark_pilot_2","7782","7","18","Male","","","","","","","815.8000000119209","<p> You need to decide which direction to travel in. </p>
            <p> You can choose between going <b>up or down</b> by using the arrow keys. </p>
            <img src='./assets/img/instructions/updown.jpg' class='instructions-image'>","","instructions","","","","","","","","","","","","","",""
"learning-instructions","11","242513","0.0-3.0-1.0-0.6","spark_pilot_2","7782","7","18","Male","","","","","","","11813","<p> You will have <b>2 seconds</b> to make your choice. </p>
            <p> If you do not make a choice within 2 seconds, you will not find an animal or earn treasure. </p>
            <img src='./assets/img/instructions/2seconds.jpg' class='instructions-image'>","","instructions","","","","","","","","","","","","","",""
"learning-instructions","12","250276","0.0-3.0-1.0-0.7","spark_pilot_2","7782","7","18","Male","","","","","","","728.1000000238419","<p> Let’s try practicing that now! </p>
            <p> When you see a picture of the place you are in, press the <b>up</b> key to travel up. </p>
            <img src='./assets/img/instructions/pressUp.jpg' class='instructions-image'>","","instructions","","","","","","","","","","","","","",""
"revaluation","13","254308","0.0-3.0-2.0-0.0","spark_pilot_2","7782","7","18","Male","","false","","","","","[1412.5999999642372]","./assets/img/space/0.jpg","[""ArrowUp""]","first stage practice","space","0","null","null","ArrowUp","false","","","","","","","",""
"html-keyboard-response","14","254813","0.0-3.0-2.0-1.0","spark_pilot_2","7782","7","18","Male","","","","","","","null","<div style=""font-size:60px;"">+</div>","null","fixation","","","","","","","","","","","","","",""
"revaluation","15","258832","0.0-3.0-2.0-0.1","spark_pilot_2","7782","7","18","Male","","false","","","","","[758.6000000238419]","./assets/img/space/1.jpg","[""ArrowUp""]","first stage practice","space","0","null","null","ArrowUp","false","","","","","","","",""
"html-keyboard-response","16","259342","0.0-3.0-2.0-1.1","spark_pilot_2","7782","7","18","Male","","","","","","","null","<div style=""font-size:60px;"">+</div>","null","fixation","","","","","","","","","","","","","",""
"revaluation","17","263364","0.0-3.0-2.0-0.2","spark_pilot_2","7782","7","18","Male","","false","","","","","[645.6000000238419]","./assets/img/space/2.jpg","[""ArrowUp""]","first stage practice","space","0","null","null","ArrowUp","false","","","","","","","",""
"html-keyboard-response","18","263867","0.0-3.0-2.0-1.2","spark_pilot_2","7782","7","18","Male","","","","","","","null","<div style=""font-size:60px;"">+</div>","null","fixation","","","","","","","","","","","","","",""
"learning-instructions","19","269889","0.0-3.0-3.0-0.0","spark_pilot_2","7782","7","18","Male","","","","","","","1322.4000000357628","<p> Great job! Now try pressing the <b>down</b> key to travel down. </p>
            <img src='./assets/img/instructions/pressDown.jpg' class='instructions-image'>","","instructions","","","","","","","","","","","","","",""
"revaluation","20","273912","0.0-3.0-4.0-0.0","spark_pilot_2","7782","7","18","Male","","false","","","","","[588.5]","./assets/img/space/3.jpg","[""ArrowDown""]","first stage practice","space","0","null","null","ArrowDown","false","","","","","","","",""
"html-keyboard-response","21","274422","0.0-3.0-4.0-1.0","spark_pilot_2","7782","7","18","Male","","","","","","","null","<div style=""font-size:60px;"">+</div>","null","fixation","","","","","","","","","","","","","",""
"revaluation","22","278436","0.0-3.0-4.0-0.1","spark_pilot_2","7782","7","18","Male","","false","","","","","[486.80000001192093]","./assets/img/space/4.jpg","[""ArrowDown""]","first stage practice","space","0","null","null","ArrowDown","false","","","","","","","",""
"html-keyboard-response","23","278939","0.0-3.0-4.0-1.1","spark_pilot_2","7782","7","18","Male","","","","","","","null","<div style=""font-size:60px;"">+</div>","null","fixation","","","","","","","","","","","","","",""
"revaluation","24","282957","0.0-3.0-4.0-0.2","spark_pilot_2","7782","7","18","Male","","false","","","","","[1899.2000000476837]","./assets/img/space/5.jpg","[""ArrowDown""]","first stage practice","space","0","null","null","ArrowDown","false","","","","","","","",""
"html-keyboard-response","25","283463","0.0-3.0-4.0-1.2","spark_pilot_2","7782","7","18","Male","","","","","","","null","<div style=""font-size:60px;"">+</div>","null","fixation","","","","","","","","","","","","","",""
"learning-instructions","26","295245","0.0-3.0-5.0-0.0","spark_pilot_2","7782","7","18","Male","","","","","","","1930.800000011921","<p> The animals don’t move, so the animal in the upper part of a place will stay in the upper part of a place, and the animal in the lower part of a place will stay in the lower part of a place. </p>","","instructions","","","","","","","","","","","","","",""
"learning-instructions","27","305445","0.0-3.0-5.0-0.1","spark_pilot_2","7782","7","18","Male","","","","","","","1074.699999988079","<p> Each animal has two treasure chests for you to choose from. </p>
            <p> The amount of treasure in each chest can range from <b> 0 to 40 pieces.</b></p>","","instructions","","","","","","","","","","","","","",""
"learning-instructions","28","317993","0.0-3.0-5.0-0.2","spark_pilot_2","7782","7","18","Male","","","","","","","1114.699999988079","<p> You should decide which chest to search for treasure by using the <b>left</b> and <b>right</b> arrow keys. </p>
            <p><b> Pay attention to which animal is on the screen, as the animals have different treasure chests. </b></p>
            <img src='./assets/img/instructions/leftright.jpg' class='instructions-image'>","","instructions","","","","","","","","","","","","","",""
"learning-instructions","29","326397","0.0-3.0-5.0-0.3","spark_pilot_2","7782","7","18","Male","","","","","","","2038.6000000238419","<p> Let’s try practicing that now. </p>
            <p> When you see an animal, choose which chest to search for treasure. </p>
            <img src='./assets/img/instructions/chooseChest.jpg' class='instructions-image'>","","instructions","","","","","","","","","","","","","",""
"revaluation","30","330415","0.0-3.0-6.0-0.0","spark_pilot_2","7782","7","18","Male","","false","","","","","[510.89999997615814]","./assets/img/space/animals/rabbit.jpg","[""ArrowRight""]","second stage practice","space","23","{""ArrowUp,ArrowLeft"":3,""ArrowUp,ArrowRight"":36,""ArrowDown,ArrowLeft"":15,""ArrowDown,ArrowRight"":23}","true","ArrowDown,ArrowRight","","","","","","","","",""
"html-keyboard-response","31","330923","0.0-3.0-6.0-1.0","spark_pilot_2","7782","7","18","Male","","","","","","","null","<div style=""font-size:60px;"">+</div>","null","fixation","","","","","","","","","","","","","",""
"revaluation","32","334941","0.0-3.0-6.0-0.1","spark_pilot_2","7782","7","18","Male","","false","","","","","[612.6999999880791]","./assets/img/space/animals/rabbit.jpg","[""ArrowRight""]","second stage practice","space","23","{""ArrowUp,ArrowLeft"":3,""ArrowUp,ArrowRight"":36,""ArrowDown,ArrowLeft"":15,""ArrowDown,ArrowRight"":23}","true","ArrowDown,ArrowRight","","","","","","","","",""
"html-keyboard-response","33","335452","0.0-3.0-6.0-1.1","spark_pilot_2","7782","7","18","Male","","","","","","","null","<div style=""font-size:60px;"">+</div>","null","fixation","","","","","","","","","","","","","",""
"revaluation","34","339468","0.0-3.0-6.0-0.2","spark_pilot_2","7782","7","18","Male","","false","","","","","[867.6999999880791]","./assets/img/space/animals/cat.jpg","[""ArrowLeft""]","second stage practice","space","3","{""ArrowUp,ArrowLeft"":3,""ArrowUp,ArrowRight"":36,""ArrowDown,ArrowLeft"":15,""ArrowDown,ArrowRight"":23}","false","ArrowUp,ArrowLeft","","","","","","","","",""
"html-keyboard-response","35","339975","0.0-3.0-6.0-1.2","spark_pilot_2","7782","7","18","Male","","","","","","","null","<div style=""font-size:60px;"">+</div>","null","fixation","","","","","","","","","","","","","",""
"revaluation","36","343996","0.0-3.0-6.0-0.3","spark_pilot_2","7782","7","18","Male","","false","","","","","[391.19999998807907]","./assets/img/space/animals/cat.jpg","[""ArrowRight""]","second stage practice","space","36","{""ArrowUp,ArrowLeft"":3,""ArrowUp,ArrowRight"":36,""ArrowDown,ArrowLeft"":15,""ArrowDown,ArrowRight"":23}","true","ArrowUp,ArrowRight","","","","","","","","",""
"html-keyboard-response","37","344504","0.0-3.0-6.0-1.3","spark_pilot_2","7782","7","18","Male","","","","","","","null","<div style=""font-size:60px;"">+</div>","null","fixation","","","","","","","","","","","","","",""
"learning-instructions","38","361672","0.0-3.0-7.0-0.0","spark_pilot_2","7782","7","18","Male","","","","","","","358.60000002384186","<p> Great job. Now let’s try putting it together. </p>
            <p> On each turn, you will first see a picture to remind you of the place you are in, and you need to choose whether to go up or down. </p>
            <p> Then you will see an animal and choose which of its chests to search for treasure. </p>","","instructions","","","","","","","","","","","","","",""
"learning-instructions","39","370313","0.0-3.0-7.0-0.1","spark_pilot_2","7782","7","18","Male","","","","","","","377.30000001192093","<p> When you choose whether to go up or down, try to go to the animal with the chest with the most treasure. </p>
            <p> Try practicing that now! </p>","","instructions","","","","","","","","","","","","","",""
"revaluation","40","376340","0.0-3.0-8.0-0.0","spark_pilot_2","7782","7","18","Male","","false","","","","","[1308.699999988079,698.5]","./assets/img/space/6.jpg","[""ArrowUp"",""ArrowLeft""]","full practice","space","3","{""ArrowUp,ArrowLeft"":3,""ArrowUp,ArrowRight"":36,""ArrowDown,ArrowLeft"":15,""ArrowDown,ArrowRight"":23}","false","ArrowUp,ArrowLeft","false","","","","","","","",""
"html-keyboard-response","41","376847","0.0-3.0-8.0-1.0","spark_pilot_2","7782","7","18","Male","","","","","","","null","<div style=""font-size:60px;"">+</div>","null","fixation","","","","","","","","","","","","","",""
"revaluation","42","382876","0.0-3.0-8.0-0.1","spark_pilot_2","7782","7","18","Male","","false","","","","","[364.5999999642372,268.60000002384186]","./assets/img/space/7.jpg","[""ArrowUp"",""ArrowRight""]","full practice","space","36","{""ArrowUp,ArrowLeft"":3,""ArrowUp,ArrowRight"":36,""ArrowDown,ArrowLeft"":15,""ArrowDown,ArrowRight"":23}","true","ArrowUp,ArrowRight","false","","","","","","","",""
"html-keyboard-response","43","383380","0.0-3.0-8.0-1.1","spark_pilot_2","7782","7","18","Male","","","","","","","null","<div style=""font-size:60px;"">+</div>","null","fixation","","","","","","","","","","","","","",""
"revaluation","44","389407","0.0-3.0-8.0-0.2","spark_pilot_2","7782","7","18","Male","","false","","","","","[299.2000000476837,281.10000002384186]","./assets/img/space/8.jpg","[""ArrowUp"",""ArrowRight""]","full practice","space","36","{""ArrowUp,ArrowLeft"":3,""ArrowUp,ArrowRight"":36,""ArrowDown,ArrowLeft"":15,""ArrowDown,ArrowRight"":23}","true","ArrowUp,ArrowRight","false","","","","","","","",""
"html-keyboard-response","45","389916","0.0-3.0-8.0-1.2","spark_pilot_2","7782","7","18","Male","","","","","","","null","<div style=""font-size:60px;"">+</div>","null","fixation","","","","","","","","","","","","","",""
"revaluation","46","395940","0.0-3.0-8.0-0.3","spark_pilot_2","7782","7","18","Male","","false","","","","","[290.10000002384186,329.39999997615814]","./assets/img/space/9.jpg","[""ArrowDown"",""ArrowLeft""]","full practice","space","15","{""ArrowUp,ArrowLeft"":3,""ArrowUp,ArrowRight"":36,""ArrowDown,ArrowLeft"":15,""ArrowDown,ArrowRight"":23}","false","ArrowDown,ArrowLeft","false","","","","","","","",""
"html-keyboard-response","47","396443","0.0-3.0-8.0-1.3","spark_pilot_2","7782","7","18","Male","","","","","","","null","<div style=""font-size:60px;"">+</div>","null","fixation","","","","","","","","","","","","","",""
"revaluation","48","402471","0.0-3.0-8.0-0.4","spark_pilot_2","7782","7","18","Male","","false","","","","","[300.19999998807907,196.20000004768372]","./assets/img/space/10.jpg","[""ArrowUp"",""ArrowRight""]","full practice","space","36","{""ArrowUp,ArrowLeft"":3,""ArrowUp,ArrowRight"":36,""ArrowDown,ArrowLeft"":15,""ArrowDown,ArrowRight"":23}","true","ArrowUp,ArrowRight","false","","","","","","","",""
"html-keyboard-response","49","402983","0.0-3.0-8.0-1.4","spark_pilot_2","7782","7","18","Male","","","","","","","null","<div style=""font-size:60px;"">+</div>","null","fixation","","","","","","","","","","","","","",""
"learning-instructions","50","426653","0.0-3.0-9.0-0.0","spark_pilot_2","7782","7","18","Male","","","","","","","13247.299999952316","<p> One last thing: sometimes, you will see a robber. The robber can be anywhere in the picture. </p>
            <p> If you do not stop them, you will lose treasure. </p>
            <img src='./assets/img/instructions/robber.jpg' class='instructions-image'>","","instructions","","","","","","","","","","","","","",""
"learning-instructions","51","435009","0.0-3.0-9.0-0.1","spark_pilot_2","7782","7","18","Male","","","","","","","1194.300000011921","<p> If you see the robber, you should <b>press the space bar</b> rather than using the arrow keys. </p>
            <p> Try practicing that now! </p>","","instructions","","","","","","","","","","","","","",""
"revaluation","52","439031","0.0-3.0-10.0-0.0","spark_pilot_2","7782","7","18","Male","","false","","","","","[1205.3999999761581]","./assets/img/space/catch/0.jpg","[""ArrowUp""]","catch practice","space","-10","{""ArrowUp,ArrowLeft"":3,""ArrowUp,ArrowRight"":36,""ArrowDown,ArrowLeft"":15,""ArrowDown,ArrowRight"":23}","false","ArrowUp","true","","","","","","","",""
"html-keyboard-response","53","439543","0.0-3.0-10.0-1.0","spark_pilot_2","7782","7","18","Male","","","","","","","null","<div style=""font-size:60px;"">+</div>","null","fixation","","","","","","","","","","","","","",""
"revaluation","54","443565","0.0-3.0-10.0-0.1","spark_pilot_2","7782","7","18","Male","","false","","","","","[568.3999999761581]","./assets/img/space/catch/1.jpg","[""spaceBar""]","catch practice","space","0","{""ArrowUp,ArrowLeft"":3,""ArrowUp,ArrowRight"":36,""ArrowDown,ArrowLeft"":15,""ArrowDown,ArrowRight"":23}","true","spaceBar","true","","","","","","","",""
"html-keyboard-response","55","444079","0.0-3.0-10.0-1.1","spark_pilot_2","7782","7","18","Male","","","","","","","null","<div style=""font-size:60px;"">+</div>","null","fixation","","","","","","","","","","","","","",""
"revaluation","56","448092","0.0-3.0-10.0-0.2","spark_pilot_2","7782","7","18","Male","","false","","","","","[355.69999998807907]","./assets/img/space/catch/2.jpg","[""spaceBar""]","catch practice","space","0","{""ArrowUp,ArrowLeft"":3,""ArrowUp,ArrowRight"":36,""ArrowDown,ArrowLeft"":15,""ArrowDown,ArrowRight"":23}","true","spaceBar","true","","","","","","","",""
"html-keyboard-response","57","448600","0.0-3.0-10.0-1.2","spark_pilot_2","7782","7","18","Male","","","","","","","null","<div style=""font-size:60px;"">+</div>","null","fixation","","","","","","","","","","","","","",""
"learning-instructions","58","463325","0.0-3.0-11.0-0.0","spark_pilot_2","7782","7","18","Male","","","","","","","1138.800000011921","<p> After you explore a place to find treasure, it will be time to play a different game. </p>
            <p> During this game, red dots will appear on the screen and fall down slowly. </p>
            <p><b> You must click on them before they reach the bottom. </b></p>
            <img src='./assets/img/instructions/dotGame.jpg' class='instructions-image'>","","instructions","","","","","","","","","","","","","",""
"learning-instructions","59","470252","0.0-3.0-11.0-0.1","spark_pilot_2","7782","7","18","Male","","","","","","","1256.300000011921","<p> For every dot you click, you will earn additional treasure. </p>
            <p> Let’s try practicing that now. </p>","","instructions","","","","","","","","","","","","","",""
"revaluation","60","485265","0.0-3.0-12.0-0.0","spark_pilot_2","7782","7","18","Male","","","","","","","[83]","","","rest practice","","10","","","","","0","15000","","","","","",""
"learning-instructions","61","511534","0.0-3.0-13.0-0.0-0.0","spark_pilot_2","7782","7","18","Male","","","","","","","21010.100000023842","<p> Now, you will practice a shortened version of the game to get a sense of how it all fits together. </p>","","instructions","","","","","","","","","","","","","",""
"learning-instructions","62","515902","0.0-3.0-13.0-0.0-0.1","spark_pilot_2","7782","7","18","Male","","","","","","","1169.4000000357628","<p>This time you are searching for treasure in outer space.</p>","","instructions","","","","","","","","","","","","","",""
"learning-instructions","63","531706","0.0-3.0-13.0-1.0-0.0","spark_pilot_2","7782","7","18","Male","","","","","","","1034.800000011921","<p> Remember, when you see a picture of the place, use the up and down keys to <b>find an animal</b>.</p>
            <p> When you encounter an animal, you should use the left and right keys to <b>select a treasure chest</b>.</p>
            <p> Don't forget to look out for the robber! </p>","","instructions","","","","","","","","","","","","","",""
"revaluation","64","537736","0.0-3.0-13.0-2.0-0.0","spark_pilot_2","7782","7","18","Male","","false","","","","","[1736.6000000238419,751]","./assets/img/space/11.jpg","[""ArrowUp"",""ArrowRight""]","practice block","space","36","{""ArrowUp,ArrowLeft"":3,""ArrowUp,ArrowRight"":36,""ArrowDown,ArrowLeft"":15,""ArrowDown,ArrowRight"":23}","true","ArrowUp,ArrowRight","false","","","","","","","",""
"html-keyboard-response","65","538246","0.0-3.0-13.0-2.0-1.0","spark_pilot_2","7782","7","18","Male","","","","","","","null","<div style=""font-size:60px;"">+</div>","null","fixation","","","","","","","","","","","","","",""
"revaluation","66","544271","0.0-3.0-13.0-2.0-0.1","spark_pilot_2","7782","7","18","Male","","false","","","","","[552.4000000357628,347.39999997615814]","./assets/img/space/12.jpg","[""ArrowUp"",""ArrowRight""]","practice block","space","36","{""ArrowUp,ArrowLeft"":3,""ArrowUp,ArrowRight"":36,""ArrowDown,ArrowLeft"":15,""ArrowDown,ArrowRight"":23}","true","ArrowUp,ArrowRight","false","","","","","","","",""
"html-keyboard-response","67","544783","0.0-3.0-13.0-2.0-1.1","spark_pilot_2","7782","7","18","Male","","","","","","","null","<div style=""font-size:60px;"">+</div>","null","fixation","","","","","","","","","","","","","",""
"revaluation","68","550806","0.0-3.0-13.0-2.0-0.2","spark_pilot_2","7782","7","18","Male","","false","","","","","[676.3000000119209,330.60000002384186]","./assets/img/space/13.jpg","[""ArrowUp"",""ArrowRight""]","practice block","space","36","{""ArrowUp,ArrowLeft"":3,""ArrowUp,ArrowRight"":36,""ArrowDown,ArrowLeft"":15,""ArrowDown,ArrowRight"":23}","true","ArrowUp,ArrowRight","false","","","","","","","",""
"html-keyboard-response","69","551317","0.0-3.0-13.0-2.0-1.2","spark_pilot_2","7782","7","18","Male","","","","","","","null","<div style=""font-size:60px;"">+</div>","null","fixation","","","","","","","","","","","","","",""
"revaluation","70","557340","0.0-3.0-13.0-2.0-0.3","spark_pilot_2","7782","7","18","Male","","false","","","","","[713.8000000119209,444.5]","./assets/img/space/14.jpg","[""ArrowUp"",""ArrowRight""]","practice block","space","36","{""ArrowUp,ArrowLeft"":3,""ArrowUp,ArrowRight"":36,""ArrowDown,ArrowLeft"":15,""ArrowDown,ArrowRight"":23}","true","ArrowUp,ArrowRight","false","","","","","","","",""
"html-keyboard-response","71","557845","0.0-3.0-13.0-2.0-1.3","spark_pilot_2","7782","7","18","Male","","","","","","","null","<div style=""font-size:60px;"">+</div>","null","fixation","","","","","","","","","","","","","",""
"revaluation","72","563868","0.0-3.0-13.0-2.0-0.4","spark_pilot_2","7782","7","18","Male","","false","","","","","[940,306.39999997615814]","./assets/img/space/11.jpg","[""ArrowUp"",""ArrowRight""]","practice block","space","36","{""ArrowUp,ArrowLeft"":3,""ArrowUp,ArrowRight"":36,""ArrowDown,ArrowLeft"":15,""ArrowDown,ArrowRight"":23}","true","ArrowUp,ArrowRight","false","","","","","","","",""
"html-keyboard-response","73","564374","0.0-3.0-13.0-2.0-1.4","spark_pilot_2","7782","7","18","Male","","","","","","","null","<div style=""font-size:60px;"">+</div>","null","fixation","","","","","","","","","","","","","",""
"revaluation","74","570395","0.0-3.0-13.0-2.0-0.5","spark_pilot_2","7782","7","18","Male","","false","","","","","[632.3999999761581,398]","./assets/img/space/12.jpg","[""ArrowUp"",""ArrowRight""]","practice block","space","36","{""ArrowUp,ArrowLeft"":3,""ArrowUp,ArrowRight"":36,""ArrowDown,ArrowLeft"":15,""ArrowDown,ArrowRight"":23}","true","ArrowUp,ArrowRight","false","","","","","","","",""
"html-keyboard-response","75","570902","0.0-3.0-13.0-2.0-1.5","spark_pilot_2","7782","7","18","Male","","","","","","","null","<div style=""font-size:60px;"">+</div>","null","fixation","","","","","","","","","","","","","",""
"revaluation","76","576924","0.0-3.0-13.0-2.0-0.6","spark_pilot_2","7782","7","18","Male","","false","","","","","[765.0999999642372,443.39999997615814]","./assets/img/space/13.jpg","[""ArrowUp"",""ArrowRight""]","practice block","space","36","{""ArrowUp,ArrowLeft"":3,""ArrowUp,ArrowRight"":36,""ArrowDown,ArrowLeft"":15,""ArrowDown,ArrowRight"":23}","true","ArrowUp,ArrowRight","false","","","","","","","",""
"html-keyboard-response","77","577431","0.0-3.0-13.0-2.0-1.6","spark_pilot_2","7782","7","18","Male","","","","","","","null","<div style=""font-size:60px;"">+</div>","null","fixation","","","","","","","","","","","","","",""
"revaluation","78","583451","0.0-3.0-13.0-2.0-0.7","spark_pilot_2","7782","7","18","Male","","false","","","","","[656.3000000119209,638.6000000238419]","./assets/img/space/14.jpg","[""ArrowUp"",""ArrowRight""]","practice block","space","36","{""ArrowUp,ArrowLeft"":3,""ArrowUp,ArrowRight"":36,""ArrowDown,ArrowLeft"":15,""ArrowDown,ArrowRight"":23}","true","ArrowUp,ArrowRight","false","","","","","","","",""
"html-keyboard-response","79","583957","0.0-3.0-13.0-2.0-1.7","spark_pilot_2","7782","7","18","Male","","","","","","","null","<div style=""font-size:60px;"">+</div>","null","fixation","","","","","","","","","","","","","",""
"revaluation","80","587974","0.0-3.0-13.0-2.0-0.8","spark_pilot_2","7782","7","18","Male","","false","","","","","[775.0999999642372]","./assets/img/space/catch/3.jpg","[""spaceBar""]","practice block","space","0","{""ArrowUp,ArrowLeft"":3,""ArrowUp,ArrowRight"":36,""ArrowDown,ArrowLeft"":15,""ArrowDown,ArrowRight"":23}","true","spaceBar","true","","","","","","","",""
"html-keyboard-response","81","588486","0.0-3.0-13.0-2.0-1.8","spark_pilot_2","7782","7","18","Male","","","","","","","null","<div style=""font-size:60px;"">+</div>","null","fixation","","","","","","","","","","","","","",""
"learning-instructions","82","602633","0.0-3.0-13.0-3.0-0.0","spark_pilot_2","7782","7","18","Male","","","","","","","866.5999999642372","<p> Now, you will travel with a friend who will choose whether you go up or down first. </p>
            <p> On these turns, you will just see the animal that they found. You will still get to choose which chest to search for treasure.</p>","","instructions","","","","","","","","","","","","","",""
"revaluation","83","606655","0.0-3.0-13.0-4.0-0.0","spark_pilot_2","7782","7","18","Male","","false","","","","","[1060]","./assets/img/space/animals/cat.jpg","[""ArrowRight""]","practice block","space","36","{""ArrowUp,ArrowLeft"":3,""ArrowUp,ArrowRight"":36,""ArrowDown,ArrowLeft"":15,""ArrowDown,ArrowRight"":23}","true","ArrowUp,ArrowRight","","","","","","","","",""
"html-keyboard-response","84","607166","0.0-3.0-13.0-4.0-1.0","spark_pilot_2","7782","7","18","Male","","","","","","","null","<div style=""font-size:60px;"">+</div>","null","fixation","","","","","","","","","","","","","",""
"revaluation","85","611181","0.0-3.0-13.0-4.0-0.1","spark_pilot_2","7782","7","18","Male","","false","","","","","[484.69999998807907]","./assets/img/space/animals/cat.jpg","[""ArrowRight""]","practice block","space","36","{""ArrowUp,ArrowLeft"":3,""ArrowUp,ArrowRight"":36,""ArrowDown,ArrowLeft"":15,""ArrowDown,ArrowRight"":23}","true","ArrowUp,ArrowRight","","","","","","","","",""
"html-keyboard-response","86","611688","0.0-3.0-13.0-4.0-1.1","spark_pilot_2","7782","7","18","Male","","","","","","","null","<div style=""font-size:60px;"">+</div>","null","fixation","","","","","","","","","","","","","",""
"revaluation","87","615712","0.0-3.0-13.0-4.0-0.2","spark_pilot_2","7782","7","18","Male","","false","","","","","[539.3000000119209]","./assets/img/space/animals/rabbit.jpg","[""ArrowRight""]","practice block","space","23","{""ArrowUp,ArrowLeft"":3,""ArrowUp,ArrowRight"":36,""ArrowDown,ArrowLeft"":15,""ArrowDown,ArrowRight"":23}","true","ArrowDown,ArrowRight","","","","","","","","",""
"html-keyboard-response","88","616219","0.0-3.0-13.0-4.0-1.2","spark_pilot_2","7782","7","18","Male","","","","","","","null","<div style=""font-size:60px;"">+</div>","null","fixation","","","","","","","","","","","","","",""
"revaluation","89","620238","0.0-3.0-13.0-4.0-0.3","spark_pilot_2","7782","7","18","Male","","false","","","","","[539.3000000119209]","./assets/img/space/animals/rabbit.jpg","[""ArrowRight""]","practice block","space","23","{""ArrowUp,ArrowLeft"":3,""ArrowUp,ArrowRight"":36,""ArrowDown,ArrowLeft"":15,""ArrowDown,ArrowRight"":23}","true","ArrowDown,ArrowRight","","","","","","","","",""
"html-keyboard-response","90","620752","0.0-3.0-13.0-4.0-1.3","spark_pilot_2","7782","7","18","Male","","","","","","","null","<div style=""font-size:60px;"">+</div>","null","fixation","","","","","","","","","","","","","",""
"learning-instructions","91","629975","0.0-3.0-13.0-5.0-0.0","spark_pilot_2","7782","7","18","Male","","","","","","","994.1000000238419","<p> Time to play the dot game! </p>
            <p> For 15 seconds, click the red dots on the following screen as they appear. </p>","","instructions","","","","","","","","","","","","","",""
"revaluation","92","644984","0.0-3.0-13.0-6.0-0.0","spark_pilot_2","7782","7","18","Male","","","","","","","[63]","","","rest practice","","10","","","","","0","15000","","","","","",""
"learning-instructions","93","658702","0.0-3.0-13.0-7.0-0.0","spark_pilot_2","7782","7","18","Male","","","","","","","7595.799999952316","<p> You have almost finished this part of the game! </p>
            <p> We are going to ask you to make a few more choices. </p>","","instructions","","","","","","","","","","","","","",""
"learning-instructions","94","673684","0.0-3.0-13.0-7.0-0.1","spark_pilot_2","7782","7","18","Male","","","","","","","974.6999999880791","<p> First, you need to decide whether to go up or down. When you see each picture, use the arrow keys to make your choice. </p>
            <p><b>You will not see which animal you found, but try to get to the one that will give you the most treasure.</b></p>","","instructions","","","","","","","","","","","","","",""
"revaluation","95","674563","0.0-3.0-13.0-8.0","spark_pilot_2","7782","7","18","Male","","false","","","","","[875.1000000238419]","./assets/img/space/15.jpg","[""ArrowUp""]","practice block","space","0","{""ArrowUp,ArrowLeft"":3,""ArrowUp,ArrowRight"":36,""ArrowDown,ArrowLeft"":15,""ArrowDown,ArrowRight"":23}","true","ArrowUp","false","","","","","","","",""
"html-keyboard-response","96","675068","0.0-3.0-13.0-9.0","spark_pilot_2","7782","7","18","Male","","","","","","","null","<div style=""font-size:60px;"">+</div>","null","fixation","","","","","","","","","","","","","",""
"learning-instructions","97","687470","0.0-3.0-13.0-10.0-0.0","spark_pilot_2","7782","7","18","Male","","","","","","","1023.5999999642372","<p> Now you will see the animals again and can search their chests for treasure. </p>
            <p> This time, you will not see how much treasure you earned, but you will earn more bonus money for making better choices. </p>","","instructions","","","","","","","","","","","","","",""
"revaluation","98","688028","0.0-3.0-13.0-11.0-0.0","spark_pilot_2","7782","7","18","Male","","false","","","","","[554.8999999761581]","./assets/img/space/animals/cat.jpg","[""ArrowRight""]","practice block","space","0","{""ArrowUp,ArrowLeft"":3,""ArrowUp,ArrowRight"":36,""ArrowDown,ArrowLeft"":15,""ArrowDown,ArrowRight"":23}","true","ArrowUp,ArrowRight","","","","","","","","",""
"html-keyboard-response","99","688533","0.0-3.0-13.0-11.0-1.0","spark_pilot_2","7782","7","18","Male","","","","","","","null","<div style=""font-size:60px;"">+</div>","null","fixation","","","","","","","","","","","","","",""
"revaluation","100","689507","0.0-3.0-13.0-11.0-0.1","spark_pilot_2","7782","7","18","Male","","false","","","","","[969.8000000119209]","./assets/img/space/animals/rabbit.jpg","[""ArrowRight""]","practice block","space","0","{""ArrowUp,ArrowLeft"":3,""ArrowUp,ArrowRight"":36,""ArrowDown,ArrowLeft"":15,""ArrowDown,ArrowRight"":23}","true","ArrowDown,ArrowRight","","","","","","","","",""
"html-keyboard-response","101","690015","0.0-3.0-13.0-11.0-1.1","spark_pilot_2","7782","7","18","Male","","","","","","","null","<div style=""font-size:60px;"">+</div>","null","fixation","","","","","","","","","","","","","",""
"learning-instructions","102","696164","0.0-3.0-14.0-0.0","spark_pilot_2","7782","7","18","Male","","","","","","","1575.3999999761581","<p> Before you start, we're going to ask you a few questions about how the game works. </p>","","instructions","","","","","","","","","","","","","",""
"comp-q","103","703402","0.0-3.0-15.0-0.0-0.0","spark_pilot_2","7782","7","18","Male","","","","","","","1651.3999999761581","<p> <b> True or False? </b> </p>
            <p> There can be 50 pieces of treasure in a given animal's chest. </p>","1","comp_question","","","","true","","","","","","","","","",""
"comp-q","104","711621","0.0-3.0-15.0-0.0-1.0","spark_pilot_2","7782","7","18","Male","","","","","","","1562","<p> <b> That's right! </b> The amount of treasure in each chest can range from 0 to 40 pieces. </p>","0","comp_answer","","","","","","","","","","","","","",""
"comp-q","105","719601","0.0-3.0-15.0-0.1-0.1","spark_pilot_2","7782","7","18","Male","","","","","","","861.3000000119209","<p> <b> True or False? </b> </p><p> In this game, all animals have the same amount of treasure in their left and right chests. </p>","1","comp_question","","","","true","","","","","","","","","",""
"comp-q","106","726242","0.0-3.0-15.0-0.1-1.1","spark_pilot_2","7782","7","18","Male","","","","","","","1411.199999988079","<p> <b> That's right! </b> Animals have different amounts of treasure in their treasure chests. </p>","0","comp_answer","","","","","","","","","","","","","",""
"comp-q","107","733048","0.0-3.0-15.0-0.2-0.2","spark_pilot_2","7782","7","18","Male","","","","","","","960.1999999880791","<p> <b> True or False? </b> </p><p> The same animal will always be there if you go up in the same place. </p>","0","comp_question","","","","true","","","","","","","","","",""
"comp-q","108","740726","0.0-3.0-15.0-0.2-1.2","spark_pilot_2","7782","7","18","Male","","","","","","","1235.800000011921","<p> <b> That's right! </b> One animal lives in the upper part and one lives in the lower part of every place. </p>","0","comp_answer","","","","","","","","","","","","","",""
"comp-q","109","747246","0.0-3.0-15.0-0.3-0.3","spark_pilot_2","7782","7","18","Male","","","","","","","999.0999999642372","<p> <b> True or False? </b> </p><p> If you see a different picture, it means you are in a new place. </p>","0","comp_question","","","","false","","","","","","","","","",""
"comp-q","110","760003","0.0-3.0-15.0-0.3-1.3","spark_pilot_2","7782","7","18","Male","","","","","","","1670.5","<p> <b>Incorrect.</b> Lots of different images may show the same place. For example,  you may see three different images that all remind you that you are in outer space. </p>","0","comp_answer","","","","","","","","","","","","","",""
"comp-q","111","766806","0.0-3.0-15.0-0.4-0.4","spark_pilot_2","7782","7","18","Male","","","","","","","1301.1000000238419","<p> <b> True or False? </b> </p><p> If you see a different picture, it means you are in a new place. </p>","1","comp_question","","","","true","","","","","","","","","",""
"comp-q","112","779156","0.0-3.0-15.0-0.4-1.4","spark_pilot_2","7782","7","18","Male","","","","","","","1123.199999988079","<p> <b> That's right! </b> Lots of different images may show the same place. For example,  you may see three different images that all remind you that you are in outer space. </p>","0","comp_answer","","","","","","","","","","","","","",""
"learning-instructions","113","790646","0.0-3.0-16.0-0.0","spark_pilot_2","7782","7","18","Male","","","","","","","1641","<p> Good job. Remember to do your best because the amount of treasure you earn will be converted into bonus money. </p>
            <p> It’s time to start the real game! </p>","","instructions","","","","","","","","","","","","","",""
"learning-instructions","114","794610","0.0-4.0-0.0-0.0","spark_pilot_2","7782","7","18","Male","","","","","","","1198.6000000238419","<p> This time you are searching for treasure in the <b>canyon</b>.</p>","","instructions","","","","","","","","","","","","","",""
"learning-instructions","115","813040","0.0-4.0-0.0-0.1","spark_pilot_2","7782","7","18","Male","","","","","","","1137.7000000476837","<p><b>New</b> animals with <b>new</b> treasure chests live here. You need to explore to discover where the animal with the best treasure chest is.</p>
                    <p> Like before, once you figure out which animal has the chest with the most treasure, you should try to get to that animal and select that chest! </p>","","instructions","","","","","","","","","","","","","",""
"learning-instructions","116","828855","0.0-4.0-1.0-0.0","spark_pilot_2","7782","7","18","Male","","","","","","","1082.5999999642372","<p> Remember, when you see a picture of the place, use the up and down keys to <b>find an animal</b>.</p>
            <p> When you encounter an animal, you should use the left and right keys to <b>select a treasure chest</b>.</p>
            <p> Don't forget to look out for the robber! </p>","","instructions","","","","","","","","","","","","","",""
"revaluation","117","834880","0.0-4.0-2.0-0.0","spark_pilot_2","7782","7","18","Male","","false","","","","","[1061.199999988079,652.0999999642372]","./assets/img/canyon/memory/8.jpg","[""ArrowUp"",""ArrowRight""]","value training","canyon","10","{""ArrowUp,ArrowLeft"":23,""ArrowUp,ArrowRight"":10,""ArrowDown,ArrowLeft"":8,""ArrowDown,ArrowRight"":30}","false","ArrowUp,ArrowRight","false","","","original","1","0","","",""
"html-keyboard-response","118","835391","0.0-4.0-2.0-1.0","spark_pilot_2","7782","7","18","Male","","","","","","","null","<div style=""font-size:60px;"">+</div>","null","fixation","","","","","","","","","","","1","","",""
"revaluation","119","841415","0.0-4.0-2.0-0.1","spark_pilot_2","7782","7","18","Male","","false","","","","","[727.6999999880791,416.30000001192093]","./assets/img/canyon/memory/25.jpg","[""ArrowUp"",""ArrowLeft""]","value training","canyon","23","{""ArrowUp,ArrowLeft"":23,""ArrowUp,ArrowRight"":10,""ArrowDown,ArrowLeft"":8,""ArrowDown,ArrowRight"":30}","false","ArrowUp,ArrowLeft","false","","","original","1","2","","",""
"html-keyboard-response","120","841925","0.0-4.0-2.0-1.1","spark_pilot_2","7782","7","18","Male","","","","","","","null","<div style=""font-size:60px;"">+</div>","null","fixation","","","","","","","","","","","3","","",""
"revaluation","121","845944","0.0-4.0-2.0-0.2","spark_pilot_2","7782","7","18","Male","","false","","","","","[315.5]","./assets/img/canyon/catch/7.jpg","[""ArrowDown""]","value training","canyon","-10","{""ArrowUp,ArrowLeft"":23,""ArrowUp,ArrowRight"":10,""ArrowDown,ArrowLeft"":8,""ArrowDown,ArrowRight"":30}","false","ArrowDown","true","","","original","1","4","","",""
"html-keyboard-response","122","846455","0.0-4.0-2.0-1.2","spark_pilot_2","7782","7","18","Male","","","","","","","null","<div style=""font-size:60px;"">+</div>","null","fixation","","","","","","","","","","","5","","",""
"revaluation","123","852480","0.0-4.0-2.0-0.3","spark_pilot_2","7782","7","18","Male","","false","","","","","[682,494.19999998807907]","./assets/img/canyon/memory/7.jpg","[""ArrowDown"",""ArrowLeft""]","value training","canyon","8","{""ArrowUp,ArrowLeft"":23,""ArrowUp,ArrowRight"":10,""ArrowDown,ArrowLeft"":8,""ArrowDown,ArrowRight"":30}","false","ArrowDown,ArrowLeft","false","","","original","1","6","","",""
"html-keyboard-response","124","852990","0.0-4.0-2.0-1.3","spark_pilot_2","7782","7","18","Male","","","","","","","null","<div style=""font-size:60px;"">+</div>","null","fixation","","","","","","","","","","","7","","",""
"revaluation","125","859015","0.0-4.0-2.0-0.4","spark_pilot_2","7782","7","18","Male","","false","","","","","[540.5999999642372,416.80000001192093]","./assets/img/canyon/memory/29.jpg","[""ArrowDown"",""ArrowRight""]","value training","canyon","30","{""ArrowUp,ArrowLeft"":23,""ArrowUp,ArrowRight"":10,""ArrowDown,ArrowLeft"":8,""ArrowDown,ArrowRight"":30}","true","ArrowDown,ArrowRight","false","","","original","1","8","","",""
"html-keyboard-response","126","859528","0.0-4.0-2.0-1.4","spark_pilot_2","7782","7","18","Male","","","","","","","null","<div style=""font-size:60px;"">+</div>","null","fixation","","","","","","","","","","","9","","",""
"revaluation","127","865561","0.0-4.0-2.0-0.5","spark_pilot_2","7782","7","18","Male","","false","","","","","[745.5,334]","./assets/img/canyon/memory/12.jpg","[""ArrowDown"",""ArrowRight""]","value training","canyon","30","{""ArrowUp,ArrowLeft"":23,""ArrowUp,ArrowRight"":10,""ArrowDown,ArrowLeft"":8,""ArrowDown,ArrowRight"":30}","true","ArrowDown,ArrowRight","false","","","original","1","10","","",""
"html-keyboard-response","128","866072","0.0-4.0-2.0-1.5","spark_pilot_2","7782","7","18","Male","","","","","","","null","<div style=""font-size:60px;"">+</div>","null","fixation","","","","","","","","","","","11","","",""
"revaluation","129","872103","0.0-4.0-2.0-0.6","spark_pilot_2","7782","7","18","Male","","false","","","","","[609.0999999642372,390]","./assets/img/canyon/memory/16.jpg","[""ArrowDown"",""ArrowRight""]","value training","canyon","30","{""ArrowUp,ArrowLeft"":23,""ArrowUp,ArrowRight"":10,""ArrowDown,ArrowLeft"":8,""ArrowDown,ArrowRight"":30}","true","ArrowDown,ArrowRight","false","","","original","1","12","","",""
"html-keyboard-response","130","872614","0.0-4.0-2.0-1.6","spark_pilot_2","7782","7","18","Male","","","","","","","null","<div style=""font-size:60px;"">+</div>","null","fixation","","","","","","","","","","","13","","",""
"revaluation","131","878640","0.0-4.0-2.0-0.7","spark_pilot_2","7782","7","18","Male","","false","","","","","[745.3000000119209,432.89999997615814]","./assets/img/canyon/memory/6.jpg","[""ArrowDown"",""ArrowRight""]","value training","canyon","30","{""ArrowUp,ArrowLeft"":23,""ArrowUp,ArrowRight"":10,""ArrowDown,ArrowLeft"":8,""ArrowDown,ArrowRight"":30}","true","ArrowDown,ArrowRight","false","","","original","1","14","","",""
"html-keyboard-response","132","879150","0.0-4.0-2.0-1.7","spark_pilot_2","7782","7","18","Male","","","","","","","null","<div style=""font-size:60px;"">+</div>","null","fixation","","","","","","","","","","","15","","",""
"revaluation","133","885172","0.0-4.0-2.0-0.8","spark_pilot_2","7782","7","18","Male","","false","","","","","[550.4000000357628,395.19999998807907]","./assets/img/canyon/memory/28.jpg","[""ArrowDown"",""ArrowRight""]","value training","canyon","30","{""ArrowUp,ArrowLeft"":23,""ArrowUp,ArrowRight"":10,""ArrowDown,ArrowLeft"":8,""ArrowDown,ArrowRight"":30}","true","ArrowDown,ArrowRight","false","","","original","1","16","","",""
"html-keyboard-response","134","885678","0.0-4.0-2.0-1.8","spark_pilot_2","7782","7","18","Male","","","","","","","null","<div style=""font-size:60px;"">+</div>","null","fixation","","","","","","","","","","","17","","",""
"revaluation","135","891702","0.0-4.0-2.0-0.9","spark_pilot_2","7782","7","18","Male","","false","","","","","[659.6000000238419,347.30000001192093]","./assets/img/canyon/memory/31.jpg","[""ArrowDown"",""ArrowRight""]","value training","canyon","30","{""ArrowUp,ArrowLeft"":23,""ArrowUp,ArrowRight"":10,""ArrowDown,ArrowLeft"":8,""ArrowDown,ArrowRight"":30}","true","ArrowDown,ArrowRight","false","","","original","1","18","","",""
"html-keyboard-response","136","892214","0.0-4.0-2.0-1.9","spark_pilot_2","7782","7","18","Male","","","","","","","null","<div style=""font-size:60px;"">+</div>","null","fixation","","","","","","","","","","","19","","",""
"revaluation","137","898238","0.0-4.0-2.0-0.10","spark_pilot_2","7782","7","18","Male","","false","","","","","[606.2000000476837,385.69999998807907]","./assets/img/canyon/memory/8.jpg","[""ArrowDown"",""ArrowRight""]","value training","canyon","30","{""ArrowUp,ArrowLeft"":23,""ArrowUp,ArrowRight"":10,""ArrowDown,ArrowLeft"":8,""ArrowDown,ArrowRight"":30}","true","ArrowDown,ArrowRight","false","","","original","1","20","","",""
"html-keyboard-response","138","898749","0.0-4.0-2.0-1.10","spark_pilot_2","7782","7","18","Male","","","","","","","null","<div style=""font-size:60px;"">+</div>","null","fixation","","","","","","","","","","","21","","",""
"revaluation","139","904775","0.0-4.0-2.0-0.11","spark_pilot_2","7782","7","18","Male","","false","","","","","[723,707.5999999642372]","./assets/img/canyon/memory/10.jpg","[""ArrowDown"",""ArrowRight""]","value training","canyon","30","{""ArrowUp,ArrowLeft"":23,""ArrowUp,ArrowRight"":10,""ArrowDown,ArrowLeft"":8,""ArrowDown,ArrowRight"":30}","true","ArrowDown,ArrowRight","false","","","original","1","22","","",""
"html-keyboard-response","140","905286","0.0-4.0-2.0-1.11","spark_pilot_2","7782","7","18","Male","","","","","","","null","<div style=""font-size:60px;"">+</div>","null","fixation","","","","","","","","","","","23","","",""
"revaluation","141","911310","0.0-4.0-2.0-0.12","spark_pilot_2","7782","7","18","Male","","false","","","","","[627.6000000238419,1099.800000011921]","./assets/img/canyon/memory/29.jpg","[""ArrowDown"",""ArrowRight""]","value training","canyon","30","{""ArrowUp,ArrowLeft"":23,""ArrowUp,ArrowRight"":10,""ArrowDown,ArrowLeft"":8,""ArrowDown,ArrowRight"":30}","true","ArrowDown,ArrowRight","false","","","original","1","24","","",""
"html-keyboard-response","142","911822","0.0-4.0-2.0-1.12","spark_pilot_2","7782","7","18","Male","","","","","","","null","<div style=""font-size:60px;"">+</div>","null","fixation","","","","","","","","","","","25","","",""
"revaluation","143","917849","0.0-4.0-2.0-0.13","spark_pilot_2","7782","7","18","Male","","false","","","","","[766.7000000476837,833.0999999642372]","./assets/img/canyon/memory/18.jpg","[""ArrowDown"",""ArrowRight""]","value training","canyon","30","{""ArrowUp,ArrowLeft"":23,""ArrowUp,ArrowRight"":10,""ArrowDown,ArrowLeft"":8,""ArrowDown,ArrowRight"":30}","true","ArrowDown,ArrowRight","false","","","original","1","26","","",""
"html-keyboard-response","144","918359","0.0-4.0-2.0-1.13","spark_pilot_2","7782","7","18","Male","","","","","","","null","<div style=""font-size:60px;"">+</div>","null","fixation","","","","","","","","","","","27","","",""
"revaluation","145","922377","0.0-4.0-2.0-0.14","spark_pilot_2","7782","7","18","Male","","false","","","","","[964.1999999880791]","./assets/img/canyon/catch/4.jpg","[""spaceBar""]","value training","canyon","0","{""ArrowUp,ArrowLeft"":23,""ArrowUp,ArrowRight"":10,""ArrowDown,ArrowLeft"":8,""ArrowDown,ArrowRight"":30}","true","spaceBar","true","","","original","1","28","","",""
"html-keyboard-response","146","922888","0.0-4.0-2.0-1.14","spark_pilot_2","7782","7","18","Male","","","","","","","null","<div style=""font-size:60px;"">+</div>","null","fixation","","","","","","","","","","","29","","",""
"revaluation","147","928921","0.0-4.0-2.0-0.15","spark_pilot_2","7782","7","18","Male","","false","","","","","[604.8000000119209,629.5999999642372]","./assets/img/canyon/memory/6.jpg","[""ArrowDown"",""ArrowRight""]","value training","canyon","30","{""ArrowUp,ArrowLeft"":23,""ArrowUp,ArrowRight"":10,""ArrowDown,ArrowLeft"":8,""ArrowDown,ArrowRight"":30}","true","ArrowDown,ArrowRight","false","","","original","1","30","","",""
"html-keyboard-response","148","929428","0.0-4.0-2.0-1.15","spark_pilot_2","7782","7","18","Male","","","","","","","null","<div style=""font-size:60px;"">+</div>","null","fixation","","","","","","","","","","","31","","",""
"revaluation","149","935454","0.0-4.0-2.0-0.16","spark_pilot_2","7782","7","18","Male","","false","","","","","[442.2000000476837,423.10000002384186]","./assets/img/canyon/memory/28.jpg","[""ArrowDown"",""ArrowRight""]","value training","canyon","30","{""ArrowUp,ArrowLeft"":23,""ArrowUp,ArrowRight"":10,""ArrowDown,ArrowLeft"":8,""ArrowDown,ArrowRight"":30}","true","ArrowDown,ArrowRight","false","","","original","1","32","","",""
"html-keyboard-response","150","935966","0.0-4.0-2.0-1.16","spark_pilot_2","7782","7","18","Male","","","","","","","null","<div style=""font-size:60px;"">+</div>","null","fixation","","","","","","","","","","","33","","",""
"revaluation","151","941993","0.0-4.0-2.0-0.17","spark_pilot_2","7782","7","18","Male","","false","","","","","[514.6000000238419,383.69999998807907]","./assets/img/canyon/memory/1.jpg","[""ArrowDown"",""ArrowRight""]","value training","canyon","30","{""ArrowUp,ArrowLeft"":23,""ArrowUp,ArrowRight"":10,""ArrowDown,ArrowLeft"":8,""ArrowDown,ArrowRight"":30}","true","ArrowDown,ArrowRight","false","","","original","1","34","","",""
"html-keyboard-response","152","942503","0.0-4.0-2.0-1.17","spark_pilot_2","7782","7","18","Male","","","","","","","null","<div style=""font-size:60px;"">+</div>","null","fixation","","","","","","","","","","","35","","",""
"revaluation","153","948526","0.0-4.0-2.0-0.18","spark_pilot_2","7782","7","18","Male","","false","","","","","[635.5999999642372,375.39999997615814]","./assets/img/canyon/memory/1.jpg","[""ArrowDown"",""ArrowRight""]","value training","canyon","30","{""ArrowUp,ArrowLeft"":23,""ArrowUp,ArrowRight"":10,""ArrowDown,ArrowLeft"":8,""ArrowDown,ArrowRight"":30}","true","ArrowDown,ArrowRight","false","","","original","1","36","","",""
"html-keyboard-response","154","949037","0.0-4.0-2.0-1.18","spark_pilot_2","7782","7","18","Male","","","","","","","null","<div style=""font-size:60px;"">+</div>","null","fixation","","","","","","","","","","","37","","",""
"revaluation","155","955065","0.0-4.0-2.0-0.19","spark_pilot_2","7782","7","18","Male","","false","","","","","[475.10000002384186,404.80000001192093]","./assets/img/canyon/memory/22.jpg","[""ArrowDown"",""ArrowRight""]","value training","canyon","30","{""ArrowUp,ArrowLeft"":23,""ArrowUp,ArrowRight"":10,""ArrowDown,ArrowLeft"":8,""ArrowDown,ArrowRight"":30}","true","ArrowDown,ArrowRight","false","","","original","1","38","","",""
"html-keyboard-response","156","955574","0.0-4.0-2.0-1.19","spark_pilot_2","7782","7","18","Male","","","","","","","null","<div style=""font-size:60px;"">+</div>","null","fixation","","","","","","","","","","","39","","",""
"revaluation","157","961598","0.0-4.0-2.0-0.20","spark_pilot_2","7782","7","18","Male","","false","","","","","[693.2000000476837,353.30000001192093]","./assets/img/canyon/memory/18.jpg","[""ArrowDown"",""ArrowRight""]","value training","canyon","30","{""ArrowUp,ArrowLeft"":23,""ArrowUp,ArrowRight"":10,""ArrowDown,ArrowLeft"":8,""ArrowDown,ArrowRight"":30}","true","ArrowDown,ArrowRight","false","","","original","1","40","","",""
"html-keyboard-response","158","962110","0.0-4.0-2.0-1.20","spark_pilot_2","7782","7","18","Male","","","","","","","null","<div style=""font-size:60px;"">+</div>","null","fixation","","","","","","","","","","","41","","",""
"revaluation","159","966126","0.0-4.0-2.0-0.21","spark_pilot_2","7782","7","18","Male","","false","","","","","[966]","./assets/img/canyon/catch/5.jpg","[""spaceBar""]","value training","canyon","0","{""ArrowUp,ArrowLeft"":23,""ArrowUp,ArrowRight"":10,""ArrowDown,ArrowLeft"":8,""ArrowDown,ArrowRight"":30}","true","spaceBar","true","","","original","1","42","","",""
"html-keyboard-response","160","966638","0.0-4.0-2.0-1.21","spark_pilot_2","7782","7","18","Male","","","","","","","null","<div style=""font-size:60px;"">+</div>","null","fixation","","","","","","","","","","","43","","",""
"revaluation","161","972664","0.0-4.0-2.0-0.22","spark_pilot_2","7782","7","18","Male","","false","","","","","[1128.5,996.9000000357628]","./assets/img/canyon/memory/34.jpg","[""ArrowDown"",""ArrowRight""]","value training","canyon","30","{""ArrowUp,ArrowLeft"":23,""ArrowUp,ArrowRight"":10,""ArrowDown,ArrowLeft"":8,""ArrowDown,ArrowRight"":30}","true","ArrowDown,ArrowRight","false","","","original","1","44","","",""
"html-keyboard-response","162","973176","0.0-4.0-2.0-1.22","spark_pilot_2","7782","7","18","Male","","","","","","","null","<div style=""font-size:60px;"">+</div>","null","fixation","","","","","","","","","","","45","","",""
"revaluation","163","979210","0.0-4.0-2.0-0.23","spark_pilot_2","7782","7","18","Male","","false","","","","","[691.2000000476837,408]","./assets/img/canyon/memory/22.jpg","[""ArrowDown"",""ArrowRight""]","value training","canyon","30","{""ArrowUp,ArrowLeft"":23,""ArrowUp,ArrowRight"":10,""ArrowDown,ArrowLeft"":8,""ArrowDown,ArrowRight"":30}","true","ArrowDown,ArrowRight","false","","","original","1","46","","",""
"html-keyboard-response","164","979720","0.0-4.0-2.0-1.23","spark_pilot_2","7782","7","18","Male","","","","","","","null","<div style=""font-size:60px;"">+</div>","null","fixation","","","","","","","","","","","47","","",""
"revaluation","165","985753","0.0-4.0-2.0-0.24","spark_pilot_2","7782","7","18","Male","","false","","","","","[636.3000000119209,1054.8999999761581]","./assets/img/canyon/memory/26.jpg","[""ArrowDown"",""ArrowRight""]","value training","canyon","30","{""ArrowUp,ArrowLeft"":23,""ArrowUp,ArrowRight"":10,""ArrowDown,ArrowLeft"":8,""ArrowDown,ArrowRight"":30}","true","ArrowDown,ArrowRight","false","","","original","1","48","","",""
"html-keyboard-response","166","986263","0.0-4.0-2.0-1.24","spark_pilot_2","7782","7","18","Male","","","","","","","null","<div style=""font-size:60px;"">+</div>","null","fixation","","","","","","","","","","","49","","",""
"revaluation","167","990281","0.0-4.0-2.0-0.25","spark_pilot_2","7782","7","18","Male","","false","","","","","[1182.199999988079]","./assets/img/canyon/catch/2.jpg","[""spaceBar""]","value training","canyon","0","{""ArrowUp,ArrowLeft"":23,""ArrowUp,ArrowRight"":10,""ArrowDown,ArrowLeft"":8,""ArrowDown,ArrowRight"":30}","true","spaceBar","true","","","original","1","50","","",""
"html-keyboard-response","168","990788","0.0-4.0-2.0-1.25","spark_pilot_2","7782","7","18","Male","","","","","","","null","<div style=""font-size:60px;"">+</div>","null","fixation","","","","","","","","","","","51","","",""
"revaluation","169","994809","0.0-4.0-2.0-0.26","spark_pilot_2","7782","7","18","Male","","false","","","","","[1143.9000000357628]","./assets/img/canyon/catch/1.jpg","[""spaceBar""]","value training","canyon","0","{""ArrowUp,ArrowLeft"":23,""ArrowUp,ArrowRight"":10,""ArrowDown,ArrowLeft"":8,""ArrowDown,ArrowRight"":30}","true","spaceBar","true","","","original","1","52","","",""
"html-keyboard-response","170","995321","0.0-4.0-2.0-1.26","spark_pilot_2","7782","7","18","Male","","","","","","","null","<div style=""font-size:60px;"">+</div>","null","fixation","","","","","","","","","","","53","","",""
"revaluation","171","1001349","0.0-4.0-2.0-0.27","spark_pilot_2","7782","7","18","Male","","false","","","","","[971.6999999880791,1156.5]","./assets/img/canyon/memory/16.jpg","[""ArrowDown"",""ArrowRight""]","value training","canyon","30","{""ArrowUp,ArrowLeft"":23,""ArrowUp,ArrowRight"":10,""ArrowDown,ArrowLeft"":8,""ArrowDown,ArrowRight"":30}","true","ArrowDown,ArrowRight","false","","","original","1","54","","",""
"html-keyboard-response","172","1001855","0.0-4.0-2.0-1.27","spark_pilot_2","7782","7","18","Male","","","","","","","null","<div style=""font-size:60px;"">+</div>","null","fixation","","","","","","","","","","","55","","",""
"revaluation","173","1005870","0.0-4.0-2.0-0.28","spark_pilot_2","7782","7","18","Male","","false","","","","","[1053.5]","./assets/img/canyon/catch/0.jpg","[""spaceBar""]","value training","canyon","0","{""ArrowUp,ArrowLeft"":23,""ArrowUp,ArrowRight"":10,""ArrowDown,ArrowLeft"":8,""ArrowDown,ArrowRight"":30}","true","spaceBar","true","","","original","1","56","","",""
"html-keyboard-response","174","1006383","0.0-4.0-2.0-1.28","spark_pilot_2","7782","7","18","Male","","","","","","","null","<div style=""font-size:60px;"">+</div>","null","fixation","","","","","","","","","","","57","","",""
"revaluation","175","1010399","0.0-4.0-2.0-0.29","spark_pilot_2","7782","7","18","Male","","true","","","","","[]","./assets/img/canyon/memory/14.jpg","[]","value training","canyon","-5","{""ArrowUp,ArrowLeft"":23,""ArrowUp,ArrowRight"":10,""ArrowDown,ArrowLeft"":8,""ArrowDown,ArrowRight"":30}","false","","false","","","original","1","58","","",""
"html-keyboard-response","176","1010912","0.0-4.0-2.0-1.29","spark_pilot_2","7782","7","18","Male","","","","","","","null","<div style=""font-size:60px;"">+</div>","null","fixation","","","","","","","","","","","59","","",""
"revaluation","177","1014932","0.0-4.0-2.0-0.30","spark_pilot_2","7782","7","18","Male","","false","","","","","[914]","./assets/img/canyon/catch/3.jpg","[""spaceBar""]","value training","canyon","0","{""ArrowUp,ArrowLeft"":23,""ArrowUp,ArrowRight"":10,""ArrowDown,ArrowLeft"":8,""ArrowDown,ArrowRight"":30}","true","spaceBar","true","","","original","1","60","","",""
"html-keyboard-response","178","1015439","0.0-4.0-2.0-1.30","spark_pilot_2","7782","7","18","Male","","","","","","","null","<div style=""font-size:60px;"">+</div>","null","fixation","","","","","","","","","","","61","","",""
"revaluation","179","1021465","0.0-4.0-2.0-0.31","spark_pilot_2","7782","7","18","Male","","false","","","","","[621.6000000238419,239.10000002384186]","./assets/img/canyon/memory/41.jpg","[""ArrowDown"",""ArrowRight""]","value training","canyon","30","{""ArrowUp,ArrowLeft"":23,""ArrowUp,ArrowRight"":10,""ArrowDown,ArrowLeft"":8,""ArrowDown,ArrowRight"":30}","true","ArrowDown,ArrowRight","false","","","original","1","62","","",""
"html-keyboard-response","180","1021976","0.0-4.0-2.0-1.31","spark_pilot_2","7782","7","18","Male","","","","","","","null","<div style=""font-size:60px;"">+</div>","null","fixation","","","","","","","","","","","63","","",""
"revaluation","181","1028009","0.0-4.0-2.0-0.32","spark_pilot_2","7782","7","18","Male","","false","","","","","[1329.5999999642372,645.6999999880791]","./assets/img/canyon/memory/13.jpg","[""ArrowDown"",""ArrowRight""]","value training","canyon","30","{""ArrowUp,ArrowLeft"":23,""ArrowUp,ArrowRight"":10,""ArrowDown,ArrowLeft"":8,""ArrowDown,ArrowRight"":30}","true","ArrowDown,ArrowRight","false","","","original","1","64","","",""
"html-keyboard-response","182","1028516","0.0-4.0-2.0-1.32","spark_pilot_2","7782","7","18","Male","","","","","","","null","<div style=""font-size:60px;"">+</div>","null","fixation","","","","","","","","","","","65","","",""
"revaluation","183","1034542","0.0-4.0-2.0-0.33","spark_pilot_2","7782","7","18","Male","","false","","","","","[862.7000000476837,557]","./assets/img/canyon/memory/41.jpg","[""ArrowDown"",""ArrowRight""]","value training","canyon","30","{""ArrowUp,ArrowLeft"":23,""ArrowUp,ArrowRight"":10,""ArrowDown,ArrowLeft"":8,""ArrowDown,ArrowRight"":30}","true","ArrowDown,ArrowRight","false","","","original","1","66","","",""
"html-keyboard-response","184","1035054","0.0-4.0-2.0-1.33","spark_pilot_2","7782","7","18","Male","","","","","","","null","<div style=""font-size:60px;"">+</div>","null","fixation","","","","","","","","","","","67","","",""
"revaluation","185","1041077","0.0-4.0-2.0-0.34","spark_pilot_2","7782","7","18","Male","","false","","","","","[650.7999999523163,925.2999999523163]","./assets/img/canyon/memory/0.jpg","[""ArrowDown"",""ArrowRight""]","value training","canyon","30","{""ArrowUp,ArrowLeft"":23,""ArrowUp,ArrowRight"":10,""ArrowDown,ArrowLeft"":8,""ArrowDown,ArrowRight"":30}","true","ArrowDown,ArrowRight","false","","","original","1","68","","",""
"html-keyboard-response","186","1041582","0.0-4.0-2.0-1.34","spark_pilot_2","7782","7","18","Male","","","","","","","null","<div style=""font-size:60px;"">+</div>","null","fixation","","","","","","","","","","","69","","",""
"revaluation","187","1047605","0.0-4.0-2.0-0.35","spark_pilot_2","7782","7","18","Male","","false","","","","","[882.5,488.69999998807907]","./assets/img/canyon/memory/14.jpg","[""ArrowDown"",""ArrowRight""]","value training","canyon","30","{""ArrowUp,ArrowLeft"":23,""ArrowUp,ArrowRight"":10,""ArrowDown,ArrowLeft"":8,""ArrowDown,ArrowRight"":30}","true","ArrowDown,ArrowRight","false","","","original","1","70","","",""
"html-keyboard-response","188","1048110","0.0-4.0-2.0-1.35","spark_pilot_2","7782","7","18","Male","","","","","","","null","<div style=""font-size:60px;"">+</div>","null","fixation","","","","","","","","","","","71","","",""
"revaluation","189","1054133","0.0-4.0-2.0-0.36","spark_pilot_2","7782","7","18","Male","","false","","","","","[1499.199999988079,627.5]","./assets/img/canyon/memory/20.jpg","[""ArrowDown"",""ArrowRight""]","value training","canyon","30","{""ArrowUp,ArrowLeft"":23,""ArrowUp,ArrowRight"":10,""ArrowDown,ArrowLeft"":8,""ArrowDown,ArrowRight"":30}","true","ArrowDown,ArrowRight","false","","","original","1","72","","",""
"html-keyboard-response","190","1054638","0.0-4.0-2.0-1.36","spark_pilot_2","7782","7","18","Male","","","","","","","null","<div style=""font-size:60px;"">+</div>","null","fixation","","","","","","","","","","","73","","",""
"revaluation","191","1060663","0.0-4.0-2.0-0.37","spark_pilot_2","7782","7","18","Male","","false","","","","","[729.5999999642372,623.6000000238419]","./assets/img/canyon/memory/7.jpg","[""ArrowDown"",""ArrowRight""]","value training","canyon","30","{""ArrowUp,ArrowLeft"":23,""ArrowUp,ArrowRight"":10,""ArrowDown,ArrowLeft"":8,""ArrowDown,ArrowRight"":30}","true","ArrowDown,ArrowRight","false","","","original","1","74","","",""
"html-keyboard-response","192","1061176","0.0-4.0-2.0-1.37","spark_pilot_2","7782","7","18","Male","","","","","","","null","<div style=""font-size:60px;"">+</div>","null","fixation","","","","","","","","","","","75","","",""
"revaluation","193","1067209","0.0-4.0-2.0-0.38","spark_pilot_2","7782","7","18","Male","","false","","","","","[584.5999999642372,549.1999999880791]","./assets/img/canyon/memory/13.jpg","[""ArrowDown"",""ArrowRight""]","value training","canyon","30","{""ArrowUp,ArrowLeft"":23,""ArrowUp,ArrowRight"":10,""ArrowDown,ArrowLeft"":8,""ArrowDown,ArrowRight"":30}","true","ArrowDown,ArrowRight","false","","","original","1","76","","",""
"html-keyboard-response","194","1067720","0.0-4.0-2.0-1.38","spark_pilot_2","7782","7","18","Male","","","","","","","null","<div style=""font-size:60px;"">+</div>","null","fixation","","","","","","","","","","","77","","",""
"revaluation","195","1073753","0.0-4.0-2.0-0.39","spark_pilot_2","7782","7","18","Male","","false","","","","","[573.6999999880791,526.1000000238419]","./assets/img/canyon/memory/12.jpg","[""ArrowDown"",""ArrowRight""]","value training","canyon","30","{""ArrowUp,ArrowLeft"":23,""ArrowUp,ArrowRight"":10,""ArrowDown,ArrowLeft"":8,""ArrowDown,ArrowRight"":30}","true","ArrowDown,ArrowRight","false","","","original","1","78","","",""
"html-keyboard-response","196","1074264","0.0-4.0-2.0-1.39","spark_pilot_2","7782","7","18","Male","","","","","","","null","<div style=""font-size:60px;"">+</div>","null","fixation","","","","","","","","","","","79","","",""
"revaluation","197","1080297","0.0-4.0-2.0-0.40","spark_pilot_2","7782","7","18","Male","","false","","","","","[933.1999999880791,1702.300000011921]","./assets/img/canyon/memory/2.jpg","[""ArrowDown"",""ArrowRight""]","value training","canyon","30","{""ArrowUp,ArrowLeft"":23,""ArrowUp,ArrowRight"":10,""ArrowDown,ArrowLeft"":8,""ArrowDown,ArrowRight"":30}","true","ArrowDown,ArrowRight","false","","","original","1","80","","",""
"html-keyboard-response","198","1080808","0.0-4.0-2.0-1.40","spark_pilot_2","7782","7","18","Male","","","","","","","null","<div style=""font-size:60px;"">+</div>","null","fixation","","","","","","","","","","","81","","",""
"revaluation","199","1086841","0.0-4.0-2.0-0.41","spark_pilot_2","7782","7","18","Male","","false","","","","","[697.5,521.0999999642372]","./assets/img/canyon/memory/10.jpg","[""ArrowDown"",""ArrowRight""]","value training","canyon","30","{""ArrowUp,ArrowLeft"":23,""ArrowUp,ArrowRight"":10,""ArrowDown,ArrowLeft"":8,""ArrowDown,ArrowRight"":30}","true","ArrowDown,ArrowRight","false","","","original","1","82","","",""
"html-keyboard-response","200","1087350","0.0-4.0-2.0-1.41","spark_pilot_2","7782","7","18","Male","","","","","","","null","<div style=""font-size:60px;"">+</div>","null","fixation","","","","","","","","","","","83","","",""
"revaluation","201","1093376","0.0-4.0-2.0-0.42","spark_pilot_2","7782","7","18","Male","","false","","","","","[632.3000000119209,691.1999999880791]","./assets/img/canyon/memory/26.jpg","[""ArrowDown"",""ArrowRight""]","value training","canyon","30","{""ArrowUp,ArrowLeft"":23,""ArrowUp,ArrowRight"":10,""ArrowDown,ArrowLeft"":8,""ArrowDown,ArrowRight"":30}","true","ArrowDown,ArrowRight","false","","","original","1","84","","",""
"html-keyboard-response","202","1093885","0.0-4.0-2.0-1.42","spark_pilot_2","7782","7","18","Male","","","","","","","null","<div style=""font-size:60px;"">+</div>","null","fixation","","","","","","","","","","","85","","",""
"revaluation","203","1099910","0.0-4.0-2.0-0.43","spark_pilot_2","7782","7","18","Male","","false","","","","","[724.3000000119209,369]","./assets/img/canyon/memory/2.jpg","[""ArrowDown"",""ArrowRight""]","value training","canyon","30","{""ArrowUp,ArrowLeft"":23,""ArrowUp,ArrowRight"":10,""ArrowDown,ArrowLeft"":8,""ArrowDown,ArrowRight"":30}","true","ArrowDown,ArrowRight","false","","","original","1","86","","",""
"html-keyboard-response","204","1100415","0.0-4.0-2.0-1.43","spark_pilot_2","7782","7","18","Male","","","","","","","null","<div style=""font-size:60px;"">+</div>","null","fixation","","","","","","","","","","","87","","",""
"revaluation","205","1106437","0.0-4.0-2.0-0.44","spark_pilot_2","7782","7","18","Male","","false","","","","","[548.4000000357628,431.69999998807907]","./assets/img/canyon/memory/20.jpg","[""ArrowDown"",""ArrowRight""]","value training","canyon","30","{""ArrowUp,ArrowLeft"":23,""ArrowUp,ArrowRight"":10,""ArrowDown,ArrowLeft"":8,""ArrowDown,ArrowRight"":30}","true","ArrowDown,ArrowRight","false","","","original","1","88","","",""
"html-keyboard-response","206","1106942","0.0-4.0-2.0-1.44","spark_pilot_2","7782","7","18","Male","","","","","","","null","<div style=""font-size:60px;"">+</div>","null","fixation","","","","","","","","","","","89","","",""
"revaluation","207","1110958","0.0-4.0-2.0-0.45","spark_pilot_2","7782","7","18","Male","","false","","","","","[853.6000000238419]","./assets/img/canyon/catch/6.jpg","[""spaceBar""]","value training","canyon","0","{""ArrowUp,ArrowLeft"":23,""ArrowUp,ArrowRight"":10,""ArrowDown,ArrowLeft"":8,""ArrowDown,ArrowRight"":30}","true","spaceBar","true","","","original","1","90","","",""
"html-keyboard-response","208","1111470","0.0-4.0-2.0-1.45","spark_pilot_2","7782","7","18","Male","","","","","","","null","<div style=""font-size:60px;"">+</div>","null","fixation","","","","","","","","","","","91","","",""
"revaluation","209","1117497","0.0-4.0-2.0-0.46","spark_pilot_2","7782","7","18","Male","","false","","","","","[822.5,377.19999998807907]","./assets/img/canyon/memory/0.jpg","[""ArrowDown"",""ArrowRight""]","value training","canyon","30","{""ArrowUp,ArrowLeft"":23,""ArrowUp,ArrowRight"":10,""ArrowDown,ArrowLeft"":8,""ArrowDown,ArrowRight"":30}","true","ArrowDown,ArrowRight","false","","","original","1","92","","",""
"html-keyboard-response","210","1118008","0.0-4.0-2.0-1.46","spark_pilot_2","7782","7","18","Male","","","","","","","null","<div style=""font-size:60px;"">+</div>","null","fixation","","","","","","","","","","","93","","",""
"revaluation","211","1124040","0.0-4.0-2.0-0.47","spark_pilot_2","7782","7","18","Male","","false","","","","","[589.5,278.30000001192093]","./assets/img/canyon/memory/25.jpg","[""ArrowDown"",""ArrowRight""]","value training","canyon","30","{""ArrowUp,ArrowLeft"":23,""ArrowUp,ArrowRight"":10,""ArrowDown,ArrowLeft"":8,""ArrowDown,ArrowRight"":30}","true","ArrowDown,ArrowRight","false","","","original","1","94","","",""
"html-keyboard-response","212","1124549","0.0-4.0-2.0-1.47","spark_pilot_2","7782","7","18","Male","","","","","","","null","<div style=""font-size:60px;"">+</div>","null","fixation","","","","","","","","","","","95","","",""
"revaluation","213","1130575","0.0-4.0-2.0-0.48","spark_pilot_2","7782","7","18","Male","","false","","","","","[1234,406.19999998807907]","./assets/img/canyon/memory/34.jpg","[""ArrowDown"",""ArrowRight""]","value training","canyon","30","{""ArrowUp,ArrowLeft"":23,""ArrowUp,ArrowRight"":10,""ArrowDown,ArrowLeft"":8,""ArrowDown,ArrowRight"":30}","true","ArrowDown,ArrowRight","false","","","original","1","96","","",""
"html-keyboard-response","214","1131086","0.0-4.0-2.0-1.48","spark_pilot_2","7782","7","18","Male","","","","","","","null","<div style=""font-size:60px;"">+</div>","null","fixation","","","","","","","","","","","97","","",""
"revaluation","215","1137113","0.0-4.0-2.0-0.49","spark_pilot_2","7782","7","18","Male","","false","","","","","[761,477.19999998807907]","./assets/img/canyon/memory/31.jpg","[""ArrowDown"",""ArrowRight""]","value training","canyon","30","{""ArrowUp,ArrowLeft"":23,""ArrowUp,ArrowRight"":10,""ArrowDown,ArrowLeft"":8,""ArrowDown,ArrowRight"":30}","true","ArrowDown,ArrowRight","false","","","original","1","98","","",""
"html-keyboard-response","216","1137622","0.0-4.0-2.0-1.49","spark_pilot_2","7782","7","18","Male","","","","","","","null","<div style=""font-size:60px;"">+</div>","null","fixation","","","","","","","","","","","99","","",""
"learning-instructions","217","1303365","0.0-4.0-3.0-0.0","spark_pilot_2","7782","7","18","Male","","","","","","","152653.80000001192","<p> Now, you will travel with a friend who will choose whether you go up or down first. </p>
            <p> On these turns, you will just see the animal that they found. You will still get to choose which chest to search for treasure.</p>","","instructions","","","","","","","","","","","","","",""
"revaluation","218","1307385","0.0-4.0-4.0-0.0","spark_pilot_2","7782","7","18","Male","","false","","","","","[1612.300000011921]","./assets/img/canyon/animals/lion.jpg","[""ArrowRight""]","revaluation","canyon","30","{""ArrowUp,ArrowLeft"":23,""ArrowUp,ArrowRight"":10,""ArrowDown,ArrowLeft"":8,""ArrowDown,ArrowRight"":30}","true","ArrowDown,ArrowRight","","","","original","1","0","","",""
"html-keyboard-response","219","1307896","0.0-4.0-4.0-1.0","spark_pilot_2","7782","7","18","Male","","","","","","","null","<div style=""font-size:60px;"">+</div>","null","fixation","","","","","","","","","","","1","","",""
"revaluation","220","1311919","0.0-4.0-4.0-0.1","spark_pilot_2","7782","7","18","Male","","false","","","","","[493.5]","./assets/img/canyon/animals/giraffe.jpg","[""ArrowLeft""]","revaluation","canyon","23","{""ArrowUp,ArrowLeft"":23,""ArrowUp,ArrowRight"":10,""ArrowDown,ArrowLeft"":8,""ArrowDown,ArrowRight"":30}","true","ArrowUp,ArrowLeft","","","","original","1","2","","",""
"html-keyboard-response","221","1312430","0.0-4.0-4.0-1.1","spark_pilot_2","7782","7","18","Male","","","","","","","null","<div style=""font-size:60px;"">+</div>","null","fixation","","","","","","","","","","","3","","",""
"revaluation","222","1316447","0.0-4.0-4.0-0.2","spark_pilot_2","7782","7","18","Male","","false","","","","","[408.4000000357628]","./assets/img/canyon/animals/lion.jpg","[""ArrowRight""]","revaluation","canyon","30","{""ArrowUp,ArrowLeft"":23,""ArrowUp,ArrowRight"":10,""ArrowDown,ArrowLeft"":8,""ArrowDown,ArrowRight"":30}","true","ArrowDown,ArrowRight","","","","original","1","4","","",""
"html-keyboard-response","223","1316958","0.0-4.0-4.0-1.2","spark_pilot_2","7782","7","18","Male","","","","","","","null","<div style=""font-size:60px;"">+</div>","null","fixation","","","","","","","","","","","5","","",""
"revaluation","224","1320975","0.0-4.0-4.0-0.3","spark_pilot_2","7782","7","18","Male","","false","","","","","[638.8999999761581]","./assets/img/canyon/animals/lion.jpg","[""ArrowRight""]","revaluation","canyon","30","{""ArrowUp,ArrowLeft"":23,""ArrowUp,ArrowRight"":10,""ArrowDown,ArrowLeft"":8,""ArrowDown,ArrowRight"":30}","true","ArrowDown,ArrowRight","","","","original","1","6","","",""
"html-keyboard-response","225","1321486","0.0-4.0-4.0-1.3","spark_pilot_2","7782","7","18","Male","","","","","","","null","<div style=""font-size:60px;"">+</div>","null","fixation","","","","","","","","","","","7","","",""
"revaluation","226","1325502","0.0-4.0-4.0-0.4","spark_pilot_2","7782","7","18","Male","","false","","","","","[619.0999999642372]","./assets/img/canyon/animals/lion.jpg","[""ArrowRight""]","revaluation","canyon","30","{""ArrowUp,ArrowLeft"":23,""ArrowUp,ArrowRight"":10,""ArrowDown,ArrowLeft"":8,""ArrowDown,ArrowRight"":30}","true","ArrowDown,ArrowRight","","","","original","1","8","","",""
"html-keyboard-response","227","1326009","0.0-4.0-4.0-1.4","spark_pilot_2","7782","7","18","Male","","","","","","","null","<div style=""font-size:60px;"">+</div>","null","fixation","","","","","","","","","","","9","","",""
"revaluation","228","1330031","0.0-4.0-4.0-0.5","spark_pilot_2","7782","7","18","Male","","false","","","","","[794.2999999523163]","./assets/img/canyon/animals/giraffe.jpg","[""ArrowLeft""]","revaluation","canyon","23","{""ArrowUp,ArrowLeft"":23,""ArrowUp,ArrowRight"":10,""ArrowDown,ArrowLeft"":8,""ArrowDown,ArrowRight"":30}","true","ArrowUp,ArrowLeft","","","","original","1","10","","",""
"html-keyboard-response","229","1330542","0.0-4.0-4.0-1.5","spark_pilot_2","7782","7","18","Male","","","","","","","null","<div style=""font-size:60px;"">+</div>","null","fixation","","","","","","","","","","","11","","",""
"revaluation","230","1334559","0.0-4.0-4.0-0.6","spark_pilot_2","7782","7","18","Male","","false","","","","","[575]","./assets/img/canyon/animals/lion.jpg","[""ArrowRight""]","revaluation","canyon","30","{""ArrowUp,ArrowLeft"":23,""ArrowUp,ArrowRight"":10,""ArrowDown,ArrowLeft"":8,""ArrowDown,ArrowRight"":30}","true","ArrowDown,ArrowRight","","","","original","1","12","","",""
"html-keyboard-response","231","1335072","0.0-4.0-4.0-1.6","spark_pilot_2","7782","7","18","Male","","","","","","","null","<div style=""font-size:60px;"">+</div>","null","fixation","","","","","","","","","","","13","","",""
"revaluation","232","1339087","0.0-4.0-4.0-0.7","spark_pilot_2","7782","7","18","Male","","false","","","","","[811.2000000476837]","./assets/img/canyon/animals/giraffe.jpg","[""ArrowLeft""]","revaluation","canyon","23","{""ArrowUp,ArrowLeft"":23,""ArrowUp,ArrowRight"":10,""ArrowDown,ArrowLeft"":8,""ArrowDown,ArrowRight"":30}","true","ArrowUp,ArrowLeft","","","","original","1","14","","",""
"html-keyboard-response","233","1339598","0.0-4.0-4.0-1.7","spark_pilot_2","7782","7","18","Male","","","","","","","null","<div style=""font-size:60px;"">+</div>","null","fixation","","","","","","","","","","","15","","",""
"revaluation","234","1343616","0.0-4.0-4.0-0.8","spark_pilot_2","7782","7","18","Male","","false","","","","","[457.2999999523163]","./assets/img/canyon/animals/lion.jpg","[""ArrowRight""]","revaluation","canyon","30","{""ArrowUp,ArrowLeft"":23,""ArrowUp,ArrowRight"":10,""ArrowDown,ArrowLeft"":8,""ArrowDown,ArrowRight"":30}","true","ArrowDown,ArrowRight","","","","original","1","16","","",""
"html-keyboard-response","235","1344126","0.0-4.0-4.0-1.8","spark_pilot_2","7782","7","18","Male","","","","","","","null","<div style=""font-size:60px;"">+</div>","null","fixation","","","","","","","","","","","17","","",""
"revaluation","236","1348143","0.0-4.0-4.0-0.9","spark_pilot_2","7782","7","18","Male","","false","","","","","[617.4000000357628]","./assets/img/canyon/animals/giraffe.jpg","[""ArrowLeft""]","revaluation","canyon","23","{""ArrowUp,ArrowLeft"":23,""ArrowUp,ArrowRight"":10,""ArrowDown,ArrowLeft"":8,""ArrowDown,ArrowRight"":30}","true","ArrowUp,ArrowLeft","","","","original","1","18","","",""
"html-keyboard-response","237","1348654","0.0-4.0-4.0-1.9","spark_pilot_2","7782","7","18","Male","","","","","","","null","<div style=""font-size:60px;"">+</div>","null","fixation","","","","","","","","","","","19","","",""
"revaluation","238","1352681","0.0-4.0-4.0-0.10","spark_pilot_2","7782","7","18","Male","","false","","","","","[648.6999999880791]","./assets/img/canyon/animals/giraffe.jpg","[""ArrowLeft""]","revaluation","canyon","23","{""ArrowUp,ArrowLeft"":23,""ArrowUp,ArrowRight"":10,""ArrowDown,ArrowLeft"":8,""ArrowDown,ArrowRight"":30}","true","ArrowUp,ArrowLeft","","","","original","1","20","","",""
"html-keyboard-response","239","1353193","0.0-4.0-4.0-1.10","spark_pilot_2","7782","7","18","Male","","","","","","","null","<div style=""font-size:60px;"">+</div>","null","fixation","","","","","","","","","","","21","","",""
"revaluation","240","1357216","0.0-4.0-4.0-0.11","spark_pilot_2","7782","7","18","Male","","false","","","","","[698.5999999642372]","./assets/img/canyon/animals/lion.jpg","[""ArrowRight""]","revaluation","canyon","30","{""ArrowUp,ArrowLeft"":23,""ArrowUp,ArrowRight"":10,""ArrowDown,ArrowLeft"":8,""ArrowDown,ArrowRight"":30}","true","ArrowDown,ArrowRight","","","","original","1","22","","",""
"html-keyboard-response","241","1357726","0.0-4.0-4.0-1.11","spark_pilot_2","7782","7","18","Male","","","","","","","null","<div style=""font-size:60px;"">+</div>","null","fixation","","","","","","","","","","","23","","",""
"revaluation","242","1361744","0.0-4.0-4.0-0.12","spark_pilot_2","7782","7","18","Male","","false","","","","","[873.5]","./assets/img/canyon/animals/giraffe.jpg","[""ArrowLeft""]","revaluation","canyon","23","{""ArrowUp,ArrowLeft"":23,""ArrowUp,ArrowRight"":10,""ArrowDown,ArrowLeft"":8,""ArrowDown,ArrowRight"":30}","true","ArrowUp,ArrowLeft","","","","original","1","24","","",""
"html-keyboard-response","243","1362254","0.0-4.0-4.0-1.12","spark_pilot_2","7782","7","18","Male","","","","","","","null","<div style=""font-size:60px;"">+</div>","null","fixation","","","","","","","","","","","25","","",""
"revaluation","244","1366271","0.0-4.0-4.0-0.13","spark_pilot_2","7782","7","18","Male","","false","","","","","[693.6000000238419]","./assets/img/canyon/animals/giraffe.jpg","[""ArrowLeft""]","revaluation","canyon","23","{""ArrowUp,ArrowLeft"":23,""ArrowUp,ArrowRight"":10,""ArrowDown,ArrowLeft"":8,""ArrowDown,ArrowRight"":30}","true","ArrowUp,ArrowLeft","","","","original","1","26","","",""
"html-keyboard-response","245","1366782","0.0-4.0-4.0-1.13","spark_pilot_2","7782","7","18","Male","","","","","","","null","<div style=""font-size:60px;"">+</div>","null","fixation","","","","","","","","","","","27","","",""
"revaluation","246","1370800","0.0-4.0-4.0-0.14","spark_pilot_2","7782","7","18","Male","","false","","","","","[707.6000000238419]","./assets/img/canyon/animals/lion.jpg","[""ArrowRight""]","revaluation","canyon","30","{""ArrowUp,ArrowLeft"":23,""ArrowUp,ArrowRight"":10,""ArrowDown,ArrowLeft"":8,""ArrowDown,ArrowRight"":30}","true","ArrowDown,ArrowRight","","","","original","1","28","","",""
"html-keyboard-response","247","1371309","0.0-4.0-4.0-1.14","spark_pilot_2","7782","7","18","Male","","","","","","","null","<div style=""font-size:60px;"">+</div>","null","fixation","","","","","","","","","","","29","","",""
"revaluation","248","1375327","0.0-4.0-4.0-0.15","spark_pilot_2","7782","7","18","Male","","false","","","","","[678.7000000476837]","./assets/img/canyon/animals/giraffe.jpg","[""ArrowLeft""]","revaluation","canyon","23","{""ArrowUp,ArrowLeft"":23,""ArrowUp,ArrowRight"":10,""ArrowDown,ArrowLeft"":8,""ArrowDown,ArrowRight"":30}","true","ArrowUp,ArrowLeft","","","","original","1","30","","",""
"html-keyboard-response","249","1375838","0.0-4.0-4.0-1.15","spark_pilot_2","7782","7","18","Male","","","","","","","null","<div style=""font-size:60px;"">+</div>","null","fixation","","","","","","","","","","","31","","",""
"revaluation","250","1379855","0.0-4.0-4.0-0.16","spark_pilot_2","7782","7","18","Male","","false","","","","","[441.10000002384186]","./assets/img/canyon/animals/lion.jpg","[""ArrowRight""]","revaluation","canyon","30","{""ArrowUp,ArrowLeft"":23,""ArrowUp,ArrowRight"":10,""ArrowDown,ArrowLeft"":8,""ArrowDown,ArrowRight"":30}","true","ArrowDown,ArrowRight","","","","original","1","32","","",""
"html-keyboard-response","251","1380366","0.0-4.0-4.0-1.16","spark_pilot_2","7782","7","18","Male","","","","","","","null","<div style=""font-size:60px;"">+</div>","null","fixation","","","","","","","","","","","33","","",""
"revaluation","252","1384383","0.0-4.0-4.0-0.17","spark_pilot_2","7782","7","18","Male","","false","","","","","[618.6000000238419]","./assets/img/canyon/animals/giraffe.jpg","[""ArrowLeft""]","revaluation","canyon","23","{""ArrowUp,ArrowLeft"":23,""ArrowUp,ArrowRight"":10,""ArrowDown,ArrowLeft"":8,""ArrowDown,ArrowRight"":30}","true","ArrowUp,ArrowLeft","","","","original","1","34","","",""
"html-keyboard-response","253","1384894","0.0-4.0-4.0-1.17","spark_pilot_2","7782","7","18","Male","","","","","","","null","<div style=""font-size:60px;"">+</div>","null","fixation","","","","","","","","","","","35","","",""
"learning-instructions","254","1398337","0.0-4.0-5.0-0.0","spark_pilot_2","7782","7","18","Male","","","","","","","720.0999999642372","<p> Time to play the dot game! </p>
            <p> For one minute, click the red dots on the following screen as they appear. </p>
            <p><b> Don't look away, as you will earn bonus for clicking dots</b>. </p>","","instructions","","","","","","","","","","","","","",""
"revaluation","255","1458341","0.0-4.0-6.0-0.0","spark_pilot_2","7782","7","18","Male","","","","","","","[80,67,79,56,109,36,64]","","","rest","","70","","","","","0","60000","","","","","",""
"learning-instructions","256","1467914","0.0-4.0-7.0-0.0","spark_pilot_2","7782","7","18","Male","","","","","","","2916.5","<p> You have almost finished this part of the game! </p>
            <p> We are going to ask you to make a few more choices. </p>","","instructions","","","","","","","","","","","","","",""
"learning-instructions","257","1482836","0.0-4.0-7.0-0.1","spark_pilot_2","7782","7","18","Male","","","","","","","951.6000000238419","<p> First, you need to decide whether to go up or down. When you see each picture, use the arrow keys to make your choice. </p>
            <p><b>You will not see which animal you found, but try to get to the one that will give you the most treasure.</b></p>","","instructions","","","","","","","","","","","","","",""
"revaluation","258","1484260","0.0-4.0-8.0-0.0","spark_pilot_2","7782","7","18","Male","","false","","","","","[1420.8999999761581]","./assets/img/canyon/test/3.jpg","[""ArrowDown""]","first stage test","canyon","0","{""ArrowUp,ArrowLeft"":23,""ArrowUp,ArrowRight"":10,""ArrowDown,ArrowLeft"":8,""ArrowDown,ArrowRight"":30}","true","ArrowDown","false","","","original","1","","","",""
"html-keyboard-response","259","1484765","0.0-4.0-8.0-1.0","spark_pilot_2","7782","7","18","Male","","","","","","","null","<div style=""font-size:60px;"">+</div>","null","fixation","","","","","","","","","","","","","",""
"revaluation","260","1485762","0.0-4.0-8.0-0.1","spark_pilot_2","7782","7","18","Male","","false","","","","","[992.8999999761581]","./assets/img/canyon/test/0.jpg","[""ArrowDown""]","first stage test","canyon","0","{""ArrowUp,ArrowLeft"":23,""ArrowUp,ArrowRight"":10,""ArrowDown,ArrowLeft"":8,""ArrowDown,ArrowRight"":30}","true","ArrowDown","false","","","original","1","","","",""
"html-keyboard-response","261","1486269","0.0-4.0-8.0-1.1","spark_pilot_2","7782","7","18","Male","","","","","","","null","<div style=""font-size:60px;"">+</div>","null","fixation","","","","","","","","","","","","","",""
"revaluation","262","1487155","0.0-4.0-8.0-0.2","spark_pilot_2","7782","7","18","Male","","false","","","","","[882]","./assets/img/canyon/test/2.jpg","[""ArrowDown""]","first stage test","canyon","0","{""ArrowUp,ArrowLeft"":23,""ArrowUp,ArrowRight"":10,""ArrowDown,ArrowLeft"":8,""ArrowDown,ArrowRight"":30}","true","ArrowDown","false","","","original","1","","","",""
"html-keyboard-response","263","1487664","0.0-4.0-8.0-1.2","spark_pilot_2","7782","7","18","Male","","","","","","","null","<div style=""font-size:60px;"">+</div>","null","fixation","","","","","","","","","","","","","",""
"revaluation","264","1488181","0.0-4.0-8.0-0.3","spark_pilot_2","7782","7","18","Male","","false","","","","","[513.0999999642372]","./assets/img/canyon/test/1.jpg","[""ArrowDown""]","first stage test","canyon","0","{""ArrowUp,ArrowLeft"":23,""ArrowUp,ArrowRight"":10,""ArrowDown,ArrowLeft"":8,""ArrowDown,ArrowRight"":30}","true","ArrowDown","false","","","original","1","","","",""
"html-keyboard-response","265","1488686","0.0-4.0-8.0-1.3","spark_pilot_2","7782","7","18","Male","","","","","","","null","<div style=""font-size:60px;"">+</div>","null","fixation","","","","","","","","","","","","","",""
"learning-instructions","266","1500900","0.0-4.0-9.0-0.0","spark_pilot_2","7782","7","18","Male","","","","","","","871.1999999880791","<p> Now you will see the animals again and can search their chests for treasure. </p>
            <p> This time, you will not see how much treasure you earned, but you will earn more bonus money for making better choices. </p>","","instructions","","","","","","","","","","","","","",""
"revaluation","267","1502038","0.0-4.0-10.0-0.0","spark_pilot_2","7782","7","18","Male","","false","","","","","[1134.300000011921]","./assets/img/canyon/animals/giraffe.jpg","[""ArrowLeft""]","second stage test","canyon","0","{""ArrowUp,ArrowLeft"":23,""ArrowUp,ArrowRight"":10,""ArrowDown,ArrowLeft"":8,""ArrowDown,ArrowRight"":30}","true","ArrowUp,ArrowLeft","","","","original","1","","","",""
"html-keyboard-response","268","1502541","0.0-4.0-10.0-1.0","spark_pilot_2","7782","7","18","Male","","","","","","","null","<div style=""font-size:60px;"">+</div>","null","fixation","","","","","","","","","","","","","",""
"revaluation","269","1503271","0.0-4.0-10.0-0.1","spark_pilot_2","7782","7","18","Male","","false","","","","","[725.9000000357628]","./assets/img/canyon/animals/giraffe.jpg","[""ArrowLeft""]","second stage test","canyon","0","{""ArrowUp,ArrowLeft"":23,""ArrowUp,ArrowRight"":10,""ArrowDown,ArrowLeft"":8,""ArrowDown,ArrowRight"":30}","true","ArrowUp,ArrowLeft","","","","original","1","","","",""
"html-keyboard-response","270","1503774","0.0-4.0-10.0-1.1","spark_pilot_2","7782","7","18","Male","","","","","","","null","<div style=""font-size:60px;"">+</div>","null","fixation","","","","","","","","","","","","","",""
"revaluation","271","1504365","0.0-4.0-10.0-0.2","spark_pilot_2","7782","7","18","Male","","false","","","","","[586.8000000119209]","./assets/img/canyon/animals/giraffe.jpg","[""ArrowLeft""]","second stage test","canyon","0","{""ArrowUp,ArrowLeft"":23,""ArrowUp,ArrowRight"":10,""ArrowDown,ArrowLeft"":8,""ArrowDown,ArrowRight"":30}","true","ArrowUp,ArrowLeft","","","","original","1","","","",""
"html-keyboard-response","272","1504873","0.0-4.0-10.0-1.2","spark_pilot_2","7782","7","18","Male","","","","","","","null","<div style=""font-size:60px;"">+</div>","null","fixation","","","","","","","","","","","","","",""
"revaluation","273","1505401","0.0-4.0-10.0-0.3","spark_pilot_2","7782","7","18","Male","","false","","","","","[523.8999999761581]","./assets/img/canyon/animals/giraffe.jpg","[""ArrowLeft""]","second stage test","canyon","0","{""ArrowUp,ArrowLeft"":23,""ArrowUp,ArrowRight"":10,""ArrowDown,ArrowLeft"":8,""ArrowDown,ArrowRight"":30}","true","ArrowUp,ArrowLeft","","","","original","1","","","",""
"html-keyboard-response","274","1505913","0.0-4.0-10.0-1.3","spark_pilot_2","7782","7","18","Male","","","","","","","null","<div style=""font-size:60px;"">+</div>","null","fixation","","","","","","","","","","","","","",""
"revaluation","275","1506607","0.0-4.0-10.0-0.4","spark_pilot_2","7782","7","18","Male","","false","","","","","[690.5]","./assets/img/canyon/animals/lion.jpg","[""ArrowRight""]","second stage test","canyon","0","{""ArrowUp,ArrowLeft"":23,""ArrowUp,ArrowRight"":10,""ArrowDown,ArrowLeft"":8,""ArrowDown,ArrowRight"":30}","true","ArrowDown,ArrowRight","","","","original","1","","","",""
"html-keyboard-response","276","1507113","0.0-4.0-10.0-1.4","spark_pilot_2","7782","7","18","Male","","","","","","","null","<div style=""font-size:60px;"">+</div>","null","fixation","","","","","","","","","","","","","",""
"revaluation","277","1507599","0.0-4.0-10.0-0.5","spark_pilot_2","7782","7","18","Male","","false","","","","","[482.2000000476837]","./assets/img/canyon/animals/lion.jpg","[""ArrowRight""]","second stage test","canyon","0","{""ArrowUp,ArrowLeft"":23,""ArrowUp,ArrowRight"":10,""ArrowDown,ArrowLeft"":8,""ArrowDown,ArrowRight"":30}","true","ArrowDown,ArrowRight","","","","original","1","","","",""
"html-keyboard-response","278","1508101","0.0-4.0-10.0-1.5","spark_pilot_2","7782","7","18","Male","","","","","","","null","<div style=""font-size:60px;"">+</div>","null","fixation","","","","","","","","","","","","","",""
"revaluation","279","1508578","0.0-4.0-10.0-0.6","spark_pilot_2","7782","7","18","Male","","false","","","","","[473]","./assets/img/canyon/animals/lion.jpg","[""ArrowRight""]","second stage test","canyon","0","{""ArrowUp,ArrowLeft"":23,""ArrowUp,ArrowRight"":10,""ArrowDown,ArrowLeft"":8,""ArrowDown,ArrowRight"":30}","true","ArrowDown,ArrowRight","","","","original","1","","","",""
"html-keyboard-response","280","1509088","0.0-4.0-10.0-1.6","spark_pilot_2","7782","7","18","Male","","","","","","","null","<div style=""font-size:60px;"">+</div>","null","fixation","","","","","","","","","","","","","",""
"revaluation","281","1509526","0.0-4.0-10.0-0.7","spark_pilot_2","7782","7","18","Male","","false","","","","","[434]","./assets/img/canyon/animals/lion.jpg","[""ArrowRight""]","second stage test","canyon","0","{""ArrowUp,ArrowLeft"":23,""ArrowUp,ArrowRight"":10,""ArrowDown,ArrowLeft"":8,""ArrowDown,ArrowRight"":30}","true","ArrowDown,ArrowRight","","","","original","1","","","",""
"html-keyboard-response","282","1510029","0.0-4.0-10.0-1.7","spark_pilot_2","7782","7","18","Male","","","","","","","null","<div style=""font-size:60px;"">+</div>","null","fixation","","","","","","","","","","","","","",""
"learning-instructions","283","1513771","0.0-4.0-0.1-0.2","spark_pilot_2","7782","7","18","Male","","","","","","","1032.1000000238419","<p> This time you are searching for treasure in the <b>ocean</b>.</p>","","instructions","","","","","","","","","","","","","",""
"learning-instructions","284","1533785","0.0-4.0-0.1-0.3","spark_pilot_2","7782","7","18","Male","","","","","","","2758.2000000476837","<p><b>New</b> animals with <b>new</b> treasure chests live here. You need to explore to discover where the animal with the best treasure chest is.</p>
                    <p> Like before, once you figure out which animal has the chest with the most treasure, you should try to get to that animal and select that chest! </p>","","instructions","","","","","","","","","","","","","",""
"learning-instructions","285","1551660","0.0-4.0-1.1-0.1","spark_pilot_2","7782","7","18","Male","","","","","","","3138.400000035763","<p> Remember, when you see a picture of the place, use the up and down keys to <b>find an animal</b>.</p>
            <p> When you encounter an animal, you should use the left and right keys to <b>select a treasure chest</b>.</p>
            <p> Don't forget to look out for the robber! </p>","","instructions","","","","","","","","","","","","","",""
"revaluation","286","1557687","0.0-4.0-2.1-0.50","spark_pilot_2","7782","7","18","Male","","false","","","","","[1460.5,546.1000000238419]","./assets/img/ocean/memory/25.jpg","[""ArrowUp"",""ArrowRight""]","value training","ocean","10","{""ArrowUp,ArrowLeft"":26,""ArrowUp,ArrowRight"":10,""ArrowDown,ArrowLeft"":5,""ArrowDown,ArrowRight"":17}","false","ArrowUp,ArrowRight","false","","","revaluation","2","0","","",""
"html-keyboard-response","287","1558197","0.0-4.0-2.1-1.50","spark_pilot_2","7782","7","18","Male","","","","","","","null","<div style=""font-size:60px;"">+</div>","null","fixation","","","","","","","","","","","1","","",""
"revaluation","288","1564223","0.0-4.0-2.1-0.51","spark_pilot_2","7782","7","18","Male","","false","","","","","[458.19999998807907,365.5]","./assets/img/ocean/memory/34.jpg","[""ArrowUp"",""ArrowLeft""]","value training","ocean","26","{""ArrowUp,ArrowLeft"":26,""ArrowUp,ArrowRight"":10,""ArrowDown,ArrowLeft"":5,""ArrowDown,ArrowRight"":17}","true","ArrowUp,ArrowLeft","false","","","revaluation","2","2","","",""
"html-keyboard-response","289","1564733","0.0-4.0-2.1-1.51","spark_pilot_2","7782","7","18","Male","","","","","","","null","<div style=""font-size:60px;"">+</div>","null","fixation","","","","","","","","","","","3","","",""
"revaluation","290","1570761","0.0-4.0-2.1-0.52","spark_pilot_2","7782","7","18","Male","","false","","","","","[581.9000000357628,502.60000002384186]","./assets/img/ocean/memory/14.jpg","[""ArrowDown"",""ArrowLeft""]","value training","ocean","5","{""ArrowUp,ArrowLeft"":26,""ArrowUp,ArrowRight"":10,""ArrowDown,ArrowLeft"":5,""ArrowDown,ArrowRight"":17}","false","ArrowDown,ArrowLeft","false","","","revaluation","2","4","","",""
"html-keyboard-response","291","1571272","0.0-4.0-2.1-1.52","spark_pilot_2","7782","7","18","Male","","","","","","","null","<div style=""font-size:60px;"">+</div>","null","fixation","","","","","","","","","","","5","","",""
"revaluation","292","1577305","0.0-4.0-2.1-0.53","spark_pilot_2","7782","7","18","Male","","false","","","","","[547.2000000476837,353.7000000476837]","./assets/img/ocean/memory/29.jpg","[""ArrowDown"",""ArrowRight""]","value training","ocean","17","{""ArrowUp,ArrowLeft"":26,""ArrowUp,ArrowRight"":10,""ArrowDown,ArrowLeft"":5,""ArrowDown,ArrowRight"":17}","false","ArrowDown,ArrowRight","false","","","revaluation","2","6","","",""
"html-keyboard-response","293","1577815","0.0-4.0-2.1-1.53","spark_pilot_2","7782","7","18","Male","","","","","","","null","<div style=""font-size:60px;"">+</div>","null","fixation","","","","","","","","","","","7","","",""
"revaluation","294","1583841","0.0-4.0-2.1-0.54","spark_pilot_2","7782","7","18","Male","","false","","","","","[663,352.60000002384186]","./assets/img/ocean/memory/6.jpg","[""ArrowUp"",""ArrowLeft""]","value training","ocean","26","{""ArrowUp,ArrowLeft"":26,""ArrowUp,ArrowRight"":10,""ArrowDown,ArrowLeft"":5,""ArrowDown,ArrowRight"":17}","true","ArrowUp,ArrowLeft","false","","","revaluation","2","8","","",""
"html-keyboard-response","295","1584352","0.0-4.0-2.1-1.54","spark_pilot_2","7782","7","18","Male","","","","","","","null","<div style=""font-size:60px;"">+</div>","null","fixation","","","","","","","","","","","9","","",""
"revaluation","296","1590373","0.0-4.0-2.1-0.55","spark_pilot_2","7782","7","18","Male","","false","","","","","[515,302.80000001192093]","./assets/img/ocean/memory/18.jpg","[""ArrowUp"",""ArrowLeft""]","value training","ocean","26","{""ArrowUp,ArrowLeft"":26,""ArrowUp,ArrowRight"":10,""ArrowDown,ArrowLeft"":5,""ArrowDown,ArrowRight"":17}","true","ArrowUp,ArrowLeft","false","","","revaluation","2","10","","",""
"html-keyboard-response","297","1590880","0.0-4.0-2.1-1.55","spark_pilot_2","7782","7","18","Male","","","","","","","null","<div style=""font-size:60px;"">+</div>","null","fixation","","","","","","","","","","","11","","",""
"revaluation","298","1596902","0.0-4.0-2.1-0.56","spark_pilot_2","7782","7","18","Male","","false","","","","","[573.3999999761581,443.19999998807907]","./assets/img/ocean/memory/41.jpg","[""ArrowUp"",""ArrowLeft""]","value training","ocean","26","{""ArrowUp,ArrowLeft"":26,""ArrowUp,ArrowRight"":10,""ArrowDown,ArrowLeft"":5,""ArrowDown,ArrowRight"":17}","true","ArrowUp,ArrowLeft","false","","","revaluation","2","12","","",""
"html-keyboard-response","299","1597408","0.0-4.0-2.1-1.56","spark_pilot_2","7782","7","18","Male","","","","","","","null","<div style=""font-size:60px;"">+</div>","null","fixation","","","","","","","","","","","13","","",""
"revaluation","300","1603430","0.0-4.0-2.1-0.57","spark_pilot_2","7782","7","18","Male","","false","","","","","[650.8000000119209,507.5]","./assets/img/ocean/memory/10.jpg","[""ArrowUp"",""ArrowLeft""]","value training","ocean","26","{""ArrowUp,ArrowLeft"":26,""ArrowUp,ArrowRight"":10,""ArrowDown,ArrowLeft"":5,""ArrowDown,ArrowRight"":17}","true","ArrowUp,ArrowLeft","false","","","revaluation","2","14","","",""
"html-keyboard-response","301","1603936","0.0-4.0-2.1-1.57","spark_pilot_2","7782","7","18","Male","","","","","","","null","<div style=""font-size:60px;"">+</div>","null","fixation","","","","","","","","","","","15","","",""
"revaluation","302","1609958","0.0-4.0-2.1-0.58","spark_pilot_2","7782","7","18","Male","","false","","","","","[523,580.5]","./assets/img/ocean/memory/29.jpg","[""ArrowUp"",""ArrowLeft""]","value training","ocean","26","{""ArrowUp,ArrowLeft"":26,""ArrowUp,ArrowRight"":10,""ArrowDown,ArrowLeft"":5,""ArrowDown,ArrowRight"":17}","true","ArrowUp,ArrowLeft","false","","","revaluation","2","16","","",""
"html-keyboard-response","303","1610464","0.0-4.0-2.1-1.58","spark_pilot_2","7782","7","18","Male","","","","","","","null","<div style=""font-size:60px;"">+</div>","null","fixation","","","","","","","","","","","17","","",""
"revaluation","304","1616486","0.0-4.0-2.1-0.59","spark_pilot_2","7782","7","18","Male","","false","","","","","[633.1000000238419,636.1999999880791]","./assets/img/ocean/memory/7.jpg","[""ArrowUp"",""ArrowLeft""]","value training","ocean","26","{""ArrowUp,ArrowLeft"":26,""ArrowUp,ArrowRight"":10,""ArrowDown,ArrowLeft"":5,""ArrowDown,ArrowRight"":17}","true","ArrowUp,ArrowLeft","false","","","revaluation","2","18","","",""
"html-keyboard-response","305","1616992","0.0-4.0-2.1-1.59","spark_pilot_2","7782","7","18","Male","","","","","","","null","<div style=""font-size:60px;"">+</div>","null","fixation","","","","","","","","","","","19","","",""
"revaluation","306","1621008","0.0-4.0-2.1-0.60","spark_pilot_2","7782","7","18","Male","","false","","","","","[585.6999999880791]","./assets/img/ocean/catch/5.jpg","[""ArrowUp""]","value training","ocean","-10","{""ArrowUp,ArrowLeft"":26,""ArrowUp,ArrowRight"":10,""ArrowDown,ArrowLeft"":5,""ArrowDown,ArrowRight"":17}","false","ArrowUp","true","","","revaluation","2","20","","",""
