"trial_type","trial_index","time_elapsed","internal_node_id","task_version","subject_id","assigned_condition","age","gender","success","timeout","failed_images","failed_audio","failed_video","browser_interaction","rt","stimulus","response","task_part","environment","score","rewardMap","correct","fullState","isCatch","numberMissed","duration","condition","order","trial_num","key_press","ground_truth","bonus"
"pavlovia","0","1342","0.0-0.0","spark_pilot_2","7394","1","16","Male","","","","","","","","","","","","","","","","","","","","","","","",""
"preload","1","13491","0.0-1.0","spark_pilot_2","7394","1","16","Male","true","false","[]","[]","[]","[{""event"":""fullscreenenter"",""trial"":2,""time"":16150}]","","","","","","","","","","","","","","","","","",""
"fullscreen","2","17124","0.0-2.0","spark_pilot_2","7394","1","16","Male","true","","","","","","","","","","","","","","","","","","","","","","",""
"audio-button-response","3","18838","0.0-3.0-0.0-0.0","spark_pilot_2","7394","1","16","Male","","","","","","","1699","./assets/audio/audiotest/turtle.mp3","2","audio_test","","","","","","","","","","","","","",""
"learning-instructions","4","27600","0.0-3.0-1.0-0.0","spark_pilot_2","7394","1","16","Male","","","","","","","1759.8000001907349","<p> Welcome! Please remember to stay in fullscreen mode and don't click away from the experiment. </p>","","instructions","","","","","","","","","","","","","",""
"learning-instructions","5","38246","0.0-3.0-1.0-0.1","spark_pilot_2","7394","1","16","Male","","","","","","","2236.0999999046326","<p> Today you will be playing a game to earn treasure. </p>
            <p> At the end of the experiment, you will earn a bonus based on how much treasure you find. </p>
            <img src='./assets/img/instructions/treasure.jpg' class='instructions-image'>","","instructions","","","","","","","","","","","","","",""
"learning-instructions","6","52921","0.0-3.0-1.0-0.2","spark_pilot_2","7394","1","16","Male","","","","","","","6401","<p> Animals have hidden treasure in treasure chests. </p>
            <p> You need to first find an animal and then choose which of their treasure chests to search. </p>
            <img src='./assets/img/space/animals/cat.jpg' class='instructions-image'>","","instructions","","","","","","","","","","","","","",""
"learning-instructions","7","66769","0.0-3.0-1.0-0.3","spark_pilot_2","7394","1","16","Male","","","","","","","680","<p> In each round, you will search for treasure in a different place. In the real game, there will be two rounds. </p>
            <p> You will begin with a separate, practice round where you will search for treasure in outer space. </p>
            <img src='./assets/img/space/0.jpg' class='instructions-image'>","","instructions","","","","","","","","","","","","","",""
"learning-instructions","8","78732","0.0-3.0-1.0-0.4","spark_pilot_2","7394","1","16","Male","","","","","","","533.0999999046326","<p> On every turn, you will see a picture of the place that you are in, but the specific image may be different each time. </p>
            <p> For example, both of these images mean you are in outer space. </p>
            <img src='./assets/img/instructions/outerspace.jpg' class='instructions-image'>","","instructions","","","","","","","","","","","","","",""
"learning-instructions","9","87027","0.0-3.0-1.0-0.5","spark_pilot_2","7394","1","16","Male","","","","","","","467.90000009536743","<p> You need to decide which direction to travel in. </p>
            <p> You can choose between going <b>up or down</b> by using the arrow keys. </p>
            <img src='./assets/img/instructions/updown.jpg' class='instructions-image'>","","instructions","","","","","","","","","","","","","",""
"learning-instructions","10","96401","0.0-3.0-1.0-0.6","spark_pilot_2","7394","1","16","Male","","","","","","","561.7000000476837","<p> You will have <b>2 seconds</b> to make your choice. </p>
            <p> If you do not make a choice within 2 seconds, you will not find an animal or earn treasure. </p>
            <img src='./assets/img/instructions/2seconds.jpg' class='instructions-image'>","","instructions","","","","","","","","","","","","","",""
"learning-instructions","11","104825","0.0-3.0-1.0-0.7","spark_pilot_2","7394","1","16","Male","","","","","","","1385.6000001430511","<p> Let’s try practicing that now! </p>
            <p> When you see a picture of the place you are in, press the <b>up</b> key to travel up. </p>
            <img src='./assets/img/instructions/pressUp.jpg' class='instructions-image'>","","instructions","","","","","","","","","","","","","",""
"revaluation","12","108864","0.0-3.0-2.0-0.0","spark_pilot_2","7394","1","16","Male","","false","","","","","[939.2000000476837]","./assets/img/space/0.jpg","[""ArrowUp""]","first stage practice","space","0","null","null","ArrowUp","false","","","","","","","",""
"html-keyboard-response","13","109378","0.0-3.0-2.0-1.0","spark_pilot_2","7394","1","16","Male","","","","","","","null","<div style=""font-size:60px;"">+</div>","null","fixation","","","","","","","","","","","","","",""
"revaluation","14","113392","0.0-3.0-2.0-0.1","spark_pilot_2","7394","1","16","Male","","false","","","","","[1586.2000000476837]","./assets/img/space/1.jpg","[""ArrowUp""]","first stage practice","space","0","null","null","ArrowUp","false","","","","","","","",""
"html-keyboard-response","15","113893","0.0-3.0-2.0-1.1","spark_pilot_2","7394","1","16","Male","","","","","","","null","<div style=""font-size:60px;"">+</div>","null","fixation","","","","","","","","","","","","","",""
"revaluation","16","117914","0.0-3.0-2.0-0.2","spark_pilot_2","7394","1","16","Male","","false","","","","","[455.09999990463257]","./assets/img/space/2.jpg","[""ArrowUp""]","first stage practice","space","0","null","null","ArrowUp","false","","","","","","","",""
"html-keyboard-response","17","118418","0.0-3.0-2.0-1.2","spark_pilot_2","7394","1","16","Male","","","","","","","null","<div style=""font-size:60px;"">+</div>","null","fixation","","","","","","","","","","","","","",""
"learning-instructions","18","124474","0.0-3.0-3.0-0.0","spark_pilot_2","7394","1","16","Male","","","","","","","245.60000014305115","<p> Great job! Now try pressing the <b>down</b> key to travel down. </p>
            <img src='./assets/img/instructions/pressDown.jpg' class='instructions-image'>","","instructions","","","","","","","","","","","","","",""
"revaluation","19","128505","0.0-3.0-4.0-0.0","spark_pilot_2","7394","1","16","Male","","false","","","","","[890.0999999046326]","./assets/img/space/3.jpg","[""ArrowDown""]","first stage practice","space","0","null","null","ArrowDown","false","","","","","","","",""
"html-keyboard-response","20","129016","0.0-3.0-4.0-1.0","spark_pilot_2","7394","1","16","Male","","","","","","","null","<div style=""font-size:60px;"">+</div>","null","fixation","","","","","","","","","","","","","",""
"revaluation","21","133045","0.0-3.0-4.0-0.1","spark_pilot_2","7394","1","16","Male","","false","","","","","[540.1000001430511]","./assets/img/space/4.jpg","[""ArrowDown""]","first stage practice","space","0","null","null","ArrowDown","false","","","","","","","",""
"html-keyboard-response","22","133556","0.0-3.0-4.0-1.1","spark_pilot_2","7394","1","16","Male","","","","","","","null","<div style=""font-size:60px;"">+</div>","null","fixation","","","","","","","","","","","","","",""
"revaluation","23","137570","0.0-3.0-4.0-0.2","spark_pilot_2","7394","1","16","Male","","false","","","","","[384.69999980926514]","./assets/img/space/5.jpg","[""ArrowDown""]","first stage practice","space","0","null","null","ArrowDown","false","","","","","","","",""
"html-keyboard-response","24","138082","0.0-3.0-4.0-1.2","spark_pilot_2","7394","1","16","Male","","","","","","","null","<div style=""font-size:60px;"">+</div>","null","fixation","","","","","","","","","","","","","",""
"learning-instructions","25","149177","0.0-3.0-5.0-0.0","spark_pilot_2","7394","1","16","Male","","","","","","","1218.5","<p> The animals don’t move, so the animal in the upper part of a place will stay in the upper part of a place, and the animal in the lower part of a place will stay in the lower part of a place. </p>","","instructions","","","","","","","","","","","","","",""
"learning-instructions","26","158740","0.0-3.0-5.0-0.1","spark_pilot_2","7394","1","16","Male","","","","","","","411.69999980926514","<p> Each animal has two treasure chests for you to choose from. </p>
            <p> The amount of treasure in each chest can range from <b> 0 to 40 pieces.</b></p>","","instructions","","","","","","","","","","","","","",""
"learning-instructions","27","170404","0.0-3.0-5.0-0.2","spark_pilot_2","7394","1","16","Male","","","","","","","445.2999999523163","<p> You should decide which chest to search for treasure by using the <b>left</b> and <b>right</b> arrow keys. </p>
            <p><b> Pay attention to which animal is on the screen, as the animals have different treasure chests. </b></p>
            <img src='./assets/img/instructions/leftright.jpg' class='instructions-image'>","","instructions","","","","","","","","","","","","","",""
"learning-instructions","28","177459","0.0-3.0-5.0-0.3","spark_pilot_2","7394","1","16","Male","","","","","","","670.9000000953674","<p> Let’s try practicing that now. </p>
            <p> When you see an animal, choose which chest to search for treasure. </p>
            <img src='./assets/img/instructions/chooseChest.jpg' class='instructions-image'>","","instructions","","","","","","","","","","","","","",""
"revaluation","29","181475","0.0-3.0-6.0-0.0","spark_pilot_2","7394","1","16","Male","","false","","","","","[953.5999999046326]","./assets/img/space/animals/rabbit.jpg","[""ArrowLeft""]","second stage practice","space","15","{""ArrowUp,ArrowLeft"":3,""ArrowUp,ArrowRight"":36,""ArrowDown,ArrowLeft"":15,""ArrowDown,ArrowRight"":23}","false","ArrowDown,ArrowLeft","","","","","","","","",""
"html-keyboard-response","30","181988","0.0-3.0-6.0-1.0","spark_pilot_2","7394","1","16","Male","","","","","","","null","<div style=""font-size:60px;"">+</div>","null","fixation","","","","","","","","","","","","","",""
"revaluation","31","186011","0.0-3.0-6.0-0.1","spark_pilot_2","7394","1","16","Male","","false","","","","","[1064.5]","./assets/img/space/animals/cat.jpg","[""ArrowRight""]","second stage practice","space","36","{""ArrowUp,ArrowLeft"":3,""ArrowUp,ArrowRight"":36,""ArrowDown,ArrowLeft"":15,""ArrowDown,ArrowRight"":23}","true","ArrowUp,ArrowRight","","","","","","","","",""
"html-keyboard-response","32","186524","0.0-3.0-6.0-1.1","spark_pilot_2","7394","1","16","Male","","","","","","","null","<div style=""font-size:60px;"">+</div>","null","fixation","","","","","","","","","","","","","",""
"revaluation","33","190548","0.0-3.0-6.0-0.2","spark_pilot_2","7394","1","16","Male","","false","","","","","[1071.2999999523163]","./assets/img/space/animals/rabbit.jpg","[""ArrowRight""]","second stage practice","space","23","{""ArrowUp,ArrowLeft"":3,""ArrowUp,ArrowRight"":36,""ArrowDown,ArrowLeft"":15,""ArrowDown,ArrowRight"":23}","true","ArrowDown,ArrowRight","","","","","","","","",""
"html-keyboard-response","34","191052","0.0-3.0-6.0-1.2","spark_pilot_2","7394","1","16","Male","","","","","","","null","<div style=""font-size:60px;"">+</div>","null","fixation","","","","","","","","","","","","","",""
"revaluation","35","195078","0.0-3.0-6.0-0.3","spark_pilot_2","7394","1","16","Male","","false","","","","","[455.7000000476837]","./assets/img/space/animals/cat.jpg","[""ArrowRight""]","second stage practice","space","36","{""ArrowUp,ArrowLeft"":3,""ArrowUp,ArrowRight"":36,""ArrowDown,ArrowLeft"":15,""ArrowDown,ArrowRight"":23}","true","ArrowUp,ArrowRight","","","","","","","","",""
"html-keyboard-response","36","195582","0.0-3.0-6.0-1.3","spark_pilot_2","7394","1","16","Male","","","","","","","null","<div style=""font-size:60px;"">+</div>","null","fixation","","","","","","","","","","","","","",""
"learning-instructions","37","213396","0.0-3.0-7.0-0.0","spark_pilot_2","7394","1","16","Male","","","","","","","968.2999999523163","<p> Great job. Now let’s try putting it together. </p>
            <p> On each turn, you will first see a picture to remind you of the place you are in, and you need to choose whether to go up or down. </p>
            <p> Then you will see an animal and choose which of its chests to search for treasure. </p>","","instructions","","","","","","","","","","","","","",""
"learning-instructions","38","222074","0.0-3.0-7.0-0.1","spark_pilot_2","7394","1","16","Male","","","","","","","396.2999999523163","<p> When you choose whether to go up or down, try to go to the animal with the chest with the most treasure. </p>
            <p> Try practicing that now! </p>","","instructions","","","","","","","","","","","","","",""
"revaluation","39","228112","0.0-3.0-8.0-0.0","spark_pilot_2","7394","1","16","Male","","false","","","","","[1169.6000001430511,687.9000000953674]","./assets/img/space/6.jpg","[""ArrowUp"",""ArrowRight""]","full practice","space","36","{""ArrowUp,ArrowLeft"":3,""ArrowUp,ArrowRight"":36,""ArrowDown,ArrowLeft"":15,""ArrowDown,ArrowRight"":23}","true","ArrowUp,ArrowRight","false","","","","","","","",""
"html-keyboard-response","40","228628","0.0-3.0-8.0-1.0","spark_pilot_2","7394","1","16","Male","","","","","","","null","<div style=""font-size:60px;"">+</div>","null","fixation","","","","","","","","","","","","","",""
"revaluation","41","234645","0.0-3.0-8.0-0.1","spark_pilot_2","7394","1","16","Male","","false","","","","","[1095.8000001907349,954.1000001430511]","./assets/img/space/7.jpg","[""ArrowDown"",""ArrowLeft""]","full practice","space","15","{""ArrowUp,ArrowLeft"":3,""ArrowUp,ArrowRight"":36,""ArrowDown,ArrowLeft"":15,""ArrowDown,ArrowRight"":23}","false","ArrowDown,ArrowLeft","false","","","","","","","",""
"html-keyboard-response","42","235156","0.0-3.0-8.0-1.1","spark_pilot_2","7394","1","16","Male","","","","","","","null","<div style=""font-size:60px;"">+</div>","null","fixation","","","","","","","","","","","","","",""
"revaluation","43","241183","0.0-3.0-8.0-0.2","spark_pilot_2","7394","1","16","Male","","false","","","","","[687.6999998092651,699.5]","./assets/img/space/8.jpg","[""ArrowUp"",""ArrowRight""]","full practice","space","36","{""ArrowUp,ArrowLeft"":3,""ArrowUp,ArrowRight"":36,""ArrowDown,ArrowLeft"":15,""ArrowDown,ArrowRight"":23}","true","ArrowUp,ArrowRight","false","","","","","","","",""
"html-keyboard-response","44","241697","0.0-3.0-8.0-1.2","spark_pilot_2","7394","1","16","Male","","","","","","","null","<div style=""font-size:60px;"">+</div>","null","fixation","","","","","","","","","","","","","",""
"revaluation","45","247730","0.0-3.0-8.0-0.3","spark_pilot_2","7394","1","16","Male","","false","","","","","[1258.5,540.5]","./assets/img/space/9.jpg","[""ArrowUp"",""ArrowRight""]","full practice","space","36","{""ArrowUp,ArrowLeft"":3,""ArrowUp,ArrowRight"":36,""ArrowDown,ArrowLeft"":15,""ArrowDown,ArrowRight"":23}","true","ArrowUp,ArrowRight","false","","","","","","","",""
"html-keyboard-response","46","248243","0.0-3.0-8.0-1.3","spark_pilot_2","7394","1","16","Male","","","","","","","null","<div style=""font-size:60px;"">+</div>","null","fixation","","","","","","","","","","","","","",""
"revaluation","47","254264","0.0-3.0-8.0-0.4","spark_pilot_2","7394","1","16","Male","","false","","","","","[1503.6999998092651,409.10000014305115]","./assets/img/space/10.jpg","[""ArrowUp"",""ArrowRight""]","full practice","space","36","{""ArrowUp,ArrowLeft"":3,""ArrowUp,ArrowRight"":36,""ArrowDown,ArrowLeft"":15,""ArrowDown,ArrowRight"":23}","true","ArrowUp,ArrowRight","false","","","","","","","",""
"html-keyboard-response","48","254765","0.0-3.0-8.0-1.4","spark_pilot_2","7394","1","16","Male","","","","","","","null","<div style=""font-size:60px;"">+</div>","null","fixation","","","","","","","","","","","","","",""
"learning-instructions","49","266898","0.0-3.0-9.0-0.0","spark_pilot_2","7394","1","16","Male","","","","","","","1800.7999999523163","<p> One last thing: sometimes, you will see a robber. The robber can be anywhere in the picture. </p>
            <p> If you do not stop them, you will lose treasure. </p>
            <img src='./assets/img/instructions/robber.jpg' class='instructions-image'>","","instructions","","","","","","","","","","","","","",""
"learning-instructions","50","274553","0.0-3.0-9.0-0.1","spark_pilot_2","7394","1","16","Male","","","","","","","476.2000000476837","<p> If you see the robber, you should <b>press the space bar</b> rather than using the arrow keys. </p>
            <p> Try practicing that now! </p>","","instructions","","","","","","","","","","","","","",""
"revaluation","51","278578","0.0-3.0-10.0-0.0","spark_pilot_2","7394","1","16","Male","","false","","","","","[690.6999998092651]","./assets/img/space/catch/0.jpg","[""spaceBar""]","catch practice","space","0","{""ArrowUp,ArrowLeft"":3,""ArrowUp,ArrowRight"":36,""ArrowDown,ArrowLeft"":15,""ArrowDown,ArrowRight"":23}","true","spaceBar","true","","","","","","","",""
"html-keyboard-response","52","279092","0.0-3.0-10.0-1.0","spark_pilot_2","7394","1","16","Male","","","","","","","null","<div style=""font-size:60px;"">+</div>","null","fixation","","","","","","","","","","","","","",""
"revaluation","53","283113","0.0-3.0-10.0-0.1","spark_pilot_2","7394","1","16","Male","","false","","","","","[695]","./assets/img/space/catch/1.jpg","[""spaceBar""]","catch practice","space","0","{""ArrowUp,ArrowLeft"":3,""ArrowUp,ArrowRight"":36,""ArrowDown,ArrowLeft"":15,""ArrowDown,ArrowRight"":23}","true","spaceBar","true","","","","","","","",""
"html-keyboard-response","54","283616","0.0-3.0-10.0-1.1","spark_pilot_2","7394","1","16","Male","","","","","","","null","<div style=""font-size:60px;"">+</div>","null","fixation","","","","","","","","","","","","","",""
"revaluation","55","287631","0.0-3.0-10.0-0.2","spark_pilot_2","7394","1","16","Male","","false","","","","","[434.59999990463257]","./assets/img/space/catch/2.jpg","[""spaceBar""]","catch practice","space","0","{""ArrowUp,ArrowLeft"":3,""ArrowUp,ArrowRight"":36,""ArrowDown,ArrowLeft"":15,""ArrowDown,ArrowRight"":23}","true","spaceBar","true","","","","","","","",""
"html-keyboard-response","56","288145","0.0-3.0-10.0-1.2","spark_pilot_2","7394","1","16","Male","","","","","","","null","<div style=""font-size:60px;"">+</div>","null","fixation","","","","","","","","","","","","","",""
"learning-instructions","57","302863","0.0-3.0-11.0-0.0","spark_pilot_2","7394","1","16","Male","","","","","","","1096.0999999046326","<p> After you explore a place to find treasure, it will be time to play a different game. </p>
            <p> During this game, red dots will appear on the screen and fall down slowly. </p>
            <p><b> You must click on them before they reach the bottom. </b></p>
            <img src='./assets/img/instructions/dotGame.jpg' class='instructions-image'>","","instructions","","","","","","","","","","","","","",""
"learning-instructions","58","310391","0.0-3.0-11.0-0.1","spark_pilot_2","7394","1","16","Male","","","","","","","745.0999999046326","<p> For every dot you click, you will earn additional treasure. </p>
            <p> Let’s try practicing that now. </p>","","instructions","","","","","","","","","","","","","",""
"revaluation","59","325404","0.0-3.0-12.0-0.0","spark_pilot_2","7394","1","16","Male","","","","","","","[64]","","","rest practice","","10","","","","","0","15000","","","","","",""
"learning-instructions","60","331785","0.0-3.0-13.0-0.0-0.0","spark_pilot_2","7394","1","16","Male","","","","","","","1109.2000000476837","<p> Now, you will practice a shortened version of the game to get a sense of how it all fits together. </p>","","instructions","","","","","","","","","","","","","",""
"learning-instructions","61","335450","0.0-3.0-13.0-0.0-0.1","spark_pilot_2","7394","1","16","Male","","","","","","","464.2000000476837","<p>This time you are searching for treasure in outer space.</p>","","instructions","","","","","","","","","","","","","",""
"learning-instructions","62","350872","0.0-3.0-13.0-1.0-0.0","spark_pilot_2","7394","1","16","Male","","","","","","","606.5999999046326","<p> Remember, when you see a picture of the place, use the up and down keys to <b>find an animal</b>.</p>
            <p> When you encounter an animal, you should use the left and right keys to <b>select a treasure chest</b>.</p>
            <p> Don't forget to look out for the robber! </p>","","instructions","","","","","","","","","","","","","",""
"revaluation","63","356910","0.0-3.0-13.0-2.0-0.0","spark_pilot_2","7394","1","16","Male","","false","","","","","[1289.6000001430511,986.0999999046326]","./assets/img/space/11.jpg","[""ArrowUp"",""ArrowRight""]","practice block","space","36","{""ArrowUp,ArrowLeft"":3,""ArrowUp,ArrowRight"":36,""ArrowDown,ArrowLeft"":15,""ArrowDown,ArrowRight"":23}","true","ArrowUp,ArrowRight","false","","","","","","","",""
"html-keyboard-response","64","357421","0.0-3.0-13.0-2.0-1.0","spark_pilot_2","7394","1","16","Male","","","","","","","null","<div style=""font-size:60px;"">+</div>","null","fixation","","","","","","","","","","","","","",""
"revaluation","65","363451","0.0-3.0-13.0-2.0-0.1","spark_pilot_2","7394","1","16","Male","","false","","","","","[485.2000000476837,397.69999980926514]","./assets/img/space/12.jpg","[""ArrowUp"",""ArrowRight""]","practice block","space","36","{""ArrowUp,ArrowLeft"":3,""ArrowUp,ArrowRight"":36,""ArrowDown,ArrowLeft"":15,""ArrowDown,ArrowRight"":23}","true","ArrowUp,ArrowRight","false","","","","","","","",""
"html-keyboard-response","66","363964","0.0-3.0-13.0-2.0-1.1","spark_pilot_2","7394","1","16","Male","","","","","","","null","<div style=""font-size:60px;"">+</div>","null","fixation","","","","","","","","","","","","","",""
"revaluation","67","369988","0.0-3.0-13.0-2.0-0.2","spark_pilot_2","7394","1","16","Male","","false","","","","","[1133.7000000476837,368.5]","./assets/img/space/13.jpg","[""ArrowUp"",""ArrowRight""]","practice block","space","36","{""ArrowUp,ArrowLeft"":3,""ArrowUp,ArrowRight"":36,""ArrowDown,ArrowLeft"":15,""ArrowDown,ArrowRight"":23}","true","ArrowUp,ArrowRight","false","","","","","","","",""
"html-keyboard-response","68","370505","0.0-3.0-13.0-2.0-1.2","spark_pilot_2","7394","1","16","Male","","","","","","","null","<div style=""font-size:60px;"">+</div>","null","fixation","","","","","","","","","","","","","",""
"revaluation","69","376536","0.0-3.0-13.0-2.0-0.3","spark_pilot_2","7394","1","16","Male","","false","","","","","[520.5,359.39999985694885]","./assets/img/space/14.jpg","[""ArrowUp"",""ArrowRight""]","practice block","space","36","{""ArrowUp,ArrowLeft"":3,""ArrowUp,ArrowRight"":36,""ArrowDown,ArrowLeft"":15,""ArrowDown,ArrowRight"":23}","true","ArrowUp,ArrowRight","false","","","","","","","",""
"html-keyboard-response","70","377050","0.0-3.0-13.0-2.0-1.3","spark_pilot_2","7394","1","16","Male","","","","","","","null","<div style=""font-size:60px;"">+</div>","null","fixation","","","","","","","","","","","","","",""
"revaluation","71","383063","0.0-3.0-13.0-2.0-0.4","spark_pilot_2","7394","1","16","Male","","false","","","","","[1056,359]","./assets/img/space/11.jpg","[""ArrowUp"",""ArrowRight""]","practice block","space","36","{""ArrowUp,ArrowLeft"":3,""ArrowUp,ArrowRight"":36,""ArrowDown,ArrowLeft"":15,""ArrowDown,ArrowRight"":23}","true","ArrowUp,ArrowRight","false","","","","","","","",""
"html-keyboard-response","72","383564","0.0-3.0-13.0-2.0-1.4","spark_pilot_2","7394","1","16","Male","","","","","","","null","<div style=""font-size:60px;"">+</div>","null","fixation","","","","","","","","","","","","","",""
"revaluation","73","389569","0.0-3.0-13.0-2.0-0.5","spark_pilot_2","7394","1","16","Male","","false","","","","","[1310.1999998092651,356.2000000476837]","./assets/img/space/12.jpg","[""ArrowUp"",""ArrowRight""]","practice block","space","36","{""ArrowUp,ArrowLeft"":3,""ArrowUp,ArrowRight"":36,""ArrowDown,ArrowLeft"":15,""ArrowDown,ArrowRight"":23}","true","ArrowUp,ArrowRight","false","","","","","","","",""
"html-keyboard-response","74","390072","0.0-3.0-13.0-2.0-1.5","spark_pilot_2","7394","1","16","Male","","","","","","","null","<div style=""font-size:60px;"">+</div>","null","fixation","","","","","","","","","","","","","",""
"revaluation","75","396078","0.0-3.0-13.0-2.0-0.6","spark_pilot_2","7394","1","16","Male","","false","","","","","[1097.2000000476837,351.7000000476837]","./assets/img/space/13.jpg","[""ArrowUp"",""ArrowRight""]","practice block","space","36","{""ArrowUp,ArrowLeft"":3,""ArrowUp,ArrowRight"":36,""ArrowDown,ArrowLeft"":15,""ArrowDown,ArrowRight"":23}","true","ArrowUp,ArrowRight","false","","","","","","","",""
"html-keyboard-response","76","396580","0.0-3.0-13.0-2.0-1.6","spark_pilot_2","7394","1","16","Male","","","","","","","null","<div style=""font-size:60px;"">+</div>","null","fixation","","","","","","","","","","","","","",""
"revaluation","77","402586","0.0-3.0-13.0-2.0-0.7","spark_pilot_2","7394","1","16","Male","","false","","","","","[598.5,564]","./assets/img/space/14.jpg","[""ArrowUp"",""ArrowRight""]","practice block","space","36","{""ArrowUp,ArrowLeft"":3,""ArrowUp,ArrowRight"":36,""ArrowDown,ArrowLeft"":15,""ArrowDown,ArrowRight"":23}","true","ArrowUp,ArrowRight","false","","","","","","","",""
"html-keyboard-response","78","403087","0.0-3.0-13.0-2.0-1.7","spark_pilot_2","7394","1","16","Male","","","","","","","null","<div style=""font-size:60px;"">+</div>","null","fixation","","","","","","","","","","","","","",""
"revaluation","79","407091","0.0-3.0-13.0-2.0-0.8","spark_pilot_2","7394","1","16","Male","","false","","","","","[778.7000000476837]","./assets/img/space/catch/3.jpg","[""spaceBar""]","practice block","space","0","{""ArrowUp,ArrowLeft"":3,""ArrowUp,ArrowRight"":36,""ArrowDown,ArrowLeft"":15,""ArrowDown,ArrowRight"":23}","true","spaceBar","true","","","","","","","",""
"html-keyboard-response","80","407592","0.0-3.0-13.0-2.0-1.8","spark_pilot_2","7394","1","16","Male","","","","","","","null","<div style=""font-size:60px;"">+</div>","null","fixation","","","","","","","","","","","","","",""
"learning-instructions","81","421498","0.0-3.0-13.0-3.0-0.0","spark_pilot_2","7394","1","16","Male","","","","","","","953.0999999046326","<p> Now, you will travel with a friend who will choose whether you go up or down first. </p>
            <p> On these turns, you will just see the animal that they found. You will still get to choose which chest to search for treasure.</p>","","instructions","","","","","","","","","","","","","",""
"revaluation","82","425515","0.0-3.0-13.0-4.0-0.0","spark_pilot_2","7394","1","16","Male","","false","","","","","[1407.8000001907349]","./assets/img/space/animals/rabbit.jpg","[""ArrowRight""]","practice block","space","23","{""ArrowUp,ArrowLeft"":3,""ArrowUp,ArrowRight"":36,""ArrowDown,ArrowLeft"":15,""ArrowDown,ArrowRight"":23}","true","ArrowDown,ArrowRight","","","","","","","","",""
"html-keyboard-response","83","426017","0.0-3.0-13.0-4.0-1.0","spark_pilot_2","7394","1","16","Male","","","","","","","null","<div style=""font-size:60px;"">+</div>","null","fixation","","","","","","","","","","","","","",""
"revaluation","84","430033","0.0-3.0-13.0-4.0-0.1","spark_pilot_2","7394","1","16","Male","","false","","","","","[864.4000000953674]","./assets/img/space/animals/rabbit.jpg","[""ArrowRight""]","practice block","space","23","{""ArrowUp,ArrowLeft"":3,""ArrowUp,ArrowRight"":36,""ArrowDown,ArrowLeft"":15,""ArrowDown,ArrowRight"":23}","true","ArrowDown,ArrowRight","","","","","","","","",""
"html-keyboard-response","85","430549","0.0-3.0-13.0-4.0-1.1","spark_pilot_2","7394","1","16","Male","","","","","","","null","<div style=""font-size:60px;"">+</div>","null","fixation","","","","","","","","","","","","","",""
"revaluation","86","434571","0.0-3.0-13.0-4.0-0.2","spark_pilot_2","7394","1","16","Male","","false","","","","","[571.5]","./assets/img/space/animals/cat.jpg","[""ArrowRight""]","practice block","space","36","{""ArrowUp,ArrowLeft"":3,""ArrowUp,ArrowRight"":36,""ArrowDown,ArrowLeft"":15,""ArrowDown,ArrowRight"":23}","true","ArrowUp,ArrowRight","","","","","","","","",""
"html-keyboard-response","87","435073","0.0-3.0-13.0-4.0-1.2","spark_pilot_2","7394","1","16","Male","","","","","","","null","<div style=""font-size:60px;"">+</div>","null","fixation","","","","","","","","","","","","","",""
"revaluation","88","439097","0.0-3.0-13.0-4.0-0.3","spark_pilot_2","7394","1","16","Male","","false","","","","","[335.40000009536743]","./assets/img/space/animals/cat.jpg","[""ArrowRight""]","practice block","space","36","{""ArrowUp,ArrowLeft"":3,""ArrowUp,ArrowRight"":36,""ArrowDown,ArrowLeft"":15,""ArrowDown,ArrowRight"":23}","true","ArrowUp,ArrowRight","","","","","","","","",""
"html-keyboard-response","89","439610","0.0-3.0-13.0-4.0-1.3","spark_pilot_2","7394","1","16","Male","","","","","","","null","<div style=""font-size:60px;"">+</div>","null","fixation","","","","","","","","","","","","","",""
"learning-instructions","90","451698","0.0-3.0-13.0-5.0-0.0","spark_pilot_2","7394","1","16","Male","","","","","","","4703.200000047684","<p> Time to play the dot game! </p>
            <p> For 15 seconds, click the red dots on the following screen as they appear. </p>","","instructions","","","","","","","","","","","","","",""
"revaluation","91","466699","0.0-3.0-13.0-6.0-0.0","spark_pilot_2","7394","1","16","Male","","","","","","","[69]","","","rest practice","","10","","","","","0","15000","","","","","",""
"learning-instructions","92","473440","0.0-3.0-13.0-7.0-0.0","spark_pilot_2","7394","1","16","Male","","","","","","","595.5","<p> You have almost finished this part of the game! </p>
            <p> We are going to ask you to make a few more choices. </p>","","instructions","","","","","","","","","","","","","",""
"learning-instructions","93","487850","0.0-3.0-13.0-7.0-0.1","spark_pilot_2","7394","1","16","Male","","","","","","","376.10000014305115","<p> First, you need to decide whether to go up or down. When you see each picture, use the arrow keys to make your choice. </p>
            <p><b>You will not see which animal you found, but try to get to the one that will give you the most treasure.</b></p>","","instructions","","","","","","","","","","","","","",""
"revaluation","94","488859","0.0-3.0-13.0-8.0","spark_pilot_2","7394","1","16","Male","","false","","","","","[1006.6000001430511]","./assets/img/space/15.jpg","[""ArrowUp""]","practice block","space","0","{""ArrowUp,ArrowLeft"":3,""ArrowUp,ArrowRight"":36,""ArrowDown,ArrowLeft"":15,""ArrowDown,ArrowRight"":23}","true","ArrowUp","false","","","","","","","",""
"html-keyboard-response","95","489370","0.0-3.0-13.0-9.0","spark_pilot_2","7394","1","16","Male","","","","","","","null","<div style=""font-size:60px;"">+</div>","null","fixation","","","","","","","","","","","","","",""
"learning-instructions","96","501164","0.0-3.0-13.0-10.0-0.0","spark_pilot_2","7394","1","16","Male","","","","","","","399.30000019073486","<p> Now you will see the animals again and can search their chests for treasure. </p>
            <p> This time, you will not see how much treasure you earned, but you will earn more bonus money for making better choices. </p>","","instructions","","","","","","","","","","","","","",""
"revaluation","97","502219","0.0-3.0-13.0-11.0-0.0","spark_pilot_2","7394","1","16","Male","","false","","","","","[1054.1999998092651]","./assets/img/space/animals/cat.jpg","[""ArrowRight""]","practice block","space","0","{""ArrowUp,ArrowLeft"":3,""ArrowUp,ArrowRight"":36,""ArrowDown,ArrowLeft"":15,""ArrowDown,ArrowRight"":23}","true","ArrowUp,ArrowRight","","","","","","","","",""
"html-keyboard-response","98","502726","0.0-3.0-13.0-11.0-1.0","spark_pilot_2","7394","1","16","Male","","","","","","","null","<div style=""font-size:60px;"">+</div>","null","fixation","","","","","","","","","","","","","",""
"revaluation","99","503379","0.0-3.0-13.0-11.0-0.1","spark_pilot_2","7394","1","16","Male","","false","","","","","[650.9000000953674]","./assets/img/space/animals/rabbit.jpg","[""ArrowRight""]","practice block","space","0","{""ArrowUp,ArrowLeft"":3,""ArrowUp,ArrowRight"":36,""ArrowDown,ArrowLeft"":15,""ArrowDown,ArrowRight"":23}","true","ArrowDown,ArrowRight","","","","","","","","",""
"html-keyboard-response","100","503894","0.0-3.0-13.0-11.0-1.1","spark_pilot_2","7394","1","16","Male","","","","","","","null","<div style=""font-size:60px;"">+</div>","null","fixation","","","","","","","","","","","","","",""
"learning-instructions","101","508862","0.0-3.0-14.0-0.0","spark_pilot_2","7394","1","16","Male","","","","","","","387.2000000476837","<p> Before you start, we're going to ask you a few questions about how the game works. </p>","","instructions","","","","","","","","","","","","","",""
"comp-q","102","515520","0.0-3.0-15.0-0.0-0.0","spark_pilot_2","7394","1","16","Male","","","","","","","1061.8999998569489","<p> <b> True or False? </b> </p>
            <p> There can be 50 pieces of treasure in a given animal's chest. </p>","1","comp_question","","","","true","","","","","","","","","",""
"comp-q","103","523535","0.0-3.0-15.0-0.0-1.0","spark_pilot_2","7394","1","16","Male","","","","","","","1340.5","<p> <b> That's right! </b> The amount of treasure in each chest can range from 0 to 40 pieces. </p>","0","comp_answer","","","","","","","","","","","","","",""
"comp-q","104","531954","0.0-3.0-15.0-0.1-0.1","spark_pilot_2","7394","1","16","Male","","","","","","","1279.7999999523163","<p> <b> True or False? </b> </p><p> In this game, all animals have the same amount of treasure in their left and right chests. </p>","1","comp_question","","","","true","","","","","","","","","",""
"comp-q","105","538853","0.0-3.0-15.0-0.1-1.1","spark_pilot_2","7394","1","16","Male","","","","","","","1659.2000000476837","<p> <b> That's right! </b> Animals have different amounts of treasure in their treasure chests. </p>","0","comp_answer","","","","","","","","","","","","","",""
"comp-q","106","547727","0.0-3.0-15.0-0.2-0.2","spark_pilot_2","7394","1","16","Male","","","","","","","3013.399999856949","<p> <b> True or False? </b> </p><p> The same animal will always be there if you go up in the same place. </p>","0","comp_question","","","","true","","","","","","","","","",""
"comp-q","107","554849","0.0-3.0-15.0-0.2-1.2","spark_pilot_2","7394","1","16","Male","","","","","","","675.2999999523163","<p> <b> That's right! </b> One animal lives in the upper part and one lives in the lower part of every place. </p>","0","comp_answer","","","","","","","","","","","","","",""
"comp-q","108","561087","0.0-3.0-15.0-0.3-0.3","spark_pilot_2","7394","1","16","Male","","","","","","","713.2000000476837","<p> <b> True or False? </b> </p><p> If you see a different picture, it means you are in a new place. </p>","1","comp_question","","","","true","","","","","","","","","",""
"comp-q","109","573025","0.0-3.0-15.0-0.3-1.3","spark_pilot_2","7394","1","16","Male","","","","","","","692.2000000476837","<p> <b> That's right! </b> Lots of different images may show the same place. For example,  you may see three different images that all remind you that you are in outer space. </p>","0","comp_answer","","","","","","","","","","","","","",""
"learning-instructions","110","584922","0.0-3.0-16.0-0.0","spark_pilot_2","7394","1","16","Male","","","","","","","2028.7000000476837","<p> Good job. Remember to do your best because the amount of treasure you earn will be converted into bonus money. </p>
            <p> It’s time to start the real game! </p>","","instructions","","","","","","","","","","","","","",""
"learning-instructions","111","588477","0.0-4.0-0.0-0.0","spark_pilot_2","7394","1","16","Male","","","","","","","844.2000000476837","<p> This time you are searching for treasure in the <b>ocean</b>.</p>","","instructions","","","","","","","","","","","","","",""
"learning-instructions","112","606281","0.0-4.0-0.0-0.1","spark_pilot_2","7394","1","16","Male","","","","","","","468.39999985694885","<p><b>New</b> animals with <b>new</b> treasure chests live here. You need to explore to discover where the animal with the best treasure chest is.</p>
                    <p> Like before, once you figure out which animal has the chest with the most treasure, you should try to get to that animal and select that chest! </p>","","instructions","","","","","","","","","","","","","",""
"learning-instructions","113","623442","0.0-4.0-1.0-0.0","spark_pilot_2","7394","1","16","Male","","","","","","","2429.2999999523163","<p> Remember, when you see a picture of the place, use the up and down keys to <b>find an animal</b>.</p>
            <p> When you encounter an animal, you should use the left and right keys to <b>select a treasure chest</b>.</p>
            <p> Don't forget to look out for the robber! </p>","","instructions","","","","","","","","","","","","","",""
"revaluation","114","627455","0.0-4.0-2.0-0.0","spark_pilot_2","7394","1","16","Male","","true","","","","","[]","./assets/img/ocean/memory/32.jpg","[]","value training","ocean","-5","{""ArrowUp,ArrowLeft"":26,""ArrowUp,ArrowRight"":10,""ArrowDown,ArrowLeft"":5,""ArrowDown,ArrowRight"":17}","false","","false","","","original","1","0","","",""
"html-keyboard-response","115","627968","0.0-4.0-2.0-1.0","spark_pilot_2","7394","1","16","Male","","","","","","","null","<div style=""font-size:60px;"">+</div>","null","fixation","","","","","","","","","","","1","","",""
"revaluation","116","633997","0.0-4.0-2.0-0.1","spark_pilot_2","7394","1","16","Male","","false","","","","","[270.40000009536743,441]","./assets/img/ocean/memory/28.jpg","[""ArrowUp"",""ArrowRight""]","value training","ocean","10","{""ArrowUp,ArrowLeft"":26,""ArrowUp,ArrowRight"":10,""ArrowDown,ArrowLeft"":5,""ArrowDown,ArrowRight"":17}","false","ArrowUp,ArrowRight","false","","","original","1","2","","",""
"html-keyboard-response","117","634508","0.0-4.0-2.0-1.1","spark_pilot_2","7394","1","16","Male","","","","","","","null","<div style=""font-size:60px;"">+</div>","null","fixation","","","","","","","","","","","3","","",""
"revaluation","118","640535","0.0-4.0-2.0-0.2","spark_pilot_2","7394","1","16","Male","","false","","","","","[123.20000004768372,486.5]","./assets/img/ocean/memory/1.jpg","[""ArrowDown"",""ArrowRight""]","value training","ocean","17","{""ArrowUp,ArrowLeft"":26,""ArrowUp,ArrowRight"":10,""ArrowDown,ArrowLeft"":5,""ArrowDown,ArrowRight"":17}","false","ArrowDown,ArrowRight","false","","","original","1","4","","",""
"html-keyboard-response","119","641038","0.0-4.0-2.0-1.2","spark_pilot_2","7394","1","16","Male","","","","","","","null","<div style=""font-size:60px;"">+</div>","null","fixation","","","","","","","","","","","5","","",""
"revaluation","120","647056","0.0-4.0-2.0-0.3","spark_pilot_2","7394","1","16","Male","","false","","","","","[368.5,686.9000000953674]","./assets/img/ocean/memory/41.jpg","[""ArrowDown"",""ArrowLeft""]","value training","ocean","5","{""ArrowUp,ArrowLeft"":26,""ArrowUp,ArrowRight"":10,""ArrowDown,ArrowLeft"":5,""ArrowDown,ArrowRight"":17}","false","ArrowDown,ArrowLeft","false","","","original","1","6","","",""
"html-keyboard-response","121","647558","0.0-4.0-2.0-1.3","spark_pilot_2","7394","1","16","Male","","","","","","","null","<div style=""font-size:60px;"">+</div>","null","fixation","","","","","","","","","","","7","","",""
"revaluation","122","653593","0.0-4.0-2.0-0.4","spark_pilot_2","7394","1","16","Male","","false","","","","","[73.09999990463257,321.60000014305115]","./assets/img/ocean/memory/12.jpg","[""ArrowUp"",""ArrowLeft""]","value training","ocean","26","{""ArrowUp,ArrowLeft"":26,""ArrowUp,ArrowRight"":10,""ArrowDown,ArrowLeft"":5,""ArrowDown,ArrowRight"":17}","true","ArrowUp,ArrowLeft","false","","","original","1","8","","",""
"html-keyboard-response","123","654095","0.0-4.0-2.0-1.4","spark_pilot_2","7394","1","16","Male","","","","","","","null","<div style=""font-size:60px;"">+</div>","null","fixation","","","","","","","","","","","9","","",""
"revaluation","124","658100","0.0-4.0-2.0-0.5","spark_pilot_2","7394","1","16","Male","","false","","","","","[472.19999980926514]","./assets/img/ocean/catch/5.jpg","[""ArrowUp""]","value training","ocean","-10","{""ArrowUp,ArrowLeft"":26,""ArrowUp,ArrowRight"":10,""ArrowDown,ArrowLeft"":5,""ArrowDown,ArrowRight"":17}","false","ArrowUp","true","","","original","1","10","","",""
"html-keyboard-response","125","658602","0.0-4.0-2.0-1.5","spark_pilot_2","7394","1","16","Male","","","","","","","null","<div style=""font-size:60px;"">+</div>","null","fixation","","","","","","","","","","","11","","",""
"revaluation","126","664608","0.0-4.0-2.0-0.6","spark_pilot_2","7394","1","16","Male","","false","","","","","[477,402.80000019073486]","./assets/img/ocean/memory/23.jpg","[""ArrowUp"",""ArrowLeft""]","value training","ocean","26","{""ArrowUp,ArrowLeft"":26,""ArrowUp,ArrowRight"":10,""ArrowDown,ArrowLeft"":5,""ArrowDown,ArrowRight"":17}","true","ArrowUp,ArrowLeft","false","","","original","1","12","","",""
"html-keyboard-response","127","665109","0.0-4.0-2.0-1.6","spark_pilot_2","7394","1","16","Male","","","","","","","null","<div style=""font-size:60px;"">+</div>","null","fixation","","","","","","","","","","","13","","",""
"revaluation","128","671114","0.0-4.0-2.0-0.7","spark_pilot_2","7394","1","16","Male","","false","","","","","[401.5,376.2999999523163]","./assets/img/ocean/memory/12.jpg","[""ArrowUp"",""ArrowLeft""]","value training","ocean","26","{""ArrowUp,ArrowLeft"":26,""ArrowUp,ArrowRight"":10,""ArrowDown,ArrowLeft"":5,""ArrowDown,ArrowRight"":17}","true","ArrowUp,ArrowLeft","false","","","original","1","14","","",""
"html-keyboard-response","129","671616","0.0-4.0-2.0-1.7","spark_pilot_2","7394","1","16","Male","","","","","","","null","<div style=""font-size:60px;"">+</div>","null","fixation","","","","","","","","","","","15","","",""
"revaluation","130","677622","0.0-4.0-2.0-0.8","spark_pilot_2","7394","1","16","Male","","false","","","","","[510.60000014305115,382.09999990463257]","./assets/img/ocean/memory/7.jpg","[""ArrowUp"",""ArrowLeft""]","value training","ocean","26","{""ArrowUp,ArrowLeft"":26,""ArrowUp,ArrowRight"":10,""ArrowDown,ArrowLeft"":5,""ArrowDown,ArrowRight"":17}","true","ArrowUp,ArrowLeft","false","","","original","1","16","","",""
"html-keyboard-response","131","678123","0.0-4.0-2.0-1.8","spark_pilot_2","7394","1","16","Male","","","","","","","null","<div style=""font-size:60px;"">+</div>","null","fixation","","","","","","","","","","","17","","",""
"revaluation","132","684128","0.0-4.0-2.0-0.9","spark_pilot_2","7394","1","16","Male","","false","","","","","[331.2000000476837,426.10000014305115]","./assets/img/ocean/memory/27.jpg","[""ArrowUp"",""ArrowLeft""]","value training","ocean","26","{""ArrowUp,ArrowLeft"":26,""ArrowUp,ArrowRight"":10,""ArrowDown,ArrowLeft"":5,""ArrowDown,ArrowRight"":17}","true","ArrowUp,ArrowLeft","false","","","original","1","18","","",""
"html-keyboard-response","133","684630","0.0-4.0-2.0-1.9","spark_pilot_2","7394","1","16","Male","","","","","","","null","<div style=""font-size:60px;"">+</div>","null","fixation","","","","","","","","","","","19","","",""
"revaluation","134","690636","0.0-4.0-2.0-0.10","spark_pilot_2","7394","1","16","Male","","false","","","","","[512.9000000953674,391.59999990463257]","./assets/img/ocean/memory/33.jpg","[""ArrowUp"",""ArrowLeft""]","value training","ocean","26","{""ArrowUp,ArrowLeft"":26,""ArrowUp,ArrowRight"":10,""ArrowDown,ArrowLeft"":5,""ArrowDown,ArrowRight"":17}","true","ArrowUp,ArrowLeft","false","","","original","1","20","","",""
"html-keyboard-response","135","691137","0.0-4.0-2.0-1.10","spark_pilot_2","7394","1","16","Male","","","","","","","null","<div style=""font-size:60px;"">+</div>","null","fixation","","","","","","","","","","","21","","",""
"revaluation","136","697145","0.0-4.0-2.0-0.11","spark_pilot_2","7394","1","16","Male","","false","","","","","[372.7000000476837,410.7000000476837]","./assets/img/ocean/memory/1.jpg","[""ArrowUp"",""ArrowLeft""]","value training","ocean","26","{""ArrowUp,ArrowLeft"":26,""ArrowUp,ArrowRight"":10,""ArrowDown,ArrowLeft"":5,""ArrowDown,ArrowRight"":17}","true","ArrowUp,ArrowLeft","false","","","original","1","22","","",""
"html-keyboard-response","137","697648","0.0-4.0-2.0-1.11","spark_pilot_2","7394","1","16","Male","","","","","","","null","<div style=""font-size:60px;"">+</div>","null","fixation","","","","","","","","","","","23","","",""
"revaluation","138","703665","0.0-4.0-2.0-0.12","spark_pilot_2","7394","1","16","Male","","false","","","","","[743.2999999523163,410.19999980926514]","./assets/img/ocean/memory/6.jpg","[""ArrowUp"",""ArrowLeft""]","value training","ocean","26","{""ArrowUp,ArrowLeft"":26,""ArrowUp,ArrowRight"":10,""ArrowDown,ArrowLeft"":5,""ArrowDown,ArrowRight"":17}","true","ArrowUp,ArrowLeft","false","","","original","1","24","","",""
"html-keyboard-response","139","704168","0.0-4.0-2.0-1.12","spark_pilot_2","7394","1","16","Male","","","","","","","null","<div style=""font-size:60px;"">+</div>","null","fixation","","","","","","","","","","","25","","",""
"revaluation","140","710179","0.0-4.0-2.0-0.13","spark_pilot_2","7394","1","16","Male","","false","","","","","[678.0999999046326,736]","./assets/img/ocean/memory/2.jpg","[""ArrowUp"",""ArrowLeft""]","value training","ocean","26","{""ArrowUp,ArrowLeft"":26,""ArrowUp,ArrowRight"":10,""ArrowDown,ArrowLeft"":5,""ArrowDown,ArrowRight"":17}","true","ArrowUp,ArrowLeft","false","","","original","1","26","","",""
"html-keyboard-response","141","710681","0.0-4.0-2.0-1.13","spark_pilot_2","7394","1","16","Male","","","","","","","null","<div style=""font-size:60px;"">+</div>","null","fixation","","","","","","","","","","","27","","",""
"revaluation","142","714689","0.0-4.0-2.0-0.14","spark_pilot_2","7394","1","16","Male","","false","","","","","[1170.7999999523163]","./assets/img/ocean/catch/4.jpg","[""spaceBar""]","value training","ocean","0","{""ArrowUp,ArrowLeft"":26,""ArrowUp,ArrowRight"":10,""ArrowDown,ArrowLeft"":5,""ArrowDown,ArrowRight"":17}","true","spaceBar","true","","","original","1","28","","",""
"html-keyboard-response","143","715191","0.0-4.0-2.0-1.14","spark_pilot_2","7394","1","16","Male","","","","","","","null","<div style=""font-size:60px;"">+</div>","null","fixation","","","","","","","","","","","29","","",""
"revaluation","144","721195","0.0-4.0-2.0-0.15","spark_pilot_2","7394","1","16","Male","","false","","","","","[719.7999999523163,454.39999985694885]","./assets/img/ocean/memory/39.jpg","[""ArrowUp"",""ArrowLeft""]","value training","ocean","26","{""ArrowUp,ArrowLeft"":26,""ArrowUp,ArrowRight"":10,""ArrowDown,ArrowLeft"":5,""ArrowDown,ArrowRight"":17}","true","ArrowUp,ArrowLeft","false","","","original","1","30","","",""
"html-keyboard-response","145","721697","0.0-4.0-2.0-1.15","spark_pilot_2","7394","1","16","Male","","","","","","","null","<div style=""font-size:60px;"">+</div>","null","fixation","","","","","","","","","","","31","","",""
"revaluation","146","727704","0.0-4.0-2.0-0.16","spark_pilot_2","7394","1","16","Male","","false","","","","","[684.6000001430511,403.09999990463257]","./assets/img/ocean/memory/36.jpg","[""ArrowUp"",""ArrowLeft""]","value training","ocean","26","{""ArrowUp,ArrowLeft"":26,""ArrowUp,ArrowRight"":10,""ArrowDown,ArrowLeft"":5,""ArrowDown,ArrowRight"":17}","true","ArrowUp,ArrowLeft","false","","","original","1","32","","",""
"html-keyboard-response","147","728206","0.0-4.0-2.0-1.16","spark_pilot_2","7394","1","16","Male","","","","","","","null","<div style=""font-size:60px;"">+</div>","null","fixation","","","","","","","","","","","33","","",""
"revaluation","148","734211","0.0-4.0-2.0-0.17","spark_pilot_2","7394","1","16","Male","","false","","","","","[792.2000000476837,528.2000000476837]","./assets/img/ocean/memory/36.jpg","[""ArrowUp"",""ArrowLeft""]","value training","ocean","26","{""ArrowUp,ArrowLeft"":26,""ArrowUp,ArrowRight"":10,""ArrowDown,ArrowLeft"":5,""ArrowDown,ArrowRight"":17}","true","ArrowUp,ArrowLeft","false","","","original","1","34","","",""
"html-keyboard-response","149","734712","0.0-4.0-2.0-1.17","spark_pilot_2","7394","1","16","Male","","","","","","","null","<div style=""font-size:60px;"">+</div>","null","fixation","","","","","","","","","","","35","","",""
"revaluation","150","740717","0.0-4.0-2.0-0.18","spark_pilot_2","7394","1","16","Male","","false","","","","","[446.10000014305115,372.90000009536743]","./assets/img/ocean/memory/33.jpg","[""ArrowUp"",""ArrowLeft""]","value training","ocean","26","{""ArrowUp,ArrowLeft"":26,""ArrowUp,ArrowRight"":10,""ArrowDown,ArrowLeft"":5,""ArrowDown,ArrowRight"":17}","true","ArrowUp,ArrowLeft","false","","","original","1","36","","",""
"html-keyboard-response","151","741217","0.0-4.0-2.0-1.18","spark_pilot_2","7394","1","16","Male","","","","","","","null","<div style=""font-size:60px;"">+</div>","null","fixation","","","","","","","","","","","37","","",""
"revaluation","152","747221","0.0-4.0-2.0-0.19","spark_pilot_2","7394","1","16","Male","","false","","","","","[773,324.7999999523163]","./assets/img/ocean/memory/16.jpg","[""ArrowUp"",""ArrowRight""]","value training","ocean","10","{""ArrowUp,ArrowLeft"":26,""ArrowUp,ArrowRight"":10,""ArrowDown,ArrowLeft"":5,""ArrowDown,ArrowRight"":17}","false","ArrowUp,ArrowRight","false","","","original","1","38","","",""
"html-keyboard-response","153","747723","0.0-4.0-2.0-1.19","spark_pilot_2","7394","1","16","Male","","","","","","","null","<div style=""font-size:60px;"">+</div>","null","fixation","","","","","","","","","","","39","","",""
"revaluation","154","753726","0.0-4.0-2.0-0.20","spark_pilot_2","7394","1","16","Male","","false","","","","","[891,1034.2999999523163]","./assets/img/ocean/memory/3.jpg","[""ArrowUp"",""ArrowLeft""]","value training","ocean","26","{""ArrowUp,ArrowLeft"":26,""ArrowUp,ArrowRight"":10,""ArrowDown,ArrowLeft"":5,""ArrowDown,ArrowRight"":17}","true","ArrowUp,ArrowLeft","false","","","original","1","40","","",""
"html-keyboard-response","155","754228","0.0-4.0-2.0-1.20","spark_pilot_2","7394","1","16","Male","","","","","","","null","<div style=""font-size:60px;"">+</div>","null","fixation","","","","","","","","","","","41","","",""
"revaluation","156","760233","0.0-4.0-2.0-0.21","spark_pilot_2","7394","1","16","Male","","false","","","","","[961,704.1000001430511]","./assets/img/ocean/memory/38.jpg","[""ArrowUp"",""ArrowLeft""]","value training","ocean","26","{""ArrowUp,ArrowLeft"":26,""ArrowUp,ArrowRight"":10,""ArrowDown,ArrowLeft"":5,""ArrowDown,ArrowRight"":17}","true","ArrowUp,ArrowLeft","false","","","original","1","42","","",""
"html-keyboard-response","157","760736","0.0-4.0-2.0-1.21","spark_pilot_2","7394","1","16","Male","","","","","","","null","<div style=""font-size:60px;"">+</div>","null","fixation","","","","","","","","","","","43","","",""
"revaluation","158","764740","0.0-4.0-2.0-0.22","spark_pilot_2","7394","1","16","Male","","false","","","","","[805.0999999046326]","./assets/img/ocean/catch/6.jpg","[""spaceBar""]","value training","ocean","0","{""ArrowUp,ArrowLeft"":26,""ArrowUp,ArrowRight"":10,""ArrowDown,ArrowLeft"":5,""ArrowDown,ArrowRight"":17}","true","spaceBar","true","","","original","1","44","","",""
"html-keyboard-response","159","765242","0.0-4.0-2.0-1.22","spark_pilot_2","7394","1","16","Male","","","","","","","null","<div style=""font-size:60px;"">+</div>","null","fixation","","","","","","","","","","","45","","",""
"revaluation","160","769246","0.0-4.0-2.0-0.23","spark_pilot_2","7394","1","16","Male","","false","","","","","[611.5]","./assets/img/ocean/catch/2.jpg","[""spaceBar""]","value training","ocean","0","{""ArrowUp,ArrowLeft"":26,""ArrowUp,ArrowRight"":10,""ArrowDown,ArrowLeft"":5,""ArrowDown,ArrowRight"":17}","true","spaceBar","true","","","original","1","46","","",""
"html-keyboard-response","161","769747","0.0-4.0-2.0-1.23","spark_pilot_2","7394","1","16","Male","","","","","","","null","<div style=""font-size:60px;"">+</div>","null","fixation","","","","","","","","","","","47","","",""
"revaluation","162","775754","0.0-4.0-2.0-0.24","spark_pilot_2","7394","1","16","Male","","false","","","","","[641.6999998092651,600.4000000953674]","./assets/img/ocean/memory/3.jpg","[""ArrowUp"",""ArrowLeft""]","value training","ocean","26","{""ArrowUp,ArrowLeft"":26,""ArrowUp,ArrowRight"":10,""ArrowDown,ArrowLeft"":5,""ArrowDown,ArrowRight"":17}","true","ArrowUp,ArrowLeft","false","","","original","1","48","","",""
"html-keyboard-response","163","776256","0.0-4.0-2.0-1.24","spark_pilot_2","7394","1","16","Male","","","","","","","null","<div style=""font-size:60px;"">+</div>","null","fixation","","","","","","","","","","","49","","",""
"revaluation","164","782264","0.0-4.0-2.0-0.25","spark_pilot_2","7394","1","16","Male","","false","","","","","[492.59999990463257,426.90000009536743]","./assets/img/ocean/memory/17.jpg","[""ArrowUp"",""ArrowLeft""]","value training","ocean","26","{""ArrowUp,ArrowLeft"":26,""ArrowUp,ArrowRight"":10,""ArrowDown,ArrowLeft"":5,""ArrowDown,ArrowRight"":17}","true","ArrowUp,ArrowLeft","false","","","original","1","50","","",""
"html-keyboard-response","165","782766","0.0-4.0-2.0-1.25","spark_pilot_2","7394","1","16","Male","","","","","","","null","<div style=""font-size:60px;"">+</div>","null","fixation","","","","","","","","","","","51","","",""
"revaluation","166","788772","0.0-4.0-2.0-0.26","spark_pilot_2","7394","1","16","Male","","false","","","","","[822.7999999523163,734.2999999523163]","./assets/img/ocean/memory/4.jpg","[""ArrowUp"",""ArrowLeft""]","value training","ocean","26","{""ArrowUp,ArrowLeft"":26,""ArrowUp,ArrowRight"":10,""ArrowDown,ArrowLeft"":5,""ArrowDown,ArrowRight"":17}","true","ArrowUp,ArrowLeft","false","","","original","1","52","","",""
"html-keyboard-response","167","789274","0.0-4.0-2.0-1.26","spark_pilot_2","7394","1","16","Male","","","","","","","null","<div style=""font-size:60px;"">+</div>","null","fixation","","","","","","","","","","","53","","",""
"revaluation","168","795279","0.0-4.0-2.0-0.27","spark_pilot_2","7394","1","16","Male","","false","","","","","[659,594.4000000953674]","./assets/img/ocean/memory/7.jpg","[""ArrowUp"",""ArrowLeft""]","value training","ocean","26","{""ArrowUp,ArrowLeft"":26,""ArrowUp,ArrowRight"":10,""ArrowDown,ArrowLeft"":5,""ArrowDown,ArrowRight"":17}","true","ArrowUp,ArrowLeft","false","","","original","1","54","","",""
"html-keyboard-response","169","795781","0.0-4.0-2.0-1.27","spark_pilot_2","7394","1","16","Male","","","","","","","null","<div style=""font-size:60px;"">+</div>","null","fixation","","","","","","","","","","","55","","",""
"revaluation","170","801785","0.0-4.0-2.0-0.28","spark_pilot_2","7394","1","16","Male","","false","","","","","[712.7000000476837,495.2000000476837]","./assets/img/ocean/memory/40.jpg","[""ArrowUp"",""ArrowLeft""]","value training","ocean","26","{""ArrowUp,ArrowLeft"":26,""ArrowUp,ArrowRight"":10,""ArrowDown,ArrowLeft"":5,""ArrowDown,ArrowRight"":17}","true","ArrowUp,ArrowLeft","false","","","original","1","56","","",""
"html-keyboard-response","171","802285","0.0-4.0-2.0-1.28","spark_pilot_2","7394","1","16","Male","","","","","","","null","<div style=""font-size:60px;"">+</div>","null","fixation","","","","","","","","","","","57","","",""
"revaluation","172","808291","0.0-4.0-2.0-0.29","spark_pilot_2","7394","1","16","Male","","false","","","","","[751.2999999523163,638.2000000476837]","./assets/img/ocean/memory/41.jpg","[""ArrowUp"",""ArrowLeft""]","value training","ocean","26","{""ArrowUp,ArrowLeft"":26,""ArrowUp,ArrowRight"":10,""ArrowDown,ArrowLeft"":5,""ArrowDown,ArrowRight"":17}","true","ArrowUp,ArrowLeft","false","","","original","1","58","","",""
"html-keyboard-response","173","808792","0.0-4.0-2.0-1.29","spark_pilot_2","7394","1","16","Male","","","","","","","null","<div style=""font-size:60px;"">+</div>","null","fixation","","","","","","","","","","","59","","",""
"revaluation","174","814796","0.0-4.0-2.0-0.30","spark_pilot_2","7394","1","16","Male","","false","","","","","[781.5999999046326,765]","./assets/img/ocean/memory/8.jpg","[""ArrowUp"",""ArrowLeft""]","value training","ocean","26","{""ArrowUp,ArrowLeft"":26,""ArrowUp,ArrowRight"":10,""ArrowDown,ArrowLeft"":5,""ArrowDown,ArrowRight"":17}","true","ArrowUp,ArrowLeft","false","","","original","1","60","","",""
"html-keyboard-response","175","815297","0.0-4.0-2.0-1.30","spark_pilot_2","7394","1","16","Male","","","","","","","null","<div style=""font-size:60px;"">+</div>","null","fixation","","","","","","","","","","","61","","",""
"revaluation","176","821303","0.0-4.0-2.0-0.31","spark_pilot_2","7394","1","16","Male","","false","","","","","[667.5,538.2999999523163]","./assets/img/ocean/memory/16.jpg","[""ArrowUp"",""ArrowLeft""]","value training","ocean","26","{""ArrowUp,ArrowLeft"":26,""ArrowUp,ArrowRight"":10,""ArrowDown,ArrowLeft"":5,""ArrowDown,ArrowRight"":17}","true","ArrowUp,ArrowLeft","false","","","original","1","62","","",""
"html-keyboard-response","177","821805","0.0-4.0-2.0-1.31","spark_pilot_2","7394","1","16","Male","","","","","","","null","<div style=""font-size:60px;"">+</div>","null","fixation","","","","","","","","","","","63","","",""
"revaluation","178","827811","0.0-4.0-2.0-0.32","spark_pilot_2","7394","1","16","Male","","false","","","","","[544.3000001907349,615.1000001430511]","./assets/img/ocean/memory/23.jpg","[""ArrowUp"",""ArrowLeft""]","value training","ocean","26","{""ArrowUp,ArrowLeft"":26,""ArrowUp,ArrowRight"":10,""ArrowDown,ArrowLeft"":5,""ArrowDown,ArrowRight"":17}","true","ArrowUp,ArrowLeft","false","","","original","1","64","","",""
"html-keyboard-response","179","828313","0.0-4.0-2.0-1.32","spark_pilot_2","7394","1","16","Male","","","","","","","null","<div style=""font-size:60px;"">+</div>","null","fixation","","","","","","","","","","","65","","",""
"revaluation","180","834318","0.0-4.0-2.0-0.33","spark_pilot_2","7394","1","16","Male","","false","","","","","[636.1000001430511,452]","./assets/img/ocean/memory/38.jpg","[""ArrowUp"",""ArrowLeft""]","value training","ocean","26","{""ArrowUp,ArrowLeft"":26,""ArrowUp,ArrowRight"":10,""ArrowDown,ArrowLeft"":5,""ArrowDown,ArrowRight"":17}","true","ArrowUp,ArrowLeft","false","","","original","1","66","","",""
"html-keyboard-response","181","834820","0.0-4.0-2.0-1.33","spark_pilot_2","7394","1","16","Male","","","","","","","null","<div style=""font-size:60px;"">+</div>","null","fixation","","","","","","","","","","","67","","",""
"revaluation","182","840825","0.0-4.0-2.0-0.34","spark_pilot_2","7394","1","16","Male","","false","","","","","[729.5,520.3000001907349]","./assets/img/ocean/memory/31.jpg","[""ArrowUp"",""ArrowLeft""]","value training","ocean","26","{""ArrowUp,ArrowLeft"":26,""ArrowUp,ArrowRight"":10,""ArrowDown,ArrowLeft"":5,""ArrowDown,ArrowRight"":17}","true","ArrowUp,ArrowLeft","false","","","original","1","68","","",""
"html-keyboard-response","183","841327","0.0-4.0-2.0-1.34","spark_pilot_2","7394","1","16","Male","","","","","","","null","<div style=""font-size:60px;"">+</div>","null","fixation","","","","","","","","","","","69","","",""
"revaluation","184","847333","0.0-4.0-2.0-0.35","spark_pilot_2","7394","1","16","Male","","false","","","","","[597.5,428.60000014305115]","./assets/img/ocean/memory/40.jpg","[""ArrowUp"",""ArrowLeft""]","value training","ocean","26","{""ArrowUp,ArrowLeft"":26,""ArrowUp,ArrowRight"":10,""ArrowDown,ArrowLeft"":5,""ArrowDown,ArrowRight"":17}","true","ArrowUp,ArrowLeft","false","","","original","1","70","","",""
"html-keyboard-response","185","847836","0.0-4.0-2.0-1.35","spark_pilot_2","7394","1","16","Male","","","","","","","null","<div style=""font-size:60px;"">+</div>","null","fixation","","","","","","","","","","","71","","",""
"revaluation","186","851841","0.0-4.0-2.0-0.36","spark_pilot_2","7394","1","16","Male","","false","","","","","[1001]","./assets/img/ocean/catch/7.jpg","[""spaceBar""]","value training","ocean","0","{""ArrowUp,ArrowLeft"":26,""ArrowUp,ArrowRight"":10,""ArrowDown,ArrowLeft"":5,""ArrowDown,ArrowRight"":17}","true","spaceBar","true","","","original","1","72","","",""
"html-keyboard-response","187","852348","0.0-4.0-2.0-1.36","spark_pilot_2","7394","1","16","Male","","","","","","","null","<div style=""font-size:60px;"">+</div>","null","fixation","","","","","","","","","","","73","","",""
"revaluation","188","858353","0.0-4.0-2.0-0.37","spark_pilot_2","7394","1","16","Male","","false","","","","","[960.5999999046326,744.2999999523163]","./assets/img/ocean/memory/2.jpg","[""ArrowUp"",""ArrowLeft""]","value training","ocean","26","{""ArrowUp,ArrowLeft"":26,""ArrowUp,ArrowRight"":10,""ArrowDown,ArrowLeft"":5,""ArrowDown,ArrowRight"":17}","true","ArrowUp,ArrowLeft","false","","","original","1","74","","",""
"html-keyboard-response","189","858854","0.0-4.0-2.0-1.37","spark_pilot_2","7394","1","16","Male","","","","","","","null","<div style=""font-size:60px;"">+</div>","null","fixation","","","","","","","","","","","75","","",""
"revaluation","190","864858","0.0-4.0-2.0-0.38","spark_pilot_2","7394","1","16","Male","","false","","","","","[607.2999999523163,494.69999980926514]","./assets/img/ocean/memory/4.jpg","[""ArrowUp"",""ArrowLeft""]","value training","ocean","26","{""ArrowUp,ArrowLeft"":26,""ArrowUp,ArrowRight"":10,""ArrowDown,ArrowLeft"":5,""ArrowDown,ArrowRight"":17}","true","ArrowUp,ArrowLeft","false","","","original","1","76","","",""
"html-keyboard-response","191","865360","0.0-4.0-2.0-1.38","spark_pilot_2","7394","1","16","Male","","","","","","","null","<div style=""font-size:60px;"">+</div>","null","fixation","","","","","","","","","","","77","","",""
"revaluation","192","871366","0.0-4.0-2.0-0.39","spark_pilot_2","7394","1","16","Male","","false","","","","","[772.5999999046326,675.7999999523163]","./assets/img/ocean/memory/31.jpg","[""ArrowUp"",""ArrowLeft""]","value training","ocean","26","{""ArrowUp,ArrowLeft"":26,""ArrowUp,ArrowRight"":10,""ArrowDown,ArrowLeft"":5,""ArrowDown,ArrowRight"":17}","true","ArrowUp,ArrowLeft","false","","","original","1","78","","",""
"html-keyboard-response","193","871868","0.0-4.0-2.0-1.39","spark_pilot_2","7394","1","16","Male","","","","","","","null","<div style=""font-size:60px;"">+</div>","null","fixation","","","","","","","","","","","79","","",""
"revaluation","194","877874","0.0-4.0-2.0-0.40","spark_pilot_2","7394","1","16","Male","","false","","","","","[640.7000000476837,671.3000001907349]","./assets/img/ocean/memory/8.jpg","[""ArrowUp"",""ArrowLeft""]","value training","ocean","26","{""ArrowUp,ArrowLeft"":26,""ArrowUp,ArrowRight"":10,""ArrowDown,ArrowLeft"":5,""ArrowDown,ArrowRight"":17}","true","ArrowUp,ArrowLeft","false","","","original","1","80","","",""
"html-keyboard-response","195","878375","0.0-4.0-2.0-1.40","spark_pilot_2","7394","1","16","Male","","","","","","","null","<div style=""font-size:60px;"">+</div>","null","fixation","","","","","","","","","","","81","","",""
"revaluation","196","884381","0.0-4.0-2.0-0.41","spark_pilot_2","7394","1","16","Male","","false","","","","","[997,443.59999990463257]","./assets/img/ocean/memory/32.jpg","[""ArrowUp"",""ArrowLeft""]","value training","ocean","26","{""ArrowUp,ArrowLeft"":26,""ArrowUp,ArrowRight"":10,""ArrowDown,ArrowLeft"":5,""ArrowDown,ArrowRight"":17}","true","ArrowUp,ArrowLeft","false","","","original","1","82","","",""
"html-keyboard-response","197","884882","0.0-4.0-2.0-1.41","spark_pilot_2","7394","1","16","Male","","","","","","","null","<div style=""font-size:60px;"">+</div>","null","fixation","","","","","","","","","","","83","","",""
"revaluation","198","888885","0.0-4.0-2.0-0.42","spark_pilot_2","7394","1","16","Male","","false","","","","","[882.7000000476837]","./assets/img/ocean/catch/1.jpg","[""spaceBar""]","value training","ocean","0","{""ArrowUp,ArrowLeft"":26,""ArrowUp,ArrowRight"":10,""ArrowDown,ArrowLeft"":5,""ArrowDown,ArrowRight"":17}","true","spaceBar","true","","","original","1","84","","",""
"html-keyboard-response","199","889386","0.0-4.0-2.0-1.42","spark_pilot_2","7394","1","16","Male","","","","","","","null","<div style=""font-size:60px;"">+</div>","null","fixation","","","","","","","","","","","85","","",""
"revaluation","200","895390","0.0-4.0-2.0-0.43","spark_pilot_2","7394","1","16","Male","","false","","","","","[681.7000000476837,1233.3999998569489]","./assets/img/ocean/memory/39.jpg","[""ArrowUp"",""ArrowLeft""]","value training","ocean","26","{""ArrowUp,ArrowLeft"":26,""ArrowUp,ArrowRight"":10,""ArrowDown,ArrowLeft"":5,""ArrowDown,ArrowRight"":17}","true","ArrowUp,ArrowLeft","false","","","original","1","86","","",""
"html-keyboard-response","201","895891","0.0-4.0-2.0-1.43","spark_pilot_2","7394","1","16","Male","","","","","","","null","<div style=""font-size:60px;"">+</div>","null","fixation","","","","","","","","","","","87","","",""
"revaluation","202","899897","0.0-4.0-2.0-0.44","spark_pilot_2","7394","1","16","Male","","false","","","","","[753.8000001907349]","./assets/img/ocean/catch/3.jpg","[""spaceBar""]","value training","ocean","0","{""ArrowUp,ArrowLeft"":26,""ArrowUp,ArrowRight"":10,""ArrowDown,ArrowLeft"":5,""ArrowDown,ArrowRight"":17}","true","spaceBar","true","","","original","1","88","","",""
"html-keyboard-response","203","900400","0.0-4.0-2.0-1.44","spark_pilot_2","7394","1","16","Male","","","","","","","null","<div style=""font-size:60px;"">+</div>","null","fixation","","","","","","","","","","","89","","",""
"revaluation","204","906406","0.0-4.0-2.0-0.45","spark_pilot_2","7394","1","16","Male","","false","","","","","[628,514.0999999046326]","./assets/img/ocean/memory/27.jpg","[""ArrowUp"",""ArrowLeft""]","value training","ocean","26","{""ArrowUp,ArrowLeft"":26,""ArrowUp,ArrowRight"":10,""ArrowDown,ArrowLeft"":5,""ArrowDown,ArrowRight"":17}","true","ArrowUp,ArrowLeft","false","","","original","1","90","","",""
"html-keyboard-response","205","906912","0.0-4.0-2.0-1.45","spark_pilot_2","7394","1","16","Male","","","","","","","null","<div style=""font-size:60px;"">+</div>","null","fixation","","","","","","","","","","","91","","",""
"revaluation","206","910917","0.0-4.0-2.0-0.46","spark_pilot_2","7394","1","16","Male","","false","","","","","[644.4000000953674]","./assets/img/ocean/catch/0.jpg","[""spaceBar""]","value training","ocean","0","{""ArrowUp,ArrowLeft"":26,""ArrowUp,ArrowRight"":10,""ArrowDown,ArrowLeft"":5,""ArrowDown,ArrowRight"":17}","true","spaceBar","true","","","original","1","92","","",""
"html-keyboard-response","207","911419","0.0-4.0-2.0-1.46","spark_pilot_2","7394","1","16","Male","","","","","","","null","<div style=""font-size:60px;"">+</div>","null","fixation","","","","","","","","","","","93","","",""
"revaluation","208","917425","0.0-4.0-2.0-0.47","spark_pilot_2","7394","1","16","Male","","false","","","","","[585,568.2000000476837]","./assets/img/ocean/memory/17.jpg","[""ArrowUp"",""ArrowLeft""]","value training","ocean","26","{""ArrowUp,ArrowLeft"":26,""ArrowUp,ArrowRight"":10,""ArrowDown,ArrowLeft"":5,""ArrowDown,ArrowRight"":17}","true","ArrowUp,ArrowLeft","false","","","original","1","94","","",""
"html-keyboard-response","209","917926","0.0-4.0-2.0-1.47","spark_pilot_2","7394","1","16","Male","","","","","","","null","<div style=""font-size:60px;"">+</div>","null","fixation","","","","","","","","","","","95","","",""
"revaluation","210","923932","0.0-4.0-2.0-0.48","spark_pilot_2","7394","1","16","Male","","false","","","","","[542.1000001430511,731.9000000953674]","./assets/img/ocean/memory/6.jpg","[""ArrowUp"",""ArrowLeft""]","value training","ocean","26","{""ArrowUp,ArrowLeft"":26,""ArrowUp,ArrowRight"":10,""ArrowDown,ArrowLeft"":5,""ArrowDown,ArrowRight"":17}","true","ArrowUp,ArrowLeft","false","","","original","1","96","","",""
"html-keyboard-response","211","924434","0.0-4.0-2.0-1.48","spark_pilot_2","7394","1","16","Male","","","","","","","null","<div style=""font-size:60px;"">+</div>","null","fixation","","","","","","","","","","","97","","",""
"revaluation","212","930442","0.0-4.0-2.0-0.49","spark_pilot_2","7394","1","16","Male","","false","","","","","[489,528]","./assets/img/ocean/memory/28.jpg","[""ArrowUp"",""ArrowLeft""]","value training","ocean","26","{""ArrowUp,ArrowLeft"":26,""ArrowUp,ArrowRight"":10,""ArrowDown,ArrowLeft"":5,""ArrowDown,ArrowRight"":17}","true","ArrowUp,ArrowLeft","false","","","original","1","98","","",""
"html-keyboard-response","213","930944","0.0-4.0-2.0-1.49","spark_pilot_2","7394","1","16","Male","","","","","","","null","<div style=""font-size:60px;"">+</div>","null","fixation","","","","","","","","","","","99","","",""
"learning-instructions","214","945833","0.0-4.0-3.0-0.0","spark_pilot_2","7394","1","16","Male","","","","","","","1923.4000000953674","<p> Now, you will travel with a friend who will choose whether you go up or down first. </p>
            <p> On these turns, you will just see the animal that they found. You will still get to choose which chest to search for treasure.</p>","","instructions","","","","","","","","","","","","","",""
"revaluation","215","949847","0.0-4.0-4.0-0.0","spark_pilot_2","7394","1","16","Male","","false","","","","","[970.7000000476837]","./assets/img/ocean/animals/seahorse.jpg","[""ArrowLeft""]","revaluation","ocean","5","{""ArrowUp,ArrowLeft"":26,""ArrowUp,ArrowRight"":10,""ArrowDown,ArrowLeft"":5,""ArrowDown,ArrowRight"":17}","false","ArrowDown,ArrowLeft","","","","original","1","0","","",""
"html-keyboard-response","216","950362","0.0-4.0-4.0-1.0","spark_pilot_2","7394","1","16","Male","","","","","","","null","<div style=""font-size:60px;"">+</div>","null","fixation","","","","","","","","","","","1","","",""
"revaluation","217","954385","0.0-4.0-4.0-0.1","spark_pilot_2","7394","1","16","Male","","false","","","","","[985.0999999046326]","./assets/img/ocean/animals/octopus.jpg","[""ArrowLeft""]","revaluation","ocean","26","{""ArrowUp,ArrowLeft"":26,""ArrowUp,ArrowRight"":10,""ArrowDown,ArrowLeft"":5,""ArrowDown,ArrowRight"":17}","true","ArrowUp,ArrowLeft","","","","original","1","2","","",""
"html-keyboard-response","218","954895","0.0-4.0-4.0-1.1","spark_pilot_2","7394","1","16","Male","","","","","","","null","<div style=""font-size:60px;"">+</div>","null","fixation","","","","","","","","","","","3","","",""
"revaluation","219","958912","0.0-4.0-4.0-0.2","spark_pilot_2","7394","1","16","Male","","false","","","","","[580]","./assets/img/ocean/animals/octopus.jpg","[""ArrowLeft""]","revaluation","ocean","26","{""ArrowUp,ArrowLeft"":26,""ArrowUp,ArrowRight"":10,""ArrowDown,ArrowLeft"":5,""ArrowDown,ArrowRight"":17}","true","ArrowUp,ArrowLeft","","","","original","1","4","","",""
"html-keyboard-response","220","959425","0.0-4.0-4.0-1.2","spark_pilot_2","7394","1","16","Male","","","","","","","null","<div style=""font-size:60px;"">+</div>","null","fixation","","","","","","","","","","","5","","",""
"revaluation","221","963435","0.0-4.0-4.0-0.3","spark_pilot_2","7394","1","16","Male","","false","","","","","[579.2000000476837]","./assets/img/ocean/animals/octopus.jpg","[""ArrowLeft""]","revaluation","ocean","26","{""ArrowUp,ArrowLeft"":26,""ArrowUp,ArrowRight"":10,""ArrowDown,ArrowLeft"":5,""ArrowDown,ArrowRight"":17}","true","ArrowUp,ArrowLeft","","","","original","1","6","","",""
"html-keyboard-response","222","963950","0.0-4.0-4.0-1.3","spark_pilot_2","7394","1","16","Male","","","","","","","null","<div style=""font-size:60px;"">+</div>","null","fixation","","","","","","","","","","","7","","",""
"revaluation","223","967977","0.0-4.0-4.0-0.4","spark_pilot_2","7394","1","16","Male","","false","","","","","[725.8000001907349]","./assets/img/ocean/animals/seahorse.jpg","[""ArrowRight""]","revaluation","ocean","17","{""ArrowUp,ArrowLeft"":26,""ArrowUp,ArrowRight"":10,""ArrowDown,ArrowLeft"":5,""ArrowDown,ArrowRight"":17}","true","ArrowDown,ArrowRight","","","","original","1","8","","",""
"html-keyboard-response","224","968491","0.0-4.0-4.0-1.4","spark_pilot_2","7394","1","16","Male","","","","","","","null","<div style=""font-size:60px;"">+</div>","null","fixation","","","","","","","","","","","9","","",""
"revaluation","225","972512","0.0-4.0-4.0-0.5","spark_pilot_2","7394","1","16","Male","","false","","","","","[752.9000000953674]","./assets/img/ocean/animals/octopus.jpg","[""ArrowLeft""]","revaluation","ocean","26","{""ArrowUp,ArrowLeft"":26,""ArrowUp,ArrowRight"":10,""ArrowDown,ArrowLeft"":5,""ArrowDown,ArrowRight"":17}","true","ArrowUp,ArrowLeft","","","","original","1","10","","",""
"html-keyboard-response","226","973015","0.0-4.0-4.0-1.5","spark_pilot_2","7394","1","16","Male","","","","","","","null","<div style=""font-size:60px;"">+</div>","null","fixation","","","","","","","","","","","11","","",""
"revaluation","227","977020","0.0-4.0-4.0-0.6","spark_pilot_2","7394","1","16","Male","","false","","","","","[549]","./assets/img/ocean/animals/seahorse.jpg","[""ArrowRight""]","revaluation","ocean","17","{""ArrowUp,ArrowLeft"":26,""ArrowUp,ArrowRight"":10,""ArrowDown,ArrowLeft"":5,""ArrowDown,ArrowRight"":17}","true","ArrowDown,ArrowRight","","","","original","1","12","","",""
"html-keyboard-response","228","977521","0.0-4.0-4.0-1.6","spark_pilot_2","7394","1","16","Male","","","","","","","null","<div style=""font-size:60px;"">+</div>","null","fixation","","","","","","","","","","","13","","",""
"revaluation","229","981526","0.0-4.0-4.0-0.7","spark_pilot_2","7394","1","16","Male","","false","","","","","[610]","./assets/img/ocean/animals/seahorse.jpg","[""ArrowRight""]","revaluation","ocean","17","{""ArrowUp,ArrowLeft"":26,""ArrowUp,ArrowRight"":10,""ArrowDown,ArrowLeft"":5,""ArrowDown,ArrowRight"":17}","true","ArrowDown,ArrowRight","","","","original","1","14","","",""
"html-keyboard-response","230","982028","0.0-4.0-4.0-1.7","spark_pilot_2","7394","1","16","Male","","","","","","","null","<div style=""font-size:60px;"">+</div>","null","fixation","","","","","","","","","","","15","","",""
"revaluation","231","986033","0.0-4.0-4.0-0.8","spark_pilot_2","7394","1","16","Male","","false","","","","","[502.7999999523163]","./assets/img/ocean/animals/seahorse.jpg","[""ArrowLeft""]","revaluation","ocean","5","{""ArrowUp,ArrowLeft"":26,""ArrowUp,ArrowRight"":10,""ArrowDown,ArrowLeft"":5,""ArrowDown,ArrowRight"":17}","false","ArrowDown,ArrowLeft","","","","original","1","16","","",""
"html-keyboard-response","232","986535","0.0-4.0-4.0-1.8","spark_pilot_2","7394","1","16","Male","","","","","","","null","<div style=""font-size:60px;"">+</div>","null","fixation","","","","","","","","","","","17","","",""
"revaluation","233","990540","0.0-4.0-4.0-0.9","spark_pilot_2","7394","1","16","Male","","false","","","","","[1708.0999999046326]","./assets/img/ocean/animals/octopus.jpg","[""ArrowLeft""]","revaluation","ocean","26","{""ArrowUp,ArrowLeft"":26,""ArrowUp,ArrowRight"":10,""ArrowDown,ArrowLeft"":5,""ArrowDown,ArrowRight"":17}","true","ArrowUp,ArrowLeft","","","","original","1","18","","",""
"html-keyboard-response","234","991041","0.0-4.0-4.0-1.9","spark_pilot_2","7394","1","16","Male","","","","","","","null","<div style=""font-size:60px;"">+</div>","null","fixation","","","","","","","","","","","19","","",""
"revaluation","235","995046","0.0-4.0-4.0-0.10","spark_pilot_2","7394","1","16","Male","","false","","","","","[642.0999999046326]","./assets/img/ocean/animals/seahorse.jpg","[""ArrowRight""]","revaluation","ocean","17","{""ArrowUp,ArrowLeft"":26,""ArrowUp,ArrowRight"":10,""ArrowDown,ArrowLeft"":5,""ArrowDown,ArrowRight"":17}","true","ArrowDown,ArrowRight","","","","original","1","20","","",""
"html-keyboard-response","236","995548","0.0-4.0-4.0-1.10","spark_pilot_2","7394","1","16","Male","","","","","","","null","<div style=""font-size:60px;"">+</div>","null","fixation","","","","","","","","","","","21","","",""
"revaluation","237","999552","0.0-4.0-4.0-0.11","spark_pilot_2","7394","1","16","Male","","false","","","","","[830.8000001907349]","./assets/img/ocean/animals/octopus.jpg","[""ArrowLeft""]","revaluation","ocean","26","{""ArrowUp,ArrowLeft"":26,""ArrowUp,ArrowRight"":10,""ArrowDown,ArrowLeft"":5,""ArrowDown,ArrowRight"":17}","true","ArrowUp,ArrowLeft","","","","original","1","22","","",""
"html-keyboard-response","238","1000054","0.0-4.0-4.0-1.11","spark_pilot_2","7394","1","16","Male","","","","","","","null","<div style=""font-size:60px;"">+</div>","null","fixation","","","","","","","","","","","23","","",""
"revaluation","239","1004059","0.0-4.0-4.0-0.12","spark_pilot_2","7394","1","16","Male","","false","","","","","[821.5999999046326]","./assets/img/ocean/animals/seahorse.jpg","[""ArrowLeft""]","revaluation","ocean","5","{""ArrowUp,ArrowLeft"":26,""ArrowUp,ArrowRight"":10,""ArrowDown,ArrowLeft"":5,""ArrowDown,ArrowRight"":17}","false","ArrowDown,ArrowLeft","","","","original","1","24","","",""
"html-keyboard-response","240","1004561","0.0-4.0-4.0-1.12","spark_pilot_2","7394","1","16","Male","","","","","","","null","<div style=""font-size:60px;"">+</div>","null","fixation","","","","","","","","","","","25","","",""
"revaluation","241","1008567","0.0-4.0-4.0-0.13","spark_pilot_2","7394","1","16","Male","","false","","","","","[617]","./assets/img/ocean/animals/seahorse.jpg","[""ArrowRight""]","revaluation","ocean","17","{""ArrowUp,ArrowLeft"":26,""ArrowUp,ArrowRight"":10,""ArrowDown,ArrowLeft"":5,""ArrowDown,ArrowRight"":17}","true","ArrowDown,ArrowRight","","","","original","1","26","","",""
"html-keyboard-response","242","1009069","0.0-4.0-4.0-1.13","spark_pilot_2","7394","1","16","Male","","","","","","","null","<div style=""font-size:60px;"">+</div>","null","fixation","","","","","","","","","","","27","","",""
"revaluation","243","1013074","0.0-4.0-4.0-0.14","spark_pilot_2","7394","1","16","Male","","false","","","","","[1261.1999998092651]","./assets/img/ocean/animals/octopus.jpg","[""ArrowLeft""]","revaluation","ocean","26","{""ArrowUp,ArrowLeft"":26,""ArrowUp,ArrowRight"":10,""ArrowDown,ArrowLeft"":5,""ArrowDown,ArrowRight"":17}","true","ArrowUp,ArrowLeft","","","","original","1","28","","",""
"html-keyboard-response","244","1013576","0.0-4.0-4.0-1.14","spark_pilot_2","7394","1","16","Male","","","","","","","null","<div style=""font-size:60px;"">+</div>","null","fixation","","","","","","","","","","","29","","",""
"revaluation","245","1017581","0.0-4.0-4.0-0.15","spark_pilot_2","7394","1","16","Male","","false","","","","","[866.7000000476837]","./assets/img/ocean/animals/octopus.jpg","[""ArrowLeft""]","revaluation","ocean","26","{""ArrowUp,ArrowLeft"":26,""ArrowUp,ArrowRight"":10,""ArrowDown,ArrowLeft"":5,""ArrowDown,ArrowRight"":17}","true","ArrowUp,ArrowLeft","","","","original","1","30","","",""
"html-keyboard-response","246","1018083","0.0-4.0-4.0-1.15","spark_pilot_2","7394","1","16","Male","","","","","","","null","<div style=""font-size:60px;"">+</div>","null","fixation","","","","","","","","","","","31","","",""
"revaluation","247","1022088","0.0-4.0-4.0-0.16","spark_pilot_2","7394","1","16","Male","","false","","","","","[1439.0999999046326]","./assets/img/ocean/animals/seahorse.jpg","[""ArrowRight""]","revaluation","ocean","17","{""ArrowUp,ArrowLeft"":26,""ArrowUp,ArrowRight"":10,""ArrowDown,ArrowLeft"":5,""ArrowDown,ArrowRight"":17}","true","ArrowDown,ArrowRight","","","","original","1","32","","",""
"html-keyboard-response","248","1022590","0.0-4.0-4.0-1.16","spark_pilot_2","7394","1","16","Male","","","","","","","null","<div style=""font-size:60px;"">+</div>","null","fixation","","","","","","","","","","","33","","",""
"revaluation","249","1026609","0.0-4.0-4.0-0.17","spark_pilot_2","7394","1","16","Male","","false","","","","","[787.8999998569489]","./assets/img/ocean/animals/octopus.jpg","[""ArrowLeft""]","revaluation","ocean","26","{""ArrowUp,ArrowLeft"":26,""ArrowUp,ArrowRight"":10,""ArrowDown,ArrowLeft"":5,""ArrowDown,ArrowRight"":17}","true","ArrowUp,ArrowLeft","","","","original","1","34","","",""
"html-keyboard-response","250","1027111","0.0-4.0-4.0-1.17","spark_pilot_2","7394","1","16","Male","","","","","","","null","<div style=""font-size:60px;"">+</div>","null","fixation","","","","","","","","","","","35","","",""
"learning-instructions","251","1038980","0.0-4.0-5.0-0.0","spark_pilot_2","7394","1","16","Male","","","","","","","432.2000000476837","<p> Time to play the dot game! </p>
            <p> For one minute, click the red dots on the following screen as they appear. </p>
            <p><b> Don't look away, as you will earn bonus for clicking dots</b>. </p>","","instructions","","","","","","","","","","","","","",""
"revaluation","252","1098982","0.0-4.0-6.0-0.0","spark_pilot_2","7394","1","16","Male","","","","","","","[84,68,67,75,61,51,61]","","","rest","","70","","","","","0","60000","","","","","",""
"learning-instructions","253","1106742","0.0-4.0-7.0-0.0","spark_pilot_2","7394","1","16","Male","","","","","","","1644","<p> You have almost finished this part of the game! </p>
            <p> We are going to ask you to make a few more choices. </p>","","instructions","","","","","","","","","","","","","",""
"learning-instructions","254","1122392","0.0-4.0-7.0-0.1","spark_pilot_2","7394","1","16","Male","","","","","","","1684","<p> First, you need to decide whether to go up or down. When you see each picture, use the arrow keys to make your choice. </p>
            <p><b>You will not see which animal you found, but try to get to the one that will give you the most treasure.</b></p>","","instructions","","","","","","","","","","","","","",""
"revaluation","255","1123468","0.0-4.0-8.0-0.0","spark_pilot_2","7394","1","16","Male","","false","","","","","[1075]","./assets/img/ocean/test/0.jpg","[""ArrowUp""]","first stage test","ocean","0","{""ArrowUp,ArrowLeft"":26,""ArrowUp,ArrowRight"":10,""ArrowDown,ArrowLeft"":5,""ArrowDown,ArrowRight"":17}","true","ArrowUp","false","","","original","1","","","",""
"html-keyboard-response","256","1123980","0.0-4.0-8.0-1.0","spark_pilot_2","7394","1","16","Male","","","","","","","null","<div style=""font-size:60px;"">+</div>","null","fixation","","","","","","","","","","","","","",""
"revaluation","257","1124836","0.0-4.0-8.0-0.1","spark_pilot_2","7394","1","16","Male","","false","","","","","[854.1000001430511]","./assets/img/ocean/test/1.jpg","[""ArrowUp""]","first stage test","ocean","0","{""ArrowUp,ArrowLeft"":26,""ArrowUp,ArrowRight"":10,""ArrowDown,ArrowLeft"":5,""ArrowDown,ArrowRight"":17}","true","ArrowUp","false","","","original","1","","","",""
"html-keyboard-response","258","1125339","0.0-4.0-8.0-1.1","spark_pilot_2","7394","1","16","Male","","","","","","","null","<div style=""font-size:60px;"">+</div>","null","fixation","","","","","","","","","","","","","",""
"revaluation","259","1125940","0.0-4.0-8.0-0.2","spark_pilot_2","7394","1","16","Male","","false","","","","","[598.9000000953674]","./assets/img/ocean/test/2.jpg","[""ArrowUp""]","first stage test","ocean","0","{""ArrowUp,ArrowLeft"":26,""ArrowUp,ArrowRight"":10,""ArrowDown,ArrowLeft"":5,""ArrowDown,ArrowRight"":17}","true","ArrowUp","false","","","original","1","","","",""
"html-keyboard-response","260","1126447","0.0-4.0-8.0-1.2","spark_pilot_2","7394","1","16","Male","","","","","","","null","<div style=""font-size:60px;"">+</div>","null","fixation","","","","","","","","","","","","","",""
"revaluation","261","1126948","0.0-4.0-8.0-0.3","spark_pilot_2","7394","1","16","Male","","false","","","","","[498.40000009536743]","./assets/img/ocean/test/3.jpg","[""ArrowUp""]","first stage test","ocean","0","{""ArrowUp,ArrowLeft"":26,""ArrowUp,ArrowRight"":10,""ArrowDown,ArrowLeft"":5,""ArrowDown,ArrowRight"":17}","true","ArrowUp","false","","","original","1","","","",""
"html-keyboard-response","262","1127458","0.0-4.0-8.0-1.3","spark_pilot_2","7394","1","16","Male","","","","","","","null","<div style=""font-size:60px;"">+</div>","null","fixation","","","","","","","","","","","","","",""
"learning-instructions","263","1139332","0.0-4.0-9.0-0.0","spark_pilot_2","7394","1","16","Male","","","","","","","524.2999999523163","<p> Now you will see the animals again and can search their chests for treasure. </p>
            <p> This time, you will not see how much treasure you earned, but you will earn more bonus money for making better choices. </p>","","instructions","","","","","","","","","","","","","",""
"revaluation","264","1140324","0.0-4.0-10.0-0.0","spark_pilot_2","7394","1","16","Male","","false","","","","","[990.5]","./assets/img/ocean/animals/octopus.jpg","[""ArrowLeft""]","second stage test","ocean","0","{""ArrowUp,ArrowLeft"":26,""ArrowUp,ArrowRight"":10,""ArrowDown,ArrowLeft"":5,""ArrowDown,ArrowRight"":17}","true","ArrowUp,ArrowLeft","","","","original","1","","","",""
"html-keyboard-response","265","1140828","0.0-4.0-10.0-1.0","spark_pilot_2","7394","1","16","Male","","","","","","","null","<div style=""font-size:60px;"">+</div>","null","fixation","","","","","","","","","","","","","",""
"revaluation","266","1141196","0.0-4.0-10.0-0.1","spark_pilot_2","7394","1","16","Male","","false","","","","","[364.7999999523163]","./assets/img/ocean/animals/octopus.jpg","[""ArrowLeft""]","second stage test","ocean","0","{""ArrowUp,ArrowLeft"":26,""ArrowUp,ArrowRight"":10,""ArrowDown,ArrowLeft"":5,""ArrowDown,ArrowRight"":17}","true","ArrowUp,ArrowLeft","","","","original","1","","","",""
"html-keyboard-response","267","1141709","0.0-4.0-10.0-1.1","spark_pilot_2","7394","1","16","Male","","","","","","","null","<div style=""font-size:60px;"">+</div>","null","fixation","","","","","","","","","","","","","",""
"revaluation","268","1142028","0.0-4.0-10.0-0.2","spark_pilot_2","7394","1","16","Male","","false","","","","","[316.69999980926514]","./assets/img/ocean/animals/octopus.jpg","[""ArrowLeft""]","second stage test","ocean","0","{""ArrowUp,ArrowLeft"":26,""ArrowUp,ArrowRight"":10,""ArrowDown,ArrowLeft"":5,""ArrowDown,ArrowRight"":17}","true","ArrowUp,ArrowLeft","","","","original","1","","","",""
"html-keyboard-response","269","1142539","0.0-4.0-10.0-1.2","spark_pilot_2","7394","1","16","Male","","","","","","","null","<div style=""font-size:60px;"">+</div>","null","fixation","","","","","","","","","","","","","",""
"revaluation","270","1142708","0.0-4.0-10.0-0.3","spark_pilot_2","7394","1","16","Male","","false","","","","","[166.20000004768372]","./assets/img/ocean/animals/octopus.jpg","[""ArrowLeft""]","second stage test","ocean","0","{""ArrowUp,ArrowLeft"":26,""ArrowUp,ArrowRight"":10,""ArrowDown,ArrowLeft"":5,""ArrowDown,ArrowRight"":17}","true","ArrowUp,ArrowLeft","","","","original","1","","","",""
"html-keyboard-response","271","1143223","0.0-4.0-10.0-1.3","spark_pilot_2","7394","1","16","Male","","","","","","","null","<div style=""font-size:60px;"">+</div>","null","fixation","","","","","","","","","","","","","",""
"revaluation","272","1143388","0.0-4.0-10.0-0.4","spark_pilot_2","7394","1","16","Male","","false","","","","","[161.89999985694885]","./assets/img/ocean/animals/seahorse.jpg","[""ArrowLeft""]","second stage test","ocean","0","{""ArrowUp,ArrowLeft"":26,""ArrowUp,ArrowRight"":10,""ArrowDown,ArrowLeft"":5,""ArrowDown,ArrowRight"":17}","false","ArrowDown,ArrowLeft","","","","original","1","","","",""
"html-keyboard-response","273","1143898","0.0-4.0-10.0-1.4","spark_pilot_2","7394","1","16","Male","","","","","","","null","<div style=""font-size:60px;"">+</div>","null","fixation","","","","","","","","","","","","","",""
"revaluation","274","1144620","0.0-4.0-10.0-0.5","spark_pilot_2","7394","1","16","Male","","false","","","","","[717.9000000953674]","./assets/img/ocean/animals/seahorse.jpg","[""ArrowRight""]","second stage test","ocean","0","{""ArrowUp,ArrowLeft"":26,""ArrowUp,ArrowRight"":10,""ArrowDown,ArrowLeft"":5,""ArrowDown,ArrowRight"":17}","true","ArrowDown,ArrowRight","","","","original","1","","","",""
"html-keyboard-response","275","1145131","0.0-4.0-10.0-1.5","spark_pilot_2","7394","1","16","Male","","","","","","","null","<div style=""font-size:60px;"">+</div>","null","fixation","","","","","","","","","","","","","",""
"revaluation","276","1145532","0.0-4.0-10.0-0.6","spark_pilot_2","7394","1","16","Male","","false","","","","","[398.19999980926514]","./assets/img/ocean/animals/seahorse.jpg","[""ArrowRight""]","second stage test","ocean","0","{""ArrowUp,ArrowLeft"":26,""ArrowUp,ArrowRight"":10,""ArrowDown,ArrowLeft"":5,""ArrowDown,ArrowRight"":17}","true","ArrowDown,ArrowRight","","","","original","1","","","",""
"html-keyboard-response","277","1146037","0.0-4.0-10.0-1.6","spark_pilot_2","7394","1","16","Male","","","","","","","null","<div style=""font-size:60px;"">+</div>","null","fixation","","","","","","","","","","","","","",""
"revaluation","278","1146380","0.0-4.0-10.0-0.7","spark_pilot_2","7394","1","16","Male","","false","","","","","[340.40000009536743]","./assets/img/ocean/animals/seahorse.jpg","[""ArrowRight""]","second stage test","ocean","0","{""ArrowUp,ArrowLeft"":26,""ArrowUp,ArrowRight"":10,""ArrowDown,ArrowLeft"":5,""ArrowDown,ArrowRight"":17}","true","ArrowDown,ArrowRight","","","","original","1","","","",""
"html-keyboard-response","279","1146895","0.0-4.0-10.0-1.7","spark_pilot_2","7394","1","16","Male","","","","","","","null","<div style=""font-size:60px;"">+</div>","null","fixation","","","","","","","","","","","","","",""
"learning-instructions","280","1151373","0.0-4.0-0.1-0.2","spark_pilot_2","7394","1","16","Male","","","","","","","1706.0999999046326","<p> This time you are searching for treasure in the <b>canyon</b>.</p>","","instructions","","","","","","","","","","","","","",""
"learning-instructions","281","1169077","0.0-4.0-0.1-0.3","spark_pilot_2","7394","1","16","Male","","","","","","","460.2000000476837","<p><b>New</b> animals with <b>new</b> treasure chests live here. You need to explore to discover where the animal with the best treasure chest is.</p>
                    <p> Like before, once you figure out which animal has the chest with the most treasure, you should try to get to that animal and select that chest! </p>","","instructions","","","","","","","","","","","","","",""
"learning-instructions","282","1184230","0.0-4.0-1.1-0.1","spark_pilot_2","7394","1","16","Male","","","","","","","423.2000000476837","<p> Remember, when you see a picture of the place, use the up and down keys to <b>find an animal</b>.</p>
            <p> When you encounter an animal, you should use the left and right keys to <b>select a treasure chest</b>.</p>
            <p> Don't forget to look out for the robber! </p>","","instructions","","","","","","","","","","","","","",""
"revaluation","283","1190266","0.0-4.0-2.1-0.50","spark_pilot_2","7394","1","16","Male","","false","","","","","[947.5,789.4000000953674]","./assets/img/canyon/memory/1.jpg","[""ArrowUp"",""ArrowRight""]","value training","canyon","10","{""ArrowUp,ArrowLeft"":23,""ArrowUp,ArrowRight"":10,""ArrowDown,ArrowLeft"":8,""ArrowDown,ArrowRight"":30}","false","ArrowUp,ArrowRight","false","","","revaluation","2","0","","",""
"html-keyboard-response","284","1190780","0.0-4.0-2.1-1.50","spark_pilot_2","7394","1","16","Male","","","","","","","null","<div style=""font-size:60px;"">+</div>","null","fixation","","","","","","","","","","","1","","",""
"revaluation","285","1196811","0.0-4.0-2.1-0.51","spark_pilot_2","7394","1","16","Male","","false","","","","","[628.7000000476837,442.80000019073486]","./assets/img/canyon/memory/6.jpg","[""ArrowUp"",""ArrowLeft""]","value training","canyon","23","{""ArrowUp,ArrowLeft"":23,""ArrowUp,ArrowRight"":10,""ArrowDown,ArrowLeft"":8,""ArrowDown,ArrowRight"":30}","false","ArrowUp,ArrowLeft","false","","","revaluation","2","2","","",""
"html-keyboard-response","286","1197326","0.0-4.0-2.1-1.51","spark_pilot_2","7394","1","16","Male","","","","","","","null","<div style=""font-size:60px;"">+</div>","null","fixation","","","","","","","","","","","3","","",""
"revaluation","287","1203352","0.0-4.0-2.1-0.52","spark_pilot_2","7394","1","16","Male","","false","","","","","[362.59999990463257,698.2000000476837]","./assets/img/canyon/memory/16.jpg","[""ArrowDown"",""ArrowRight""]","value training","canyon","30","{""ArrowUp,ArrowLeft"":23,""ArrowUp,ArrowRight"":10,""ArrowDown,ArrowLeft"":8,""ArrowDown,ArrowRight"":30}","true","ArrowDown,ArrowRight","false","","","revaluation","2","4","","",""
"html-keyboard-response","288","1203854","0.0-4.0-2.1-1.52","spark_pilot_2","7394","1","16","Male","","","","","","","null","<div style=""font-size:60px;"">+</div>","null","fixation","","","","","","","","","","","5","","",""
"revaluation","289","1209887","0.0-4.0-2.1-0.53","spark_pilot_2","7394","1","16","Male","","false","","","","","[314.5,316.89999985694885]","./assets/img/canyon/memory/4.jpg","[""ArrowDown"",""ArrowLeft""]","value training","canyon","8","{""ArrowUp,ArrowLeft"":23,""ArrowUp,ArrowRight"":10,""ArrowDown,ArrowLeft"":8,""ArrowDown,ArrowRight"":30}","false","ArrowDown,ArrowLeft","false","","","revaluation","2","6","","",""
"html-keyboard-response","290","1210390","0.0-4.0-2.1-1.53","spark_pilot_2","7394","1","16","Male","","","","","","","null","<div style=""font-size:60px;"">+</div>","null","fixation","","","","","","","","","","","7","","",""
"revaluation","291","1214408","0.0-4.0-2.1-0.54","spark_pilot_2","7394","1","16","Male","","false","","","","","[867.2000000476837]","./assets/img/canyon/catch/3.jpg","[""spaceBar""]","value training","canyon","0","{""ArrowUp,ArrowLeft"":23,""ArrowUp,ArrowRight"":10,""ArrowDown,ArrowLeft"":8,""ArrowDown,ArrowRight"":30}","true","spaceBar","true","","","revaluation","2","8","","",""
"html-keyboard-response","292","1214909","0.0-4.0-2.1-1.54","spark_pilot_2","7394","1","16","Male","","","","","","","null","<div style=""font-size:60px;"">+</div>","null","fixation","","","","","","","","","","","9","","",""
"revaluation","293","1220914","0.0-4.0-2.1-0.55","spark_pilot_2","7394","1","16","Male","","false","","","","","[683.5,459.19999980926514]","./assets/img/canyon/memory/8.jpg","[""ArrowDown"",""ArrowRight""]","value training","canyon","30","{""ArrowUp,ArrowLeft"":23,""ArrowUp,ArrowRight"":10,""ArrowDown,ArrowLeft"":8,""ArrowDown,ArrowRight"":30}","true","ArrowDown,ArrowRight","false","","","revaluation","2","10","","",""
"html-keyboard-response","294","1221414","0.0-4.0-2.1-1.55","spark_pilot_2","7394","1","16","Male","","","","","","","null","<div style=""font-size:60px;"">+</div>","null","fixation","","","","","","","","","","","11","","",""
"revaluation","295","1227419","0.0-4.0-2.1-0.56","spark_pilot_2","7394","1","16","Male","","false","","","","","[530.1000001430511,433.59999990463257]","./assets/img/canyon/memory/8.jpg","[""ArrowDown"",""ArrowRight""]","value training","canyon","30","{""ArrowUp,ArrowLeft"":23,""ArrowUp,ArrowRight"":10,""ArrowDown,ArrowLeft"":8,""ArrowDown,ArrowRight"":30}","true","ArrowDown,ArrowRight","false","","","revaluation","2","12","","",""
"html-keyboard-response","296","1227921","0.0-4.0-2.1-1.56","spark_pilot_2","7394","1","16","Male","","","","","","","null","<div style=""font-size:60px;"">+</div>","null","fixation","","","","","","","","","","","13","","",""
"revaluation","297","1231925","0.0-4.0-2.1-0.57","spark_pilot_2","7394","1","16","Male","","false","","","","","[1231.2999999523163]","./assets/img/canyon/catch/2.jpg","[""spaceBar""]","value training","canyon","0","{""ArrowUp,ArrowLeft"":23,""ArrowUp,ArrowRight"":10,""ArrowDown,ArrowLeft"":8,""ArrowDown,ArrowRight"":30}","true","spaceBar","true","","","revaluation","2","14","","",""
"html-keyboard-response","298","1232427","0.0-4.0-2.1-1.57","spark_pilot_2","7394","1","16","Male","","","","","","","null","<div style=""font-size:60px;"">+</div>","null","fixation","","","","","","","","","","","15","","",""
"revaluation","299","1236433","0.0-4.0-2.1-0.58","spark_pilot_2","7394","1","16","Male","","false","","","","","[773.0999999046326]","./assets/img/canyon/catch/5.jpg","[""spaceBar""]","value training","canyon","0","{""ArrowUp,ArrowLeft"":23,""ArrowUp,ArrowRight"":10,""ArrowDown,ArrowLeft"":8,""ArrowDown,ArrowRight"":30}","true","spaceBar","true","","","revaluation","2","16","","",""
"html-keyboard-response","300","1236935","0.0-4.0-2.1-1.58","spark_pilot_2","7394","1","16","Male","","","","","","","null","<div style=""font-size:60px;"">+</div>","null","fixation","","","","","","","","","","","17","","",""
"revaluation","301","1242939","0.0-4.0-2.1-0.59","spark_pilot_2","7394","1","16","Male","","false","","","","","[609.3999998569489,744.1000001430511]","./assets/img/canyon/memory/2.jpg","[""ArrowDown"",""ArrowRight""]","value training","canyon","30","{""ArrowUp,ArrowLeft"":23,""ArrowUp,ArrowRight"":10,""ArrowDown,ArrowLeft"":8,""ArrowDown,ArrowRight"":30}","true","ArrowDown,ArrowRight","false","","","revaluation","2","18","","",""
"html-keyboard-response","302","1243442","0.0-4.0-2.1-1.59","spark_pilot_2","7394","1","16","Male","","","","","","","null","<div style=""font-size:60px;"">+</div>","null","fixation","","","","","","","","","","","19","","",""
"revaluation","303","1249446","0.0-4.0-2.1-0.60","spark_pilot_2","7394","1","16","Male","","false","","","","","[679,550.5]","./assets/img/canyon/memory/41.jpg","[""ArrowDown"",""ArrowRight""]","value training","canyon","30","{""ArrowUp,ArrowLeft"":23,""ArrowUp,ArrowRight"":10,""ArrowDown,ArrowLeft"":8,""ArrowDown,ArrowRight"":30}","true","ArrowDown,ArrowRight","false","","","revaluation","2","20","","",""
"html-keyboard-response","304","1249948","0.0-4.0-2.1-1.60","spark_pilot_2","7394","1","16","Male","","","","","","","null","<div style=""font-size:60px;"">+</div>","null","fixation","","","","","","","","","","","21","","",""
"revaluation","305","1253954","0.0-4.0-2.1-0.61","spark_pilot_2","7394","1","16","Male","","false","","","","","[620.1000001430511]","./assets/img/canyon/catch/4.jpg","[""spaceBar""]","value training","canyon","0","{""ArrowUp,ArrowLeft"":23,""ArrowUp,ArrowRight"":10,""ArrowDown,ArrowLeft"":8,""ArrowDown,ArrowRight"":30}","true","spaceBar","true","","","revaluation","2","22","","",""
"html-keyboard-response","306","1254455","0.0-4.0-2.1-1.61","spark_pilot_2","7394","1","16","Male","","","","","","","null","<div style=""font-size:60px;"">+</div>","null","fixation","","","","","","","","","","","23","","",""
"revaluation","307","1258460","0.0-4.0-2.1-0.62","spark_pilot_2","7394","1","16","Male","","false","","","","","[688.8999998569489]","./assets/img/canyon/catch/7.jpg","[""spaceBar""]","value training","canyon","0","{""ArrowUp,ArrowLeft"":23,""ArrowUp,ArrowRight"":10,""ArrowDown,ArrowLeft"":8,""ArrowDown,ArrowRight"":30}","true","spaceBar","true","","","revaluation","2","24","","",""
"html-keyboard-response","308","1258962","0.0-4.0-2.1-1.62","spark_pilot_2","7394","1","16","Male","","","","","","","null","<div style=""font-size:60px;"">+</div>","null","fixation","","","","","","","","","","","25","","",""
"revaluation","309","1264967","0.0-4.0-2.1-0.63","spark_pilot_2","7394","1","16","Male","","false","","","","","[869.1000001430511,492.30000019073486]","./assets/img/canyon/memory/4.jpg","[""ArrowDown"",""ArrowRight""]","value training","canyon","30","{""ArrowUp,ArrowLeft"":23,""ArrowUp,ArrowRight"":10,""ArrowDown,ArrowLeft"":8,""ArrowDown,ArrowRight"":30}","true","ArrowDown,ArrowRight","false","","","revaluation","2","26","","",""
