"trial_type","trial_index","time_elapsed","internal_node_id","task_version","subject_id","assigned_condition","age","gender","success","timeout","failed_images","failed_audio","failed_video","browser_interaction","rt","stimulus","response","task_part","environment","score","rewardMap","correct","fullState","isCatch","numberMissed","duration","condition","order","trial_num","key_press","ground_truth","bonus"
"pavlovia","0","1421","0.0-0.0","spark_pilot_2","7541","3","9","Male","","","","","","","","","","","","","","","","","","","","","","","",""
"preload","1","20160","0.0-1.0","spark_pilot_2","7541","3","9","Male","true","false","[]","[]","[]","[{""event"":""fullscreenenter"",""trial"":2,""time"":26623},{""event"":""blur"",""trial"":57,""time"":317940},{""event"":""focus"",""trial"":57,""time"":383360},{""event"":""blur"",""trial"":339,""time"":1460190},{""event"":""focus"",""trial"":342,""time"":1465996}]","","","","","","","","","","","","","","","","","",""
"fullscreen","2","27618","0.0-2.0","spark_pilot_2","7541","3","9","Male","true","","","","","","","","","","","","","","","","","","","","","","",""
"audio-button-response","3","31477","0.0-3.0-0.0-0.0","spark_pilot_2","7541","3","9","Male","","","","","","","3558","./assets/audio/audiotest/turtle.mp3","2","audio_test","","","","","","","","","","","","","",""
"learning-instructions","4","41094","0.0-3.0-1.0-0.0","spark_pilot_2","7541","3","9","Male","","","","","","","2622.600000000093","<p> Welcome! Please remember to stay in fullscreen mode and don't click away from the experiment. </p>","","instructions","","","","","","","","","","","","","",""
"learning-instructions","5","51960","0.0-3.0-1.0-0.1","spark_pilot_2","7541","3","9","Male","","","","","","","2441.100000000093","<p> Today you will be playing a game to earn treasure. </p>
            <p> At the end of the experiment, you will earn a bonus based on how much treasure you find. </p>
            <img src='./assets/img/instructions/treasure.jpg' class='instructions-image'>","","instructions","","","","","","","","","","","","","",""
"learning-instructions","6","61077","0.0-3.0-1.0-0.2","spark_pilot_2","7541","3","9","Male","","","","","","","837.6000000000931","<p> Animals have hidden treasure in treasure chests. </p>
            <p> You need to first find an animal and then choose which of their treasure chests to search. </p>
            <img src='./assets/img/space/animals/cat.jpg' class='instructions-image'>","","instructions","","","","","","","","","","","","","",""
"learning-instructions","7","77476","0.0-3.0-1.0-0.3","spark_pilot_2","7541","3","9","Male","","","","","","","3217.2000000001863","<p> In each round, you will search for treasure in a different place. In the real game, there will be two rounds. </p>
            <p> You will begin with a separate, practice round where you will search for treasure in outer space. </p>
            <img src='./assets/img/space/0.jpg' class='instructions-image'>","","instructions","","","","","","","","","","","","","",""
"learning-instructions","8","90543","0.0-3.0-1.0-0.4","spark_pilot_2","7541","3","9","Male","","","","","","","1626.3999999999069","<p> On every turn, you will see a picture of the place that you are in, but the specific image may be different each time. </p>
            <p> For example, both of these images mean you are in outer space. </p>
            <img src='./assets/img/instructions/outerspace.jpg' class='instructions-image'>","","instructions","","","","","","","","","","","","","",""
"learning-instructions","9","100643","0.0-3.0-1.0-0.5","spark_pilot_2","7541","3","9","Male","","","","","","","2258.399999999907","<p> You need to decide which direction to travel in. </p>
            <p> You can choose between going <b>up or down</b> by using the arrow keys. </p>
            <img src='./assets/img/instructions/updown.jpg' class='instructions-image'>","","instructions","","","","","","","","","","","","","",""
"learning-instructions","10","110526","0.0-3.0-1.0-0.6","spark_pilot_2","7541","3","9","Male","","","","","","","1060.1000000000931","<p> You will have <b>2 seconds</b> to make your choice. </p>
            <p> If you do not make a choice within 2 seconds, you will not find an animal or earn treasure. </p>
            <img src='./assets/img/instructions/2seconds.jpg' class='instructions-image'>","","instructions","","","","","","","","","","","","","",""
"learning-instructions","11","118643","0.0-3.0-1.0-0.7","spark_pilot_2","7541","3","9","Male","","","","","","","1066.9000000003725","<p> Let’s try practicing that now! </p>
            <p> When you see a picture of the place you are in, press the <b>up</b> key to travel up. </p>
            <img src='./assets/img/instructions/pressUp.jpg' class='instructions-image'>","","instructions","","","","","","","","","","","","","",""
"revaluation","12","122662","0.0-3.0-2.0-0.0","spark_pilot_2","7541","3","9","Male","","false","","","","","[183.39999999990687]","./assets/img/space/0.jpg","[""ArrowUp""]","first stage practice","space","0","null","null","ArrowUp","false","","","","","","","",""
"html-keyboard-response","13","123170","0.0-3.0-2.0-1.0","spark_pilot_2","7541","3","9","Male","","","","","","","null","<div style=""font-size:60px;"">+</div>","null","fixation","","","","","","","","","","","","","",""
"revaluation","14","127188","0.0-3.0-2.0-0.1","spark_pilot_2","7541","3","9","Male","","true","","","","","[]","./assets/img/space/1.jpg","[]","first stage practice","space","-5","null","null","","false","","","","","","","",""
"html-keyboard-response","15","127699","0.0-3.0-2.0-1.1","spark_pilot_2","7541","3","9","Male","","","","","","","null","<div style=""font-size:60px;"">+</div>","null","fixation","","","","","","","","","","","","","",""
"revaluation","16","131716","0.0-3.0-2.0-0.2","spark_pilot_2","7541","3","9","Male","","false","","","","","[1539.7000000001863]","./assets/img/space/2.jpg","[""ArrowUp""]","first stage practice","space","0","null","null","ArrowUp","false","","","","","","","",""
"html-keyboard-response","17","132221","0.0-3.0-2.0-1.2","spark_pilot_2","7541","3","9","Male","","","","","","","null","<div style=""font-size:60px;"">+</div>","null","fixation","","","","","","","","","","","","","",""
"learning-instructions","18","138242","0.0-3.0-3.0-0.0","spark_pilot_2","7541","3","9","Male","","","","","","","1306.7999999998137","<p> Great job! Now try pressing the <b>down</b> key to travel down. </p>
            <img src='./assets/img/instructions/pressDown.jpg' class='instructions-image'>","","instructions","","","","","","","","","","","","","",""
"revaluation","19","142258","0.0-3.0-4.0-0.0","spark_pilot_2","7541","3","9","Male","","false","","","","","[287.39999999990687]","./assets/img/space/3.jpg","[""ArrowDown""]","first stage practice","space","0","null","null","ArrowDown","false","","","","","","","",""
"html-keyboard-response","20","142762","0.0-3.0-4.0-1.0","spark_pilot_2","7541","3","9","Male","","","","","","","null","<div style=""font-size:60px;"">+</div>","null","fixation","","","","","","","","","","","","","",""
"revaluation","21","146778","0.0-3.0-4.0-0.1","spark_pilot_2","7541","3","9","Male","","false","","","","","[157.89999999990687]","./assets/img/space/4.jpg","[""ArrowDown""]","first stage practice","space","0","null","null","ArrowDown","false","","","","","","","",""
"html-keyboard-response","22","147281","0.0-3.0-4.0-1.1","spark_pilot_2","7541","3","9","Male","","","","","","","null","<div style=""font-size:60px;"">+</div>","null","fixation","","","","","","","","","","","","","",""
"revaluation","23","151298","0.0-3.0-4.0-0.2","spark_pilot_2","7541","3","9","Male","","false","","","","","[1206.7000000001863]","./assets/img/space/5.jpg","[""ArrowDown""]","first stage practice","space","0","null","null","ArrowDown","false","","","","","","","",""
"html-keyboard-response","24","151801","0.0-3.0-4.0-1.2","spark_pilot_2","7541","3","9","Male","","","","","","","null","<div style=""font-size:60px;"">+</div>","null","fixation","","","","","","","","","","","","","",""
"learning-instructions","25","163041","0.0-3.0-5.0-0.0","spark_pilot_2","7541","3","9","Male","","","","","","","1365.6000000000931","<p> The animals don’t move, so the animal in the upper part of a place will stay in the upper part of a place, and the animal in the lower part of a place will stay in the lower part of a place. </p>","","instructions","","","","","","","","","","","","","",""
"learning-instructions","26","173775","0.0-3.0-5.0-0.1","spark_pilot_2","7541","3","9","Male","","","","","","","1586.5","<p> Each animal has two treasure chests for you to choose from. </p>
            <p> The amount of treasure in each chest can range from <b> 0 to 40 pieces.</b></p>","","instructions","","","","","","","","","","","","","",""
"learning-instructions","27","185390","0.0-3.0-5.0-0.2","spark_pilot_2","7541","3","9","Male","","","","","","","413.39999999990687","<p> You should decide which chest to search for treasure by using the <b>left</b> and <b>right</b> arrow keys. </p>
            <p><b> Pay attention to which animal is on the screen, as the animals have different treasure chests. </b></p>
            <img src='./assets/img/instructions/leftright.jpg' class='instructions-image'>","","instructions","","","","","","","","","","","","","",""
"learning-instructions","28","192457","0.0-3.0-5.0-0.3","spark_pilot_2","7541","3","9","Male","","","","","","","682.2999999998137","<p> Let’s try practicing that now. </p>
            <p> When you see an animal, choose which chest to search for treasure. </p>
            <img src='./assets/img/instructions/chooseChest.jpg' class='instructions-image'>","","instructions","","","","","","","","","","","","","",""
"revaluation","29","196477","0.0-3.0-6.0-0.0","spark_pilot_2","7541","3","9","Male","","false","","","","","[1237.6000000000931]","./assets/img/space/animals/cat.jpg","[""ArrowLeft""]","second stage practice","space","3","{""ArrowUp,ArrowLeft"":3,""ArrowUp,ArrowRight"":36,""ArrowDown,ArrowLeft"":15,""ArrowDown,ArrowRight"":23}","false","ArrowUp,ArrowLeft","","","","","","","","",""
"html-keyboard-response","30","196985","0.0-3.0-6.0-1.0","spark_pilot_2","7541","3","9","Male","","","","","","","null","<div style=""font-size:60px;"">+</div>","null","fixation","","","","","","","","","","","","","",""
"revaluation","31","201004","0.0-3.0-6.0-0.1","spark_pilot_2","7541","3","9","Male","","false","","","","","[44.5]","./assets/img/space/animals/cat.jpg","[""ArrowRight""]","second stage practice","space","36","{""ArrowUp,ArrowLeft"":3,""ArrowUp,ArrowRight"":36,""ArrowDown,ArrowLeft"":15,""ArrowDown,ArrowRight"":23}","true","ArrowUp,ArrowRight","","","","","","","","",""
"html-keyboard-response","32","201513","0.0-3.0-6.0-1.1","spark_pilot_2","7541","3","9","Male","","","","","","","null","<div style=""font-size:60px;"">+</div>","null","fixation","","","","","","","","","","","","","",""
"revaluation","33","205532","0.0-3.0-6.0-0.2","spark_pilot_2","7541","3","9","Male","","false","","","","","[372.3000000002794]","./assets/img/space/animals/rabbit.jpg","[""ArrowRight""]","second stage practice","space","23","{""ArrowUp,ArrowLeft"":3,""ArrowUp,ArrowRight"":36,""ArrowDown,ArrowLeft"":15,""ArrowDown,ArrowRight"":23}","true","ArrowDown,ArrowRight","","","","","","","","",""
"html-keyboard-response","34","206041","0.0-3.0-6.0-1.2","spark_pilot_2","7541","3","9","Male","","","","","","","null","<div style=""font-size:60px;"">+</div>","null","fixation","","","","","","","","","","","","","",""
"revaluation","35","210060","0.0-3.0-6.0-0.3","spark_pilot_2","7541","3","9","Male","","false","","","","","[102]","./assets/img/space/animals/rabbit.jpg","[""ArrowLeft""]","second stage practice","space","15","{""ArrowUp,ArrowLeft"":3,""ArrowUp,ArrowRight"":36,""ArrowDown,ArrowLeft"":15,""ArrowDown,ArrowRight"":23}","false","ArrowDown,ArrowLeft","","","","","","","","",""
"html-keyboard-response","36","210570","0.0-3.0-6.0-1.3","spark_pilot_2","7541","3","9","Male","","","","","","","null","<div style=""font-size:60px;"">+</div>","null","fixation","","","","","","","","","","","","","",""
"learning-instructions","37","228573","0.0-3.0-7.0-0.0","spark_pilot_2","7541","3","9","Male","","","","","","","1162.3999999999069","<p> Great job. Now let’s try putting it together. </p>
            <p> On each turn, you will first see a picture to remind you of the place you are in, and you need to choose whether to go up or down. </p>
            <p> Then you will see an animal and choose which of its chests to search for treasure. </p>","","instructions","","","","","","","","","","","","","",""
"learning-instructions","38","237355","0.0-3.0-7.0-0.1","spark_pilot_2","7541","3","9","Male","","","","","","","505.8000000002794","<p> When you choose whether to go up or down, try to go to the animal with the chest with the most treasure. </p>
            <p> Try practicing that now! </p>","","instructions","","","","","","","","","","","","","",""
"revaluation","39","243380","0.0-3.0-8.0-0.0","spark_pilot_2","7541","3","9","Male","","false","","","","","[1180.2999999998137,1252.8999999999069]","./assets/img/space/6.jpg","[""ArrowUp"",""ArrowRight""]","full practice","space","36","{""ArrowUp,ArrowLeft"":3,""ArrowUp,ArrowRight"":36,""ArrowDown,ArrowLeft"":15,""ArrowDown,ArrowRight"":23}","true","ArrowUp,ArrowRight","false","","","","","","","",""
"html-keyboard-response","40","243891","0.0-3.0-8.0-1.0","spark_pilot_2","7541","3","9","Male","","","","","","","null","<div style=""font-size:60px;"">+</div>","null","fixation","","","","","","","","","","","","","",""
"revaluation","41","249917","0.0-3.0-8.0-0.1","spark_pilot_2","7541","3","9","Male","","false","","","","","[924.2000000001863,291.39999999990687]","./assets/img/space/7.jpg","[""ArrowDown"",""ArrowLeft""]","full practice","space","15","{""ArrowUp,ArrowLeft"":3,""ArrowUp,ArrowRight"":36,""ArrowDown,ArrowLeft"":15,""ArrowDown,ArrowRight"":23}","false","ArrowDown,ArrowLeft","false","","","","","","","",""
"html-keyboard-response","42","250426","0.0-3.0-8.0-1.1","spark_pilot_2","7541","3","9","Male","","","","","","","null","<div style=""font-size:60px;"">+</div>","null","fixation","","","","","","","","","","","","","",""
"revaluation","43","256449","0.0-3.0-8.0-0.2","spark_pilot_2","7541","3","9","Male","","false","","","","","[432.5,325.79999999981374]","./assets/img/space/8.jpg","[""ArrowUp"",""ArrowRight""]","full practice","space","36","{""ArrowUp,ArrowLeft"":3,""ArrowUp,ArrowRight"":36,""ArrowDown,ArrowLeft"":15,""ArrowDown,ArrowRight"":23}","true","ArrowUp,ArrowRight","false","","","","","","","",""
"html-keyboard-response","44","256952","0.0-3.0-8.0-1.2","spark_pilot_2","7541","3","9","Male","","","","","","","null","<div style=""font-size:60px;"">+</div>","null","fixation","","","","","","","","","","","","","",""
"revaluation","45","262977","0.0-3.0-8.0-0.3","spark_pilot_2","7541","3","9","Male","","false","","","","","[347.5,313.70000000018626]","./assets/img/space/9.jpg","[""ArrowUp"",""ArrowRight""]","full practice","space","36","{""ArrowUp,ArrowLeft"":3,""ArrowUp,ArrowRight"":36,""ArrowDown,ArrowLeft"":15,""ArrowDown,ArrowRight"":23}","true","ArrowUp,ArrowRight","false","","","","","","","",""
"html-keyboard-response","46","263482","0.0-3.0-8.0-1.3","spark_pilot_2","7541","3","9","Male","","","","","","","null","<div style=""font-size:60px;"">+</div>","null","fixation","","","","","","","","","","","","","",""
"revaluation","47","269509","0.0-3.0-8.0-0.4","spark_pilot_2","7541","3","9","Male","","false","","","","","[697,47.89999999990687]","./assets/img/space/10.jpg","[""ArrowDown"",""ArrowRight""]","full practice","space","23","{""ArrowUp,ArrowLeft"":3,""ArrowUp,ArrowRight"":36,""ArrowDown,ArrowLeft"":15,""ArrowDown,ArrowRight"":23}","false","ArrowDown,ArrowRight","false","","","","","","","",""
"html-keyboard-response","48","270020","0.0-3.0-8.0-1.4","spark_pilot_2","7541","3","9","Male","","","","","","","null","<div style=""font-size:60px;"">+</div>","null","fixation","","","","","","","","","","","","","",""
"learning-instructions","49","282038","0.0-3.0-9.0-0.0","spark_pilot_2","7541","3","9","Male","","","","","","","1675.1000000000931","<p> One last thing: sometimes, you will see a robber. The robber can be anywhere in the picture. </p>
            <p> If you do not stop them, you will lose treasure. </p>
            <img src='./assets/img/instructions/robber.jpg' class='instructions-image'>","","instructions","","","","","","","","","","","","","",""
"learning-instructions","50","290204","0.0-3.0-9.0-0.1","spark_pilot_2","7541","3","9","Male","","","","","","","989.3999999999069","<p> If you see the robber, you should <b>press the space bar</b> rather than using the arrow keys. </p>
            <p> Try practicing that now! </p>","","instructions","","","","","","","","","","","","","",""
"revaluation","51","294217","0.0-3.0-10.0-0.0","spark_pilot_2","7541","3","9","Male","","false","","","","","[727.8999999999069]","./assets/img/space/catch/0.jpg","[""spaceBar""]","catch practice","space","0","{""ArrowUp,ArrowLeft"":3,""ArrowUp,ArrowRight"":36,""ArrowDown,ArrowLeft"":15,""ArrowDown,ArrowRight"":23}","true","spaceBar","true","","","","","","","",""
"html-keyboard-response","52","294720","0.0-3.0-10.0-1.0","spark_pilot_2","7541","3","9","Male","","","","","","","null","<div style=""font-size:60px;"">+</div>","null","fixation","","","","","","","","","","","","","",""
"revaluation","53","298741","0.0-3.0-10.0-0.1","spark_pilot_2","7541","3","9","Male","","false","","","","","[1331.6000000000931]","./assets/img/space/catch/1.jpg","[""spaceBar""]","catch practice","space","0","{""ArrowUp,ArrowLeft"":3,""ArrowUp,ArrowRight"":36,""ArrowDown,ArrowLeft"":15,""ArrowDown,ArrowRight"":23}","true","spaceBar","true","","","","","","","",""
"html-keyboard-response","54","299251","0.0-3.0-10.0-1.1","spark_pilot_2","7541","3","9","Male","","","","","","","null","<div style=""font-size:60px;"">+</div>","null","fixation","","","","","","","","","","","","","",""
"revaluation","55","303268","0.0-3.0-10.0-0.2","spark_pilot_2","7541","3","9","Male","","false","","","","","[56.60000000009313]","./assets/img/space/catch/2.jpg","[""spaceBar""]","catch practice","space","0","{""ArrowUp,ArrowLeft"":3,""ArrowUp,ArrowRight"":36,""ArrowDown,ArrowLeft"":15,""ArrowDown,ArrowRight"":23}","true","spaceBar","true","","","","","","","",""
"html-keyboard-response","56","303779","0.0-3.0-10.0-1.2","spark_pilot_2","7541","3","9","Male","","","","","","[{""event"":""fullscreenenter"",""trial"":2,""time"":26623},{""event"":""blur"",""trial"":57,""time"":317940},{""event"":""focus"",""trial"":57,""time"":383360},{""event"":""blur"",""trial"":339,""time"":1460190},{""event"":""focus"",""trial"":342,""time"":1465996}]","null","<div style=""font-size:60px;"">+</div>","null","fixation","","","","","","","","","","","","","",""
"learning-instructions","57","388468","0.0-3.0-11.0-0.0","spark_pilot_2","7541","3","9","Male","","","","","","","70960.1000000001","<p> After you explore a place to find treasure, it will be time to play a different game. </p>
            <p> During this game, red dots will appear on the screen and fall down slowly. </p>
            <p><b> You must click on them before they reach the bottom. </b></p>
            <img src='./assets/img/instructions/dotGame.jpg' class='instructions-image'>","","instructions","","","","","","","","","","","","","",""
"learning-instructions","58","394952","0.0-3.0-11.0-0.1","spark_pilot_2","7541","3","9","Male","","","","","","","535","<p> For every dot you click, you will earn additional treasure. </p>
            <p> Let’s try practicing that now. </p>","","instructions","","","","","","","","","","","","","",""
"revaluation","59","409965","0.0-3.0-12.0-0.0","spark_pilot_2","7541","3","9","Male","","","","","","","[119]","","","rest practice","","10","","","","","0","15000","","","","","",""
"learning-instructions","60","416418","0.0-3.0-13.0-0.0-0.0","spark_pilot_2","7541","3","9","Male","","","","","","","1213.5","<p> Now, you will practice a shortened version of the game to get a sense of how it all fits together. </p>","","instructions","","","","","","","","","","","","","",""
"learning-instructions","61","420618","0.0-3.0-13.0-0.0-0.1","spark_pilot_2","7541","3","9","Male","","","","","","","1007.1999999997206","<p>This time you are searching for treasure in outer space.</p>","","instructions","","","","","","","","","","","","","",""
"learning-instructions","62","437268","0.0-3.0-13.0-1.0-0.0","spark_pilot_2","7541","3","9","Male","","","","","","","1844.9000000003725","<p> Remember, when you see a picture of the place, use the up and down keys to <b>find an animal</b>.</p>
            <p> When you encounter an animal, you should use the left and right keys to <b>select a treasure chest</b>.</p>
            <p> Don't forget to look out for the robber! </p>","","instructions","","","","","","","","","","","","","",""
"revaluation","63","443281","0.0-3.0-13.0-2.0-0.0","spark_pilot_2","7541","3","9","Male","","false","","","","","[630,763.6999999997206]","./assets/img/space/11.jpg","[""ArrowUp"",""ArrowRight""]","practice block","space","36","{""ArrowUp,ArrowLeft"":3,""ArrowUp,ArrowRight"":36,""ArrowDown,ArrowLeft"":15,""ArrowDown,ArrowRight"":23}","true","ArrowUp,ArrowRight","false","","","","","","","",""
"html-keyboard-response","64","443783","0.0-3.0-13.0-2.0-1.0","spark_pilot_2","7541","3","9","Male","","","","","","","null","<div style=""font-size:60px;"">+</div>","null","fixation","","","","","","","","","","","","","",""
"revaluation","65","449807","0.0-3.0-13.0-2.0-0.1","spark_pilot_2","7541","3","9","Male","","false","","","","","[1258.3999999999069,1079.6000000000931]","./assets/img/space/12.jpg","[""ArrowUp"",""ArrowRight""]","practice block","space","36","{""ArrowUp,ArrowLeft"":3,""ArrowUp,ArrowRight"":36,""ArrowDown,ArrowLeft"":15,""ArrowDown,ArrowRight"":23}","true","ArrowUp,ArrowRight","false","","","","","","","",""
"html-keyboard-response","66","450312","0.0-3.0-13.0-2.0-1.1","spark_pilot_2","7541","3","9","Male","","","","","","","null","<div style=""font-size:60px;"">+</div>","null","fixation","","","","","","","","","","","","","",""
"revaluation","67","456338","0.0-3.0-13.0-2.0-0.2","spark_pilot_2","7541","3","9","Male","","false","","","","","[1049.6000000000931,501.59999999962747]","./assets/img/space/13.jpg","[""ArrowUp"",""ArrowRight""]","practice block","space","36","{""ArrowUp,ArrowLeft"":3,""ArrowUp,ArrowRight"":36,""ArrowDown,ArrowLeft"":15,""ArrowDown,ArrowRight"":23}","true","ArrowUp,ArrowRight","false","","","","","","","",""
"html-keyboard-response","68","456848","0.0-3.0-13.0-2.0-1.2","spark_pilot_2","7541","3","9","Male","","","","","","","null","<div style=""font-size:60px;"">+</div>","null","fixation","","","","","","","","","","","","","",""
"revaluation","69","462874","0.0-3.0-13.0-2.0-0.3","spark_pilot_2","7541","3","9","Male","","false","","","","","[789.1999999997206,892.4000000003725]","./assets/img/space/14.jpg","[""ArrowUp"",""ArrowRight""]","practice block","space","36","{""ArrowUp,ArrowLeft"":3,""ArrowUp,ArrowRight"":36,""ArrowDown,ArrowLeft"":15,""ArrowDown,ArrowRight"":23}","true","ArrowUp,ArrowRight","false","","","","","","","",""
"html-keyboard-response","70","463383","0.0-3.0-13.0-2.0-1.3","spark_pilot_2","7541","3","9","Male","","","","","","","null","<div style=""font-size:60px;"">+</div>","null","fixation","","","","","","","","","","","","","",""
"revaluation","71","469406","0.0-3.0-13.0-2.0-0.4","spark_pilot_2","7541","3","9","Male","","false","","","","","[951.6999999997206,574.6000000000931]","./assets/img/space/11.jpg","[""ArrowUp"",""ArrowRight""]","practice block","space","36","{""ArrowUp,ArrowLeft"":3,""ArrowUp,ArrowRight"":36,""ArrowDown,ArrowLeft"":15,""ArrowDown,ArrowRight"":23}","true","ArrowUp,ArrowRight","false","","","","","","","",""
"html-keyboard-response","72","469911","0.0-3.0-13.0-2.0-1.4","spark_pilot_2","7541","3","9","Male","","","","","","","null","<div style=""font-size:60px;"">+</div>","null","fixation","","","","","","","","","","","","","",""
"revaluation","73","475936","0.0-3.0-13.0-2.0-0.5","spark_pilot_2","7541","3","9","Male","","false","","","","","[826.2999999998137,552.3000000002794]","./assets/img/space/12.jpg","[""ArrowUp"",""ArrowRight""]","practice block","space","36","{""ArrowUp,ArrowLeft"":3,""ArrowUp,ArrowRight"":36,""ArrowDown,ArrowLeft"":15,""ArrowDown,ArrowRight"":23}","true","ArrowUp,ArrowRight","false","","","","","","","",""
"html-keyboard-response","74","476441","0.0-3.0-13.0-2.0-1.5","spark_pilot_2","7541","3","9","Male","","","","","","","null","<div style=""font-size:60px;"">+</div>","null","fixation","","","","","","","","","","","","","",""
"revaluation","75","482467","0.0-3.0-13.0-2.0-0.6","spark_pilot_2","7541","3","9","Male","","false","","","","","[688.3999999999069,416.10000000009313]","./assets/img/space/13.jpg","[""ArrowUp"",""ArrowRight""]","practice block","space","36","{""ArrowUp,ArrowLeft"":3,""ArrowUp,ArrowRight"":36,""ArrowDown,ArrowLeft"":15,""ArrowDown,ArrowRight"":23}","true","ArrowUp,ArrowRight","false","","","","","","","",""
"html-keyboard-response","76","482978","0.0-3.0-13.0-2.0-1.6","spark_pilot_2","7541","3","9","Male","","","","","","","null","<div style=""font-size:60px;"">+</div>","null","fixation","","","","","","","","","","","","","",""
"revaluation","77","489003","0.0-3.0-13.0-2.0-0.7","spark_pilot_2","7541","3","9","Male","","false","","","","","[548.7000000001863,520.8999999999069]","./assets/img/space/14.jpg","[""ArrowUp"",""ArrowRight""]","practice block","space","36","{""ArrowUp,ArrowLeft"":3,""ArrowUp,ArrowRight"":36,""ArrowDown,ArrowLeft"":15,""ArrowDown,ArrowRight"":23}","true","ArrowUp,ArrowRight","false","","","","","","","",""
"html-keyboard-response","78","489514","0.0-3.0-13.0-2.0-1.7","spark_pilot_2","7541","3","9","Male","","","","","","","null","<div style=""font-size:60px;"">+</div>","null","fixation","","","","","","","","","","","","","",""
"revaluation","79","493531","0.0-3.0-13.0-2.0-0.8","spark_pilot_2","7541","3","9","Male","","false","","","","","[103.20000000018626]","./assets/img/space/catch/3.jpg","[""spaceBar""]","practice block","space","0","{""ArrowUp,ArrowLeft"":3,""ArrowUp,ArrowRight"":36,""ArrowDown,ArrowLeft"":15,""ArrowDown,ArrowRight"":23}","true","spaceBar","true","","","","","","","",""
"html-keyboard-response","80","494042","0.0-3.0-13.0-2.0-1.8","spark_pilot_2","7541","3","9","Male","","","","","","","null","<div style=""font-size:60px;"">+</div>","null","fixation","","","","","","","","","","","","","",""
"learning-instructions","81","508499","0.0-3.0-13.0-3.0-0.0","spark_pilot_2","7541","3","9","Male","","","","","","","1254.7000000001863","<p> Now, you will travel with a friend who will choose whether you go up or down first. </p>
            <p> On these turns, you will just see the animal that they found. You will still get to choose which chest to search for treasure.</p>","","instructions","","","","","","","","","","","","","",""
"revaluation","82","512515","0.0-3.0-13.0-4.0-0.0","spark_pilot_2","7541","3","9","Male","","false","","","","","[1179.5]","./assets/img/space/animals/cat.jpg","[""ArrowRight""]","practice block","space","36","{""ArrowUp,ArrowLeft"":3,""ArrowUp,ArrowRight"":36,""ArrowDown,ArrowLeft"":15,""ArrowDown,ArrowRight"":23}","true","ArrowUp,ArrowRight","","","","","","","","",""
"html-keyboard-response","83","513023","0.0-3.0-13.0-4.0-1.0","spark_pilot_2","7541","3","9","Male","","","","","","","null","<div style=""font-size:60px;"">+</div>","null","fixation","","","","","","","","","","","","","",""
"revaluation","84","517041","0.0-3.0-13.0-4.0-0.1","spark_pilot_2","7541","3","9","Male","","false","","","","","[784.1000000000931]","./assets/img/space/animals/rabbit.jpg","[""ArrowLeft""]","practice block","space","15","{""ArrowUp,ArrowLeft"":3,""ArrowUp,ArrowRight"":36,""ArrowDown,ArrowLeft"":15,""ArrowDown,ArrowRight"":23}","false","ArrowDown,ArrowLeft","","","","","","","","",""
"html-keyboard-response","85","517551","0.0-3.0-13.0-4.0-1.1","spark_pilot_2","7541","3","9","Male","","","","","","","null","<div style=""font-size:60px;"">+</div>","null","fixation","","","","","","","","","","","","","",""
"revaluation","86","521566","0.0-3.0-13.0-4.0-0.2","spark_pilot_2","7541","3","9","Male","","false","","","","","[224.59999999962747]","./assets/img/space/animals/rabbit.jpg","[""ArrowRight""]","practice block","space","23","{""ArrowUp,ArrowLeft"":3,""ArrowUp,ArrowRight"":36,""ArrowDown,ArrowLeft"":15,""ArrowDown,ArrowRight"":23}","true","ArrowDown,ArrowRight","","","","","","","","",""
"html-keyboard-response","87","522070","0.0-3.0-13.0-4.0-1.2","spark_pilot_2","7541","3","9","Male","","","","","","","null","<div style=""font-size:60px;"">+</div>","null","fixation","","","","","","","","","","","","","",""
"revaluation","88","526087","0.0-3.0-13.0-4.0-0.3","spark_pilot_2","7541","3","9","Male","","false","","","","","[272.59999999962747]","./assets/img/space/animals/cat.jpg","[""ArrowRight""]","practice block","space","36","{""ArrowUp,ArrowLeft"":3,""ArrowUp,ArrowRight"":36,""ArrowDown,ArrowLeft"":15,""ArrowDown,ArrowRight"":23}","true","ArrowUp,ArrowRight","","","","","","","","",""
"html-keyboard-response","89","526592","0.0-3.0-13.0-4.0-1.3","spark_pilot_2","7541","3","9","Male","","","","","","","null","<div style=""font-size:60px;"">+</div>","null","fixation","","","","","","","","","","","","","",""
"learning-instructions","90","535748","0.0-3.0-13.0-5.0-0.0","spark_pilot_2","7541","3","9","Male","","","","","","","1777.4000000003725","<p> Time to play the dot game! </p>
            <p> For 15 seconds, click the red dots on the following screen as they appear. </p>","","instructions","","","","","","","","","","","","","",""
"revaluation","91","550751","0.0-3.0-13.0-6.0-0.0","spark_pilot_2","7541","3","9","Male","","","","","","","[111]","","","rest practice","","10","","","","","0","15000","","","","","",""
"learning-instructions","92","559447","0.0-3.0-13.0-7.0-0.0","spark_pilot_2","7541","3","9","Male","","","","","","","2558.7000000001863","<p> You have almost finished this part of the game! </p>
            <p> We are going to ask you to make a few more choices. </p>","","instructions","","","","","","","","","","","","","",""
"learning-instructions","93","574280","0.0-3.0-13.0-7.0-0.1","spark_pilot_2","7541","3","9","Male","","","","","","","789.5","<p> First, you need to decide whether to go up or down. When you see each picture, use the arrow keys to make your choice. </p>
            <p><b>You will not see which animal you found, but try to get to the one that will give you the most treasure.</b></p>","","instructions","","","","","","","","","","","","","",""
"revaluation","94","576080","0.0-3.0-13.0-8.0","spark_pilot_2","7541","3","9","Male","","false","","","","","[1798.1999999997206]","./assets/img/space/15.jpg","[""ArrowUp""]","practice block","space","0","{""ArrowUp,ArrowLeft"":3,""ArrowUp,ArrowRight"":36,""ArrowDown,ArrowLeft"":15,""ArrowDown,ArrowRight"":23}","true","ArrowUp","false","","","","","","","",""
"html-keyboard-response","95","576584","0.0-3.0-13.0-9.0","spark_pilot_2","7541","3","9","Male","","","","","","","null","<div style=""font-size:60px;"">+</div>","null","fixation","","","","","","","","","","","","","",""
"learning-instructions","96","588280","0.0-3.0-13.0-10.0-0.0","spark_pilot_2","7541","3","9","Male","","","","","","","300.09999999962747","<p> Now you will see the animals again and can search their chests for treasure. </p>
            <p> This time, you will not see how much treasure you earned, but you will earn more bonus money for making better choices. </p>","","instructions","","","","","","","","","","","","","",""
"revaluation","97","589549","0.0-3.0-13.0-11.0-0.0","spark_pilot_2","7541","3","9","Male","","false","","","","","[1268]","./assets/img/space/animals/cat.jpg","[""ArrowRight""]","practice block","space","0","{""ArrowUp,ArrowLeft"":3,""ArrowUp,ArrowRight"":36,""ArrowDown,ArrowLeft"":15,""ArrowDown,ArrowRight"":23}","true","ArrowUp,ArrowRight","","","","","","","","",""
"html-keyboard-response","98","590057","0.0-3.0-13.0-11.0-1.0","spark_pilot_2","7541","3","9","Male","","","","","","","null","<div style=""font-size:60px;"">+</div>","null","fixation","","","","","","","","","","","","","",""
"revaluation","99","590177","0.0-3.0-13.0-11.0-0.1","spark_pilot_2","7541","3","9","Male","","false","","","","","[117.89999999990687]","./assets/img/space/animals/rabbit.jpg","[""ArrowRight""]","practice block","space","0","{""ArrowUp,ArrowLeft"":3,""ArrowUp,ArrowRight"":36,""ArrowDown,ArrowLeft"":15,""ArrowDown,ArrowRight"":23}","true","ArrowDown,ArrowRight","","","","","","","","",""
"html-keyboard-response","100","590678","0.0-3.0-13.0-11.0-1.1","spark_pilot_2","7541","3","9","Male","","","","","","","null","<div style=""font-size:60px;"">+</div>","null","fixation","","","","","","","","","","","","","",""
"learning-instructions","101","596096","0.0-3.0-14.0-0.0","spark_pilot_2","7541","3","9","Male","","","","","","","831.5","<p> Before you start, we're going to ask you a few questions about how the game works. </p>","","instructions","","","","","","","","","","","","","",""
"comp-q","102","603278","0.0-3.0-15.0-0.0-0.0","spark_pilot_2","7541","3","9","Male","","","","","","","1589.6000000000931","<p> <b> True or False? </b> </p>
            <p> There can be 50 pieces of treasure in a given animal's chest. </p>","1","comp_question","","","","true","","","","","","","","","",""
"comp-q","103","611028","0.0-3.0-15.0-0.0-1.0","spark_pilot_2","7541","3","9","Male","","","","","","","1082.6999999997206","<p> <b> That's right! </b> The amount of treasure in each chest can range from 0 to 40 pieces. </p>","0","comp_answer","","","","","","","","","","","","","",""
"comp-q","104","619328","0.0-3.0-15.0-0.1-0.1","spark_pilot_2","7541","3","9","Male","","","","","","","1052.6999999997206","<p> <b> True or False? </b> </p><p> In this game, all animals have the same amount of treasure in their left and right chests. </p>","1","comp_question","","","","true","","","","","","","","","",""
"comp-q","105","626362","0.0-3.0-15.0-0.1-1.1","spark_pilot_2","7541","3","9","Male","","","","","","","1788","<p> <b> That's right! </b> Animals have different amounts of treasure in their treasure chests. </p>","0","comp_answer","","","","","","","","","","","","","",""
"comp-q","106","632828","0.0-3.0-15.0-0.2-0.2","spark_pilot_2","7541","3","9","Male","","","","","","","609.6000000000931","<p> <b> True or False? </b> </p><p> The same animal will always be there if you go up in the same place. </p>","0","comp_question","","","","true","","","","","","","","","",""
"comp-q","107","641062","0.0-3.0-15.0-0.2-1.2","spark_pilot_2","7541","3","9","Male","","","","","","","1783.7999999998137","<p> <b> That's right! </b> One animal lives in the upper part and one lives in the lower part of every place. </p>","0","comp_answer","","","","","","","","","","","","","",""
"comp-q","108","647428","0.0-3.0-15.0-0.3-0.3","spark_pilot_2","7541","3","9","Male","","","","","","","830.5","<p> <b> True or False? </b> </p><p> If you see a different picture, it means you are in a new place. </p>","1","comp_question","","","","true","","","","","","","","","",""
"comp-q","109","660045","0.0-3.0-15.0-0.3-1.3","spark_pilot_2","7541","3","9","Male","","","","","","","1372.2999999998137","<p> <b> That's right! </b> Lots of different images may show the same place. For example,  you may see three different images that all remind you that you are in outer space. </p>","0","comp_answer","","","","","","","","","","","","","",""
"learning-instructions","110","671494","0.0-3.0-16.0-0.0","spark_pilot_2","7541","3","9","Male","","","","","","","1583.8999999999069","<p> Good job. Remember to do your best because the amount of treasure you earn will be converted into bonus money. </p>
            <p> It’s time to start the real game! </p>","","instructions","","","","","","","","","","","","","",""
"learning-instructions","111","674578","0.0-4.0-0.0-0.0","spark_pilot_2","7541","3","9","Male","","","","","","","371.29999999981374","<p> This time you are searching for treasure in the <b>ocean</b>.</p>","","instructions","","","","","","","","","","","","","",""
"learning-instructions","112","693244","0.0-4.0-0.0-0.1","spark_pilot_2","7541","3","9","Male","","","","","","","1338","<p><b>New</b> animals with <b>new</b> treasure chests live here. You need to explore to discover where the animal with the best treasure chest is.</p>
                    <p> Like before, once you figure out which animal has the chest with the most treasure, you should try to get to that animal and select that chest! </p>","","instructions","","","","","","","","","","","","","",""
"learning-instructions","113","708543","0.0-4.0-1.0-0.0","spark_pilot_2","7541","3","9","Male","","","","","","","569.5","<p> Remember, when you see a picture of the place, use the up and down keys to <b>find an animal</b>.</p>
            <p> When you encounter an animal, you should use the left and right keys to <b>select a treasure chest</b>.</p>
            <p> Don't forget to look out for the robber! </p>","","instructions","","","","","","","","","","","","","",""
"revaluation","114","714568","0.0-4.0-2.0-0.0","spark_pilot_2","7541","3","9","Male","","false","","","","","[901.3999999999069,1019.2000000001863]","./assets/img/ocean/memory/24.jpg","[""ArrowUp"",""ArrowRight""]","value training","ocean","10","{""ArrowUp,ArrowLeft"":23,""ArrowUp,ArrowRight"":10,""ArrowDown,ArrowLeft"":8,""ArrowDown,ArrowRight"":30}","false","ArrowUp,ArrowRight","false","","","original","1","0","","",""
"html-keyboard-response","115","715079","0.0-4.0-2.0-1.0","spark_pilot_2","7541","3","9","Male","","","","","","","null","<div style=""font-size:60px;"">+</div>","null","fixation","","","","","","","","","","","1","","",""
"revaluation","116","721101","0.0-4.0-2.0-0.1","spark_pilot_2","7541","3","9","Male","","false","","","","","[512.8999999999069,345.09999999962747]","./assets/img/ocean/memory/33.jpg","[""ArrowDown"",""ArrowRight""]","value training","ocean","30","{""ArrowUp,ArrowLeft"":23,""ArrowUp,ArrowRight"":10,""ArrowDown,ArrowLeft"":8,""ArrowDown,ArrowRight"":30}","true","ArrowDown,ArrowRight","false","","","original","1","2","","",""
"html-keyboard-response","117","721605","0.0-4.0-2.0-1.1","spark_pilot_2","7541","3","9","Male","","","","","","","null","<div style=""font-size:60px;"">+</div>","null","fixation","","","","","","","","","","","3","","",""
"revaluation","118","727629","0.0-4.0-2.0-0.2","spark_pilot_2","7541","3","9","Male","","false","","","","","[501,261.60000000009313]","./assets/img/ocean/memory/1.jpg","[""ArrowDown"",""ArrowLeft""]","value training","ocean","8","{""ArrowUp,ArrowLeft"":23,""ArrowUp,ArrowRight"":10,""ArrowDown,ArrowLeft"":8,""ArrowDown,ArrowRight"":30}","false","ArrowDown,ArrowLeft","false","","","original","1","4","","",""
"html-keyboard-response","119","728134","0.0-4.0-2.0-1.2","spark_pilot_2","7541","3","9","Male","","","","","","","null","<div style=""font-size:60px;"">+</div>","null","fixation","","","","","","","","","","","5","","",""
"revaluation","120","734159","0.0-4.0-2.0-0.3","spark_pilot_2","7541","3","9","Male","","false","","","","","[612.5,290.39999999990687]","./assets/img/ocean/memory/14.jpg","[""ArrowUp"",""ArrowLeft""]","value training","ocean","23","{""ArrowUp,ArrowLeft"":23,""ArrowUp,ArrowRight"":10,""ArrowDown,ArrowLeft"":8,""ArrowDown,ArrowRight"":30}","false","ArrowUp,ArrowLeft","false","","","original","1","6","","",""
"html-keyboard-response","121","734663","0.0-4.0-2.0-1.3","spark_pilot_2","7541","3","9","Male","","","","","","","null","<div style=""font-size:60px;"">+</div>","null","fixation","","","","","","","","","","","7","","",""
"revaluation","122","740685","0.0-4.0-2.0-0.4","spark_pilot_2","7541","3","9","Male","","false","","","","","[1145.3000000002794,411.89999999990687]","./assets/img/ocean/memory/36.jpg","[""ArrowDown"",""ArrowRight""]","value training","ocean","30","{""ArrowUp,ArrowLeft"":23,""ArrowUp,ArrowRight"":10,""ArrowDown,ArrowLeft"":8,""ArrowDown,ArrowRight"":30}","true","ArrowDown,ArrowRight","false","","","original","1","8","","",""
"html-keyboard-response","123","741190","0.0-4.0-2.0-1.4","spark_pilot_2","7541","3","9","Male","","","","","","","null","<div style=""font-size:60px;"">+</div>","null","fixation","","","","","","","","","","","9","","",""
"revaluation","124","745207","0.0-4.0-2.0-0.5","spark_pilot_2","7541","3","9","Male","","false","","","","","[668.8999999999069]","./assets/img/ocean/catch/3.jpg","[""spaceBar""]","value training","ocean","0","{""ArrowUp,ArrowLeft"":23,""ArrowUp,ArrowRight"":10,""ArrowDown,ArrowLeft"":8,""ArrowDown,ArrowRight"":30}","true","spaceBar","true","","","original","1","10","","",""
"html-keyboard-response","125","745718","0.0-4.0-2.0-1.5","spark_pilot_2","7541","3","9","Male","","","","","","","null","<div style=""font-size:60px;"">+</div>","null","fixation","","","","","","","","","","","11","","",""
"revaluation","126","751744","0.0-4.0-2.0-0.6","spark_pilot_2","7541","3","9","Male","","false","","","","","[426.90000000037253,6.100000000093132]","./assets/img/ocean/memory/36.jpg","[""ArrowUp"",""ArrowRight""]","value training","ocean","10","{""ArrowUp,ArrowLeft"":23,""ArrowUp,ArrowRight"":10,""ArrowDown,ArrowLeft"":8,""ArrowDown,ArrowRight"":30}","false","ArrowUp,ArrowRight","false","","","original","1","12","","",""
"html-keyboard-response","127","752254","0.0-4.0-2.0-1.6","spark_pilot_2","7541","3","9","Male","","","","","","","null","<div style=""font-size:60px;"">+</div>","null","fixation","","","","","","","","","","","13","","",""
"revaluation","128","758280","0.0-4.0-2.0-0.7","spark_pilot_2","7541","3","9","Male","","false","","","","","[472.90000000037253,10.399999999906868]","./assets/img/ocean/memory/40.jpg","[""ArrowDown"",""ArrowRight""]","value training","ocean","30","{""ArrowUp,ArrowLeft"":23,""ArrowUp,ArrowRight"":10,""ArrowDown,ArrowLeft"":8,""ArrowDown,ArrowRight"":30}","true","ArrowDown,ArrowRight","false","","","original","1","14","","",""
"html-keyboard-response","129","758791","0.0-4.0-2.0-1.7","spark_pilot_2","7541","3","9","Male","","","","","","","null","<div style=""font-size:60px;"">+</div>","null","fixation","","","","","","","","","","","15","","",""
"revaluation","130","762808","0.0-4.0-2.0-0.8","spark_pilot_2","7541","3","9","Male","","false","","","","","[594.6999999997206]","./assets/img/ocean/catch/2.jpg","[""spaceBar""]","value training","ocean","0","{""ArrowUp,ArrowLeft"":23,""ArrowUp,ArrowRight"":10,""ArrowDown,ArrowLeft"":8,""ArrowDown,ArrowRight"":30}","true","spaceBar","true","","","original","1","16","","",""
"html-keyboard-response","131","763318","0.0-4.0-2.0-1.8","spark_pilot_2","7541","3","9","Male","","","","","","","null","<div style=""font-size:60px;"">+</div>","null","fixation","","","","","","","","","","","17","","",""
"revaluation","132","769344","0.0-4.0-2.0-0.9","spark_pilot_2","7541","3","9","Male","","false","","","","","[379.59999999962747,295.5]","./assets/img/ocean/memory/34.jpg","[""ArrowDown"",""ArrowRight""]","value training","ocean","30","{""ArrowUp,ArrowLeft"":23,""ArrowUp,ArrowRight"":10,""ArrowDown,ArrowLeft"":8,""ArrowDown,ArrowRight"":30}","true","ArrowDown,ArrowRight","false","","","original","1","18","","",""
"html-keyboard-response","133","769855","0.0-4.0-2.0-1.9","spark_pilot_2","7541","3","9","Male","","","","","","","null","<div style=""font-size:60px;"">+</div>","null","fixation","","","","","","","","","","","19","","",""
"revaluation","134","775881","0.0-4.0-2.0-0.10","spark_pilot_2","7541","3","9","Male","","false","","","","","[931.9000000003725,343.5]","./assets/img/ocean/memory/4.jpg","[""ArrowDown"",""ArrowRight""]","value training","ocean","30","{""ArrowUp,ArrowLeft"":23,""ArrowUp,ArrowRight"":10,""ArrowDown,ArrowLeft"":8,""ArrowDown,ArrowRight"":30}","true","ArrowDown,ArrowRight","false","","","original","1","20","","",""
"html-keyboard-response","135","776391","0.0-4.0-2.0-1.10","spark_pilot_2","7541","3","9","Male","","","","","","","null","<div style=""font-size:60px;"">+</div>","null","fixation","","","","","","","","","","","21","","",""
"revaluation","136","782414","0.0-4.0-2.0-0.11","spark_pilot_2","7541","3","9","Male","","false","","","","","[666.5,122.89999999990687]","./assets/img/ocean/memory/7.jpg","[""ArrowDown"",""ArrowRight""]","value training","ocean","30","{""ArrowUp,ArrowLeft"":23,""ArrowUp,ArrowRight"":10,""ArrowDown,ArrowLeft"":8,""ArrowDown,ArrowRight"":30}","true","ArrowDown,ArrowRight","false","","","original","1","22","","",""
"html-keyboard-response","137","782916","0.0-4.0-2.0-1.11","spark_pilot_2","7541","3","9","Male","","","","","","","null","<div style=""font-size:60px;"">+</div>","null","fixation","","","","","","","","","","","23","","",""
"revaluation","138","788942","0.0-4.0-2.0-0.12","spark_pilot_2","7541","3","9","Male","","false","","","","","[572.3000000002794,356.3000000002794]","./assets/img/ocean/memory/19.jpg","[""ArrowDown"",""ArrowRight""]","value training","ocean","30","{""ArrowUp,ArrowLeft"":23,""ArrowUp,ArrowRight"":10,""ArrowDown,ArrowLeft"":8,""ArrowDown,ArrowRight"":30}","true","ArrowDown,ArrowRight","false","","","original","1","24","","",""
"html-keyboard-response","139","789447","0.0-4.0-2.0-1.12","spark_pilot_2","7541","3","9","Male","","","","","","","null","<div style=""font-size:60px;"">+</div>","null","fixation","","","","","","","","","","","25","","",""
"revaluation","140","795472","0.0-4.0-2.0-0.13","spark_pilot_2","7541","3","9","Male","","false","","","","","[615.5999999996275,317]","./assets/img/ocean/memory/3.jpg","[""ArrowDown"",""ArrowRight""]","value training","ocean","30","{""ArrowUp,ArrowLeft"":23,""ArrowUp,ArrowRight"":10,""ArrowDown,ArrowLeft"":8,""ArrowDown,ArrowRight"":30}","true","ArrowDown,ArrowRight","false","","","original","1","26","","",""
"html-keyboard-response","141","795983","0.0-4.0-2.0-1.13","spark_pilot_2","7541","3","9","Male","","","","","","","null","<div style=""font-size:60px;"">+</div>","null","fixation","","","","","","","","","","","27","","",""
"revaluation","142","802009","0.0-4.0-2.0-0.14","spark_pilot_2","7541","3","9","Male","","false","","","","","[598,692.7000000001863]","./assets/img/ocean/memory/0.jpg","[""ArrowDown"",""ArrowRight""]","value training","ocean","30","{""ArrowUp,ArrowLeft"":23,""ArrowUp,ArrowRight"":10,""ArrowDown,ArrowLeft"":8,""ArrowDown,ArrowRight"":30}","true","ArrowDown,ArrowRight","false","","","original","1","28","","",""
"html-keyboard-response","143","802519","0.0-4.0-2.0-1.14","spark_pilot_2","7541","3","9","Male","","","","","","","null","<div style=""font-size:60px;"">+</div>","null","fixation","","","","","","","","","","","29","","",""
"revaluation","144","806537","0.0-4.0-2.0-0.15","spark_pilot_2","7541","3","9","Male","","false","","","","","[748.2000000001863]","./assets/img/ocean/catch/7.jpg","[""spaceBar""]","value training","ocean","0","{""ArrowUp,ArrowLeft"":23,""ArrowUp,ArrowRight"":10,""ArrowDown,ArrowLeft"":8,""ArrowDown,ArrowRight"":30}","true","spaceBar","true","","","original","1","30","","",""
"html-keyboard-response","145","807047","0.0-4.0-2.0-1.15","spark_pilot_2","7541","3","9","Male","","","","","","","null","<div style=""font-size:60px;"">+</div>","null","fixation","","","","","","","","","","","31","","",""
"revaluation","146","811065","0.0-4.0-2.0-0.16","spark_pilot_2","7541","3","9","Male","","false","","","","","[1069.6999999997206]","./assets/img/ocean/catch/4.jpg","[""spaceBar""]","value training","ocean","0","{""ArrowUp,ArrowLeft"":23,""ArrowUp,ArrowRight"":10,""ArrowDown,ArrowLeft"":8,""ArrowDown,ArrowRight"":30}","true","spaceBar","true","","","original","1","32","","",""
"html-keyboard-response","147","811575","0.0-4.0-2.0-1.16","spark_pilot_2","7541","3","9","Male","","","","","","","null","<div style=""font-size:60px;"">+</div>","null","fixation","","","","","","","","","","","33","","",""
"revaluation","148","817600","0.0-4.0-2.0-0.17","spark_pilot_2","7541","3","9","Male","","false","","","","","[665.8000000002794,337.6999999997206]","./assets/img/ocean/memory/7.jpg","[""ArrowDown"",""ArrowRight""]","value training","ocean","30","{""ArrowUp,ArrowLeft"":23,""ArrowUp,ArrowRight"":10,""ArrowDown,ArrowLeft"":8,""ArrowDown,ArrowRight"":30}","true","ArrowDown,ArrowRight","false","","","original","1","34","","",""
"html-keyboard-response","149","818111","0.0-4.0-2.0-1.17","spark_pilot_2","7541","3","9","Male","","","","","","","null","<div style=""font-size:60px;"">+</div>","null","fixation","","","","","","","","","","","35","","",""
"revaluation","150","824131","0.0-4.0-2.0-0.18","spark_pilot_2","7541","3","9","Male","","false","","","","","[642.2999999998137,305.29999999981374]","./assets/img/ocean/memory/0.jpg","[""ArrowDown"",""ArrowRight""]","value training","ocean","30","{""ArrowUp,ArrowLeft"":23,""ArrowUp,ArrowRight"":10,""ArrowDown,ArrowLeft"":8,""ArrowDown,ArrowRight"":30}","true","ArrowDown,ArrowRight","false","","","original","1","36","","",""
"html-keyboard-response","151","824636","0.0-4.0-2.0-1.18","spark_pilot_2","7541","3","9","Male","","","","","","","null","<div style=""font-size:60px;"">+</div>","null","fixation","","","","","","","","","","","37","","",""
"revaluation","152","830662","0.0-4.0-2.0-0.19","spark_pilot_2","7541","3","9","Male","","false","","","","","[443.5,242.5]","./assets/img/ocean/memory/16.jpg","[""ArrowDown"",""ArrowRight""]","value training","ocean","30","{""ArrowUp,ArrowLeft"":23,""ArrowUp,ArrowRight"":10,""ArrowDown,ArrowLeft"":8,""ArrowDown,ArrowRight"":30}","true","ArrowDown,ArrowRight","false","","","original","1","38","","",""
"html-keyboard-response","153","831166","0.0-4.0-2.0-1.19","spark_pilot_2","7541","3","9","Male","","","","","","","null","<div style=""font-size:60px;"">+</div>","null","fixation","","","","","","","","","","","39","","",""
"revaluation","154","837192","0.0-4.0-2.0-0.20","spark_pilot_2","7541","3","9","Male","","false","","","","","[454.89999999990687,311.10000000009313]","./assets/img/ocean/memory/16.jpg","[""ArrowDown"",""ArrowRight""]","value training","ocean","30","{""ArrowUp,ArrowLeft"":23,""ArrowUp,ArrowRight"":10,""ArrowDown,ArrowLeft"":8,""ArrowDown,ArrowRight"":30}","true","ArrowDown,ArrowRight","false","","","original","1","40","","",""
"html-keyboard-response","155","837703","0.0-4.0-2.0-1.20","spark_pilot_2","7541","3","9","Male","","","","","","","null","<div style=""font-size:60px;"">+</div>","null","fixation","","","","","","","","","","","41","","",""
"revaluation","156","841721","0.0-4.0-2.0-0.21","spark_pilot_2","7541","3","9","Male","","false","","","","","[573.1000000000931]","./assets/img/ocean/catch/5.jpg","[""ArrowDown""]","value training","ocean","-10","{""ArrowUp,ArrowLeft"":23,""ArrowUp,ArrowRight"":10,""ArrowDown,ArrowLeft"":8,""ArrowDown,ArrowRight"":30}","false","ArrowDown","true","","","original","1","42","","",""
"html-keyboard-response","157","842232","0.0-4.0-2.0-1.21","spark_pilot_2","7541","3","9","Male","","","","","","","null","<div style=""font-size:60px;"">+</div>","null","fixation","","","","","","","","","","","43","","",""
"revaluation","158","848254","0.0-4.0-2.0-0.22","spark_pilot_2","7541","3","9","Male","","false","","","","","[1230,551.6000000000931]","./assets/img/ocean/memory/18.jpg","[""ArrowDown"",""ArrowRight""]","value training","ocean","30","{""ArrowUp,ArrowLeft"":23,""ArrowUp,ArrowRight"":10,""ArrowDown,ArrowLeft"":8,""ArrowDown,ArrowRight"":30}","true","ArrowDown,ArrowRight","false","","","original","1","44","","",""
"html-keyboard-response","159","848759","0.0-4.0-2.0-1.22","spark_pilot_2","7541","3","9","Male","","","","","","","null","<div style=""font-size:60px;"">+</div>","null","fixation","","","","","","","","","","","45","","",""
"revaluation","160","854780","0.0-4.0-2.0-0.23","spark_pilot_2","7541","3","9","Male","","false","","","","","[1337.6000000000931,518.5]","./assets/img/ocean/memory/20.jpg","[""ArrowDown"",""ArrowRight""]","value training","ocean","30","{""ArrowUp,ArrowLeft"":23,""ArrowUp,ArrowRight"":10,""ArrowDown,ArrowLeft"":8,""ArrowDown,ArrowRight"":30}","true","ArrowDown,ArrowRight","false","","","original","1","46","","",""
"html-keyboard-response","161","855291","0.0-4.0-2.0-1.23","spark_pilot_2","7541","3","9","Male","","","","","","","null","<div style=""font-size:60px;"">+</div>","null","fixation","","","","","","","","","","","47","","",""
"revaluation","162","861318","0.0-4.0-2.0-0.24","spark_pilot_2","7541","3","9","Male","","false","","","","","[574.2000000001863,307.6999999997206]","./assets/img/ocean/memory/37.jpg","[""ArrowDown"",""ArrowRight""]","value training","ocean","30","{""ArrowUp,ArrowLeft"":23,""ArrowUp,ArrowRight"":10,""ArrowDown,ArrowLeft"":8,""ArrowDown,ArrowRight"":30}","true","ArrowDown,ArrowRight","false","","","original","1","48","","",""
"html-keyboard-response","163","861828","0.0-4.0-2.0-1.24","spark_pilot_2","7541","3","9","Male","","","","","","","null","<div style=""font-size:60px;"">+</div>","null","fixation","","","","","","","","","","","49","","",""
"revaluation","164","867854","0.0-4.0-2.0-0.25","spark_pilot_2","7541","3","9","Male","","false","","","","","[1027.9000000003725,624.1999999997206]","./assets/img/ocean/memory/3.jpg","[""ArrowDown"",""ArrowRight""]","value training","ocean","30","{""ArrowUp,ArrowLeft"":23,""ArrowUp,ArrowRight"":10,""ArrowDown,ArrowLeft"":8,""ArrowDown,ArrowRight"":30}","true","ArrowDown,ArrowRight","false","","","original","1","50","","",""
"html-keyboard-response","165","868365","0.0-4.0-2.0-1.25","spark_pilot_2","7541","3","9","Male","","","","","","","null","<div style=""font-size:60px;"">+</div>","null","fixation","","","","","","","","","","","51","","",""
"revaluation","166","874386","0.0-4.0-2.0-0.26","spark_pilot_2","7541","3","9","Male","","false","","","","","[736,22.200000000186265]","./assets/img/ocean/memory/4.jpg","[""ArrowDown"",""ArrowRight""]","value training","ocean","30","{""ArrowUp,ArrowLeft"":23,""ArrowUp,ArrowRight"":10,""ArrowDown,ArrowLeft"":8,""ArrowDown,ArrowRight"":30}","true","ArrowDown,ArrowRight","false","","","original","1","52","","",""
"html-keyboard-response","167","874890","0.0-4.0-2.0-1.26","spark_pilot_2","7541","3","9","Male","","","","","","","null","<div style=""font-size:60px;"">+</div>","null","fixation","","","","","","","","","","","53","","",""
"revaluation","168","880916","0.0-4.0-2.0-0.27","spark_pilot_2","7541","3","9","Male","","false","","","","","[1330.6000000000931,271.60000000009313]","./assets/img/ocean/memory/20.jpg","[""ArrowDown"",""ArrowRight""]","value training","ocean","30","{""ArrowUp,ArrowLeft"":23,""ArrowUp,ArrowRight"":10,""ArrowDown,ArrowLeft"":8,""ArrowDown,ArrowRight"":30}","true","ArrowDown,ArrowRight","false","","","original","1","54","","",""
"html-keyboard-response","169","881421","0.0-4.0-2.0-1.27","spark_pilot_2","7541","3","9","Male","","","","","","","null","<div style=""font-size:60px;"">+</div>","null","fixation","","","","","","","","","","","55","","",""
"revaluation","170","887445","0.0-4.0-2.0-0.28","spark_pilot_2","7541","3","9","Male","","false","","","","","[491.3000000002794,1300.2999999998137]","./assets/img/ocean/memory/40.jpg","[""ArrowDown"",""ArrowRight""]","value training","ocean","30","{""ArrowUp,ArrowLeft"":23,""ArrowUp,ArrowRight"":10,""ArrowDown,ArrowLeft"":8,""ArrowDown,ArrowRight"":30}","true","ArrowDown,ArrowRight","false","","","original","1","56","","",""
"html-keyboard-response","171","887958","0.0-4.0-2.0-1.28","spark_pilot_2","7541","3","9","Male","","","","","","","null","<div style=""font-size:60px;"">+</div>","null","fixation","","","","","","","","","","","57","","",""
"revaluation","172","893978","0.0-4.0-2.0-0.29","spark_pilot_2","7541","3","9","Male","","false","","","","","[56.5,634]","./assets/img/ocean/memory/10.jpg","[""ArrowDown"",""ArrowRight""]","value training","ocean","30","{""ArrowUp,ArrowLeft"":23,""ArrowUp,ArrowRight"":10,""ArrowDown,ArrowLeft"":8,""ArrowDown,ArrowRight"":30}","true","ArrowDown,ArrowRight","false","","","original","1","58","","",""
"html-keyboard-response","173","894483","0.0-4.0-2.0-1.29","spark_pilot_2","7541","3","9","Male","","","","","","","null","<div style=""font-size:60px;"">+</div>","null","fixation","","","","","","","","","","","59","","",""
"revaluation","174","900509","0.0-4.0-2.0-0.30","spark_pilot_2","7541","3","9","Male","","false","","","","","[1095.1999999997206,602.7000000001863]","./assets/img/ocean/memory/11.jpg","[""ArrowDown"",""ArrowRight""]","value training","ocean","30","{""ArrowUp,ArrowLeft"":23,""ArrowUp,ArrowRight"":10,""ArrowDown,ArrowLeft"":8,""ArrowDown,ArrowRight"":30}","true","ArrowDown,ArrowRight","false","","","original","1","60","","",""
"html-keyboard-response","175","901013","0.0-4.0-2.0-1.30","spark_pilot_2","7541","3","9","Male","","","","","","","null","<div style=""font-size:60px;"">+</div>","null","fixation","","","","","","","","","","","61","","",""
"revaluation","176","907039","0.0-4.0-2.0-0.31","spark_pilot_2","7541","3","9","Male","","false","","","","","[867.6000000000931,351.89999999990687]","./assets/img/ocean/memory/37.jpg","[""ArrowDown"",""ArrowRight""]","value training","ocean","30","{""ArrowUp,ArrowLeft"":23,""ArrowUp,ArrowRight"":10,""ArrowDown,ArrowLeft"":8,""ArrowDown,ArrowRight"":30}","true","ArrowDown,ArrowRight","false","","","original","1","62","","",""
"html-keyboard-response","177","907550","0.0-4.0-2.0-1.31","spark_pilot_2","7541","3","9","Male","","","","","","","null","<div style=""font-size:60px;"">+</div>","null","fixation","","","","","","","","","","","63","","",""
"revaluation","178","913575","0.0-4.0-2.0-0.32","spark_pilot_2","7541","3","9","Male","","false","","","","","[639.7999999998137,738.6999999997206]","./assets/img/ocean/memory/31.jpg","[""ArrowDown"",""ArrowRight""]","value training","ocean","30","{""ArrowUp,ArrowLeft"":23,""ArrowUp,ArrowRight"":10,""ArrowDown,ArrowLeft"":8,""ArrowDown,ArrowRight"":30}","true","ArrowDown,ArrowRight","false","","","original","1","64","","",""
"html-keyboard-response","179","914086","0.0-4.0-2.0-1.32","spark_pilot_2","7541","3","9","Male","","","","","","","null","<div style=""font-size:60px;"">+</div>","null","fixation","","","","","","","","","","","65","","",""
"revaluation","180","920106","0.0-4.0-2.0-0.33","spark_pilot_2","7541","3","9","Male","","false","","","","","[815,309.79999999981374]","./assets/img/ocean/memory/19.jpg","[""ArrowDown"",""ArrowRight""]","value training","ocean","30","{""ArrowUp,ArrowLeft"":23,""ArrowUp,ArrowRight"":10,""ArrowDown,ArrowLeft"":8,""ArrowDown,ArrowRight"":30}","true","ArrowDown,ArrowRight","false","","","original","1","66","","",""
"html-keyboard-response","181","920611","0.0-4.0-2.0-1.33","spark_pilot_2","7541","3","9","Male","","","","","","","null","<div style=""font-size:60px;"">+</div>","null","fixation","","","","","","","","","","","67","","",""
"revaluation","182","926637","0.0-4.0-2.0-0.34","spark_pilot_2","7541","3","9","Male","","false","","","","","[529.3000000002794,139.10000000009313]","./assets/img/ocean/memory/1.jpg","[""ArrowDown"",""ArrowRight""]","value training","ocean","30","{""ArrowUp,ArrowLeft"":23,""ArrowUp,ArrowRight"":10,""ArrowDown,ArrowLeft"":8,""ArrowDown,ArrowRight"":30}","true","ArrowDown,ArrowRight","false","","","original","1","68","","",""
"html-keyboard-response","183","927142","0.0-4.0-2.0-1.34","spark_pilot_2","7541","3","9","Male","","","","","","","null","<div style=""font-size:60px;"">+</div>","null","fixation","","","","","","","","","","","69","","",""
"revaluation","184","933167","0.0-4.0-2.0-0.35","spark_pilot_2","7541","3","9","Male","","false","","","","","[516.2999999998137,97.1999999997206]","./assets/img/ocean/memory/39.jpg","[""ArrowDown"",""ArrowRight""]","value training","ocean","30","{""ArrowUp,ArrowLeft"":23,""ArrowUp,ArrowRight"":10,""ArrowDown,ArrowLeft"":8,""ArrowDown,ArrowRight"":30}","true","ArrowDown,ArrowRight","false","","","original","1","70","","",""
"html-keyboard-response","185","933678","0.0-4.0-2.0-1.35","spark_pilot_2","7541","3","9","Male","","","","","","","null","<div style=""font-size:60px;"">+</div>","null","fixation","","","","","","","","","","","71","","",""
"revaluation","186","937695","0.0-4.0-2.0-0.36","spark_pilot_2","7541","3","9","Male","","false","","","","","[633.3999999999069]","./assets/img/ocean/catch/0.jpg","[""spaceBar""]","value training","ocean","0","{""ArrowUp,ArrowLeft"":23,""ArrowUp,ArrowRight"":10,""ArrowDown,ArrowLeft"":8,""ArrowDown,ArrowRight"":30}","true","spaceBar","true","","","original","1","72","","",""
"html-keyboard-response","187","938206","0.0-4.0-2.0-1.36","spark_pilot_2","7541","3","9","Male","","","","","","","null","<div style=""font-size:60px;"">+</div>","null","fixation","","","","","","","","","","","73","","",""
"revaluation","188","944226","0.0-4.0-2.0-0.37","spark_pilot_2","7541","3","9","Male","","false","","","","","[534.6999999997206,334.89999999990687]","./assets/img/ocean/memory/15.jpg","[""ArrowDown"",""ArrowRight""]","value training","ocean","30","{""ArrowUp,ArrowLeft"":23,""ArrowUp,ArrowRight"":10,""ArrowDown,ArrowLeft"":8,""ArrowDown,ArrowRight"":30}","true","ArrowDown,ArrowRight","false","","","original","1","74","","",""
"html-keyboard-response","189","944731","0.0-4.0-2.0-1.37","spark_pilot_2","7541","3","9","Male","","","","","","","null","<div style=""font-size:60px;"">+</div>","null","fixation","","","","","","","","","","","75","","",""
"revaluation","190","950757","0.0-4.0-2.0-0.38","spark_pilot_2","7541","3","9","Male","","false","","","","","[463.5,84.3000000002794]","./assets/img/ocean/memory/34.jpg","[""ArrowDown"",""ArrowRight""]","value training","ocean","30","{""ArrowUp,ArrowLeft"":23,""ArrowUp,ArrowRight"":10,""ArrowDown,ArrowLeft"":8,""ArrowDown,ArrowRight"":30}","true","ArrowDown,ArrowRight","false","","","original","1","76","","",""
"html-keyboard-response","191","951261","0.0-4.0-2.0-1.38","spark_pilot_2","7541","3","9","Male","","","","","","","null","<div style=""font-size:60px;"">+</div>","null","fixation","","","","","","","","","","","77","","",""
"revaluation","192","957287","0.0-4.0-2.0-0.39","spark_pilot_2","7541","3","9","Male","","false","","","","","[452.89999999990687,142.89999999990687]","./assets/img/ocean/memory/39.jpg","[""ArrowDown"",""ArrowRight""]","value training","ocean","30","{""ArrowUp,ArrowLeft"":23,""ArrowUp,ArrowRight"":10,""ArrowDown,ArrowLeft"":8,""ArrowDown,ArrowRight"":30}","true","ArrowDown,ArrowRight","false","","","original","1","78","","",""
"html-keyboard-response","193","957797","0.0-4.0-2.0-1.39","spark_pilot_2","7541","3","9","Male","","","","","","","null","<div style=""font-size:60px;"">+</div>","null","fixation","","","","","","","","","","","79","","",""
"revaluation","194","963818","0.0-4.0-2.0-0.40","spark_pilot_2","7541","3","9","Male","","false","","","","","[479.10000000009313,175.60000000009313]","./assets/img/ocean/memory/31.jpg","[""ArrowDown"",""ArrowRight""]","value training","ocean","30","{""ArrowUp,ArrowLeft"":23,""ArrowUp,ArrowRight"":10,""ArrowDown,ArrowLeft"":8,""ArrowDown,ArrowRight"":30}","true","ArrowDown,ArrowRight","false","","","original","1","80","","",""
"html-keyboard-response","195","964323","0.0-4.0-2.0-1.40","spark_pilot_2","7541","3","9","Male","","","","","","","null","<div style=""font-size:60px;"">+</div>","null","fixation","","","","","","","","","","","81","","",""
"revaluation","196","970343","0.0-4.0-2.0-0.41","spark_pilot_2","7541","3","9","Male","","false","","","","","[1062.8999999999069,90.89999999990687]","./assets/img/ocean/memory/14.jpg","[""ArrowDown"",""ArrowRight""]","value training","ocean","30","{""ArrowUp,ArrowLeft"":23,""ArrowUp,ArrowRight"":10,""ArrowDown,ArrowLeft"":8,""ArrowDown,ArrowRight"":30}","true","ArrowDown,ArrowRight","false","","","original","1","82","","",""
"html-keyboard-response","197","970853","0.0-4.0-2.0-1.41","spark_pilot_2","7541","3","9","Male","","","","","","","null","<div style=""font-size:60px;"">+</div>","null","fixation","","","","","","","","","","","83","","",""
"revaluation","198","976879","0.0-4.0-2.0-0.42","spark_pilot_2","7541","3","9","Male","","false","","","","","[624.1000000000931,108.6999999997206]","./assets/img/ocean/memory/33.jpg","[""ArrowDown"",""ArrowRight""]","value training","ocean","30","{""ArrowUp,ArrowLeft"":23,""ArrowUp,ArrowRight"":10,""ArrowDown,ArrowLeft"":8,""ArrowDown,ArrowRight"":30}","true","ArrowDown,ArrowRight","false","","","original","1","84","","",""
"html-keyboard-response","199","977389","0.0-4.0-2.0-1.42","spark_pilot_2","7541","3","9","Male","","","","","","","null","<div style=""font-size:60px;"">+</div>","null","fixation","","","","","","","","","","","85","","",""
"revaluation","200","981407","0.0-4.0-2.0-0.43","spark_pilot_2","7541","3","9","Male","","false","","","","","[596.8000000002794]","./assets/img/ocean/catch/6.jpg","[""spaceBar""]","value training","ocean","0","{""ArrowUp,ArrowLeft"":23,""ArrowUp,ArrowRight"":10,""ArrowDown,ArrowLeft"":8,""ArrowDown,ArrowRight"":30}","true","spaceBar","true","","","original","1","86","","",""
"html-keyboard-response","201","981917","0.0-4.0-2.0-1.43","spark_pilot_2","7541","3","9","Male","","","","","","","null","<div style=""font-size:60px;"">+</div>","null","fixation","","","","","","","","","","","87","","",""
"revaluation","202","987943","0.0-4.0-2.0-0.44","spark_pilot_2","7541","3","9","Male","","false","","","","","[893,416.3000000002794]","./assets/img/ocean/memory/11.jpg","[""ArrowDown"",""ArrowRight""]","value training","ocean","30","{""ArrowUp,ArrowLeft"":23,""ArrowUp,ArrowRight"":10,""ArrowDown,ArrowLeft"":8,""ArrowDown,ArrowRight"":30}","true","ArrowDown,ArrowRight","false","","","original","1","88","","",""
"html-keyboard-response","203","988454","0.0-4.0-2.0-1.44","spark_pilot_2","7541","3","9","Male","","","","","","","null","<div style=""font-size:60px;"">+</div>","null","fixation","","","","","","","","","","","89","","",""
"revaluation","204","994474","0.0-4.0-2.0-0.45","spark_pilot_2","7541","3","9","Male","","false","","","","","[996.0999999996275,691.1000000000931]","./assets/img/ocean/memory/15.jpg","[""ArrowDown"",""ArrowRight""]","value training","ocean","30","{""ArrowUp,ArrowLeft"":23,""ArrowUp,ArrowRight"":10,""ArrowDown,ArrowLeft"":8,""ArrowDown,ArrowRight"":30}","true","ArrowDown,ArrowRight","false","","","original","1","90","","",""
"html-keyboard-response","205","994978","0.0-4.0-2.0-1.45","spark_pilot_2","7541","3","9","Male","","","","","","","null","<div style=""font-size:60px;"">+</div>","null","fixation","","","","","","","","","","","91","","",""
"revaluation","206","1001004","0.0-4.0-2.0-0.46","spark_pilot_2","7541","3","9","Male","","false","","","","","[679.8999999999069,335.09999999962747]","./assets/img/ocean/memory/10.jpg","[""ArrowDown"",""ArrowRight""]","value training","ocean","30","{""ArrowUp,ArrowLeft"":23,""ArrowUp,ArrowRight"":10,""ArrowDown,ArrowLeft"":8,""ArrowDown,ArrowRight"":30}","true","ArrowDown,ArrowRight","false","","","original","1","92","","",""
"html-keyboard-response","207","1001509","0.0-4.0-2.0-1.46","spark_pilot_2","7541","3","9","Male","","","","","","","null","<div style=""font-size:60px;"">+</div>","null","fixation","","","","","","","","","","","93","","",""
"revaluation","208","1007535","0.0-4.0-2.0-0.47","spark_pilot_2","7541","3","9","Male","","false","","","","","[561.0999999996275,357.70000000018626]","./assets/img/ocean/memory/18.jpg","[""ArrowDown"",""ArrowRight""]","value training","ocean","30","{""ArrowUp,ArrowLeft"":23,""ArrowUp,ArrowRight"":10,""ArrowDown,ArrowLeft"":8,""ArrowDown,ArrowRight"":30}","true","ArrowDown,ArrowRight","false","","","original","1","94","","",""
"html-keyboard-response","209","1008045","0.0-4.0-2.0-1.47","spark_pilot_2","7541","3","9","Male","","","","","","","null","<div style=""font-size:60px;"">+</div>","null","fixation","","","","","","","","","","","95","","",""
"revaluation","210","1014066","0.0-4.0-2.0-0.48","spark_pilot_2","7541","3","9","Male","","false","","","","","[1519.7000000001863,545.1999999997206]","./assets/img/ocean/memory/24.jpg","[""ArrowDown"",""ArrowRight""]","value training","ocean","30","{""ArrowUp,ArrowLeft"":23,""ArrowUp,ArrowRight"":10,""ArrowDown,ArrowLeft"":8,""ArrowDown,ArrowRight"":30}","true","ArrowDown,ArrowRight","false","","","original","1","96","","",""
"html-keyboard-response","211","1014570","0.0-4.0-2.0-1.48","spark_pilot_2","7541","3","9","Male","","","","","","","null","<div style=""font-size:60px;"">+</div>","null","fixation","","","","","","","","","","","97","","",""
"revaluation","212","1018588","0.0-4.0-2.0-0.49","spark_pilot_2","7541","3","9","Male","","false","","","","","[703.2000000001863]","./assets/img/ocean/catch/1.jpg","[""spaceBar""]","value training","ocean","0","{""ArrowUp,ArrowLeft"":23,""ArrowUp,ArrowRight"":10,""ArrowDown,ArrowLeft"":8,""ArrowDown,ArrowRight"":30}","true","spaceBar","true","","","original","1","98","","",""
"html-keyboard-response","213","1019092","0.0-4.0-2.0-1.49","spark_pilot_2","7541","3","9","Male","","","","","","","null","<div style=""font-size:60px;"">+</div>","null","fixation","","","","","","","","","","","99","","",""
"learning-instructions","214","1033493","0.0-4.0-3.0-0.0","spark_pilot_2","7541","3","9","Male","","","","","","","1246.6000000000931","<p> Now, you will travel with a friend who will choose whether you go up or down first. </p>
            <p> On these turns, you will just see the animal that they found. You will still get to choose which chest to search for treasure.</p>","","instructions","","","","","","","","","","","","","",""
"revaluation","215","1037507","0.0-4.0-4.0-0.0","spark_pilot_2","7541","3","9","Male","","false","","","","","[367.10000000009313]","./assets/img/ocean/animals/octopus.jpg","[""ArrowRight""]","revaluation","ocean","30","{""ArrowUp,ArrowLeft"":23,""ArrowUp,ArrowRight"":10,""ArrowDown,ArrowLeft"":8,""ArrowDown,ArrowRight"":30}","true","ArrowDown,ArrowRight","","","","original","1","0","","",""
"html-keyboard-response","216","1038022","0.0-4.0-4.0-1.0","spark_pilot_2","7541","3","9","Male","","","","","","","null","<div style=""font-size:60px;"">+</div>","null","fixation","","","","","","","","","","","1","","",""
"revaluation","217","1042034","0.0-4.0-4.0-0.1","spark_pilot_2","7541","3","9","Male","","false","","","","","[632.6999999997206]","./assets/img/ocean/animals/seahorse.jpg","[""ArrowLeft""]","revaluation","ocean","23","{""ArrowUp,ArrowLeft"":23,""ArrowUp,ArrowRight"":10,""ArrowDown,ArrowLeft"":8,""ArrowDown,ArrowRight"":30}","true","ArrowUp,ArrowLeft","","","","original","1","2","","",""
"html-keyboard-response","218","1042538","0.0-4.0-4.0-1.1","spark_pilot_2","7541","3","9","Male","","","","","","","null","<div style=""font-size:60px;"">+</div>","null","fixation","","","","","","","","","","","3","","",""
"revaluation","219","1046555","0.0-4.0-4.0-0.2","spark_pilot_2","7541","3","9","Male","","false","","","","","[661.6000000000931]","./assets/img/ocean/animals/seahorse.jpg","[""ArrowLeft""]","revaluation","ocean","23","{""ArrowUp,ArrowLeft"":23,""ArrowUp,ArrowRight"":10,""ArrowDown,ArrowLeft"":8,""ArrowDown,ArrowRight"":30}","true","ArrowUp,ArrowLeft","","","","original","1","4","","",""
"html-keyboard-response","220","1047060","0.0-4.0-4.0-1.2","spark_pilot_2","7541","3","9","Male","","","","","","","null","<div style=""font-size:60px;"">+</div>","null","fixation","","","","","","","","","","","5","","",""
"revaluation","221","1051077","0.0-4.0-4.0-0.3","spark_pilot_2","7541","3","9","Male","","false","","","","","[552.3000000002794]","./assets/img/ocean/animals/seahorse.jpg","[""ArrowLeft""]","revaluation","ocean","23","{""ArrowUp,ArrowLeft"":23,""ArrowUp,ArrowRight"":10,""ArrowDown,ArrowLeft"":8,""ArrowDown,ArrowRight"":30}","true","ArrowUp,ArrowLeft","","","","original","1","6","","",""
"html-keyboard-response","222","1051587","0.0-4.0-4.0-1.3","spark_pilot_2","7541","3","9","Male","","","","","","","null","<div style=""font-size:60px;"">+</div>","null","fixation","","","","","","","","","","","7","","",""
"revaluation","223","1055605","0.0-4.0-4.0-0.4","spark_pilot_2","7541","3","9","Male","","false","","","","","[508.8000000002794]","./assets/img/ocean/animals/seahorse.jpg","[""ArrowLeft""]","revaluation","ocean","23","{""ArrowUp,ArrowLeft"":23,""ArrowUp,ArrowRight"":10,""ArrowDown,ArrowLeft"":8,""ArrowDown,ArrowRight"":30}","true","ArrowUp,ArrowLeft","","","","original","1","8","","",""
"html-keyboard-response","224","1056116","0.0-4.0-4.0-1.4","spark_pilot_2","7541","3","9","Male","","","","","","","null","<div style=""font-size:60px;"">+</div>","null","fixation","","","","","","","","","","","9","","",""
"revaluation","225","1060131","0.0-4.0-4.0-0.5","spark_pilot_2","7541","3","9","Male","","false","","","","","[815.5]","./assets/img/ocean/animals/octopus.jpg","[""ArrowRight""]","revaluation","ocean","30","{""ArrowUp,ArrowLeft"":23,""ArrowUp,ArrowRight"":10,""ArrowDown,ArrowLeft"":8,""ArrowDown,ArrowRight"":30}","true","ArrowDown,ArrowRight","","","","original","1","10","","",""
"html-keyboard-response","226","1060638","0.0-4.0-4.0-1.5","spark_pilot_2","7541","3","9","Male","","","","","","","null","<div style=""font-size:60px;"">+</div>","null","fixation","","","","","","","","","","","11","","",""
"revaluation","227","1064650","0.0-4.0-4.0-0.6","spark_pilot_2","7541","3","9","Male","","false","","","","","[924]","./assets/img/ocean/animals/octopus.jpg","[""ArrowRight""]","revaluation","ocean","30","{""ArrowUp,ArrowLeft"":23,""ArrowUp,ArrowRight"":10,""ArrowDown,ArrowLeft"":8,""ArrowDown,ArrowRight"":30}","true","ArrowDown,ArrowRight","","","","original","1","12","","",""
"html-keyboard-response","228","1065155","0.0-4.0-4.0-1.6","spark_pilot_2","7541","3","9","Male","","","","","","","null","<div style=""font-size:60px;"">+</div>","null","fixation","","","","","","","","","","","13","","",""
"revaluation","229","1069172","0.0-4.0-4.0-0.7","spark_pilot_2","7541","3","9","Male","","false","","","","","[865.3999999999069]","./assets/img/ocean/animals/seahorse.jpg","[""ArrowLeft""]","revaluation","ocean","23","{""ArrowUp,ArrowLeft"":23,""ArrowUp,ArrowRight"":10,""ArrowDown,ArrowLeft"":8,""ArrowDown,ArrowRight"":30}","true","ArrowUp,ArrowLeft","","","","original","1","14","","",""
"html-keyboard-response","230","1069676","0.0-4.0-4.0-1.7","spark_pilot_2","7541","3","9","Male","","","","","","","null","<div style=""font-size:60px;"">+</div>","null","fixation","","","","","","","","","","","15","","",""
"revaluation","231","1073694","0.0-4.0-4.0-0.8","spark_pilot_2","7541","3","9","Male","","false","","","","","[1025.7999999998137]","./assets/img/ocean/animals/seahorse.jpg","[""ArrowLeft""]","revaluation","ocean","23","{""ArrowUp,ArrowLeft"":23,""ArrowUp,ArrowRight"":10,""ArrowDown,ArrowLeft"":8,""ArrowDown,ArrowRight"":30}","true","ArrowUp,ArrowLeft","","","","original","1","16","","",""
"html-keyboard-response","232","1074205","0.0-4.0-4.0-1.8","spark_pilot_2","7541","3","9","Male","","","","","","","null","<div style=""font-size:60px;"">+</div>","null","fixation","","","","","","","","","","","17","","",""
"revaluation","233","1078222","0.0-4.0-4.0-0.9","spark_pilot_2","7541","3","9","Male","","false","","","","","[675.8000000002794]","./assets/img/ocean/animals/octopus.jpg","[""ArrowRight""]","revaluation","ocean","30","{""ArrowUp,ArrowLeft"":23,""ArrowUp,ArrowRight"":10,""ArrowDown,ArrowLeft"":8,""ArrowDown,ArrowRight"":30}","true","ArrowDown,ArrowRight","","","","original","1","18","","",""
"html-keyboard-response","234","1078733","0.0-4.0-4.0-1.9","spark_pilot_2","7541","3","9","Male","","","","","","","null","<div style=""font-size:60px;"">+</div>","null","fixation","","","","","","","","","","","19","","",""
"revaluation","235","1082749","0.0-4.0-4.0-0.10","spark_pilot_2","7541","3","9","Male","","false","","","","","[1325.0999999996275]","./assets/img/ocean/animals/seahorse.jpg","[""ArrowLeft""]","revaluation","ocean","23","{""ArrowUp,ArrowLeft"":23,""ArrowUp,ArrowRight"":10,""ArrowDown,ArrowLeft"":8,""ArrowDown,ArrowRight"":30}","true","ArrowUp,ArrowLeft","","","","original","1","20","","",""
"html-keyboard-response","236","1083260","0.0-4.0-4.0-1.10","spark_pilot_2","7541","3","9","Male","","","","","","","null","<div style=""font-size:60px;"">+</div>","null","fixation","","","","","","","","","","","21","","",""
"revaluation","237","1087278","0.0-4.0-4.0-0.11","spark_pilot_2","7541","3","9","Male","","false","","","","","[1476.5]","./assets/img/ocean/animals/octopus.jpg","[""ArrowRight""]","revaluation","ocean","30","{""ArrowUp,ArrowLeft"":23,""ArrowUp,ArrowRight"":10,""ArrowDown,ArrowLeft"":8,""ArrowDown,ArrowRight"":30}","true","ArrowDown,ArrowRight","","","","original","1","22","","",""
"html-keyboard-response","238","1087788","0.0-4.0-4.0-1.11","spark_pilot_2","7541","3","9","Male","","","","","","","null","<div style=""font-size:60px;"">+</div>","null","fixation","","","","","","","","","","","23","","",""
"revaluation","239","1091806","0.0-4.0-4.0-0.12","spark_pilot_2","7541","3","9","Male","","false","","","","","[1010.8999999999069]","./assets/img/ocean/animals/seahorse.jpg","[""ArrowLeft""]","revaluation","ocean","23","{""ArrowUp,ArrowLeft"":23,""ArrowUp,ArrowRight"":10,""ArrowDown,ArrowLeft"":8,""ArrowDown,ArrowRight"":30}","true","ArrowUp,ArrowLeft","","","","original","1","24","","",""
"html-keyboard-response","240","1092316","0.0-4.0-4.0-1.12","spark_pilot_2","7541","3","9","Male","","","","","","","null","<div style=""font-size:60px;"">+</div>","null","fixation","","","","","","","","","","","25","","",""
"revaluation","241","1096334","0.0-4.0-4.0-0.13","spark_pilot_2","7541","3","9","Male","","false","","","","","[951.2999999998137]","./assets/img/ocean/animals/octopus.jpg","[""ArrowRight""]","revaluation","ocean","30","{""ArrowUp,ArrowLeft"":23,""ArrowUp,ArrowRight"":10,""ArrowDown,ArrowLeft"":8,""ArrowDown,ArrowRight"":30}","true","ArrowDown,ArrowRight","","","","original","1","26","","",""
"html-keyboard-response","242","1096844","0.0-4.0-4.0-1.13","spark_pilot_2","7541","3","9","Male","","","","","","","null","<div style=""font-size:60px;"">+</div>","null","fixation","","","","","","","","","","","27","","",""
"revaluation","243","1100861","0.0-4.0-4.0-0.14","spark_pilot_2","7541","3","9","Male","","false","","","","","[829.2999999998137]","./assets/img/ocean/animals/seahorse.jpg","[""ArrowLeft""]","revaluation","ocean","23","{""ArrowUp,ArrowLeft"":23,""ArrowUp,ArrowRight"":10,""ArrowDown,ArrowLeft"":8,""ArrowDown,ArrowRight"":30}","true","ArrowUp,ArrowLeft","","","","original","1","28","","",""
"html-keyboard-response","244","1101372","0.0-4.0-4.0-1.14","spark_pilot_2","7541","3","9","Male","","","","","","","null","<div style=""font-size:60px;"">+</div>","null","fixation","","","","","","","","","","","29","","",""
"revaluation","245","1105389","0.0-4.0-4.0-0.15","spark_pilot_2","7541","3","9","Male","","false","","","","","[1106.5]","./assets/img/ocean/animals/octopus.jpg","[""ArrowRight""]","revaluation","ocean","30","{""ArrowUp,ArrowLeft"":23,""ArrowUp,ArrowRight"":10,""ArrowDown,ArrowLeft"":8,""ArrowDown,ArrowRight"":30}","true","ArrowDown,ArrowRight","","","","original","1","30","","",""
"html-keyboard-response","246","1105900","0.0-4.0-4.0-1.15","spark_pilot_2","7541","3","9","Male","","","","","","","null","<div style=""font-size:60px;"">+</div>","null","fixation","","","","","","","","","","","31","","",""
"revaluation","247","1109917","0.0-4.0-4.0-0.16","spark_pilot_2","7541","3","9","Male","","false","","","","","[1111.6000000000931]","./assets/img/ocean/animals/octopus.jpg","[""ArrowRight""]","revaluation","ocean","30","{""ArrowUp,ArrowLeft"":23,""ArrowUp,ArrowRight"":10,""ArrowDown,ArrowLeft"":8,""ArrowDown,ArrowRight"":30}","true","ArrowDown,ArrowRight","","","","original","1","32","","",""
"html-keyboard-response","248","1110428","0.0-4.0-4.0-1.16","spark_pilot_2","7541","3","9","Male","","","","","","","null","<div style=""font-size:60px;"">+</div>","null","fixation","","","","","","","","","","","33","","",""
"revaluation","249","1114445","0.0-4.0-4.0-0.17","spark_pilot_2","7541","3","9","Male","","false","","","","","[555.8999999999069]","./assets/img/ocean/animals/octopus.jpg","[""ArrowRight""]","revaluation","ocean","30","{""ArrowUp,ArrowLeft"":23,""ArrowUp,ArrowRight"":10,""ArrowDown,ArrowLeft"":8,""ArrowDown,ArrowRight"":30}","true","ArrowDown,ArrowRight","","","","original","1","34","","",""
"html-keyboard-response","250","1114956","0.0-4.0-4.0-1.17","spark_pilot_2","7541","3","9","Male","","","","","","","null","<div style=""font-size:60px;"">+</div>","null","fixation","","","","","","","","","","","35","","",""
"learning-instructions","251","1127924","0.0-4.0-5.0-0.0","spark_pilot_2","7541","3","9","Male","","","","","","","1232.1000000000931","<p> Time to play the dot game! </p>
            <p> For one minute, click the red dots on the following screen as they appear. </p>
            <p><b> Don't look away, as you will earn bonus for clicking dots</b>. </p>","","instructions","","","","","","","","","","","","","",""
"revaluation","252","1187929","0.0-4.0-6.0-0.0","spark_pilot_2","7541","3","9","Male","","","","","","","[79,105,75,119,95,119]","","","rest","","60","","","","","0","60000","","","","","",""
"learning-instructions","253","1196205","0.0-4.0-7.0-0.0","spark_pilot_2","7541","3","9","Male","","","","","","","1921.6000000000931","<p> You have almost finished this part of the game! </p>
            <p> We are going to ask you to make a few more choices. </p>","","instructions","","","","","","","","","","","","","",""
"learning-instructions","254","1211222","0.0-4.0-7.0-0.1","spark_pilot_2","7541","3","9","Male","","","","","","","1044.5","<p> First, you need to decide whether to go up or down. When you see each picture, use the arrow keys to make your choice. </p>
            <p><b>You will not see which animal you found, but try to get to the one that will give you the most treasure.</b></p>","","instructions","","","","","","","","","","","","","",""
"revaluation","255","1212514","0.0-4.0-8.0-0.0","spark_pilot_2","7541","3","9","Male","","false","","","","","[1290.1000000000931]","./assets/img/ocean/test/3.jpg","[""ArrowDown""]","first stage test","ocean","0","{""ArrowUp,ArrowLeft"":23,""ArrowUp,ArrowRight"":10,""ArrowDown,ArrowLeft"":8,""ArrowDown,ArrowRight"":30}","true","ArrowDown","false","","","original","1","","","",""
"html-keyboard-response","256","1213021","0.0-4.0-8.0-1.0","spark_pilot_2","7541","3","9","Male","","","","","","","null","<div style=""font-size:60px;"">+</div>","null","fixation","","","","","","","","","","","","","",""
"revaluation","257","1214382","0.0-4.0-8.0-0.1","spark_pilot_2","7541","3","9","Male","","false","","","","","[1358.6999999997206]","./assets/img/ocean/test/0.jpg","[""ArrowDown""]","first stage test","ocean","0","{""ArrowUp,ArrowLeft"":23,""ArrowUp,ArrowRight"":10,""ArrowDown,ArrowLeft"":8,""ArrowDown,ArrowRight"":30}","true","ArrowDown","false","","","original","1","","","",""
"html-keyboard-response","258","1214891","0.0-4.0-8.0-1.1","spark_pilot_2","7541","3","9","Male","","","","","","","null","<div style=""font-size:60px;"">+</div>","null","fixation","","","","","","","","","","","","","",""
"revaluation","259","1215309","0.0-4.0-8.0-0.2","spark_pilot_2","7541","3","9","Male","","false","","","","","[416.39999999990687]","./assets/img/ocean/test/1.jpg","[""ArrowDown""]","first stage test","ocean","0","{""ArrowUp,ArrowLeft"":23,""ArrowUp,ArrowRight"":10,""ArrowDown,ArrowLeft"":8,""ArrowDown,ArrowRight"":30}","true","ArrowDown","false","","","original","1","","","",""
"html-keyboard-response","260","1215818","0.0-4.0-8.0-1.2","spark_pilot_2","7541","3","9","Male","","","","","","","null","<div style=""font-size:60px;"">+</div>","null","fixation","","","","","","","","","","","","","",""
"revaluation","261","1216103","0.0-4.0-8.0-0.3","spark_pilot_2","7541","3","9","Male","","false","","","","","[283.10000000009313]","./assets/img/ocean/test/2.jpg","[""ArrowDown""]","first stage test","ocean","0","{""ArrowUp,ArrowLeft"":23,""ArrowUp,ArrowRight"":10,""ArrowDown,ArrowLeft"":8,""ArrowDown,ArrowRight"":30}","true","ArrowDown","false","","","original","1","","","",""
"html-keyboard-response","262","1216609","0.0-4.0-8.0-1.3","spark_pilot_2","7541","3","9","Male","","","","","","","null","<div style=""font-size:60px;"">+</div>","null","fixation","","","","","","","","","","","","","",""
"learning-instructions","263","1228438","0.0-4.0-9.0-0.0","spark_pilot_2","7541","3","9","Male","","","","","","","485.8000000002794","<p> Now you will see the animals again and can search their chests for treasure. </p>
            <p> This time, you will not see how much treasure you earned, but you will earn more bonus money for making better choices. </p>","","instructions","","","","","","","","","","","","","",""
"revaluation","264","1230271","0.0-4.0-10.0-0.0","spark_pilot_2","7541","3","9","Male","","false","","","","","[1831.1000000000931]","./assets/img/ocean/animals/seahorse.jpg","[""ArrowLeft""]","second stage test","ocean","0","{""ArrowUp,ArrowLeft"":23,""ArrowUp,ArrowRight"":10,""ArrowDown,ArrowLeft"":8,""ArrowDown,ArrowRight"":30}","true","ArrowUp,ArrowLeft","","","","original","1","","","",""
"html-keyboard-response","265","1230779","0.0-4.0-10.0-1.0","spark_pilot_2","7541","3","9","Male","","","","","","","null","<div style=""font-size:60px;"">+</div>","null","fixation","","","","","","","","","","","","","",""
"revaluation","266","1231451","0.0-4.0-10.0-0.1","spark_pilot_2","7541","3","9","Male","","false","","","","","[669.5]","./assets/img/ocean/animals/seahorse.jpg","[""ArrowLeft""]","second stage test","ocean","0","{""ArrowUp,ArrowLeft"":23,""ArrowUp,ArrowRight"":10,""ArrowDown,ArrowLeft"":8,""ArrowDown,ArrowRight"":30}","true","ArrowUp,ArrowLeft","","","","original","1","","","",""
"html-keyboard-response","267","1231957","0.0-4.0-10.0-1.1","spark_pilot_2","7541","3","9","Male","","","","","","","null","<div style=""font-size:60px;"">+</div>","null","fixation","","","","","","","","","","","","","",""
"revaluation","268","1232517","0.0-4.0-10.0-0.2","spark_pilot_2","7541","3","9","Male","","false","","","","","[557]","./assets/img/ocean/animals/seahorse.jpg","[""ArrowLeft""]","second stage test","ocean","0","{""ArrowUp,ArrowLeft"":23,""ArrowUp,ArrowRight"":10,""ArrowDown,ArrowLeft"":8,""ArrowDown,ArrowRight"":30}","true","ArrowUp,ArrowLeft","","","","original","1","","","",""
"html-keyboard-response","269","1233020","0.0-4.0-10.0-1.2","spark_pilot_2","7541","3","9","Male","","","","","","","null","<div style=""font-size:60px;"">+</div>","null","fixation","","","","","","","","","","","","","",""
"revaluation","270","1233521","0.0-4.0-10.0-0.3","spark_pilot_2","7541","3","9","Male","","false","","","","","[498.8000000002794]","./assets/img/ocean/animals/seahorse.jpg","[""ArrowLeft""]","second stage test","ocean","0","{""ArrowUp,ArrowLeft"":23,""ArrowUp,ArrowRight"":10,""ArrowDown,ArrowLeft"":8,""ArrowDown,ArrowRight"":30}","true","ArrowUp,ArrowLeft","","","","original","1","","","",""
"html-keyboard-response","271","1234029","0.0-4.0-10.0-1.3","spark_pilot_2","7541","3","9","Male","","","","","","","null","<div style=""font-size:60px;"">+</div>","null","fixation","","","","","","","","","","","","","",""
"revaluation","272","1234681","0.0-4.0-10.0-0.4","spark_pilot_2","7541","3","9","Male","","false","","","","","[649.6000000000931]","./assets/img/ocean/animals/octopus.jpg","[""ArrowRight""]","second stage test","ocean","0","{""ArrowUp,ArrowLeft"":23,""ArrowUp,ArrowRight"":10,""ArrowDown,ArrowLeft"":8,""ArrowDown,ArrowRight"":30}","true","ArrowDown,ArrowRight","","","","original","1","","","",""
"html-keyboard-response","273","1235185","0.0-4.0-10.0-1.4","spark_pilot_2","7541","3","9","Male","","","","","","","null","<div style=""font-size:60px;"">+</div>","null","fixation","","","","","","","","","","","","","",""
"revaluation","274","1235821","0.0-4.0-10.0-0.5","spark_pilot_2","7541","3","9","Male","","false","","","","","[634.3999999999069]","./assets/img/ocean/animals/octopus.jpg","[""ArrowRight""]","second stage test","ocean","0","{""ArrowUp,ArrowLeft"":23,""ArrowUp,ArrowRight"":10,""ArrowDown,ArrowLeft"":8,""ArrowDown,ArrowRight"":30}","true","ArrowDown,ArrowRight","","","","original","1","","","",""
"html-keyboard-response","275","1236329","0.0-4.0-10.0-1.5","spark_pilot_2","7541","3","9","Male","","","","","","","null","<div style=""font-size:60px;"">+</div>","null","fixation","","","","","","","","","","","","","",""
"revaluation","276","1236764","0.0-4.0-10.0-0.6","spark_pilot_2","7541","3","9","Male","","false","","","","","[432.40000000037253]","./assets/img/ocean/animals/octopus.jpg","[""ArrowRight""]","second stage test","ocean","0","{""ArrowUp,ArrowLeft"":23,""ArrowUp,ArrowRight"":10,""ArrowDown,ArrowLeft"":8,""ArrowDown,ArrowRight"":30}","true","ArrowDown,ArrowRight","","","","original","1","","","",""
"html-keyboard-response","277","1237269","0.0-4.0-10.0-1.6","spark_pilot_2","7541","3","9","Male","","","","","","","null","<div style=""font-size:60px;"">+</div>","null","fixation","","","","","","","","","","","","","",""
"revaluation","278","1237870","0.0-4.0-10.0-0.7","spark_pilot_2","7541","3","9","Male","","false","","","","","[599.2999999998137]","./assets/img/ocean/animals/octopus.jpg","[""ArrowRight""]","second stage test","ocean","0","{""ArrowUp,ArrowLeft"":23,""ArrowUp,ArrowRight"":10,""ArrowDown,ArrowLeft"":8,""ArrowDown,ArrowRight"":30}","true","ArrowDown,ArrowRight","","","","original","1","","","",""
"html-keyboard-response","279","1238378","0.0-4.0-10.0-1.7","spark_pilot_2","7541","3","9","Male","","","","","","","null","<div style=""font-size:60px;"">+</div>","null","fixation","","","","","","","","","","","","","",""
"learning-instructions","280","1242904","0.0-4.0-0.1-0.2","spark_pilot_2","7541","3","9","Male","","","","","","","1745.3999999999069","<p> This time you are searching for treasure in the <b>canyon</b>.</p>","","instructions","","","","","","","","","","","","","",""
"learning-instructions","281","1262537","0.0-4.0-0.1-0.3","spark_pilot_2","7541","3","9","Male","","","","","","","2385","<p><b>New</b> animals with <b>new</b> treasure chests live here. You need to explore to discover where the animal with the best treasure chest is.</p>
                    <p> Like before, once you figure out which animal has the chest with the most treasure, you should try to get to that animal and select that chest! </p>","","instructions","","","","","","","","","","","","","",""
"learning-instructions","282","1279554","0.0-4.0-1.1-0.1","spark_pilot_2","7541","3","9","Male","","","","","","","2282.1999999997206","<p> Remember, when you see a picture of the place, use the up and down keys to <b>find an animal</b>.</p>
            <p> When you encounter an animal, you should use the left and right keys to <b>select a treasure chest</b>.</p>
            <p> Don't forget to look out for the robber! </p>","","instructions","","","","","","","","","","","","","",""
"revaluation","283","1285578","0.0-4.0-2.1-0.50","spark_pilot_2","7541","3","9","Male","","false","","","","","[1180.7999999998137,612.1999999997206]","./assets/img/canyon/memory/34.jpg","[""ArrowUp"",""ArrowRight""]","value training","canyon","10","{""ArrowUp,ArrowLeft"":26,""ArrowUp,ArrowRight"":10,""ArrowDown,ArrowLeft"":5,""ArrowDown,ArrowRight"":17}","false","ArrowUp,ArrowRight","false","","","revaluation","2","0","","",""
"html-keyboard-response","284","1286083","0.0-4.0-2.1-1.50","spark_pilot_2","7541","3","9","Male","","","","","","","null","<div style=""font-size:60px;"">+</div>","null","fixation","","","","","","","","","","","1","","",""
"revaluation","285","1292106","0.0-4.0-2.1-0.51","spark_pilot_2","7541","3","9","Male","","false","","","","","[80.5,18.299999999813735]","./assets/img/canyon/memory/19.jpg","[""ArrowUp"",""ArrowLeft""]","value training","canyon","26","{""ArrowUp,ArrowLeft"":26,""ArrowUp,ArrowRight"":10,""ArrowDown,ArrowLeft"":5,""ArrowDown,ArrowRight"":17}","true","ArrowUp,ArrowLeft","false","","","revaluation","2","2","","",""
"html-keyboard-response","286","1292610","0.0-4.0-2.1-1.51","spark_pilot_2","7541","3","9","Male","","","","","","","null","<div style=""font-size:60px;"">+</div>","null","fixation","","","","","","","","","","","3","","",""
"revaluation","287","1298633","0.0-4.0-2.1-0.52","spark_pilot_2","7541","3","9","Male","","false","","","","","[163.5,26.100000000093132]","./assets/img/canyon/memory/39.jpg","[""ArrowDown"",""ArrowRight""]","value training","canyon","17","{""ArrowUp,ArrowLeft"":26,""ArrowUp,ArrowRight"":10,""ArrowDown,ArrowLeft"":5,""ArrowDown,ArrowRight"":17}","false","ArrowDown,ArrowRight","false","","","revaluation","2","4","","",""
"html-keyboard-response","288","1299138","0.0-4.0-2.1-1.52","spark_pilot_2","7541","3","9","Male","","","","","","","null","<div style=""font-size:60px;"">+</div>","null","fixation","","","","","","","","","","","5","","",""
"revaluation","289","1305164","0.0-4.0-2.1-0.53","spark_pilot_2","7541","3","9","Male","","false","","","","","[469.89999999990687,249.60000000009313]","./assets/img/canyon/memory/10.jpg","[""ArrowDown"",""ArrowLeft""]","value training","canyon","5","{""ArrowUp,ArrowLeft"":26,""ArrowUp,ArrowRight"":10,""ArrowDown,ArrowLeft"":5,""ArrowDown,ArrowRight"":17}","false","ArrowDown,ArrowLeft","false","","","revaluation","2","6","","",""
"html-keyboard-response","290","1305674","0.0-4.0-2.1-1.53","spark_pilot_2","7541","3","9","Male","","","","","","","null","<div style=""font-size:60px;"">+</div>","null","fixation","","","","","","","","","","","7","","",""
"revaluation","291","1311701","0.0-4.0-2.1-0.54","spark_pilot_2","7541","3","9","Male","","false","","","","","[35.700000000186265,81]","./assets/img/canyon/memory/7.jpg","[""ArrowUp"",""ArrowRight""]","value training","canyon","10","{""ArrowUp,ArrowLeft"":26,""ArrowUp,ArrowRight"":10,""ArrowDown,ArrowLeft"":5,""ArrowDown,ArrowRight"":17}","false","ArrowUp,ArrowRight","false","","","revaluation","2","8","","",""
"html-keyboard-response","292","1312212","0.0-4.0-2.1-1.54","spark_pilot_2","7541","3","9","Male","","","","","","","null","<div style=""font-size:60px;"">+</div>","null","fixation","","","","","","","","","","","9","","",""
"revaluation","293","1318235","0.0-4.0-2.1-0.55","spark_pilot_2","7541","3","9","Male","","false","","","","","[413.60000000009313,107.29999999981374]","./assets/img/canyon/memory/11.jpg","[""ArrowUp"",""ArrowLeft""]","value training","canyon","26","{""ArrowUp,ArrowLeft"":26,""ArrowUp,ArrowRight"":10,""ArrowDown,ArrowLeft"":5,""ArrowDown,ArrowRight"":17}","true","ArrowUp,ArrowLeft","false","","","revaluation","2","10","","",""
"html-keyboard-response","294","1318737","0.0-4.0-2.1-1.55","spark_pilot_2","7541","3","9","Male","","","","","","","null","<div style=""font-size:60px;"">+</div>","null","fixation","","","","","","","","","","","11","","",""
"revaluation","295","1324762","0.0-4.0-2.1-0.56","spark_pilot_2","7541","3","9","Male","","false","","","","","[691.8999999999069,8.400000000372529]","./assets/img/canyon/memory/24.jpg","[""ArrowUp"",""ArrowLeft""]","value training","canyon","26","{""ArrowUp,ArrowLeft"":26,""ArrowUp,ArrowRight"":10,""ArrowDown,ArrowLeft"":5,""ArrowDown,ArrowRight"":17}","true","ArrowUp,ArrowLeft","false","","","revaluation","2","12","","",""
"html-keyboard-response","296","1325267","0.0-4.0-2.1-1.56","spark_pilot_2","7541","3","9","Male","","","","","","","null","<div style=""font-size:60px;"">+</div>","null","fixation","","","","","","","","","","","13","","",""
"revaluation","297","1331293","0.0-4.0-2.1-0.57","spark_pilot_2","7541","3","9","Male","","false","","","","","[813.1999999997206,371.1999999997206]","./assets/img/canyon/memory/37.jpg","[""ArrowUp"",""ArrowLeft""]","value training","canyon","26","{""ArrowUp,ArrowLeft"":26,""ArrowUp,ArrowRight"":10,""ArrowDown,ArrowLeft"":5,""ArrowDown,ArrowRight"":17}","true","ArrowUp,ArrowLeft","false","","","revaluation","2","14","","",""
"html-keyboard-response","298","1331804","0.0-4.0-2.1-1.57","spark_pilot_2","7541","3","9","Male","","","","","","","null","<div style=""font-size:60px;"">+</div>","null","fixation","","","","","","","","","","","15","","",""
"revaluation","299","1335821","0.0-4.0-2.1-0.58","spark_pilot_2","7541","3","9","Male","","false","","","","","[676.2999999998137]","./assets/img/canyon/catch/4.jpg","[""spaceBar""]","value training","canyon","0","{""ArrowUp,ArrowLeft"":26,""ArrowUp,ArrowRight"":10,""ArrowDown,ArrowLeft"":5,""ArrowDown,ArrowRight"":17}","true","spaceBar","true","","","revaluation","2","16","","",""
"html-keyboard-response","300","1336332","0.0-4.0-2.1-1.58","spark_pilot_2","7541","3","9","Male","","","","","","","null","<div style=""font-size:60px;"">+</div>","null","fixation","","","","","","","","","","","17","","",""
"revaluation","301","1342355","0.0-4.0-2.1-0.59","spark_pilot_2","7541","3","9","Male","","false","","","","","[650,101.60000000009313]","./assets/img/canyon/memory/1.jpg","[""ArrowUp"",""ArrowLeft""]","value training","canyon","26","{""ArrowUp,ArrowLeft"":26,""ArrowUp,ArrowRight"":10,""ArrowDown,ArrowLeft"":5,""ArrowDown,ArrowRight"":17}","true","ArrowUp,ArrowLeft","false","","","revaluation","2","18","","",""
"html-keyboard-response","302","1342856","0.0-4.0-2.1-1.59","spark_pilot_2","7541","3","9","Male","","","","","","","null","<div style=""font-size:60px;"">+</div>","null","fixation","","","","","","","","","","","19","","",""
"revaluation","303","1348876","0.0-4.0-2.1-0.60","spark_pilot_2","7541","3","9","Male","","false","","","","","[588,362.89999999990687]","./assets/img/canyon/memory/24.jpg","[""ArrowUp"",""ArrowLeft""]","value training","canyon","26","{""ArrowUp,ArrowLeft"":26,""ArrowUp,ArrowRight"":10,""ArrowDown,ArrowLeft"":5,""ArrowDown,ArrowRight"":17}","true","ArrowUp,ArrowLeft","false","","","revaluation","2","20","","",""
"html-keyboard-response","304","1349387","0.0-4.0-2.1-1.60","spark_pilot_2","7541","3","9","Male","","","","","","","null","<div style=""font-size:60px;"">+</div>","null","fixation","","","","","","","","","","","21","","",""
"revaluation","305","1355413","0.0-4.0-2.1-0.61","spark_pilot_2","7541","3","9","Male","","false","","","","","[703.6000000000931,14.5]","./assets/img/canyon/memory/33.jpg","[""ArrowUp"",""ArrowLeft""]","value training","canyon","26","{""ArrowUp,ArrowLeft"":26,""ArrowUp,ArrowRight"":10,""ArrowDown,ArrowLeft"":5,""ArrowDown,ArrowRight"":17}","true","ArrowUp,ArrowLeft","false","","","revaluation","2","22","","",""
"html-keyboard-response","306","1355923","0.0-4.0-2.1-1.61","spark_pilot_2","7541","3","9","Male","","","","","","","null","<div style=""font-size:60px;"">+</div>","null","fixation","","","","","","","","","","","23","","",""
