"trial_type","trial_index","time_elapsed","internal_node_id","task_version","subject_id","assigned_condition","age","gender","browser_interaction","success","timeout","failed_images","failed_audio","failed_video","rt","stimulus","response","task_part","environment","score","rewardMap","correct","fullState","isCatch","numberMissed","duration","condition","order","trial_num","key_press","ground_truth","bonus"
"pavlovia","0","1083","0.0-0.0","spark_pilot_2","7095","8","7","Male","[{""event"":""blur"",""trial"":1,""time"":3818},{""event"":""focus"",""trial"":1,""time"":9351},{""event"":""fullscreenenter"",""trial"":2,""time"":21119}]","","","","","","","","","","","","","","","","","","","","","","",""
"preload","1","16320","0.0-1.0","spark_pilot_2","7095","8","7","Male","[{""event"":""blur"",""trial"":1,""time"":3818},{""event"":""focus"",""trial"":1,""time"":9351},{""event"":""fullscreenenter"",""trial"":2,""time"":21119}]","true","false","[]","[]","[]","","","","","","","","","","","","","","","","","",""
"fullscreen","2","21836","0.0-2.0","spark_pilot_2","7095","8","7","Male","","true","","","","","","","","","","","","","","","","","","","","","",""
"audio-button-response","3","34030","0.0-3.0-0.0-0.0","spark_pilot_2","7095","8","7","Male","","","","","","","12149","./assets/audio/audiotest/turtle.mp3","2","audio_test","","","","","","","","","","","","","",""
"learning-instructions","4","47167","0.0-3.0-1.0-0.0","spark_pilot_2","7095","8","7","Male","","","","","","","6149","<p> Welcome! Please remember to stay in fullscreen mode and don't click away from the experiment. </p>","","instructions","","","","","","","","","","","","","",""
"learning-instructions","5","58767","0.0-3.0-1.0-0.1","spark_pilot_2","7095","8","7","Male","","","","","","","3179","<p> Today you will be playing a game to earn treasure. </p>
            <p> At the end of the experiment, you will earn a bonus based on how much treasure you find. </p>
            <img src='./assets/img/instructions/treasure.jpg' class='instructions-image'>","","instructions","","","","","","","","","","","","","",""
"learning-instructions","6","70349","0.0-3.0-1.0-0.2","spark_pilot_2","7095","8","7","Male","","","","","","","3316","<p> Animals have hidden treasure in treasure chests. </p>
            <p> You need to first find an animal and then choose which of their treasure chests to search. </p>
            <img src='./assets/img/space/animals/cat.jpg' class='instructions-image'>","","instructions","","","","","","","","","","","","","",""
"learning-instructions","7","85768","0.0-3.0-1.0-0.3","spark_pilot_2","7095","8","7","Male","","","","","","","2258","<p> In each round, you will search for treasure in a different place. In the real game, there will be two rounds. </p>
            <p> You will begin with a separate, practice round where you will search for treasure in outer space. </p>
            <img src='./assets/img/space/0.jpg' class='instructions-image'>","","instructions","","","","","","","","","","","","","",""
"learning-instructions","8","98983","0.0-3.0-1.0-0.4","spark_pilot_2","7095","8","7","Male","","","","","","","1783","<p> On every turn, you will see a picture of the place that you are in, but the specific image may be different each time. </p>
            <p> For example, both of these images mean you are in outer space. </p>
            <img src='./assets/img/instructions/outerspace.jpg' class='instructions-image'>","","instructions","","","","","","","","","","","","","",""
"learning-instructions","9","109636","0.0-3.0-1.0-0.5","spark_pilot_2","7095","8","7","Male","","","","","","","2819","<p> You need to decide which direction to travel in. </p>
            <p> You can choose between going <b>up or down</b> by using the arrow keys. </p>
            <img src='./assets/img/instructions/updown.jpg' class='instructions-image'>","","instructions","","","","","","","","","","","","","",""
"learning-instructions","10","121432","0.0-3.0-1.0-0.6","spark_pilot_2","7095","8","7","Male","","","","","","","2979","<p> You will have <b>2 seconds</b> to make your choice. </p>
            <p> If you do not make a choice within 2 seconds, you will not find an animal or earn treasure. </p>
            <img src='./assets/img/instructions/2seconds.jpg' class='instructions-image'>","","instructions","","","","","","","","","","","","","",""
"learning-instructions","11","131132","0.0-3.0-1.0-0.7","spark_pilot_2","7095","8","7","Male","","","","","","","2662","<p> Let’s try practicing that now! </p>
            <p> When you see a picture of the place you are in, press the <b>up</b> key to travel up. </p>
            <img src='./assets/img/instructions/pressUp.jpg' class='instructions-image'>","","instructions","","","","","","","","","","","","","",""
"revaluation","12","135144","0.0-3.0-2.0-0.0","spark_pilot_2","7095","8","7","Male","","","true","","","","[]","./assets/img/space/0.jpg","[]","first stage practice","space","-5","null","null","","false","","","","","","","",""
"html-keyboard-response","13","135648","0.0-3.0-2.0-1.0","spark_pilot_2","7095","8","7","Male","","","","","","","null","<div style=""font-size:60px;"">+</div>","null","fixation","","","","","","","","","","","","","",""
"revaluation","14","139657","0.0-3.0-2.0-0.1","spark_pilot_2","7095","8","7","Male","","","false","","","","[583]","./assets/img/space/1.jpg","[""ArrowUp""]","first stage practice","space","0","null","null","ArrowUp","false","","","","","","","",""
"html-keyboard-response","15","140160","0.0-3.0-2.0-1.1","spark_pilot_2","7095","8","7","Male","","","","","","","null","<div style=""font-size:60px;"">+</div>","null","fixation","","","","","","","","","","","","","",""
"revaluation","16","144173","0.0-3.0-2.0-0.2","spark_pilot_2","7095","8","7","Male","","","false","","","","[990]","./assets/img/space/2.jpg","[""ArrowUp""]","first stage practice","space","0","null","null","ArrowUp","false","","","","","","","",""
"html-keyboard-response","17","144681","0.0-3.0-2.0-1.2","spark_pilot_2","7095","8","7","Male","","","","","","","null","<div style=""font-size:60px;"">+</div>","null","fixation","","","","","","","","","","","","","",""
"learning-instructions","18","153284","0.0-3.0-3.0-0.0","spark_pilot_2","7095","8","7","Male","","","","","","","3896","<p> Great job! Now try pressing the <b>down</b> key to travel down. </p>
            <img src='./assets/img/instructions/pressDown.jpg' class='instructions-image'>","","instructions","","","","","","","","","","","","","",""
"revaluation","19","157293","0.0-3.0-4.0-0.0","spark_pilot_2","7095","8","7","Male","","","false","","","","[758]","./assets/img/space/3.jpg","[""ArrowDown""]","first stage practice","space","0","null","null","ArrowDown","false","","","","","","","",""
"html-keyboard-response","20","157800","0.0-3.0-4.0-1.0","spark_pilot_2","7095","8","7","Male","","","","","","","null","<div style=""font-size:60px;"">+</div>","null","fixation","","","","","","","","","","","","","",""
"revaluation","21","161811","0.0-3.0-4.0-0.1","spark_pilot_2","7095","8","7","Male","","","false","","","","[751]","./assets/img/space/4.jpg","[""ArrowDown""]","first stage practice","space","0","null","null","ArrowDown","false","","","","","","","",""
"html-keyboard-response","22","162314","0.0-3.0-4.0-1.1","spark_pilot_2","7095","8","7","Male","","","","","","","null","<div style=""font-size:60px;"">+</div>","null","fixation","","","","","","","","","","","","","",""
"revaluation","23","166325","0.0-3.0-4.0-0.2","spark_pilot_2","7095","8","7","Male","","","false","","","","[1647]","./assets/img/space/5.jpg","[""ArrowDown""]","first stage practice","space","0","null","null","ArrowDown","false","","","","","","","",""
"html-keyboard-response","24","166827","0.0-3.0-4.0-1.2","spark_pilot_2","7095","8","7","Male","","","","","","","null","<div style=""font-size:60px;"">+</div>","null","fixation","","","","","","","","","","","","","",""
"learning-instructions","25","182801","0.0-3.0-5.0-0.0","spark_pilot_2","7095","8","7","Male","","","","","","","6115","<p> The animals don’t move, so the animal in the upper part of a place will stay in the upper part of a place, and the animal in the lower part of a place will stay in the lower part of a place. </p>","","instructions","","","","","","","","","","","","","",""
"learning-instructions","26","194549","0.0-3.0-5.0-0.1","spark_pilot_2","7095","8","7","Male","","","","","","","2610","<p> Each animal has two treasure chests for you to choose from. </p>
            <p> The amount of treasure in each chest can range from <b> 0 to 40 pieces.</b></p>","","instructions","","","","","","","","","","","","","",""
"learning-instructions","27","209083","0.0-3.0-5.0-0.2","spark_pilot_2","7095","8","7","Male","","","","","","","3340","<p> You should decide which chest to search for treasure by using the <b>left</b> and <b>right</b> arrow keys. </p>
            <p><b> Pay attention to which animal is on the screen, as the animals have different treasure chests. </b></p>
            <img src='./assets/img/instructions/leftright.jpg' class='instructions-image'>","","instructions","","","","","","","","","","","","","",""
"learning-instructions","28","217082","0.0-3.0-5.0-0.3","spark_pilot_2","7095","8","7","Male","","","","","","","1631","<p> Let’s try practicing that now. </p>
            <p> When you see an animal, choose which chest to search for treasure. </p>
            <img src='./assets/img/instructions/chooseChest.jpg' class='instructions-image'>","","instructions","","","","","","","","","","","","","",""
"revaluation","29","221096","0.0-3.0-6.0-0.0","spark_pilot_2","7095","8","7","Male","","","false","","","","[1425]","./assets/img/space/animals/rabbit.jpg","[""ArrowRight""]","second stage practice","space","23","{""ArrowUp,ArrowLeft"":3,""ArrowUp,ArrowRight"":36,""ArrowDown,ArrowLeft"":15,""ArrowDown,ArrowRight"":23}","true","ArrowDown,ArrowRight","","","","","","","","",""
"html-keyboard-response","30","221601","0.0-3.0-6.0-1.0","spark_pilot_2","7095","8","7","Male","","","","","","","null","<div style=""font-size:60px;"">+</div>","null","fixation","","","","","","","","","","","","","",""
"revaluation","31","225607","0.0-3.0-6.0-0.1","spark_pilot_2","7095","8","7","Male","","","false","","","","[1089]","./assets/img/space/animals/cat.jpg","[""ArrowRight""]","second stage practice","space","36","{""ArrowUp,ArrowLeft"":3,""ArrowUp,ArrowRight"":36,""ArrowDown,ArrowLeft"":15,""ArrowDown,ArrowRight"":23}","true","ArrowUp,ArrowRight","","","","","","","","",""
"html-keyboard-response","32","226109","0.0-3.0-6.0-1.1","spark_pilot_2","7095","8","7","Male","","","","","","","null","<div style=""font-size:60px;"">+</div>","null","fixation","","","","","","","","","","","","","",""
"revaluation","33","230117","0.0-3.0-6.0-0.2","spark_pilot_2","7095","8","7","Male","","","false","","","","[438]","./assets/img/space/animals/cat.jpg","[""ArrowRight""]","second stage practice","space","36","{""ArrowUp,ArrowLeft"":3,""ArrowUp,ArrowRight"":36,""ArrowDown,ArrowLeft"":15,""ArrowDown,ArrowRight"":23}","true","ArrowUp,ArrowRight","","","","","","","","",""
"html-keyboard-response","34","230623","0.0-3.0-6.0-1.2","spark_pilot_2","7095","8","7","Male","","","","","","","null","<div style=""font-size:60px;"">+</div>","null","fixation","","","","","","","","","","","","","",""
"revaluation","35","234627","0.0-3.0-6.0-0.3","spark_pilot_2","7095","8","7","Male","","","false","","","","[1414]","./assets/img/space/animals/rabbit.jpg","[""ArrowRight""]","second stage practice","space","23","{""ArrowUp,ArrowLeft"":3,""ArrowUp,ArrowRight"":36,""ArrowDown,ArrowLeft"":15,""ArrowDown,ArrowRight"":23}","true","ArrowDown,ArrowRight","","","","","","","","",""
"html-keyboard-response","36","235130","0.0-3.0-6.0-1.3","spark_pilot_2","7095","8","7","Male","","","","","","","null","<div style=""font-size:60px;"">+</div>","null","fixation","","","","","","","","","","","","","",""
"learning-instructions","37","253685","0.0-3.0-7.0-0.0","spark_pilot_2","7095","8","7","Male","","","","","","","1729","<p> Great job. Now let’s try putting it together. </p>
            <p> On each turn, you will first see a picture to remind you of the place you are in, and you need to choose whether to go up or down. </p>
            <p> Then you will see an animal and choose which of its chests to search for treasure. </p>","","instructions","","","","","","","","","","","","","",""
"learning-instructions","38","265535","0.0-3.0-7.0-0.1","spark_pilot_2","7095","8","7","Male","","","","","","","3580","<p> When you choose whether to go up or down, try to go to the animal with the chest with the most treasure. </p>
            <p> Try practicing that now! </p>","","instructions","","","","","","","","","","","","","",""
"revaluation","39","271548","0.0-3.0-8.0-0.0","spark_pilot_2","7095","8","7","Male","","","false","","","","[1487,1600]","./assets/img/space/6.jpg","[""ArrowUp"",""ArrowRight""]","full practice","space","36","{""ArrowUp,ArrowLeft"":3,""ArrowUp,ArrowRight"":36,""ArrowDown,ArrowLeft"":15,""ArrowDown,ArrowRight"":23}","true","ArrowUp,ArrowRight","false","","","","","","","",""
"html-keyboard-response","40","272049","0.0-3.0-8.0-1.0","spark_pilot_2","7095","8","7","Male","","","","","","","null","<div style=""font-size:60px;"">+</div>","null","fixation","","","","","","","","","","","","","",""
"revaluation","41","278065","0.0-3.0-8.0-0.1","spark_pilot_2","7095","8","7","Male","","","false","","","","[921,1065]","./assets/img/space/7.jpg","[""ArrowUp"",""ArrowRight""]","full practice","space","36","{""ArrowUp,ArrowLeft"":3,""ArrowUp,ArrowRight"":36,""ArrowDown,ArrowLeft"":15,""ArrowDown,ArrowRight"":23}","true","ArrowUp,ArrowRight","false","","","","","","","",""
"html-keyboard-response","42","278568","0.0-3.0-8.0-1.1","spark_pilot_2","7095","8","7","Male","","","","","","","null","<div style=""font-size:60px;"">+</div>","null","fixation","","","","","","","","","","","","","",""
"revaluation","43","284575","0.0-3.0-8.0-0.2","spark_pilot_2","7095","8","7","Male","","","false","","","","[1480,1367]","./assets/img/space/8.jpg","[""ArrowUp"",""ArrowLeft""]","full practice","space","3","{""ArrowUp,ArrowLeft"":3,""ArrowUp,ArrowRight"":36,""ArrowDown,ArrowLeft"":15,""ArrowDown,ArrowRight"":23}","false","ArrowUp,ArrowLeft","false","","","","","","","",""
"html-keyboard-response","44","285081","0.0-3.0-8.0-1.2","spark_pilot_2","7095","8","7","Male","","","","","","","null","<div style=""font-size:60px;"">+</div>","null","fixation","","","","","","","","","","","","","",""
"revaluation","45","291094","0.0-3.0-8.0-0.3","spark_pilot_2","7095","8","7","Male","","","false","","","","[1172,882]","./assets/img/space/9.jpg","[""ArrowUp"",""ArrowRight""]","full practice","space","36","{""ArrowUp,ArrowLeft"":3,""ArrowUp,ArrowRight"":36,""ArrowDown,ArrowLeft"":15,""ArrowDown,ArrowRight"":23}","true","ArrowUp,ArrowRight","false","","","","","","","",""
"html-keyboard-response","46","291598","0.0-3.0-8.0-1.3","spark_pilot_2","7095","8","7","Male","","","","","","","null","<div style=""font-size:60px;"">+</div>","null","fixation","","","","","","","","","","","","","",""
"revaluation","47","297610","0.0-3.0-8.0-0.4","spark_pilot_2","7095","8","7","Male","","","false","","","","[1169,1219]","./assets/img/space/10.jpg","[""ArrowUp"",""ArrowRight""]","full practice","space","36","{""ArrowUp,ArrowLeft"":3,""ArrowUp,ArrowRight"":36,""ArrowDown,ArrowLeft"":15,""ArrowDown,ArrowRight"":23}","true","ArrowUp,ArrowRight","false","","","","","","","",""
"html-keyboard-response","48","298116","0.0-3.0-8.0-1.4","spark_pilot_2","7095","8","7","Male","","","","","","","null","<div style=""font-size:60px;"">+</div>","null","fixation","","","","","","","","","","","","","",""
"learning-instructions","49","311083","0.0-3.0-9.0-0.0","spark_pilot_2","7095","8","7","Male","","","","","","","2585","<p> One last thing: sometimes, you will see a robber. The robber can be anywhere in the picture. </p>
            <p> If you do not stop them, you will lose treasure. </p>
            <img src='./assets/img/instructions/robber.jpg' class='instructions-image'>","","instructions","","","","","","","","","","","","","",""
"learning-instructions","50","319333","0.0-3.0-9.0-0.1","spark_pilot_2","7095","8","7","Male","","","","","","","1077","<p> If you see the robber, you should <b>press the space bar</b> rather than using the arrow keys. </p>
            <p> Try practicing that now! </p>","","instructions","","","","","","","","","","","","","",""
"revaluation","51","323343","0.0-3.0-10.0-0.0","spark_pilot_2","7095","8","7","Male","","","true","","","","[]","./assets/img/space/catch/0.jpg","[]","catch practice","space","-5","{""ArrowUp,ArrowLeft"":3,""ArrowUp,ArrowRight"":36,""ArrowDown,ArrowLeft"":15,""ArrowDown,ArrowRight"":23}","false","","true","","","","","","","",""
"html-keyboard-response","52","323848","0.0-3.0-10.0-1.0","spark_pilot_2","7095","8","7","Male","","","","","","","null","<div style=""font-size:60px;"">+</div>","null","fixation","","","","","","","","","","","","","",""
"revaluation","53","327859","0.0-3.0-10.0-0.1","spark_pilot_2","7095","8","7","Male","","","false","","","","[562]","./assets/img/space/catch/1.jpg","[""spaceBar""]","catch practice","space","0","{""ArrowUp,ArrowLeft"":3,""ArrowUp,ArrowRight"":36,""ArrowDown,ArrowLeft"":15,""ArrowDown,ArrowRight"":23}","true","spaceBar","true","","","","","","","",""
"html-keyboard-response","54","328360","0.0-3.0-10.0-1.1","spark_pilot_2","7095","8","7","Male","","","","","","","null","<div style=""font-size:60px;"">+</div>","null","fixation","","","","","","","","","","","","","",""
"revaluation","55","332365","0.0-3.0-10.0-0.2","spark_pilot_2","7095","8","7","Male","","","false","","","","[797]","./assets/img/space/catch/2.jpg","[""spaceBar""]","catch practice","space","0","{""ArrowUp,ArrowLeft"":3,""ArrowUp,ArrowRight"":36,""ArrowDown,ArrowLeft"":15,""ArrowDown,ArrowRight"":23}","true","spaceBar","true","","","","","","","",""
"html-keyboard-response","56","332866","0.0-3.0-10.0-1.2","spark_pilot_2","7095","8","7","Male","","","","","","","null","<div style=""font-size:60px;"">+</div>","null","fixation","","","","","","","","","","","","","",""
"learning-instructions","57","348318","0.0-3.0-11.0-0.0","spark_pilot_2","7095","8","7","Male","","","","","","","1850","<p> After you explore a place to find treasure, it will be time to play a different game. </p>
            <p> During this game, red dots will appear on the screen and fall down slowly. </p>
            <p><b> You must click on them before they reach the bottom. </b></p>
            <img src='./assets/img/instructions/dotGame.jpg' class='instructions-image'>","","instructions","","","","","","","","","","","","","",""
"learning-instructions","58","355783","0.0-3.0-11.0-0.1","spark_pilot_2","7095","8","7","Male","","","","","","","1784","<p> For every dot you click, you will earn additional treasure. </p>
            <p> Let’s try practicing that now. </p>","","instructions","","","","","","","","","","","","","",""
"revaluation","59","370788","0.0-3.0-12.0-0.0","spark_pilot_2","7095","8","7","Male","","","","","","","[168]","","","rest practice","","10","","","","","0","15000","","","","","",""
"learning-instructions","60","379734","0.0-3.0-13.0-0.0-0.0","spark_pilot_2","7095","8","7","Male","","","","","","","3684","<p> Now, you will practice a shortened version of the game to get a sense of how it all fits together. </p>","","instructions","","","","","","","","","","","","","",""
"learning-instructions","61","386282","0.0-3.0-13.0-0.0-0.1","spark_pilot_2","7095","8","7","Male","","","","","","","3357","<p>This time you are searching for treasure in outer space.</p>","","instructions","","","","","","","","","","","","","",""
"learning-instructions","62","404582","0.0-3.0-13.0-1.0-0.0","spark_pilot_2","7095","8","7","Male","","","","","","","3519","<p> Remember, when you see a picture of the place, use the up and down keys to <b>find an animal</b>.</p>
            <p> When you encounter an animal, you should use the left and right keys to <b>select a treasure chest</b>.</p>
            <p> Don't forget to look out for the robber! </p>","","instructions","","","","","","","","","","","","","",""
"revaluation","63","408589","0.0-3.0-13.0-2.0-0.0","spark_pilot_2","7095","8","7","Male","","","true","","","","[]","./assets/img/space/11.jpg","[]","practice block","space","-5","{""ArrowUp,ArrowLeft"":3,""ArrowUp,ArrowRight"":36,""ArrowDown,ArrowLeft"":15,""ArrowDown,ArrowRight"":23}","false","","false","","","","","","","",""
"html-keyboard-response","64","409096","0.0-3.0-13.0-2.0-1.0","spark_pilot_2","7095","8","7","Male","","","","","","","null","<div style=""font-size:60px;"">+</div>","null","fixation","","","","","","","","","","","","","",""
"revaluation","65","415110","0.0-3.0-13.0-2.0-0.1","spark_pilot_2","7095","8","7","Male","","","false","","","","[832,1352]","./assets/img/space/12.jpg","[""ArrowUp"",""ArrowRight""]","practice block","space","36","{""ArrowUp,ArrowLeft"":3,""ArrowUp,ArrowRight"":36,""ArrowDown,ArrowLeft"":15,""ArrowDown,ArrowRight"":23}","true","ArrowUp,ArrowRight","false","","","","","","","",""
"html-keyboard-response","66","415613","0.0-3.0-13.0-2.0-1.1","spark_pilot_2","7095","8","7","Male","","","","","","","null","<div style=""font-size:60px;"">+</div>","null","fixation","","","","","","","","","","","","","",""
"revaluation","67","421620","0.0-3.0-13.0-2.0-0.2","spark_pilot_2","7095","8","7","Male","","","false","","","","[1154,730]","./assets/img/space/13.jpg","[""ArrowUp"",""ArrowRight""]","practice block","space","36","{""ArrowUp,ArrowLeft"":3,""ArrowUp,ArrowRight"":36,""ArrowDown,ArrowLeft"":15,""ArrowDown,ArrowRight"":23}","true","ArrowUp,ArrowRight","false","","","","","","","",""
"html-keyboard-response","68","422122","0.0-3.0-13.0-2.0-1.2","spark_pilot_2","7095","8","7","Male","","","","","","","null","<div style=""font-size:60px;"">+</div>","null","fixation","","","","","","","","","","","","","",""
"revaluation","69","428134","0.0-3.0-13.0-2.0-0.3","spark_pilot_2","7095","8","7","Male","","","false","","","","[1280,1155]","./assets/img/space/14.jpg","[""ArrowUp"",""ArrowRight""]","practice block","space","36","{""ArrowUp,ArrowLeft"":3,""ArrowUp,ArrowRight"":36,""ArrowDown,ArrowLeft"":15,""ArrowDown,ArrowRight"":23}","true","ArrowUp,ArrowRight","false","","","","","","","",""
"html-keyboard-response","70","428636","0.0-3.0-13.0-2.0-1.3","spark_pilot_2","7095","8","7","Male","","","","","","","null","<div style=""font-size:60px;"">+</div>","null","fixation","","","","","","","","","","","","","",""
"revaluation","71","434653","0.0-3.0-13.0-2.0-0.4","spark_pilot_2","7095","8","7","Male","","","false","","","","[997,988]","./assets/img/space/11.jpg","[""ArrowUp"",""ArrowRight""]","practice block","space","36","{""ArrowUp,ArrowLeft"":3,""ArrowUp,ArrowRight"":36,""ArrowDown,ArrowLeft"":15,""ArrowDown,ArrowRight"":23}","true","ArrowUp,ArrowRight","false","","","","","","","",""
"html-keyboard-response","72","435157","0.0-3.0-13.0-2.0-1.4","spark_pilot_2","7095","8","7","Male","","","","","","","null","<div style=""font-size:60px;"">+</div>","null","fixation","","","","","","","","","","","","","",""
"revaluation","73","441170","0.0-3.0-13.0-2.0-0.5","spark_pilot_2","7095","8","7","Male","","","false","","","","[715,778]","./assets/img/space/12.jpg","[""ArrowUp"",""ArrowRight""]","practice block","space","36","{""ArrowUp,ArrowLeft"":3,""ArrowUp,ArrowRight"":36,""ArrowDown,ArrowLeft"":15,""ArrowDown,ArrowRight"":23}","true","ArrowUp,ArrowRight","false","","","","","","","",""
"html-keyboard-response","74","441676","0.0-3.0-13.0-2.0-1.5","spark_pilot_2","7095","8","7","Male","","","","","","","null","<div style=""font-size:60px;"">+</div>","null","fixation","","","","","","","","","","","","","",""
"revaluation","75","447685","0.0-3.0-13.0-2.0-0.6","spark_pilot_2","7095","8","7","Male","","","false","","","","[745,599]","./assets/img/space/13.jpg","[""ArrowUp"",""ArrowRight""]","practice block","space","36","{""ArrowUp,ArrowLeft"":3,""ArrowUp,ArrowRight"":36,""ArrowDown,ArrowLeft"":15,""ArrowDown,ArrowRight"":23}","true","ArrowUp,ArrowRight","false","","","","","","","",""
"html-keyboard-response","76","448188","0.0-3.0-13.0-2.0-1.6","spark_pilot_2","7095","8","7","Male","","","","","","","null","<div style=""font-size:60px;"">+</div>","null","fixation","","","","","","","","","","","","","",""
"revaluation","77","454201","0.0-3.0-13.0-2.0-0.7","spark_pilot_2","7095","8","7","Male","","","false","","","","[776,1164]","./assets/img/space/14.jpg","[""ArrowUp"",""ArrowRight""]","practice block","space","36","{""ArrowUp,ArrowLeft"":3,""ArrowUp,ArrowRight"":36,""ArrowDown,ArrowLeft"":15,""ArrowDown,ArrowRight"":23}","true","ArrowUp,ArrowRight","false","","","","","","","",""
"html-keyboard-response","78","454703","0.0-3.0-13.0-2.0-1.7","spark_pilot_2","7095","8","7","Male","","","","","","","null","<div style=""font-size:60px;"">+</div>","null","fixation","","","","","","","","","","","","","",""
"revaluation","79","458715","0.0-3.0-13.0-2.0-0.8","spark_pilot_2","7095","8","7","Male","","","false","","","","[707]","./assets/img/space/catch/3.jpg","[""spaceBar""]","practice block","space","0","{""ArrowUp,ArrowLeft"":3,""ArrowUp,ArrowRight"":36,""ArrowDown,ArrowLeft"":15,""ArrowDown,ArrowRight"":23}","true","spaceBar","true","","","","","","","",""
"html-keyboard-response","80","459217","0.0-3.0-13.0-2.0-1.8","spark_pilot_2","7095","8","7","Male","","","","","","","null","<div style=""font-size:60px;"">+</div>","null","fixation","","","","","","","","","","","","","",""
"learning-instructions","81","475353","0.0-3.0-13.0-3.0-0.0","spark_pilot_2","7095","8","7","Male","","","","","","","3199","<p> Now, you will travel with a friend who will choose whether you go up or down first. </p>
            <p> On these turns, you will just see the animal that they found. You will still get to choose which chest to search for treasure.</p>","","instructions","","","","","","","","","","","","","",""
"revaluation","82","479364","0.0-3.0-13.0-4.0-0.0","spark_pilot_2","7095","8","7","Male","","","false","","","","[1634]","./assets/img/space/animals/rabbit.jpg","[""ArrowRight""]","practice block","space","23","{""ArrowUp,ArrowLeft"":3,""ArrowUp,ArrowRight"":36,""ArrowDown,ArrowLeft"":15,""ArrowDown,ArrowRight"":23}","true","ArrowDown,ArrowRight","","","","","","","","",""
"html-keyboard-response","83","479868","0.0-3.0-13.0-4.0-1.0","spark_pilot_2","7095","8","7","Male","","","","","","","null","<div style=""font-size:60px;"">+</div>","null","fixation","","","","","","","","","","","","","",""
"revaluation","84","483875","0.0-3.0-13.0-4.0-0.1","spark_pilot_2","7095","8","7","Male","","","false","","","","[368]","./assets/img/space/animals/rabbit.jpg","[""ArrowRight""]","practice block","space","23","{""ArrowUp,ArrowLeft"":3,""ArrowUp,ArrowRight"":36,""ArrowDown,ArrowLeft"":15,""ArrowDown,ArrowRight"":23}","true","ArrowDown,ArrowRight","","","","","","","","",""
"html-keyboard-response","85","484381","0.0-3.0-13.0-4.0-1.1","spark_pilot_2","7095","8","7","Male","","","","","","","null","<div style=""font-size:60px;"">+</div>","null","fixation","","","","","","","","","","","","","",""
"revaluation","86","488390","0.0-3.0-13.0-4.0-0.2","spark_pilot_2","7095","8","7","Male","","","false","","","","[456]","./assets/img/space/animals/cat.jpg","[""ArrowLeft""]","practice block","space","3","{""ArrowUp,ArrowLeft"":3,""ArrowUp,ArrowRight"":36,""ArrowDown,ArrowLeft"":15,""ArrowDown,ArrowRight"":23}","false","ArrowUp,ArrowLeft","","","","","","","","",""
"html-keyboard-response","87","488894","0.0-3.0-13.0-4.0-1.2","spark_pilot_2","7095","8","7","Male","","","","","","","null","<div style=""font-size:60px;"">+</div>","null","fixation","","","","","","","","","","","","","",""
"revaluation","88","492900","0.0-3.0-13.0-4.0-0.3","spark_pilot_2","7095","8","7","Male","","","false","","","","[419]","./assets/img/space/animals/cat.jpg","[""ArrowRight""]","practice block","space","36","{""ArrowUp,ArrowLeft"":3,""ArrowUp,ArrowRight"":36,""ArrowDown,ArrowLeft"":15,""ArrowDown,ArrowRight"":23}","true","ArrowUp,ArrowRight","","","","","","","","",""
"html-keyboard-response","89","493401","0.0-3.0-13.0-4.0-1.3","spark_pilot_2","7095","8","7","Male","","","","","","","null","<div style=""font-size:60px;"">+</div>","null","fixation","","","","","","","","","","","","","",""
"learning-instructions","90","503909","0.0-3.0-13.0-5.0-0.0","spark_pilot_2","7095","8","7","Male","","","","","","","3126","<p> Time to play the dot game! </p>
            <p> For 15 seconds, click the red dots on the following screen as they appear. </p>","","instructions","","","","","","","","","","","","","",""
"revaluation","91","518913","0.0-3.0-13.0-6.0-0.0","spark_pilot_2","7095","8","7","Male","","","","","","","[275]","","","rest practice","","10","","","","","0","15000","","","","","",""
"learning-instructions","92","528324","0.0-3.0-13.0-7.0-0.0","spark_pilot_2","7095","8","7","Male","","","","","","","3282","<p> You have almost finished this part of the game! </p>
            <p> We are going to ask you to make a few more choices. </p>","","instructions","","","","","","","","","","","","","",""
"learning-instructions","93","545076","0.0-3.0-13.0-7.0-0.1","spark_pilot_2","7095","8","7","Male","","","","","","","2719","<p> First, you need to decide whether to go up or down. When you see each picture, use the arrow keys to make your choice. </p>
            <p><b>You will not see which animal you found, but try to get to the one that will give you the most treasure.</b></p>","","instructions","","","","","","","","","","","","","",""
"revaluation","94","546649","0.0-3.0-13.0-8.0","spark_pilot_2","7095","8","7","Male","","","false","","","","[1569]","./assets/img/space/15.jpg","[""ArrowUp""]","practice block","space","0","{""ArrowUp,ArrowLeft"":3,""ArrowUp,ArrowRight"":36,""ArrowDown,ArrowLeft"":15,""ArrowDown,ArrowRight"":23}","true","ArrowUp","false","","","","","","","",""
"html-keyboard-response","95","547152","0.0-3.0-13.0-9.0","spark_pilot_2","7095","8","7","Male","","","","","","","null","<div style=""font-size:60px;"">+</div>","null","fixation","","","","","","","","","","","","","",""
"learning-instructions","96","563908","0.0-3.0-13.0-10.0-0.0","spark_pilot_2","7095","8","7","Male","","","","","","","5372","<p> Now you will see the animals again and can search their chests for treasure. </p>
            <p> This time, you will not see how much treasure you earned, but you will earn more bonus money for making better choices. </p>","","instructions","","","","","","","","","","","","","",""
"revaluation","97","565159","0.0-3.0-13.0-11.0-0.0","spark_pilot_2","7095","8","7","Male","","","false","","","","[1246]","./assets/img/space/animals/cat.jpg","[""ArrowRight""]","practice block","space","0","{""ArrowUp,ArrowLeft"":3,""ArrowUp,ArrowRight"":36,""ArrowDown,ArrowLeft"":15,""ArrowDown,ArrowRight"":23}","true","ArrowUp,ArrowRight","","","","","","","","",""
"html-keyboard-response","98","565661","0.0-3.0-13.0-11.0-1.0","spark_pilot_2","7095","8","7","Male","","","","","","","null","<div style=""font-size:60px;"">+</div>","null","fixation","","","","","","","","","","","","","",""
"revaluation","99","566529","0.0-3.0-13.0-11.0-0.1","spark_pilot_2","7095","8","7","Male","","","false","","","","[863]","./assets/img/space/animals/rabbit.jpg","[""ArrowRight""]","practice block","space","0","{""ArrowUp,ArrowLeft"":3,""ArrowUp,ArrowRight"":36,""ArrowDown,ArrowLeft"":15,""ArrowDown,ArrowRight"":23}","true","ArrowDown,ArrowRight","","","","","","","","",""
"html-keyboard-response","100","567035","0.0-3.0-13.0-11.0-1.1","spark_pilot_2","7095","8","7","Male","","","","","","","null","<div style=""font-size:60px;"">+</div>","null","fixation","","","","","","","","","","","","","",""
"learning-instructions","101","577227","0.0-3.0-14.0-0.0","spark_pilot_2","7095","8","7","Male","","","","","","","5606","<p> Before you start, we're going to ask you a few questions about how the game works. </p>","","instructions","","","","","","","","","","","","","",""
"comp-q","102","601843","0.0-3.0-15.0-0.0-0.0","spark_pilot_2","7095","8","7","Male","","","","","","","19028","<p> <b> True or False? </b> </p>
            <p> There can be 50 pieces of treasure in a given animal's chest. </p>","1","comp_question","","","","true","","","","","","","","","",""
"comp-q","103","610778","0.0-3.0-15.0-0.0-1.0","spark_pilot_2","7095","8","7","Male","","","","","","","2211","<p> <b> That's right! </b> The amount of treasure in each chest can range from 0 to 40 pieces. </p>","0","comp_answer","","","","","","","","","","","","","",""
"comp-q","104","620691","0.0-3.0-15.0-0.1-0.1","spark_pilot_2","7095","8","7","Male","","","","","","","2791","<p> <b> True or False? </b> </p><p> In this game, all animals have the same amount of treasure in their left and right chests. </p>","1","comp_question","","","","true","","","","","","","","","",""
"comp-q","105","627892","0.0-3.0-15.0-0.1-1.1","spark_pilot_2","7095","8","7","Male","","","","","","","1969","<p> <b> That's right! </b> Animals have different amounts of treasure in their treasure chests. </p>","0","comp_answer","","","","","","","","","","","","","",""
"comp-q","106","635908","0.0-3.0-15.0-0.2-0.2","spark_pilot_2","7095","8","7","Male","","","","","","","2168","<p> <b> True or False? </b> </p><p> The same animal will always be there if you go up in the same place. </p>","1","comp_question","","","","false","","","","","","","","","",""
"comp-q","107","645792","0.0-3.0-15.0-0.2-1.2","spark_pilot_2","7095","8","7","Male","","","","","","","3577","<p> <b>Incorrect.</b> One animal lives in the upper part and one lives in the lower part of every place. </p>","0","comp_answer","","","","","","","","","","","","","",""
"comp-q","108","653692","0.0-3.0-15.0-0.3-0.3","spark_pilot_2","7095","8","7","Male","","","","","","","2074","<p> <b> True or False? </b> </p><p> The same animal will always be there if you go up in the same place. </p>","0","comp_question","","","","true","","","","","","","","","",""
"comp-q","109","662576","0.0-3.0-15.0-0.3-1.3","spark_pilot_2","7095","8","7","Male","","","","","","","2435","<p> <b> That's right! </b> One animal lives in the upper part and one lives in the lower part of every place. </p>","0","comp_answer","","","","","","","","","","","","","",""
"comp-q","110","672042","0.0-3.0-15.0-0.4-0.4","spark_pilot_2","7095","8","7","Male","","","","","","","3939","<p> <b> True or False? </b> </p><p> If you see a different picture, it means you are in a new place. </p>","1","comp_question","","","","true","","","","","","","","","",""
"comp-q","111","685441","0.0-3.0-15.0-0.4-1.4","spark_pilot_2","7095","8","7","Male","","","","","","","2165","<p> <b> That's right! </b> Lots of different images may show the same place. For example,  you may see three different images that all remind you that you are in outer space. </p>","0","comp_answer","","","","","","","","","","","","","",""
"learning-instructions","112","698326","0.0-3.0-16.0-0.0","spark_pilot_2","7095","8","7","Male","","","","","","","3028","<p> Good job. Remember to do your best because the amount of treasure you earn will be converted into bonus money. </p>
            <p> It’s time to start the real game! </p>","","instructions","","","","","","","","","","","","","",""
"learning-instructions","113","707540","0.0-4.0-0.0-0.0","spark_pilot_2","7095","8","7","Male","","","","","","","6446","<p> This time you are searching for treasure in the <b>canyon</b>.</p>","","instructions","","","","","","","","","","","","","",""
"learning-instructions","114","729342","0.0-4.0-0.0-0.1","spark_pilot_2","7095","8","7","Male","","","","","","","4495","<p><b>New</b> animals with <b>new</b> treasure chests live here. You need to explore to discover where the animal with the best treasure chest is.</p>
                    <p> Like before, once you figure out which animal has the chest with the most treasure, you should try to get to that animal and select that chest! </p>","","instructions","","","","","","","","","","","","","",""
"learning-instructions","115","748458","0.0-4.0-1.0-0.0","spark_pilot_2","7095","8","7","Male","","","","","","","4383","<p> Remember, when you see a picture of the place, use the up and down keys to <b>find an animal</b>.</p>
            <p> When you encounter an animal, you should use the left and right keys to <b>select a treasure chest</b>.</p>
            <p> Don't forget to look out for the robber! </p>","","instructions","","","","","","","","","","","","","",""
"revaluation","116","754468","0.0-4.0-2.0-0.0","spark_pilot_2","7095","8","7","Male","","","false","","","","[1931,1601]","./assets/img/canyon/memory/17.jpg","[""ArrowUp"",""ArrowRight""]","value training","canyon","10","{""ArrowUp,ArrowLeft"":26,""ArrowUp,ArrowRight"":10,""ArrowDown,ArrowLeft"":5,""ArrowDown,ArrowRight"":17}","false","ArrowUp,ArrowRight","false","","","revaluation","1","0","","",""
"html-keyboard-response","117","754971","0.0-4.0-2.0-1.0","spark_pilot_2","7095","8","7","Male","","","","","","","null","<div style=""font-size:60px;"">+</div>","null","fixation","","","","","","","","","","","1","","",""
"revaluation","118","758985","0.0-4.0-2.0-0.1","spark_pilot_2","7095","8","7","Male","","","false","","","","[1344]","./assets/img/canyon/catch/4.jpg","[""spaceBar""]","value training","canyon","0","{""ArrowUp,ArrowLeft"":26,""ArrowUp,ArrowRight"":10,""ArrowDown,ArrowLeft"":5,""ArrowDown,ArrowRight"":17}","true","spaceBar","true","","","revaluation","1","2","","",""
"html-keyboard-response","119","759487","0.0-4.0-2.0-1.1","spark_pilot_2","7095","8","7","Male","","","","","","","null","<div style=""font-size:60px;"">+</div>","null","fixation","","","","","","","","","","","3","","",""
"revaluation","120","765497","0.0-4.0-2.0-0.2","spark_pilot_2","7095","8","7","Male","","","false","","","","[1430,1203]","./assets/img/canyon/memory/34.jpg","[""ArrowDown"",""ArrowRight""]","value training","canyon","17","{""ArrowUp,ArrowLeft"":26,""ArrowUp,ArrowRight"":10,""ArrowDown,ArrowLeft"":5,""ArrowDown,ArrowRight"":17}","false","ArrowDown,ArrowRight","false","","","revaluation","1","4","","",""
"html-keyboard-response","121","765999","0.0-4.0-2.0-1.2","spark_pilot_2","7095","8","7","Male","","","","","","","null","<div style=""font-size:60px;"">+</div>","null","fixation","","","","","","","","","","","5","","",""
"revaluation","122","770003","0.0-4.0-2.0-0.3","spark_pilot_2","7095","8","7","Male","","","false","","","","[1069]","./assets/img/canyon/catch/0.jpg","[""spaceBar""]","value training","canyon","0","{""ArrowUp,ArrowLeft"":26,""ArrowUp,ArrowRight"":10,""ArrowDown,ArrowLeft"":5,""ArrowDown,ArrowRight"":17}","true","spaceBar","true","","","revaluation","1","6","","",""
"html-keyboard-response","123","770508","0.0-4.0-2.0-1.3","spark_pilot_2","7095","8","7","Male","","","","","","","null","<div style=""font-size:60px;"">+</div>","null","fixation","","","","","","","","","","","7","","",""
"revaluation","124","776515","0.0-4.0-2.0-0.4","spark_pilot_2","7095","8","7","Male","","","false","","","","[1383,1056]","./assets/img/canyon/memory/27.jpg","[""ArrowDown"",""ArrowLeft""]","value training","canyon","5","{""ArrowUp,ArrowLeft"":26,""ArrowUp,ArrowRight"":10,""ArrowDown,ArrowLeft"":5,""ArrowDown,ArrowRight"":17}","false","ArrowDown,ArrowLeft","false","","","revaluation","1","8","","",""
"html-keyboard-response","125","777018","0.0-4.0-2.0-1.4","spark_pilot_2","7095","8","7","Male","","","","","","","null","<div style=""font-size:60px;"">+</div>","null","fixation","","","","","","","","","","","9","","",""
"revaluation","126","783031","0.0-4.0-2.0-0.5","spark_pilot_2","7095","8","7","Male","","","false","","","","[1420,1112]","./assets/img/canyon/memory/7.jpg","[""ArrowUp"",""ArrowRight""]","value training","canyon","10","{""ArrowUp,ArrowLeft"":26,""ArrowUp,ArrowRight"":10,""ArrowDown,ArrowLeft"":5,""ArrowDown,ArrowRight"":17}","false","ArrowUp,ArrowRight","false","","","revaluation","1","10","","",""
"html-keyboard-response","127","783538","0.0-4.0-2.0-1.5","spark_pilot_2","7095","8","7","Male","","","","","","","null","<div style=""font-size:60px;"">+</div>","null","fixation","","","","","","","","","","","11","","",""
"revaluation","128","789547","0.0-4.0-2.0-0.6","spark_pilot_2","7095","8","7","Male","","","true","","","","[1690]","./assets/img/canyon/memory/6.jpg","[""ArrowDown""]","value training","canyon","-5","{""ArrowUp,ArrowLeft"":26,""ArrowUp,ArrowRight"":10,""ArrowDown,ArrowLeft"":5,""ArrowDown,ArrowRight"":17}","false","ArrowDown","false","","","revaluation","1","12","","",""
"html-keyboard-response","129","790053","0.0-4.0-2.0-1.6","spark_pilot_2","7095","8","7","Male","","","","","","","null","<div style=""font-size:60px;"">+</div>","null","fixation","","","","","","","","","","","13","","",""
"revaluation","130","796071","0.0-4.0-2.0-0.7","spark_pilot_2","7095","8","7","Male","","","false","","","","[1872,1364]","./assets/img/canyon/memory/35.jpg","[""ArrowDown"",""ArrowRight""]","value training","canyon","17","{""ArrowUp,ArrowLeft"":26,""ArrowUp,ArrowRight"":10,""ArrowDown,ArrowLeft"":5,""ArrowDown,ArrowRight"":17}","false","ArrowDown,ArrowRight","false","","","revaluation","1","14","","",""
"html-keyboard-response","131","796577","0.0-4.0-2.0-1.7","spark_pilot_2","7095","8","7","Male","","","","","","","null","<div style=""font-size:60px;"">+</div>","null","fixation","","","","","","","","","","","15","","",""
"revaluation","132","802589","0.0-4.0-2.0-0.8","spark_pilot_2","7095","8","7","Male","","","false","","","","[1460,1130]","./assets/img/canyon/memory/36.jpg","[""ArrowUp"",""ArrowLeft""]","value training","canyon","26","{""ArrowUp,ArrowLeft"":26,""ArrowUp,ArrowRight"":10,""ArrowDown,ArrowLeft"":5,""ArrowDown,ArrowRight"":17}","true","ArrowUp,ArrowLeft","false","","","revaluation","1","16","","",""
"html-keyboard-response","133","803094","0.0-4.0-2.0-1.8","spark_pilot_2","7095","8","7","Male","","","","","","","null","<div style=""font-size:60px;"">+</div>","null","fixation","","","","","","","","","","","17","","",""
"revaluation","134","809100","0.0-4.0-2.0-0.9","spark_pilot_2","7095","8","7","Male","","","false","","","","[1453,1501]","./assets/img/canyon/memory/39.jpg","[""ArrowUp"",""ArrowLeft""]","value training","canyon","26","{""ArrowUp,ArrowLeft"":26,""ArrowUp,ArrowRight"":10,""ArrowDown,ArrowLeft"":5,""ArrowDown,ArrowRight"":17}","true","ArrowUp,ArrowLeft","false","","","revaluation","1","18","","",""
"html-keyboard-response","135","809601","0.0-4.0-2.0-1.9","spark_pilot_2","7095","8","7","Male","","","","","","","null","<div style=""font-size:60px;"">+</div>","null","fixation","","","","","","","","","","","19","","",""
"revaluation","136","815614","0.0-4.0-2.0-0.10","spark_pilot_2","7095","8","7","Male","","","false","","","","[1485,1321]","./assets/img/canyon/memory/25.jpg","[""ArrowDown"",""ArrowRight""]","value training","canyon","17","{""ArrowUp,ArrowLeft"":26,""ArrowUp,ArrowRight"":10,""ArrowDown,ArrowLeft"":5,""ArrowDown,ArrowRight"":17}","false","ArrowDown,ArrowRight","false","","","revaluation","1","20","","",""
"html-keyboard-response","137","816117","0.0-4.0-2.0-1.10","spark_pilot_2","7095","8","7","Male","","","","","","","null","<div style=""font-size:60px;"">+</div>","null","fixation","","","","","","","","","","","21","","",""
"revaluation","138","822130","0.0-4.0-2.0-0.11","spark_pilot_2","7095","8","7","Male","","","false","","","","[1669,1070]","./assets/img/canyon/memory/40.jpg","[""ArrowDown"",""ArrowLeft""]","value training","canyon","5","{""ArrowUp,ArrowLeft"":26,""ArrowUp,ArrowRight"":10,""ArrowDown,ArrowLeft"":5,""ArrowDown,ArrowRight"":17}","false","ArrowDown,ArrowLeft","false","","","revaluation","1","22","","",""
"html-keyboard-response","139","822632","0.0-4.0-2.0-1.11","spark_pilot_2","7095","8","7","Male","","","","","","","null","<div style=""font-size:60px;"">+</div>","null","fixation","","","","","","","","","","","23","","",""
"revaluation","140","828646","0.0-4.0-2.0-0.12","spark_pilot_2","7095","8","7","Male","","","false","","","","[1253,1216]","./assets/img/canyon/memory/32.jpg","[""ArrowUp"",""ArrowLeft""]","value training","canyon","26","{""ArrowUp,ArrowLeft"":26,""ArrowUp,ArrowRight"":10,""ArrowDown,ArrowLeft"":5,""ArrowDown,ArrowRight"":17}","true","ArrowUp,ArrowLeft","false","","","revaluation","1","24","","",""
"html-keyboard-response","141","829147","0.0-4.0-2.0-1.12","spark_pilot_2","7095","8","7","Male","","","","","","","null","<div style=""font-size:60px;"">+</div>","null","fixation","","","","","","","","","","","25","","",""
"revaluation","142","835155","0.0-4.0-2.0-0.13","spark_pilot_2","7095","8","7","Male","","","false","","","","[1619,583]","./assets/img/canyon/memory/39.jpg","[""ArrowUp"",""ArrowRight""]","value training","canyon","10","{""ArrowUp,ArrowLeft"":26,""ArrowUp,ArrowRight"":10,""ArrowDown,ArrowLeft"":5,""ArrowDown,ArrowRight"":17}","false","ArrowUp,ArrowRight","false","","","revaluation","1","26","","",""
"html-keyboard-response","143","835657","0.0-4.0-2.0-1.13","spark_pilot_2","7095","8","7","Male","","","","","","","null","<div style=""font-size:60px;"">+</div>","null","fixation","","","","","","","","","","","27","","",""
"revaluation","144","841668","0.0-4.0-2.0-0.14","spark_pilot_2","7095","8","7","Male","","","false","","","","[1313,938]","./assets/img/canyon/memory/16.jpg","[""ArrowUp"",""ArrowLeft""]","value training","canyon","26","{""ArrowUp,ArrowLeft"":26,""ArrowUp,ArrowRight"":10,""ArrowDown,ArrowLeft"":5,""ArrowDown,ArrowRight"":17}","true","ArrowUp,ArrowLeft","false","","","revaluation","1","28","","",""
"html-keyboard-response","145","842171","0.0-4.0-2.0-1.14","spark_pilot_2","7095","8","7","Male","","","","","","","null","<div style=""font-size:60px;"">+</div>","null","fixation","","","","","","","","","","","29","","",""
"revaluation","146","846177","0.0-4.0-2.0-0.15","spark_pilot_2","7095","8","7","Male","","","false","","","","[959]","./assets/img/canyon/catch/5.jpg","[""spaceBar""]","value training","canyon","0","{""ArrowUp,ArrowLeft"":26,""ArrowUp,ArrowRight"":10,""ArrowDown,ArrowLeft"":5,""ArrowDown,ArrowRight"":17}","true","spaceBar","true","","","revaluation","1","30","","",""
"html-keyboard-response","147","846678","0.0-4.0-2.0-1.15","spark_pilot_2","7095","8","7","Male","","","","","","","null","<div style=""font-size:60px;"">+</div>","null","fixation","","","","","","","","","","","31","","",""
"revaluation","148","852689","0.0-4.0-2.0-0.16","spark_pilot_2","7095","8","7","Male","","","false","","","","[1092,1176]","./assets/img/canyon/memory/36.jpg","[""ArrowUp"",""ArrowLeft""]","value training","canyon","26","{""ArrowUp,ArrowLeft"":26,""ArrowUp,ArrowRight"":10,""ArrowDown,ArrowLeft"":5,""ArrowDown,ArrowRight"":17}","true","ArrowUp,ArrowLeft","false","","","revaluation","1","32","","",""
"html-keyboard-response","149","853192","0.0-4.0-2.0-1.16","spark_pilot_2","7095","8","7","Male","","","","","","","null","<div style=""font-size:60px;"">+</div>","null","fixation","","","","","","","","","","","33","","",""
"revaluation","150","859198","0.0-4.0-2.0-0.17","spark_pilot_2","7095","8","7","Male","","","false","","","","[1585,1397]","./assets/img/canyon/memory/1.jpg","[""ArrowDown"",""ArrowLeft""]","value training","canyon","5","{""ArrowUp,ArrowLeft"":26,""ArrowUp,ArrowRight"":10,""ArrowDown,ArrowLeft"":5,""ArrowDown,ArrowRight"":17}","false","ArrowDown,ArrowLeft","false","","","revaluation","1","34","","",""
"html-keyboard-response","151","859702","0.0-4.0-2.0-1.17","spark_pilot_2","7095","8","7","Male","","","","","","","null","<div style=""font-size:60px;"">+</div>","null","fixation","","","","","","","","","","","35","","",""
"revaluation","152","863707","0.0-4.0-2.0-0.18","spark_pilot_2","7095","8","7","Male","","","false","","","","[1003]","./assets/img/canyon/catch/7.jpg","[""spaceBar""]","value training","canyon","0","{""ArrowUp,ArrowLeft"":26,""ArrowUp,ArrowRight"":10,""ArrowDown,ArrowLeft"":5,""ArrowDown,ArrowRight"":17}","true","spaceBar","true","","","revaluation","1","36","","",""
"html-keyboard-response","153","864212","0.0-4.0-2.0-1.18","spark_pilot_2","7095","8","7","Male","","","","","","","null","<div style=""font-size:60px;"">+</div>","null","fixation","","","","","","","","","","","37","","",""
"revaluation","154","870228","0.0-4.0-2.0-0.19","spark_pilot_2","7095","8","7","Male","","","false","","","","[1385,966]","./assets/img/canyon/memory/25.jpg","[""ArrowDown"",""ArrowRight""]","value training","canyon","17","{""ArrowUp,ArrowLeft"":26,""ArrowUp,ArrowRight"":10,""ArrowDown,ArrowLeft"":5,""ArrowDown,ArrowRight"":17}","false","ArrowDown,ArrowRight","false","","","revaluation","1","38","","",""
"html-keyboard-response","155","870731","0.0-4.0-2.0-1.19","spark_pilot_2","7095","8","7","Male","","","","","","","null","<div style=""font-size:60px;"">+</div>","null","fixation","","","","","","","","","","","39","","",""
"revaluation","156","874739","0.0-4.0-2.0-0.20","spark_pilot_2","7095","8","7","Male","","","true","","","","[]","./assets/img/canyon/memory/26.jpg","[]","value training","canyon","-5","{""ArrowUp,ArrowLeft"":26,""ArrowUp,ArrowRight"":10,""ArrowDown,ArrowLeft"":5,""ArrowDown,ArrowRight"":17}","false","","false","","","revaluation","1","40","","",""
"html-keyboard-response","157","875242","0.0-4.0-2.0-1.20","spark_pilot_2","7095","8","7","Male","","","","","","","null","<div style=""font-size:60px;"">+</div>","null","fixation","","","","","","","","","","","41","","",""
"revaluation","158","879246","0.0-4.0-2.0-0.21","spark_pilot_2","7095","8","7","Male","","","false","","","","[695]","./assets/img/canyon/catch/1.jpg","[""ArrowUp""]","value training","canyon","-10","{""ArrowUp,ArrowLeft"":26,""ArrowUp,ArrowRight"":10,""ArrowDown,ArrowLeft"":5,""ArrowDown,ArrowRight"":17}","false","ArrowUp","true","","","revaluation","1","42","","",""
"html-keyboard-response","159","879748","0.0-4.0-2.0-1.21","spark_pilot_2","7095","8","7","Male","","","","","","","null","<div style=""font-size:60px;"">+</div>","null","fixation","","","","","","","","","","","43","","",""
"revaluation","160","885761","0.0-4.0-2.0-0.22","spark_pilot_2","7095","8","7","Male","","","false","","","","[1443,1504]","./assets/img/canyon/memory/16.jpg","[""ArrowDown"",""ArrowRight""]","value training","canyon","17","{""ArrowUp,ArrowLeft"":26,""ArrowUp,ArrowRight"":10,""ArrowDown,ArrowLeft"":5,""ArrowDown,ArrowRight"":17}","false","ArrowDown,ArrowRight","false","","","revaluation","1","44","","",""
"html-keyboard-response","161","886265","0.0-4.0-2.0-1.22","spark_pilot_2","7095","8","7","Male","","","","","","","null","<div style=""font-size:60px;"">+</div>","null","fixation","","","","","","","","","","","45","","",""
"revaluation","162","892276","0.0-4.0-2.0-0.23","spark_pilot_2","7095","8","7","Male","","","false","","","","[836,1120]","./assets/img/canyon/memory/6.jpg","[""ArrowDown"",""ArrowRight""]","value training","canyon","17","{""ArrowUp,ArrowLeft"":26,""ArrowUp,ArrowRight"":10,""ArrowDown,ArrowLeft"":5,""ArrowDown,ArrowRight"":17}","false","ArrowDown,ArrowRight","false","","","revaluation","1","46","","",""
"html-keyboard-response","163","892781","0.0-4.0-2.0-1.23","spark_pilot_2","7095","8","7","Male","","","","","","","null","<div style=""font-size:60px;"">+</div>","null","fixation","","","","","","","","","","","47","","",""
"revaluation","164","898792","0.0-4.0-2.0-0.24","spark_pilot_2","7095","8","7","Male","","","false","","","","[1268,1508]","./assets/img/canyon/memory/33.jpg","[""ArrowUp"",""ArrowLeft""]","value training","canyon","26","{""ArrowUp,ArrowLeft"":26,""ArrowUp,ArrowRight"":10,""ArrowDown,ArrowLeft"":5,""ArrowDown,ArrowRight"":17}","true","ArrowUp,ArrowLeft","false","","","revaluation","1","48","","",""
"html-keyboard-response","165","899293","0.0-4.0-2.0-1.24","spark_pilot_2","7095","8","7","Male","","","","","","","null","<div style=""font-size:60px;"">+</div>","null","fixation","","","","","","","","","","","49","","",""
"revaluation","166","905301","0.0-4.0-2.0-0.25","spark_pilot_2","7095","8","7","Male","","","false","","","","[1577,986]","./assets/img/canyon/memory/0.jpg","[""ArrowUp"",""ArrowRight""]","value training","canyon","10","{""ArrowUp,ArrowLeft"":26,""ArrowUp,ArrowRight"":10,""ArrowDown,ArrowLeft"":5,""ArrowDown,ArrowRight"":17}","false","ArrowUp,ArrowRight","false","","","revaluation","1","50","","",""
"html-keyboard-response","167","905807","0.0-4.0-2.0-1.25","spark_pilot_2","7095","8","7","Male","","","","","","","null","<div style=""font-size:60px;"">+</div>","null","fixation","","","","","","","","","","","51","","",""
"revaluation","168","911819","0.0-4.0-2.0-0.26","spark_pilot_2","7095","8","7","Male","","","false","","","","[1701,758]","./assets/img/canyon/memory/24.jpg","[""ArrowUp"",""ArrowLeft""]","value training","canyon","26","{""ArrowUp,ArrowLeft"":26,""ArrowUp,ArrowRight"":10,""ArrowDown,ArrowLeft"":5,""ArrowDown,ArrowRight"":17}","true","ArrowUp,ArrowLeft","false","","","revaluation","1","52","","",""
"html-keyboard-response","169","912325","0.0-4.0-2.0-1.26","spark_pilot_2","7095","8","7","Male","","","","","","","null","<div style=""font-size:60px;"">+</div>","null","fixation","","","","","","","","","","","53","","",""
"revaluation","170","918333","0.0-4.0-2.0-0.27","spark_pilot_2","7095","8","7","Male","","","false","","","","[1109,705]","./assets/img/canyon/memory/38.jpg","[""ArrowUp"",""ArrowLeft""]","value training","canyon","26","{""ArrowUp,ArrowLeft"":26,""ArrowUp,ArrowRight"":10,""ArrowDown,ArrowLeft"":5,""ArrowDown,ArrowRight"":17}","true","ArrowUp,ArrowLeft","false","","","revaluation","1","54","","",""
"html-keyboard-response","171","918835","0.0-4.0-2.0-1.27","spark_pilot_2","7095","8","7","Male","","","","","","","null","<div style=""font-size:60px;"">+</div>","null","fixation","","","","","","","","","","","55","","",""
"revaluation","172","922848","0.0-4.0-2.0-0.28","spark_pilot_2","7095","8","7","Male","","","false","","","","[1404]","./assets/img/canyon/catch/2.jpg","[""spaceBar""]","value training","canyon","0","{""ArrowUp,ArrowLeft"":26,""ArrowUp,ArrowRight"":10,""ArrowDown,ArrowLeft"":5,""ArrowDown,ArrowRight"":17}","true","spaceBar","true","","","revaluation","1","56","","",""
"html-keyboard-response","173","923354","0.0-4.0-2.0-1.28","spark_pilot_2","7095","8","7","Male","","","","","","","null","<div style=""font-size:60px;"">+</div>","null","fixation","","","","","","","","","","","57","","",""
"revaluation","174","929368","0.0-4.0-2.0-0.29","spark_pilot_2","7095","8","7","Male","","","true","","","","[1361]","./assets/img/canyon/memory/26.jpg","[""ArrowUp""]","value training","canyon","-5","{""ArrowUp,ArrowLeft"":26,""ArrowUp,ArrowRight"":10,""ArrowDown,ArrowLeft"":5,""ArrowDown,ArrowRight"":17}","false","ArrowUp","false","","","revaluation","1","58","","",""
"html-keyboard-response","175","929870","0.0-4.0-2.0-1.29","spark_pilot_2","7095","8","7","Male","","","","","","","null","<div style=""font-size:60px;"">+</div>","null","fixation","","","","","","","","","","","59","","",""
"revaluation","176","935878","0.0-4.0-2.0-0.30","spark_pilot_2","7095","8","7","Male","","","false","","","","[1070,670]","./assets/img/canyon/memory/17.jpg","[""ArrowUp"",""ArrowLeft""]","value training","canyon","26","{""ArrowUp,ArrowLeft"":26,""ArrowUp,ArrowRight"":10,""ArrowDown,ArrowLeft"":5,""ArrowDown,ArrowRight"":17}","true","ArrowUp,ArrowLeft","false","","","revaluation","1","60","","",""
"html-keyboard-response","177","936383","0.0-4.0-2.0-1.30","spark_pilot_2","7095","8","7","Male","","","","","","","null","<div style=""font-size:60px;"">+</div>","null","fixation","","","","","","","","","","","61","","",""
"revaluation","178","942396","0.0-4.0-2.0-0.31","spark_pilot_2","7095","8","7","Male","","","false","","","","[875,463]","./assets/img/canyon/memory/0.jpg","[""ArrowUp"",""ArrowLeft""]","value training","canyon","26","{""ArrowUp,ArrowLeft"":26,""ArrowUp,ArrowRight"":10,""ArrowDown,ArrowLeft"":5,""ArrowDown,ArrowRight"":17}","true","ArrowUp,ArrowLeft","false","","","revaluation","1","62","","",""
"html-keyboard-response","179","942899","0.0-4.0-2.0-1.31","spark_pilot_2","7095","8","7","Male","","","","","","","null","<div style=""font-size:60px;"">+</div>","null","fixation","","","","","","","","","","","63","","",""
"revaluation","180","948903","0.0-4.0-2.0-0.32","spark_pilot_2","7095","8","7","Male","","","false","","","","[508,718]","./assets/img/canyon/memory/27.jpg","[""ArrowUp"",""ArrowLeft""]","value training","canyon","26","{""ArrowUp,ArrowLeft"":26,""ArrowUp,ArrowRight"":10,""ArrowDown,ArrowLeft"":5,""ArrowDown,ArrowRight"":17}","true","ArrowUp,ArrowLeft","false","","","revaluation","1","64","","",""
"html-keyboard-response","181","949407","0.0-4.0-2.0-1.32","spark_pilot_2","7095","8","7","Male","","","","","","","null","<div style=""font-size:60px;"">+</div>","null","fixation","","","","","","","","","","","65","","",""
"revaluation","182","955419","0.0-4.0-2.0-0.33","spark_pilot_2","7095","8","7","Male","","","false","","","","[533,1064]","./assets/img/canyon/memory/3.jpg","[""ArrowUp"",""ArrowLeft""]","value training","canyon","26","{""ArrowUp,ArrowLeft"":26,""ArrowUp,ArrowRight"":10,""ArrowDown,ArrowLeft"":5,""ArrowDown,ArrowRight"":17}","true","ArrowUp,ArrowLeft","false","","","revaluation","1","66","","",""
"html-keyboard-response","183","955921","0.0-4.0-2.0-1.33","spark_pilot_2","7095","8","7","Male","","","","","","","null","<div style=""font-size:60px;"">+</div>","null","fixation","","","","","","","","","","","67","","",""
"revaluation","184","961929","0.0-4.0-2.0-0.34","spark_pilot_2","7095","8","7","Male","","","false","","","","[382,926]","./assets/img/canyon/memory/24.jpg","[""ArrowDown"",""ArrowLeft""]","value training","canyon","5","{""ArrowUp,ArrowLeft"":26,""ArrowUp,ArrowRight"":10,""ArrowDown,ArrowLeft"":5,""ArrowDown,ArrowRight"":17}","false","ArrowDown,ArrowLeft","false","","","revaluation","1","68","","",""
"html-keyboard-response","185","962435","0.0-4.0-2.0-1.34","spark_pilot_2","7095","8","7","Male","","","","","","","null","<div style=""font-size:60px;"">+</div>","null","fixation","","","","","","","","","","","69","","",""
"revaluation","186","968448","0.0-4.0-2.0-0.35","spark_pilot_2","7095","8","7","Male","","","false","","","","[1249,937]","./assets/img/canyon/memory/34.jpg","[""ArrowDown"",""ArrowRight""]","value training","canyon","17","{""ArrowUp,ArrowLeft"":26,""ArrowUp,ArrowRight"":10,""ArrowDown,ArrowLeft"":5,""ArrowDown,ArrowRight"":17}","false","ArrowDown,ArrowRight","false","","","revaluation","1","70","","",""
"html-keyboard-response","187","968954","0.0-4.0-2.0-1.35","spark_pilot_2","7095","8","7","Male","","","","","","","null","<div style=""font-size:60px;"">+</div>","null","fixation","","","","","","","","","","","71","","",""
"revaluation","188","972966","0.0-4.0-2.0-0.36","spark_pilot_2","7095","8","7","Male","","","false","","","","[1024]","./assets/img/canyon/catch/3.jpg","[""spaceBar""]","value training","canyon","0","{""ArrowUp,ArrowLeft"":26,""ArrowUp,ArrowRight"":10,""ArrowDown,ArrowLeft"":5,""ArrowDown,ArrowRight"":17}","true","spaceBar","true","","","revaluation","1","72","","",""
"html-keyboard-response","189","973472","0.0-4.0-2.0-1.36","spark_pilot_2","7095","8","7","Male","","","","","","","null","<div style=""font-size:60px;"">+</div>","null","fixation","","","","","","","","","","","73","","",""
"revaluation","190","979482","0.0-4.0-2.0-0.37","spark_pilot_2","7095","8","7","Male","","","false","","","","[1641,1211]","./assets/img/canyon/memory/2.jpg","[""ArrowUp"",""ArrowRight""]","value training","canyon","10","{""ArrowUp,ArrowLeft"":26,""ArrowUp,ArrowRight"":10,""ArrowDown,ArrowLeft"":5,""ArrowDown,ArrowRight"":17}","false","ArrowUp,ArrowRight","false","","","revaluation","1","74","","",""
"html-keyboard-response","191","979983","0.0-4.0-2.0-1.37","spark_pilot_2","7095","8","7","Male","","","","","","","null","<div style=""font-size:60px;"">+</div>","null","fixation","","","","","","","","","","","75","","",""
"revaluation","192","985995","0.0-4.0-2.0-0.38","spark_pilot_2","7095","8","7","Male","","","false","","","","[959,1082]","./assets/img/canyon/memory/37.jpg","[""ArrowUp"",""ArrowLeft""]","value training","canyon","26","{""ArrowUp,ArrowLeft"":26,""ArrowUp,ArrowRight"":10,""ArrowDown,ArrowLeft"":5,""ArrowDown,ArrowRight"":17}","true","ArrowUp,ArrowLeft","false","","","revaluation","1","76","","",""
"html-keyboard-response","193","986502","0.0-4.0-2.0-1.38","spark_pilot_2","7095","8","7","Male","","","","","","","null","<div style=""font-size:60px;"">+</div>","null","fixation","","","","","","","","","","","77","","",""
"revaluation","194","990514","0.0-4.0-2.0-0.39","spark_pilot_2","7095","8","7","Male","","","false","","","","[922]","./assets/img/canyon/catch/6.jpg","[""spaceBar""]","value training","canyon","0","{""ArrowUp,ArrowLeft"":26,""ArrowUp,ArrowRight"":10,""ArrowDown,ArrowLeft"":5,""ArrowDown,ArrowRight"":17}","true","spaceBar","true","","","revaluation","1","78","","",""
"html-keyboard-response","195","991021","0.0-4.0-2.0-1.39","spark_pilot_2","7095","8","7","Male","","","","","","","null","<div style=""font-size:60px;"">+</div>","null","fixation","","","","","","","","","","","79","","",""
"revaluation","196","997028","0.0-4.0-2.0-0.40","spark_pilot_2","7095","8","7","Male","","","false","","","","[1440,1437]","./assets/img/canyon/memory/37.jpg","[""ArrowUp"",""ArrowLeft""]","value training","canyon","26","{""ArrowUp,ArrowLeft"":26,""ArrowUp,ArrowRight"":10,""ArrowDown,ArrowLeft"":5,""ArrowDown,ArrowRight"":17}","true","ArrowUp,ArrowLeft","false","","","revaluation","1","80","","",""
"html-keyboard-response","197","997531","0.0-4.0-2.0-1.40","spark_pilot_2","7095","8","7","Male","","","","","","","null","<div style=""font-size:60px;"">+</div>","null","fixation","","","","","","","","","","","81","","",""
"revaluation","198","1003545","0.0-4.0-2.0-0.41","spark_pilot_2","7095","8","7","Male","","","false","","","","[734,605]","./assets/img/canyon/memory/1.jpg","[""ArrowUp"",""ArrowLeft""]","value training","canyon","26","{""ArrowUp,ArrowLeft"":26,""ArrowUp,ArrowRight"":10,""ArrowDown,ArrowLeft"":5,""ArrowDown,ArrowRight"":17}","true","ArrowUp,ArrowLeft","false","","","revaluation","1","82","","",""
"html-keyboard-response","199","1004050","0.0-4.0-2.0-1.41","spark_pilot_2","7095","8","7","Male","","","","","","","null","<div style=""font-size:60px;"">+</div>","null","fixation","","","","","","","","","","","83","","",""
"revaluation","200","1010060","0.0-4.0-2.0-0.42","spark_pilot_2","7095","8","7","Male","","","false","","","","[391,985]","./assets/img/canyon/memory/40.jpg","[""ArrowUp"",""ArrowLeft""]","value training","canyon","26","{""ArrowUp,ArrowLeft"":26,""ArrowUp,ArrowRight"":10,""ArrowDown,ArrowLeft"":5,""ArrowDown,ArrowRight"":17}","true","ArrowUp,ArrowLeft","false","","","revaluation","1","84","","",""
"html-keyboard-response","201","1010566","0.0-4.0-2.0-1.42","spark_pilot_2","7095","8","7","Male","","","","","","","null","<div style=""font-size:60px;"">+</div>","null","fixation","","","","","","","","","","","85","","",""
"revaluation","202","1016585","0.0-4.0-2.0-0.43","spark_pilot_2","7095","8","7","Male","","","false","","","","[578,1827]","./assets/img/canyon/memory/32.jpg","[""ArrowDown"",""ArrowRight""]","value training","canyon","17","{""ArrowUp,ArrowLeft"":26,""ArrowUp,ArrowRight"":10,""ArrowDown,ArrowLeft"":5,""ArrowDown,ArrowRight"":17}","false","ArrowDown,ArrowRight","false","","","revaluation","1","86","","",""
"html-keyboard-response","203","1017086","0.0-4.0-2.0-1.43","spark_pilot_2","7095","8","7","Male","","","","","","","null","<div style=""font-size:60px;"">+</div>","null","fixation","","","","","","","","","","","87","","",""
"revaluation","204","1023097","0.0-4.0-2.0-0.44","spark_pilot_2","7095","8","7","Male","","","false","","","","[410,491]","./assets/img/canyon/memory/2.jpg","[""ArrowUp"",""ArrowLeft""]","value training","canyon","26","{""ArrowUp,ArrowLeft"":26,""ArrowUp,ArrowRight"":10,""ArrowDown,ArrowLeft"":5,""ArrowDown,ArrowRight"":17}","true","ArrowUp,ArrowLeft","false","","","revaluation","1","88","","",""
"html-keyboard-response","205","1023601","0.0-4.0-2.0-1.44","spark_pilot_2","7095","8","7","Male","","","","","","","null","<div style=""font-size:60px;"">+</div>","null","fixation","","","","","","","","","","","89","","",""
"revaluation","206","1029614","0.0-4.0-2.0-0.45","spark_pilot_2","7095","8","7","Male","","","false","","","","[493,362]","./assets/img/canyon/memory/33.jpg","[""ArrowUp"",""ArrowLeft""]","value training","canyon","26","{""ArrowUp,ArrowLeft"":26,""ArrowUp,ArrowRight"":10,""ArrowDown,ArrowLeft"":5,""ArrowDown,ArrowRight"":17}","true","ArrowUp,ArrowLeft","false","","","revaluation","1","90","","",""
"html-keyboard-response","207","1030120","0.0-4.0-2.0-1.45","spark_pilot_2","7095","8","7","Male","","","","","","","null","<div style=""font-size:60px;"">+</div>","null","fixation","","","","","","","","","","","91","","",""
"revaluation","208","1036131","0.0-4.0-2.0-0.46","spark_pilot_2","7095","8","7","Male","","","false","","","","[755,411]","./assets/img/canyon/memory/7.jpg","[""ArrowUp"",""ArrowLeft""]","value training","canyon","26","{""ArrowUp,ArrowLeft"":26,""ArrowUp,ArrowRight"":10,""ArrowDown,ArrowLeft"":5,""ArrowDown,ArrowRight"":17}","true","ArrowUp,ArrowLeft","false","","","revaluation","1","92","","",""
"html-keyboard-response","209","1036633","0.0-4.0-2.0-1.46","spark_pilot_2","7095","8","7","Male","","","","","","","null","<div style=""font-size:60px;"">+</div>","null","fixation","","","","","","","","","","","93","","",""
"revaluation","210","1042643","0.0-4.0-2.0-0.47","spark_pilot_2","7095","8","7","Male","","","false","","","","[408,509]","./assets/img/canyon/memory/38.jpg","[""ArrowUp"",""ArrowLeft""]","value training","canyon","26","{""ArrowUp,ArrowLeft"":26,""ArrowUp,ArrowRight"":10,""ArrowDown,ArrowLeft"":5,""ArrowDown,ArrowRight"":17}","true","ArrowUp,ArrowLeft","false","","","revaluation","1","94","","",""
"html-keyboard-response","211","1043148","0.0-4.0-2.0-1.47","spark_pilot_2","7095","8","7","Male","","","","","","","null","<div style=""font-size:60px;"">+</div>","null","fixation","","","","","","","","","","","95","","",""
"revaluation","212","1049158","0.0-4.0-2.0-0.48","spark_pilot_2","7095","8","7","Male","","","false","","","","[837,789]","./assets/img/canyon/memory/3.jpg","[""ArrowUp"",""ArrowLeft""]","value training","canyon","26","{""ArrowUp,ArrowLeft"":26,""ArrowUp,ArrowRight"":10,""ArrowDown,ArrowLeft"":5,""ArrowDown,ArrowRight"":17}","true","ArrowUp,ArrowLeft","false","","","revaluation","1","96","","",""
"html-keyboard-response","213","1049662","0.0-4.0-2.0-1.48","spark_pilot_2","7095","8","7","Male","","","","","","","null","<div style=""font-size:60px;"">+</div>","null","fixation","","","","","","","","","","","97","","",""
"revaluation","214","1055669","0.0-4.0-2.0-0.49","spark_pilot_2","7095","8","7","Male","","","false","","","","[596,623]","./assets/img/canyon/memory/35.jpg","[""ArrowUp"",""ArrowLeft""]","value training","canyon","26","{""ArrowUp,ArrowLeft"":26,""ArrowUp,ArrowRight"":10,""ArrowDown,ArrowLeft"":5,""ArrowDown,ArrowRight"":17}","true","ArrowUp,ArrowLeft","false","","","revaluation","1","98","","",""
"html-keyboard-response","215","1056175","0.0-4.0-2.0-1.49","spark_pilot_2","7095","8","7","Male","","","","","","","null","<div style=""font-size:60px;"">+</div>","null","fixation","","","","","","","","","","","99","","",""
"learning-instructions","216","1070873","0.0-4.0-3.0-0.0","spark_pilot_2","7095","8","7","Male","","","","","","","1814","<p> Now, you will travel with a friend who will choose whether you go up or down first. </p>
            <p> On these turns, you will just see the animal that they found. You will still get to choose which chest to search for treasure.</p>","","instructions","","","","","","","","","","","","","",""
"revaluation","217","1074882","0.0-4.0-4.0-0.0","spark_pilot_2","7095","8","7","Male","","","false","","","","[1673]","./assets/img/canyon/animals/giraffe.jpg","[""ArrowLeft""]","revaluation","canyon","8","{""ArrowUp,ArrowLeft"":2,""ArrowUp,ArrowRight"":11,""ArrowDown,ArrowLeft"":8,""ArrowDown,ArrowRight"":27}","false","ArrowDown,ArrowLeft","","","","revaluation","1","0","","",""
"html-keyboard-response","218","1075388","0.0-4.0-4.0-1.0","spark_pilot_2","7095","8","7","Male","","","","","","","null","<div style=""font-size:60px;"">+</div>","null","fixation","","","","","","","","","","","1","","",""
"revaluation","219","1079399","0.0-4.0-4.0-0.1","spark_pilot_2","7095","8","7","Male","","","false","","","","[1267]","./assets/img/canyon/animals/lion.jpg","[""ArrowLeft""]","revaluation","canyon","2","{""ArrowUp,ArrowLeft"":2,""ArrowUp,ArrowRight"":11,""ArrowDown,ArrowLeft"":8,""ArrowDown,ArrowRight"":27}","false","ArrowUp,ArrowLeft","","","","revaluation","1","2","","",""
"html-keyboard-response","220","1079905","0.0-4.0-4.0-1.1","spark_pilot_2","7095","8","7","Male","","","","","","","null","<div style=""font-size:60px;"">+</div>","null","fixation","","","","","","","","","","","3","","",""
"revaluation","221","1083913","0.0-4.0-4.0-0.2","spark_pilot_2","7095","8","7","Male","","","false","","","","[642]","./assets/img/canyon/animals/lion.jpg","[""ArrowRight""]","revaluation","canyon","11","{""ArrowUp,ArrowLeft"":2,""ArrowUp,ArrowRight"":11,""ArrowDown,ArrowLeft"":8,""ArrowDown,ArrowRight"":27}","true","ArrowUp,ArrowRight","","","","revaluation","1","4","","",""
"html-keyboard-response","222","1084415","0.0-4.0-4.0-1.2","spark_pilot_2","7095","8","7","Male","","","","","","","null","<div style=""font-size:60px;"">+</div>","null","fixation","","","","","","","","","","","5","","",""
"revaluation","223","1088424","0.0-4.0-4.0-0.3","spark_pilot_2","7095","8","7","Male","","","false","","","","[1077]","./assets/img/canyon/animals/lion.jpg","[""ArrowRight""]","revaluation","canyon","11","{""ArrowUp,ArrowLeft"":2,""ArrowUp,ArrowRight"":11,""ArrowDown,ArrowLeft"":8,""ArrowDown,ArrowRight"":27}","true","ArrowUp,ArrowRight","","","","revaluation","1","6","","",""
"html-keyboard-response","224","1088926","0.0-4.0-4.0-1.3","spark_pilot_2","7095","8","7","Male","","","","","","","null","<div style=""font-size:60px;"">+</div>","null","fixation","","","","","","","","","","","7","","",""
"revaluation","225","1092930","0.0-4.0-4.0-0.4","spark_pilot_2","7095","8","7","Male","","","false","","","","[1467]","./assets/img/canyon/animals/giraffe.jpg","[""ArrowRight""]","revaluation","canyon","27","{""ArrowUp,ArrowLeft"":2,""ArrowUp,ArrowRight"":11,""ArrowDown,ArrowLeft"":8,""ArrowDown,ArrowRight"":27}","true","ArrowDown,ArrowRight","","","","revaluation","1","8","","",""
"html-keyboard-response","226","1093437","0.0-4.0-4.0-1.4","spark_pilot_2","7095","8","7","Male","","","","","","","null","<div style=""font-size:60px;"">+</div>","null","fixation","","","","","","","","","","","9","","",""
"revaluation","227","1097442","0.0-4.0-4.0-0.5","spark_pilot_2","7095","8","7","Male","","","false","","","","[490]","./assets/img/canyon/animals/lion.jpg","[""ArrowRight""]","revaluation","canyon","11","{""ArrowUp,ArrowLeft"":2,""ArrowUp,ArrowRight"":11,""ArrowDown,ArrowLeft"":8,""ArrowDown,ArrowRight"":27}","true","ArrowUp,ArrowRight","","","","revaluation","1","10","","",""
"html-keyboard-response","228","1097949","0.0-4.0-4.0-1.5","spark_pilot_2","7095","8","7","Male","","","","","","","null","<div style=""font-size:60px;"">+</div>","null","fixation","","","","","","","","","","","11","","",""
"revaluation","229","1101954","0.0-4.0-4.0-0.6","spark_pilot_2","7095","8","7","Male","","","false","","","","[497]","./assets/img/canyon/animals/lion.jpg","[""ArrowRight""]","revaluation","canyon","11","{""ArrowUp,ArrowLeft"":2,""ArrowUp,ArrowRight"":11,""ArrowDown,ArrowLeft"":8,""ArrowDown,ArrowRight"":27}","true","ArrowUp,ArrowRight","","","","revaluation","1","12","","",""
"html-keyboard-response","230","1102458","0.0-4.0-4.0-1.6","spark_pilot_2","7095","8","7","Male","","","","","","","null","<div style=""font-size:60px;"">+</div>","null","fixation","","","","","","","","","","","13","","",""
"revaluation","231","1106469","0.0-4.0-4.0-0.7","spark_pilot_2","7095","8","7","Male","","","false","","","","[1250]","./assets/img/canyon/animals/giraffe.jpg","[""ArrowLeft""]","revaluation","canyon","8","{""ArrowUp,ArrowLeft"":2,""ArrowUp,ArrowRight"":11,""ArrowDown,ArrowLeft"":8,""ArrowDown,ArrowRight"":27}","false","ArrowDown,ArrowLeft","","","","revaluation","1","14","","",""
"html-keyboard-response","232","1106971","0.0-4.0-4.0-1.7","spark_pilot_2","7095","8","7","Male","","","","","","","null","<div style=""font-size:60px;"">+</div>","null","fixation","","","","","","","","","","","15","","",""
"revaluation","233","1110976","0.0-4.0-4.0-0.8","spark_pilot_2","7095","8","7","Male","","","false","","","","[398]","./assets/img/canyon/animals/giraffe.jpg","[""ArrowRight""]","revaluation","canyon","27","{""ArrowUp,ArrowLeft"":2,""ArrowUp,ArrowRight"":11,""ArrowDown,ArrowLeft"":8,""ArrowDown,ArrowRight"":27}","true","ArrowDown,ArrowRight","","","","revaluation","1","16","","",""
"html-keyboard-response","234","1111482","0.0-4.0-4.0-1.8","spark_pilot_2","7095","8","7","Male","","","","","","","null","<div style=""font-size:60px;"">+</div>","null","fixation","","","","","","","","","","","17","","",""
"revaluation","235","1115491","0.0-4.0-4.0-0.9","spark_pilot_2","7095","8","7","Male","","","false","","","","[360]","./assets/img/canyon/animals/lion.jpg","[""ArrowRight""]","revaluation","canyon","11","{""ArrowUp,ArrowLeft"":2,""ArrowUp,ArrowRight"":11,""ArrowDown,ArrowLeft"":8,""ArrowDown,ArrowRight"":27}","true","ArrowUp,ArrowRight","","","","revaluation","1","18","","",""
"html-keyboard-response","236","1115996","0.0-4.0-4.0-1.9","spark_pilot_2","7095","8","7","Male","","","","","","","null","<div style=""font-size:60px;"">+</div>","null","fixation","","","","","","","","","","","19","","",""
"revaluation","237","1120008","0.0-4.0-4.0-0.10","spark_pilot_2","7095","8","7","Male","","","false","","","","[336]","./assets/img/canyon/animals/lion.jpg","[""ArrowRight""]","revaluation","canyon","11","{""ArrowUp,ArrowLeft"":2,""ArrowUp,ArrowRight"":11,""ArrowDown,ArrowLeft"":8,""ArrowDown,ArrowRight"":27}","true","ArrowUp,ArrowRight","","","","revaluation","1","20","","",""
"html-keyboard-response","238","1120509","0.0-4.0-4.0-1.10","spark_pilot_2","7095","8","7","Male","","","","","","","null","<div style=""font-size:60px;"">+</div>","null","fixation","","","","","","","","","","","21","","",""
"revaluation","239","1124518","0.0-4.0-4.0-0.11","spark_pilot_2","7095","8","7","Male","","","false","","","","[1443]","./assets/img/canyon/animals/giraffe.jpg","[""ArrowRight""]","revaluation","canyon","27","{""ArrowUp,ArrowLeft"":2,""ArrowUp,ArrowRight"":11,""ArrowDown,ArrowLeft"":8,""ArrowDown,ArrowRight"":27}","true","ArrowDown,ArrowRight","","","","revaluation","1","22","","",""
"html-keyboard-response","240","1125020","0.0-4.0-4.0-1.11","spark_pilot_2","7095","8","7","Male","","","","","","","null","<div style=""font-size:60px;"">+</div>","null","fixation","","","","","","","","","","","23","","",""
"revaluation","241","1129028","0.0-4.0-4.0-0.12","spark_pilot_2","7095","8","7","Male","","","false","","","","[1230]","./assets/img/canyon/animals/lion.jpg","[""ArrowRight""]","revaluation","canyon","11","{""ArrowUp,ArrowLeft"":2,""ArrowUp,ArrowRight"":11,""ArrowDown,ArrowLeft"":8,""ArrowDown,ArrowRight"":27}","true","ArrowUp,ArrowRight","","","","revaluation","1","24","","",""
"html-keyboard-response","242","1129533","0.0-4.0-4.0-1.12","spark_pilot_2","7095","8","7","Male","","","","","","","null","<div style=""font-size:60px;"">+</div>","null","fixation","","","","","","","","","","","25","","",""
"revaluation","243","1133538","0.0-4.0-4.0-0.13","spark_pilot_2","7095","8","7","Male","","","false","","","","[380]","./assets/img/canyon/animals/giraffe.jpg","[""ArrowRight""]","revaluation","canyon","27","{""ArrowUp,ArrowLeft"":2,""ArrowUp,ArrowRight"":11,""ArrowDown,ArrowLeft"":8,""ArrowDown,ArrowRight"":27}","true","ArrowDown,ArrowRight","","","","revaluation","1","26","","",""
"html-keyboard-response","244","1134044","0.0-4.0-4.0-1.13","spark_pilot_2","7095","8","7","Male","","","","","","","null","<div style=""font-size:60px;"">+</div>","null","fixation","","","","","","","","","","","27","","",""
"revaluation","245","1138051","0.0-4.0-4.0-0.14","spark_pilot_2","7095","8","7","Male","","","false","","","","[679]","./assets/img/canyon/animals/giraffe.jpg","[""ArrowRight""]","revaluation","canyon","27","{""ArrowUp,ArrowLeft"":2,""ArrowUp,ArrowRight"":11,""ArrowDown,ArrowLeft"":8,""ArrowDown,ArrowRight"":27}","true","ArrowDown,ArrowRight","","","","revaluation","1","28","","",""
"html-keyboard-response","246","1138556","0.0-4.0-4.0-1.14","spark_pilot_2","7095","8","7","Male","","","","","","","null","<div style=""font-size:60px;"">+</div>","null","fixation","","","","","","","","","","","29","","",""
"revaluation","247","1142569","0.0-4.0-4.0-0.15","spark_pilot_2","7095","8","7","Male","","","false","","","","[576]","./assets/img/canyon/animals/lion.jpg","[""ArrowRight""]","revaluation","canyon","11","{""ArrowUp,ArrowLeft"":2,""ArrowUp,ArrowRight"":11,""ArrowDown,ArrowLeft"":8,""ArrowDown,ArrowRight"":27}","true","ArrowUp,ArrowRight","","","","revaluation","1","30","","",""
"html-keyboard-response","248","1143070","0.0-4.0-4.0-1.15","spark_pilot_2","7095","8","7","Male","","","","","","","null","<div style=""font-size:60px;"">+</div>","null","fixation","","","","","","","","","","","31","","",""
"revaluation","249","1147080","0.0-4.0-4.0-0.16","spark_pilot_2","7095","8","7","Male","","","false","","","","[671]","./assets/img/canyon/animals/giraffe.jpg","[""ArrowRight""]","revaluation","canyon","27","{""ArrowUp,ArrowLeft"":2,""ArrowUp,ArrowRight"":11,""ArrowDown,ArrowLeft"":8,""ArrowDown,ArrowRight"":27}","true","ArrowDown,ArrowRight","","","","revaluation","1","32","","",""
"html-keyboard-response","250","1147581","0.0-4.0-4.0-1.16","spark_pilot_2","7095","8","7","Male","","","","","","","null","<div style=""font-size:60px;"">+</div>","null","fixation","","","","","","","","","","","33","","",""
"revaluation","251","1151594","0.0-4.0-4.0-0.17","spark_pilot_2","7095","8","7","Male","","","false","","","","[411]","./assets/img/canyon/animals/giraffe.jpg","[""ArrowRight""]","revaluation","canyon","27","{""ArrowUp,ArrowLeft"":2,""ArrowUp,ArrowRight"":11,""ArrowDown,ArrowLeft"":8,""ArrowDown,ArrowRight"":27}","true","ArrowDown,ArrowRight","","","","revaluation","1","34","","",""
"html-keyboard-response","252","1152098","0.0-4.0-4.0-1.17","spark_pilot_2","7095","8","7","Male","","","","","","","null","<div style=""font-size:60px;"">+</div>","null","fixation","","","","","","","","","","","35","","",""
"learning-instructions","253","1166540","0.0-4.0-5.0-0.0","spark_pilot_2","7095","8","7","Male","","","","","","","3047","<p> Time to play the dot game! </p>
            <p> For one minute, click the red dots on the following screen as they appear. </p>
            <p><b> Don't look away, as you will earn bonus for clicking dots</b>. </p>","","instructions","","","","","","","","","","","","","",""
"revaluation","254","1226541","0.0-4.0-6.0-0.0","spark_pilot_2","7095","8","7","Male","","","","","","","[-1,169,111,137,150]","","","rest","","50","","","","","1","60000","","","","","",""
"learning-instructions","255","1236942","0.0-4.0-7.0-0.0","spark_pilot_2","7095","8","7","Male","","","","","","","4297","<p> You have almost finished this part of the game! </p>
            <p> We are going to ask you to make a few more choices. </p>","","instructions","","","","","","","","","","","","","",""
"learning-instructions","256","1252791","0.0-4.0-7.0-0.1","spark_pilot_2","7095","8","7","Male","","","","","","","1873","<p> First, you need to decide whether to go up or down. When you see each picture, use the arrow keys to make your choice. </p>
            <p><b>You will not see which animal you found, but try to get to the one that will give you the most treasure.</b></p>","","instructions","","","","","","","","","","","","","",""
"revaluation","257","1253662","0.0-4.0-8.0-0.0","spark_pilot_2","7095","8","7","Male","","","false","","","","[868]","./assets/img/canyon/test/1.jpg","[""ArrowUp""]","first stage test","canyon","0","{""ArrowUp,ArrowLeft"":2,""ArrowUp,ArrowRight"":11,""ArrowDown,ArrowLeft"":8,""ArrowDown,ArrowRight"":27}","false","ArrowUp","false","","","revaluation","1","","","",""
"html-keyboard-response","258","1254167","0.0-4.0-8.0-1.0","spark_pilot_2","7095","8","7","Male","","","","","","","null","<div style=""font-size:60px;"">+</div>","null","fixation","","","","","","","","","","","","","",""
"revaluation","259","1255314","0.0-4.0-8.0-0.1","spark_pilot_2","7095","8","7","Male","","","false","","","","[1142]","./assets/img/canyon/test/3.jpg","[""ArrowUp""]","first stage test","canyon","0","{""ArrowUp,ArrowLeft"":2,""ArrowUp,ArrowRight"":11,""ArrowDown,ArrowLeft"":8,""ArrowDown,ArrowRight"":27}","false","ArrowUp","false","","","revaluation","1","","","",""
"html-keyboard-response","260","1255820","0.0-4.0-8.0-1.1","spark_pilot_2","7095","8","7","Male","","","","","","","null","<div style=""font-size:60px;"">+</div>","null","fixation","","","","","","","","","","","","","",""
"revaluation","261","1256493","0.0-4.0-8.0-0.2","spark_pilot_2","7095","8","7","Male","","","false","","","","[669]","./assets/img/canyon/test/2.jpg","[""ArrowUp""]","first stage test","canyon","0","{""ArrowUp,ArrowLeft"":2,""ArrowUp,ArrowRight"":11,""ArrowDown,ArrowLeft"":8,""ArrowDown,ArrowRight"":27}","false","ArrowUp","false","","","revaluation","1","","","",""
"html-keyboard-response","262","1256994","0.0-4.0-8.0-1.2","spark_pilot_2","7095","8","7","Male","","","","","","","null","<div style=""font-size:60px;"">+</div>","null","fixation","","","","","","","","","","","","","",""
"revaluation","263","1257755","0.0-4.0-8.0-0.3","spark_pilot_2","7095","8","7","Male","","","false","","","","[759]","./assets/img/canyon/test/0.jpg","[""ArrowUp""]","first stage test","canyon","0","{""ArrowUp,ArrowLeft"":2,""ArrowUp,ArrowRight"":11,""ArrowDown,ArrowLeft"":8,""ArrowDown,ArrowRight"":27}","false","ArrowUp","false","","","revaluation","1","","","",""
"html-keyboard-response","264","1258258","0.0-4.0-8.0-1.3","spark_pilot_2","7095","8","7","Male","","","","","","","null","<div style=""font-size:60px;"">+</div>","null","fixation","","","","","","","","","","","","","",""
"learning-instructions","265","1274140","0.0-4.0-9.0-0.0","spark_pilot_2","7095","8","7","Male","","","","","","","4538","<p> Now you will see the animals again and can search their chests for treasure. </p>
            <p> This time, you will not see how much treasure you earned, but you will earn more bonus money for making better choices. </p>","","instructions","","","","","","","","","","","","","",""
"revaluation","266","1275755","0.0-4.0-10.0-0.0","spark_pilot_2","7095","8","7","Male","","","false","","","","[1612]","./assets/img/canyon/animals/lion.jpg","[""ArrowRight""]","second stage test","canyon","0","{""ArrowUp,ArrowLeft"":2,""ArrowUp,ArrowRight"":11,""ArrowDown,ArrowLeft"":8,""ArrowDown,ArrowRight"":27}","true","ArrowUp,ArrowRight","","","","revaluation","1","","","",""
"html-keyboard-response","267","1276259","0.0-4.0-10.0-1.0","spark_pilot_2","7095","8","7","Male","","","","","","","null","<div style=""font-size:60px;"">+</div>","null","fixation","","","","","","","","","","","","","",""
"revaluation","268","1276792","0.0-4.0-10.0-0.1","spark_pilot_2","7095","8","7","Male","","","false","","","","[532]","./assets/img/canyon/animals/lion.jpg","[""ArrowRight""]","second stage test","canyon","0","{""ArrowUp,ArrowLeft"":2,""ArrowUp,ArrowRight"":11,""ArrowDown,ArrowLeft"":8,""ArrowDown,ArrowRight"":27}","true","ArrowUp,ArrowRight","","","","revaluation","1","","","",""
"html-keyboard-response","269","1277299","0.0-4.0-10.0-1.1","spark_pilot_2","7095","8","7","Male","","","","","","","null","<div style=""font-size:60px;"">+</div>","null","fixation","","","","","","","","","","","","","",""
"revaluation","270","1277800","0.0-4.0-10.0-0.2","spark_pilot_2","7095","8","7","Male","","","false","","","","[497]","./assets/img/canyon/animals/lion.jpg","[""ArrowRight""]","second stage test","canyon","0","{""ArrowUp,ArrowLeft"":2,""ArrowUp,ArrowRight"":11,""ArrowDown,ArrowLeft"":8,""ArrowDown,ArrowRight"":27}","true","ArrowUp,ArrowRight","","","","revaluation","1","","","",""
"html-keyboard-response","271","1278301","0.0-4.0-10.0-1.2","spark_pilot_2","7095","8","7","Male","","","","","","","null","<div style=""font-size:60px;"">+</div>","null","fixation","","","","","","","","","","","","","",""
"revaluation","272","1278756","0.0-4.0-10.0-0.3","spark_pilot_2","7095","8","7","Male","","","false","","","","[451]","./assets/img/canyon/animals/lion.jpg","[""ArrowRight""]","second stage test","canyon","0","{""ArrowUp,ArrowLeft"":2,""ArrowUp,ArrowRight"":11,""ArrowDown,ArrowLeft"":8,""ArrowDown,ArrowRight"":27}","true","ArrowUp,ArrowRight","","","","revaluation","1","","","",""
"html-keyboard-response","273","1279261","0.0-4.0-10.0-1.3","spark_pilot_2","7095","8","7","Male","","","","","","","null","<div style=""font-size:60px;"">+</div>","null","fixation","","","","","","","","","","","","","",""
"revaluation","274","1280020","0.0-4.0-10.0-0.4","spark_pilot_2","7095","8","7","Male","","","false","","","","[756]","./assets/img/canyon/animals/giraffe.jpg","[""ArrowRight""]","second stage test","canyon","0","{""ArrowUp,ArrowLeft"":2,""ArrowUp,ArrowRight"":11,""ArrowDown,ArrowLeft"":8,""ArrowDown,ArrowRight"":27}","true","ArrowDown,ArrowRight","","","","revaluation","1","","","",""
"html-keyboard-response","275","1280526","0.0-4.0-10.0-1.4","spark_pilot_2","7095","8","7","Male","","","","","","","null","<div style=""font-size:60px;"">+</div>","null","fixation","","","","","","","","","","","","","",""
"revaluation","276","1280899","0.0-4.0-10.0-0.5","spark_pilot_2","7095","8","7","Male","","","false","","","","[370]","./assets/img/canyon/animals/giraffe.jpg","[""ArrowRight""]","second stage test","canyon","0","{""ArrowUp,ArrowLeft"":2,""ArrowUp,ArrowRight"":11,""ArrowDown,ArrowLeft"":8,""ArrowDown,ArrowRight"":27}","true","ArrowDown,ArrowRight","","","","revaluation","1","","","",""
"html-keyboard-response","277","1281402","0.0-4.0-10.0-1.5","spark_pilot_2","7095","8","7","Male","","","","","","","null","<div style=""font-size:60px;"">+</div>","null","fixation","","","","","","","","","","","","","",""
"revaluation","278","1282034","0.0-4.0-10.0-0.6","spark_pilot_2","7095","8","7","Male","","","false","","","","[629]","./assets/img/canyon/animals/giraffe.jpg","[""ArrowLeft""]","second stage test","canyon","0","{""ArrowUp,ArrowLeft"":2,""ArrowUp,ArrowRight"":11,""ArrowDown,ArrowLeft"":8,""ArrowDown,ArrowRight"":27}","false","ArrowDown,ArrowLeft","","","","revaluation","1","","","",""
"html-keyboard-response","279","1282536","0.0-4.0-10.0-1.6","spark_pilot_2","7095","8","7","Male","","","","","","","null","<div style=""font-size:60px;"">+</div>","null","fixation","","","","","","","","","","","","","",""
"revaluation","280","1283130","0.0-4.0-10.0-0.7","spark_pilot_2","7095","8","7","Male","","","false","","","","[593]","./assets/img/canyon/animals/giraffe.jpg","[""ArrowLeft""]","second stage test","canyon","0","{""ArrowUp,ArrowLeft"":2,""ArrowUp,ArrowRight"":11,""ArrowDown,ArrowLeft"":8,""ArrowDown,ArrowRight"":27}","false","ArrowDown,ArrowLeft","","","","revaluation","1","","","",""
"html-keyboard-response","281","1283637","0.0-4.0-10.0-1.7","spark_pilot_2","7095","8","7","Male","","","","","","","null","<div style=""font-size:60px;"">+</div>","null","fixation","","","","","","","","","","","","","",""
"learning-instructions","282","1292924","0.0-4.0-0.1-0.2","spark_pilot_2","7095","8","7","Male","","","","","","","6583","<p> This time you are searching for treasure in the <b>ocean</b>.</p>","","instructions","","","","","","","","","","","","","",""
"learning-instructions","283","1316540","0.0-4.0-0.1-0.3","spark_pilot_2","7095","8","7","Male","","","","","","","6362","<p><b>New</b> animals with <b>new</b> treasure chests live here. You need to explore to discover where the animal with the best treasure chest is.</p>
                    <p> Like before, once you figure out which animal has the chest with the most treasure, you should try to get to that animal and select that chest! </p>","","instructions","","","","","","","","","","","","","",""
"learning-instructions","284","1333657","0.0-4.0-1.1-0.1","spark_pilot_2","7095","8","7","Male","","","","","","","2383","<p> Remember, when you see a picture of the place, use the up and down keys to <b>find an animal</b>.</p>
            <p> When you encounter an animal, you should use the left and right keys to <b>select a treasure chest</b>.</p>
            <p> Don't forget to look out for the robber! </p>","","instructions","","","","","","","","","","","","","",""
"revaluation","285","1339663","0.0-4.0-2.1-0.50","spark_pilot_2","7095","8","7","Male","","","false","","","","[1095,1069]","./assets/img/ocean/memory/2.jpg","[""ArrowUp"",""ArrowRight""]","value training","ocean","10","{""ArrowUp,ArrowLeft"":23,""ArrowUp,ArrowRight"":10,""ArrowDown,ArrowLeft"":8,""ArrowDown,ArrowRight"":30}","false","ArrowUp,ArrowRight","false","","","original","2","0","","",""
"html-keyboard-response","286","1340169","0.0-4.0-2.1-1.50","spark_pilot_2","7095","8","7","Male","","","","","","","null","<div style=""font-size:60px;"">+</div>","null","fixation","","","","","","","","","","","1","","",""
"revaluation","287","1346185","0.0-4.0-2.1-0.51","spark_pilot_2","7095","8","7","Male","","","false","","","","[405,665]","./assets/img/ocean/memory/6.jpg","[""ArrowUp"",""ArrowLeft""]","value training","ocean","23","{""ArrowUp,ArrowLeft"":23,""ArrowUp,ArrowRight"":10,""ArrowDown,ArrowLeft"":8,""ArrowDown,ArrowRight"":30}","false","ArrowUp,ArrowLeft","false","","","original","2","2","","",""
"html-keyboard-response","288","1346691","0.0-4.0-2.1-1.51","spark_pilot_2","7095","8","7","Male","","","","","","","null","<div style=""font-size:60px;"">+</div>","null","fixation","","","","","","","","","","","3","","",""
"revaluation","289","1352698","0.0-4.0-2.1-0.52","spark_pilot_2","7095","8","7","Male","","","false","","","","[396,614]","./assets/img/ocean/memory/26.jpg","[""ArrowDown"",""ArrowRight""]","value training","ocean","30","{""ArrowUp,ArrowLeft"":23,""ArrowUp,ArrowRight"":10,""ArrowDown,ArrowLeft"":8,""ArrowDown,ArrowRight"":30}","true","ArrowDown,ArrowRight","false","","","original","2","4","","",""
"html-keyboard-response","290","1353204","0.0-4.0-2.1-1.52","spark_pilot_2","7095","8","7","Male","","","","","","","null","<div style=""font-size:60px;"">+</div>","null","fixation","","","","","","","","","","","5","","",""
"revaluation","291","1359214","0.0-4.0-2.1-0.53","spark_pilot_2","7095","8","7","Male","","","false","","","","[954,706]","./assets/img/ocean/memory/35.jpg","[""ArrowDown"",""ArrowLeft""]","value training","ocean","8","{""ArrowUp,ArrowLeft"":23,""ArrowUp,ArrowRight"":10,""ArrowDown,ArrowLeft"":8,""ArrowDown,ArrowRight"":30}","false","ArrowDown,ArrowLeft","false","","","original","2","6","","",""
"html-keyboard-response","292","1359721","0.0-4.0-2.1-1.53","spark_pilot_2","7095","8","7","Male","","","","","","","null","<div style=""font-size:60px;"">+</div>","null","fixation","","","","","","","","","","","7","","",""
"revaluation","293","1363733","0.0-4.0-2.1-0.54","spark_pilot_2","7095","8","7","Male","","","false","","","","[634]","./assets/img/ocean/catch/7.jpg","[""ArrowDown""]","value training","ocean","-10","{""ArrowUp,ArrowLeft"":23,""ArrowUp,ArrowRight"":10,""ArrowDown,ArrowLeft"":8,""ArrowDown,ArrowRight"":30}","false","ArrowDown","true","","","original","2","8","","",""
"html-keyboard-response","294","1364237","0.0-4.0-2.1-1.54","spark_pilot_2","7095","8","7","Male","","","","","","","null","<div style=""font-size:60px;"">+</div>","null","fixation","","","","","","","","","","","9","","",""
"revaluation","295","1370247","0.0-4.0-2.1-0.55","spark_pilot_2","7095","8","7","Male","","","false","","","","[1081,981]","./assets/img/ocean/memory/25.jpg","[""ArrowDown"",""ArrowRight""]","value training","ocean","30","{""ArrowUp,ArrowLeft"":23,""ArrowUp,ArrowRight"":10,""ArrowDown,ArrowLeft"":8,""ArrowDown,ArrowRight"":30}","true","ArrowDown,ArrowRight","false","","","original","2","10","","",""
"html-keyboard-response","296","1370753","0.0-4.0-2.1-1.55","spark_pilot_2","7095","8","7","Male","","","","","","","null","<div style=""font-size:60px;"">+</div>","null","fixation","","","","","","","","","","","11","","",""
"revaluation","297","1376765","0.0-4.0-2.1-0.56","spark_pilot_2","7095","8","7","Male","","","false","","","","[1353,773]","./assets/img/ocean/memory/7.jpg","[""ArrowDown"",""ArrowRight""]","value training","ocean","30","{""ArrowUp,ArrowLeft"":23,""ArrowUp,ArrowRight"":10,""ArrowDown,ArrowLeft"":8,""ArrowDown,ArrowRight"":30}","true","ArrowDown,ArrowRight","false","","","original","2","12","","",""
"html-keyboard-response","298","1377267","0.0-4.0-2.1-1.56","spark_pilot_2","7095","8","7","Male","","","","","","","null","<div style=""font-size:60px;"">+</div>","null","fixation","","","","","","","","","","","13","","",""
"revaluation","299","1383277","0.0-4.0-2.1-0.57","spark_pilot_2","7095","8","7","Male","","","false","","","","[1101,433]","./assets/img/ocean/memory/16.jpg","[""ArrowDown"",""ArrowRight""]","value training","ocean","30","{""ArrowUp,ArrowLeft"":23,""ArrowUp,ArrowRight"":10,""ArrowDown,ArrowLeft"":8,""ArrowDown,ArrowRight"":30}","true","ArrowDown,ArrowRight","false","","","original","2","14","","",""
"html-keyboard-response","300","1383781","0.0-4.0-2.1-1.57","spark_pilot_2","7095","8","7","Male","","","","","","","null","<div style=""font-size:60px;"">+</div>","null","fixation","","","","","","","","","","","15","","",""
"revaluation","301","1389791","0.0-4.0-2.1-0.58","spark_pilot_2","7095","8","7","Male","","","false","","","","[1509,1124]","./assets/img/ocean/memory/36.jpg","[""ArrowDown"",""ArrowRight""]","value training","ocean","30","{""ArrowUp,ArrowLeft"":23,""ArrowUp,ArrowRight"":10,""ArrowDown,ArrowLeft"":8,""ArrowDown,ArrowRight"":30}","true","ArrowDown,ArrowRight","false","","","original","2","16","","",""
"html-keyboard-response","302","1390294","0.0-4.0-2.1-1.58","spark_pilot_2","7095","8","7","Male","","","","","","","null","<div style=""font-size:60px;"">+</div>","null","fixation","","","","","","","","","","","17","","",""
"revaluation","303","1396302","0.0-4.0-2.1-0.59","spark_pilot_2","7095","8","7","Male","","","false","","","","[576,488]","./assets/img/ocean/memory/40.jpg","[""ArrowDown"",""ArrowRight""]","value training","ocean","30","{""ArrowUp,ArrowLeft"":23,""ArrowUp,ArrowRight"":10,""ArrowDown,ArrowLeft"":8,""ArrowDown,ArrowRight"":30}","true","ArrowDown,ArrowRight","false","","","original","2","18","","",""
"html-keyboard-response","304","1396805","0.0-4.0-2.1-1.59","spark_pilot_2","7095","8","7","Male","","","","","","","null","<div style=""font-size:60px;"">+</div>","null","fixation","","","","","","","","","","","19","","",""
"revaluation","305","1402823","0.0-4.0-2.1-0.60","spark_pilot_2","7095","8","7","Male","","","false","","","","[476,626]","./assets/img/ocean/memory/34.jpg","[""ArrowDown"",""ArrowRight""]","value training","ocean","30","{""ArrowUp,ArrowLeft"":23,""ArrowUp,ArrowRight"":10,""ArrowDown,ArrowLeft"":8,""ArrowDown,ArrowRight"":30}","true","ArrowDown,ArrowRight","false","","","original","2","20","","",""
"html-keyboard-response","306","1403329","0.0-4.0-2.1-1.60","spark_pilot_2","7095","8","7","Male","","","","","","","null","<div style=""font-size:60px;"">+</div>","null","fixation","","","","","","","","","","","21","","",""
"revaluation","307","1409343","0.0-4.0-2.1-0.61","spark_pilot_2","7095","8","7","Male","","","false","","","","[734,295]","./assets/img/ocean/memory/38.jpg","[""ArrowDown"",""ArrowRight""]","value training","ocean","30","{""ArrowUp,ArrowLeft"":23,""ArrowUp,ArrowRight"":10,""ArrowDown,ArrowLeft"":8,""ArrowDown,ArrowRight"":30}","true","ArrowDown,ArrowRight","false","","","original","2","22","","",""
"html-keyboard-response","308","1409847","0.0-4.0-2.1-1.61","spark_pilot_2","7095","8","7","Male","","","","","","","null","<div style=""font-size:60px;"">+</div>","null","fixation","","","","","","","","","","","23","","",""
"revaluation","309","1415857","0.0-4.0-2.1-0.62","spark_pilot_2","7095","8","7","Male","","","false","","","","[888,391]","./assets/img/ocean/memory/3.jpg","[""ArrowDown"",""ArrowRight""]","value training","ocean","30","{""ArrowUp,ArrowLeft"":23,""ArrowUp,ArrowRight"":10,""ArrowDown,ArrowLeft"":8,""ArrowDown,ArrowRight"":30}","true","ArrowDown,ArrowRight","false","","","original","2","24","","",""
"html-keyboard-response","310","1416358","0.0-4.0-2.1-1.62","spark_pilot_2","7095","8","7","Male","","","","","","","null","<div style=""font-size:60px;"">+</div>","null","fixation","","","","","","","","","","","25","","",""
"revaluation","311","1422367","0.0-4.0-2.1-0.63","spark_pilot_2","7095","8","7","Male","","","false","","","","[1259,432]","./assets/img/ocean/memory/39.jpg","[""ArrowDown"",""ArrowRight""]","value training","ocean","30","{""ArrowUp,ArrowLeft"":23,""ArrowUp,ArrowRight"":10,""ArrowDown,ArrowLeft"":8,""ArrowDown,ArrowRight"":30}","true","ArrowDown,ArrowRight","false","","","original","2","26","","",""
"html-keyboard-response","312","1422874","0.0-4.0-2.1-1.63","spark_pilot_2","7095","8","7","Male","","","","","","","null","<div style=""font-size:60px;"">+</div>","null","fixation","","","","","","","","","","","27","","",""
"revaluation","313","1428882","0.0-4.0-2.1-0.64","spark_pilot_2","7095","8","7","Male","","","false","","","","[767,306]","./assets/img/ocean/memory/34.jpg","[""ArrowDown"",""ArrowRight""]","value training","ocean","30","{""ArrowUp,ArrowLeft"":23,""ArrowUp,ArrowRight"":10,""ArrowDown,ArrowLeft"":8,""ArrowDown,ArrowRight"":30}","true","ArrowDown,ArrowRight","false","","","original","2","28","","",""
"html-keyboard-response","314","1429387","0.0-4.0-2.1-1.64","spark_pilot_2","7095","8","7","Male","","","","","","","null","<div style=""font-size:60px;"">+</div>","null","fixation","","","","","","","","","","","29","","",""
"revaluation","315","1435404","0.0-4.0-2.1-0.65","spark_pilot_2","7095","8","7","Male","","","false","","","","[970,1186]","./assets/img/ocean/memory/37.jpg","[""ArrowDown"",""ArrowRight""]","value training","ocean","30","{""ArrowUp,ArrowLeft"":23,""ArrowUp,ArrowRight"":10,""ArrowDown,ArrowLeft"":8,""ArrowDown,ArrowRight"":30}","true","ArrowDown,ArrowRight","false","","","original","2","30","","",""
"html-keyboard-response","316","1435907","0.0-4.0-2.1-1.65","spark_pilot_2","7095","8","7","Male","","","","","","","null","<div style=""font-size:60px;"">+</div>","null","fixation","","","","","","","","","","","31","","",""
