"trial_type","trial_index","time_elapsed","internal_node_id","task_version","subject_id","assigned_condition","age","gender","success","timeout","failed_images","failed_audio","failed_video","browser_interaction","rt","stimulus","response","task_part","environment","score","rewardMap","correct","fullState","isCatch","numberMissed","duration","condition","order","trial_num","key_press","ground_truth","bonus"
"pavlovia","0","1261","0.0-0.0","spark_pilot_2","7111","5","8","Male","","","","","","","","","","","","","","","","","","","","","","","",""
"preload","1","14545","0.0-1.0","spark_pilot_2","7111","5","8","Male","true","false","[]","[]","[]","[{""event"":""fullscreenenter"",""trial"":2,""time"":22664}]","","","","","","","","","","","","","","","","","",""
"fullscreen","2","23655","0.0-2.0","spark_pilot_2","7111","5","8","Male","true","","","","","","","","","","","","","","","","","","","","","","",""
"audio-button-response","3","25812","0.0-3.0-0.0-0.0","spark_pilot_2","7111","5","8","Male","","","","","","","1985","./assets/audio/audiotest/turtle.mp3","2","audio_test","","","","","","","","","","","","","",""
"learning-instructions","4","34623","0.0-3.0-1.0-0.0","spark_pilot_2","7111","5","8","Male","","","","","","","1821.2000000029802","<p> Welcome! Please remember to stay in fullscreen mode and don't click away from the experiment. </p>","","instructions","","","","","","","","","","","","","",""
"learning-instructions","5","44799","0.0-3.0-1.0-0.1","spark_pilot_2","7111","5","8","Male","","","","","","","1749","<p> Today you will be playing a game to earn treasure. </p>
            <p> At the end of the experiment, you will earn a bonus based on how much treasure you find. </p>
            <img src='./assets/img/instructions/treasure.jpg' class='instructions-image'>","","instructions","","","","","","","","","","","","","",""
"learning-instructions","6","53884","0.0-3.0-1.0-0.2","spark_pilot_2","7111","5","8","Male","","","","","","","808.2000000029802","<p> Animals have hidden treasure in treasure chests. </p>
            <p> You need to first find an animal and then choose which of their treasure chests to search. </p>
            <img src='./assets/img/space/animals/cat.jpg' class='instructions-image'>","","instructions","","","","","","","","","","","","","",""
"learning-instructions","7","69150","0.0-3.0-1.0-0.3","spark_pilot_2","7111","5","8","Male","","","","","","","2084.0999999940395","<p> In each round, you will search for treasure in a different place. In the real game, there will be two rounds. </p>
            <p> You will begin with a separate, practice round where you will search for treasure in outer space. </p>
            <img src='./assets/img/space/0.jpg' class='instructions-image'>","","instructions","","","","","","","","","","","","","",""
"learning-instructions","8","82283","0.0-3.0-1.0-0.4","spark_pilot_2","7111","5","8","Male","","","","","","","1690","<p> On every turn, you will see a picture of the place that you are in, but the specific image may be different each time. </p>
            <p> For example, both of these images mean you are in outer space. </p>
            <img src='./assets/img/instructions/outerspace.jpg' class='instructions-image'>","","instructions","","","","","","","","","","","","","",""
"learning-instructions","9","92332","0.0-3.0-1.0-0.5","spark_pilot_2","7111","5","8","Male","","","","","","","2202.4000000059605","<p> You need to decide which direction to travel in. </p>
            <p> You can choose between going <b>up or down</b> by using the arrow keys. </p>
            <img src='./assets/img/instructions/updown.jpg' class='instructions-image'>","","instructions","","","","","","","","","","","","","",""
"learning-instructions","10","102570","0.0-3.0-1.0-0.6","spark_pilot_2","7111","5","8","Male","","","","","","","1404.5","<p> You will have <b>2 seconds</b> to make your choice. </p>
            <p> If you do not make a choice within 2 seconds, you will not find an animal or earn treasure. </p>
            <img src='./assets/img/instructions/2seconds.jpg' class='instructions-image'>","","instructions","","","","","","","","","","","","","",""
"learning-instructions","11","111291","0.0-3.0-1.0-0.7","spark_pilot_2","7111","5","8","Male","","","","","","","1667.5","<p> Let’s try practicing that now! </p>
            <p> When you see a picture of the place you are in, press the <b>up</b> key to travel up. </p>
            <img src='./assets/img/instructions/pressUp.jpg' class='instructions-image'>","","instructions","","","","","","","","","","","","","",""
"revaluation","12","115312","0.0-3.0-2.0-0.0","spark_pilot_2","7111","5","8","Male","","true","","","","","[]","./assets/img/space/0.jpg","[]","first stage practice","space","-5","null","null","","false","","","","","","","",""
"html-keyboard-response","13","115817","0.0-3.0-2.0-1.0","spark_pilot_2","7111","5","8","Male","","","","","","","null","<div style=""font-size:60px;"">+</div>","null","fixation","","","","","","","","","","","","","",""
"revaluation","14","119834","0.0-3.0-2.0-0.1","spark_pilot_2","7111","5","8","Male","","false","","","","","[659.7000000029802]","./assets/img/space/1.jpg","[""ArrowUp""]","first stage practice","space","0","null","null","ArrowUp","false","","","","","","","",""
"html-keyboard-response","15","120344","0.0-3.0-2.0-1.1","spark_pilot_2","7111","5","8","Male","","","","","","","null","<div style=""font-size:60px;"">+</div>","null","fixation","","","","","","","","","","","","","",""
"revaluation","16","124361","0.0-3.0-2.0-0.2","spark_pilot_2","7111","5","8","Male","","false","","","","","[235.80000001192093]","./assets/img/space/2.jpg","[""ArrowUp""]","first stage practice","space","0","null","null","ArrowUp","false","","","","","","","",""
"html-keyboard-response","17","124867","0.0-3.0-2.0-1.2","spark_pilot_2","7111","5","8","Male","","","","","","","null","<div style=""font-size:60px;"">+</div>","null","fixation","","","","","","","","","","","","","",""
"learning-instructions","18","131018","0.0-3.0-3.0-0.0","spark_pilot_2","7111","5","8","Male","","","","","","","1436.5999999940395","<p> Great job! Now try pressing the <b>down</b> key to travel down. </p>
            <img src='./assets/img/instructions/pressDown.jpg' class='instructions-image'>","","instructions","","","","","","","","","","","","","",""
"revaluation","19","135032","0.0-3.0-4.0-0.0","spark_pilot_2","7111","5","8","Male","","false","","","","","[747.7000000029802]","./assets/img/space/3.jpg","[""ArrowDown""]","first stage practice","space","0","null","null","ArrowDown","false","","","","","","","",""
"html-keyboard-response","20","135536","0.0-3.0-4.0-1.0","spark_pilot_2","7111","5","8","Male","","","","","","","null","<div style=""font-size:60px;"">+</div>","null","fixation","","","","","","","","","","","","","",""
"revaluation","21","139549","0.0-3.0-4.0-0.1","spark_pilot_2","7111","5","8","Male","","false","","","","","[402.19999998807907]","./assets/img/space/4.jpg","[""ArrowDown""]","first stage practice","space","0","null","null","ArrowDown","false","","","","","","","",""
"html-keyboard-response","22","140056","0.0-3.0-4.0-1.1","spark_pilot_2","7111","5","8","Male","","","","","","","null","<div style=""font-size:60px;"">+</div>","null","fixation","","","","","","","","","","","","","",""
"revaluation","23","144076","0.0-3.0-4.0-0.2","spark_pilot_2","7111","5","8","Male","","true","","","","","[]","./assets/img/space/5.jpg","[]","first stage practice","space","-5","null","null","","false","","","","","","","",""
"html-keyboard-response","24","144586","0.0-3.0-4.0-1.2","spark_pilot_2","7111","5","8","Male","","","","","","","null","<div style=""font-size:60px;"">+</div>","null","fixation","","","","","","","","","","","","","",""
"learning-instructions","25","156431","0.0-3.0-5.0-0.0","spark_pilot_2","7111","5","8","Male","","","","","","","1969.5999999940395","<p> The animals don’t move, so the animal in the upper part of a place will stay in the upper part of a place, and the animal in the lower part of a place will stay in the lower part of a place. </p>","","instructions","","","","","","","","","","","","","",""
"learning-instructions","26","166412","0.0-3.0-5.0-0.1","spark_pilot_2","7111","5","8","Male","","","","","","","828.2999999970198","<p> Each animal has two treasure chests for you to choose from. </p>
            <p> The amount of treasure in each chest can range from <b> 0 to 40 pieces.</b></p>","","instructions","","","","","","","","","","","","","",""
"learning-instructions","27","178926","0.0-3.0-5.0-0.2","spark_pilot_2","7111","5","8","Male","","","","","","","1302.1000000089407","<p> You should decide which chest to search for treasure by using the <b>left</b> and <b>right</b> arrow keys. </p>
            <p><b> Pay attention to which animal is on the screen, as the animals have different treasure chests. </b></p>
            <img src='./assets/img/instructions/leftright.jpg' class='instructions-image'>","","instructions","","","","","","","","","","","","","",""
"learning-instructions","28","186058","0.0-3.0-5.0-0.3","spark_pilot_2","7111","5","8","Male","","","","","","","748.7999999970198","<p> Let’s try practicing that now. </p>
            <p> When you see an animal, choose which chest to search for treasure. </p>
            <img src='./assets/img/instructions/chooseChest.jpg' class='instructions-image'>","","instructions","","","","","","","","","","","","","",""
"revaluation","29","190077","0.0-3.0-6.0-0.0","spark_pilot_2","7111","5","8","Male","","false","","","","","[1443.3999999910593]","./assets/img/space/animals/cat.jpg","[""ArrowRight""]","second stage practice","space","36","{""ArrowUp,ArrowLeft"":3,""ArrowUp,ArrowRight"":36,""ArrowDown,ArrowLeft"":15,""ArrowDown,ArrowRight"":23}","true","ArrowUp,ArrowRight","","","","","","","","",""
"html-keyboard-response","30","190586","0.0-3.0-6.0-1.0","spark_pilot_2","7111","5","8","Male","","","","","","","null","<div style=""font-size:60px;"">+</div>","null","fixation","","","","","","","","","","","","","",""
"revaluation","31","194601","0.0-3.0-6.0-0.1","spark_pilot_2","7111","5","8","Male","","false","","","","","[700.2999999970198]","./assets/img/space/animals/rabbit.jpg","[""ArrowLeft""]","second stage practice","space","15","{""ArrowUp,ArrowLeft"":3,""ArrowUp,ArrowRight"":36,""ArrowDown,ArrowLeft"":15,""ArrowDown,ArrowRight"":23}","false","ArrowDown,ArrowLeft","","","","","","","","",""
"html-keyboard-response","32","195108","0.0-3.0-6.0-1.1","spark_pilot_2","7111","5","8","Male","","","","","","","null","<div style=""font-size:60px;"">+</div>","null","fixation","","","","","","","","","","","","","",""
"revaluation","33","199126","0.0-3.0-6.0-0.2","spark_pilot_2","7111","5","8","Male","","false","","","","","[737.7999999970198]","./assets/img/space/animals/rabbit.jpg","[""ArrowRight""]","second stage practice","space","23","{""ArrowUp,ArrowLeft"":3,""ArrowUp,ArrowRight"":36,""ArrowDown,ArrowLeft"":15,""ArrowDown,ArrowRight"":23}","true","ArrowDown,ArrowRight","","","","","","","","",""
"html-keyboard-response","34","199636","0.0-3.0-6.0-1.2","spark_pilot_2","7111","5","8","Male","","","","","","","null","<div style=""font-size:60px;"">+</div>","null","fixation","","","","","","","","","","","","","",""
"revaluation","35","203654","0.0-3.0-6.0-0.3","spark_pilot_2","7111","5","8","Male","","false","","","","","[1142.3999999910593]","./assets/img/space/animals/cat.jpg","[""ArrowRight""]","second stage practice","space","36","{""ArrowUp,ArrowLeft"":3,""ArrowUp,ArrowRight"":36,""ArrowDown,ArrowLeft"":15,""ArrowDown,ArrowRight"":23}","true","ArrowUp,ArrowRight","","","","","","","","",""
"html-keyboard-response","36","204163","0.0-3.0-6.0-1.3","spark_pilot_2","7111","5","8","Male","","","","","","","null","<div style=""font-size:60px;"">+</div>","null","fixation","","","","","","","","","","","","","",""
"learning-instructions","37","223258","0.0-3.0-7.0-0.0","spark_pilot_2","7111","5","8","Male","","","","","","","2247","<p> Great job. Now let’s try putting it together. </p>
            <p> On each turn, you will first see a picture to remind you of the place you are in, and you need to choose whether to go up or down. </p>
            <p> Then you will see an animal and choose which of its chests to search for treasure. </p>","","instructions","","","","","","","","","","","","","",""
"learning-instructions","38","232137","0.0-3.0-7.0-0.1","spark_pilot_2","7111","5","8","Male","","","","","","","601.7000000029802","<p> When you choose whether to go up or down, try to go to the animal with the chest with the most treasure. </p>
            <p> Try practicing that now! </p>","","instructions","","","","","","","","","","","","","",""
"revaluation","39","238163","0.0-3.0-8.0-0.0","spark_pilot_2","7111","5","8","Male","","false","","","","","[1377.2999999970198,536.7000000029802]","./assets/img/space/6.jpg","[""ArrowUp"",""ArrowRight""]","full practice","space","36","{""ArrowUp,ArrowLeft"":3,""ArrowUp,ArrowRight"":36,""ArrowDown,ArrowLeft"":15,""ArrowDown,ArrowRight"":23}","true","ArrowUp,ArrowRight","false","","","","","","","",""
"html-keyboard-response","40","238667","0.0-3.0-8.0-1.0","spark_pilot_2","7111","5","8","Male","","","","","","","null","<div style=""font-size:60px;"">+</div>","null","fixation","","","","","","","","","","","","","",""
"revaluation","41","242681","0.0-3.0-8.0-0.1","spark_pilot_2","7111","5","8","Male","","true","","","","","[]","./assets/img/space/7.jpg","[]","full practice","space","-5","{""ArrowUp,ArrowLeft"":3,""ArrowUp,ArrowRight"":36,""ArrowDown,ArrowLeft"":15,""ArrowDown,ArrowRight"":23}","false","","false","","","","","","","",""
"html-keyboard-response","42","243186","0.0-3.0-8.0-1.1","spark_pilot_2","7111","5","8","Male","","","","","","","null","<div style=""font-size:60px;"">+</div>","null","fixation","","","","","","","","","","","","","",""
"revaluation","43","249212","0.0-3.0-8.0-0.2","spark_pilot_2","7111","5","8","Male","","false","","","","","[474.90000000596046,971.7999999970198]","./assets/img/space/8.jpg","[""ArrowDown"",""ArrowRight""]","full practice","space","23","{""ArrowUp,ArrowLeft"":3,""ArrowUp,ArrowRight"":36,""ArrowDown,ArrowLeft"":15,""ArrowDown,ArrowRight"":23}","false","ArrowDown,ArrowRight","false","","","","","","","",""
"html-keyboard-response","44","249715","0.0-3.0-8.0-1.2","spark_pilot_2","7111","5","8","Male","","","","","","","null","<div style=""font-size:60px;"">+</div>","null","fixation","","","","","","","","","","","","","",""
"revaluation","45","255739","0.0-3.0-8.0-0.3","spark_pilot_2","7111","5","8","Male","","false","","","","","[1437.6000000089407,726.6999999880791]","./assets/img/space/9.jpg","[""ArrowUp"",""ArrowRight""]","full practice","space","36","{""ArrowUp,ArrowLeft"":3,""ArrowUp,ArrowRight"":36,""ArrowDown,ArrowLeft"":15,""ArrowDown,ArrowRight"":23}","true","ArrowUp,ArrowRight","false","","","","","","","",""
"html-keyboard-response","46","256241","0.0-3.0-8.0-1.3","spark_pilot_2","7111","5","8","Male","","","","","","","null","<div style=""font-size:60px;"">+</div>","null","fixation","","","","","","","","","","","","","",""
"revaluation","47","262269","0.0-3.0-8.0-0.4","spark_pilot_2","7111","5","8","Male","","false","","","","","[903.9000000059605,651.2000000029802]","./assets/img/space/10.jpg","[""ArrowUp"",""ArrowRight""]","full practice","space","36","{""ArrowUp,ArrowLeft"":3,""ArrowUp,ArrowRight"":36,""ArrowDown,ArrowLeft"":15,""ArrowDown,ArrowRight"":23}","true","ArrowUp,ArrowRight","false","","","","","","","",""
"html-keyboard-response","48","262779","0.0-3.0-8.0-1.4","spark_pilot_2","7111","5","8","Male","","","","","","","null","<div style=""font-size:60px;"">+</div>","null","fixation","","","","","","","","","","","","","",""
"learning-instructions","49","274983","0.0-3.0-9.0-0.0","spark_pilot_2","7111","5","8","Male","","","","","","","1858.4000000059605","<p> One last thing: sometimes, you will see a robber. The robber can be anywhere in the picture. </p>
            <p> If you do not stop them, you will lose treasure. </p>
            <img src='./assets/img/instructions/robber.jpg' class='instructions-image'>","","instructions","","","","","","","","","","","","","",""
"learning-instructions","50","282785","0.0-3.0-9.0-0.1","spark_pilot_2","7111","5","8","Male","","","","","","","621","<p> If you see the robber, you should <b>press the space bar</b> rather than using the arrow keys. </p>
            <p> Try practicing that now! </p>","","instructions","","","","","","","","","","","","","",""
"revaluation","51","286804","0.0-3.0-10.0-0.0","spark_pilot_2","7111","5","8","Male","","false","","","","","[1146.9000000059605]","./assets/img/space/catch/0.jpg","[""spaceBar""]","catch practice","space","0","{""ArrowUp,ArrowLeft"":3,""ArrowUp,ArrowRight"":36,""ArrowDown,ArrowLeft"":15,""ArrowDown,ArrowRight"":23}","true","spaceBar","true","","","","","","","",""
"html-keyboard-response","52","287306","0.0-3.0-10.0-1.0","spark_pilot_2","7111","5","8","Male","","","","","","","null","<div style=""font-size:60px;"">+</div>","null","fixation","","","","","","","","","","","","","",""
"revaluation","53","291323","0.0-3.0-10.0-0.1","spark_pilot_2","7111","5","8","Male","","false","","","","","[491.5]","./assets/img/space/catch/1.jpg","[""spaceBar""]","catch practice","space","0","{""ArrowUp,ArrowLeft"":3,""ArrowUp,ArrowRight"":36,""ArrowDown,ArrowLeft"":15,""ArrowDown,ArrowRight"":23}","true","spaceBar","true","","","","","","","",""
"html-keyboard-response","54","291826","0.0-3.0-10.0-1.1","spark_pilot_2","7111","5","8","Male","","","","","","","null","<div style=""font-size:60px;"">+</div>","null","fixation","","","","","","","","","","","","","",""
"revaluation","55","295846","0.0-3.0-10.0-0.2","spark_pilot_2","7111","5","8","Male","","false","","","","","[429.1000000089407]","./assets/img/space/catch/2.jpg","[""spaceBar""]","catch practice","space","0","{""ArrowUp,ArrowLeft"":3,""ArrowUp,ArrowRight"":36,""ArrowDown,ArrowLeft"":15,""ArrowDown,ArrowRight"":23}","true","spaceBar","true","","","","","","","",""
"html-keyboard-response","56","296356","0.0-3.0-10.0-1.2","spark_pilot_2","7111","5","8","Male","","","","","","","null","<div style=""font-size:60px;"">+</div>","null","fixation","","","","","","","","","","","","","",""
"learning-instructions","57","311276","0.0-3.0-11.0-0.0","spark_pilot_2","7111","5","8","Male","","","","","","","1299.9000000059605","<p> After you explore a place to find treasure, it will be time to play a different game. </p>
            <p> During this game, red dots will appear on the screen and fall down slowly. </p>
            <p><b> You must click on them before they reach the bottom. </b></p>
            <img src='./assets/img/instructions/dotGame.jpg' class='instructions-image'>","","instructions","","","","","","","","","","","","","",""
"learning-instructions","58","317647","0.0-3.0-11.0-0.1","spark_pilot_2","7111","5","8","Male","","","","","","","612.7000000029802","<p> For every dot you click, you will earn additional treasure. </p>
            <p> Let’s try practicing that now. </p>","","instructions","","","","","","","","","","","","","",""
"revaluation","59","332662","0.0-3.0-12.0-0.0","spark_pilot_2","7111","5","8","Male","","","","","","","[117]","","","rest practice","","10","","","","","0","15000","","","","","",""
"learning-instructions","60","339386","0.0-3.0-13.0-0.0-0.0","spark_pilot_2","7111","5","8","Male","","","","","","","1476.2999999970198","<p> Now, you will practice a shortened version of the game to get a sense of how it all fits together. </p>","","instructions","","","","","","","","","","","","","",""
"learning-instructions","61","343497","0.0-3.0-13.0-0.0-0.1","spark_pilot_2","7111","5","8","Male","","","","","","","914.2999999970198","<p>This time you are searching for treasure in outer space.</p>","","instructions","","","","","","","","","","","","","",""
"learning-instructions","62","359551","0.0-3.0-13.0-1.0-0.0","spark_pilot_2","7111","5","8","Male","","","","","","","1253.800000011921","<p> Remember, when you see a picture of the place, use the up and down keys to <b>find an animal</b>.</p>
            <p> When you encounter an animal, you should use the left and right keys to <b>select a treasure chest</b>.</p>
            <p> Don't forget to look out for the robber! </p>","","instructions","","","","","","","","","","","","","",""
"revaluation","63","365575","0.0-3.0-13.0-2.0-0.0","spark_pilot_2","7111","5","8","Male","","false","","","","","[1395.2999999970198,668.5]","./assets/img/space/11.jpg","[""ArrowUp"",""ArrowRight""]","practice block","space","36","{""ArrowUp,ArrowLeft"":3,""ArrowUp,ArrowRight"":36,""ArrowDown,ArrowLeft"":15,""ArrowDown,ArrowRight"":23}","true","ArrowUp,ArrowRight","false","","","","","","","",""
"html-keyboard-response","64","366087","0.0-3.0-13.0-2.0-1.0","spark_pilot_2","7111","5","8","Male","","","","","","","null","<div style=""font-size:60px;"">+</div>","null","fixation","","","","","","","","","","","","","",""
"revaluation","65","372101","0.0-3.0-13.0-2.0-0.1","spark_pilot_2","7111","5","8","Male","","false","","","","","[1068.4000000059605,211]","./assets/img/space/12.jpg","[""ArrowUp"",""ArrowRight""]","practice block","space","36","{""ArrowUp,ArrowLeft"":3,""ArrowUp,ArrowRight"":36,""ArrowDown,ArrowLeft"":15,""ArrowDown,ArrowRight"":23}","true","ArrowUp,ArrowRight","false","","","","","","","",""
"html-keyboard-response","66","372604","0.0-3.0-13.0-2.0-1.1","spark_pilot_2","7111","5","8","Male","","","","","","","null","<div style=""font-size:60px;"">+</div>","null","fixation","","","","","","","","","","","","","",""
"revaluation","67","378630","0.0-3.0-13.0-2.0-0.2","spark_pilot_2","7111","5","8","Male","","false","","","","","[1078,290.3999999910593]","./assets/img/space/13.jpg","[""ArrowUp"",""ArrowRight""]","practice block","space","36","{""ArrowUp,ArrowLeft"":3,""ArrowUp,ArrowRight"":36,""ArrowDown,ArrowLeft"":15,""ArrowDown,ArrowRight"":23}","true","ArrowUp,ArrowRight","false","","","","","","","",""
"html-keyboard-response","68","379134","0.0-3.0-13.0-2.0-1.2","spark_pilot_2","7111","5","8","Male","","","","","","","null","<div style=""font-size:60px;"">+</div>","null","fixation","","","","","","","","","","","","","",""
"revaluation","69","385157","0.0-3.0-13.0-2.0-0.3","spark_pilot_2","7111","5","8","Male","","false","","","","","[533.3999999910593,354.59999999403954]","./assets/img/space/14.jpg","[""ArrowUp"",""ArrowRight""]","practice block","space","36","{""ArrowUp,ArrowLeft"":3,""ArrowUp,ArrowRight"":36,""ArrowDown,ArrowLeft"":15,""ArrowDown,ArrowRight"":23}","true","ArrowUp,ArrowRight","false","","","","","","","",""
"html-keyboard-response","70","385662","0.0-3.0-13.0-2.0-1.3","spark_pilot_2","7111","5","8","Male","","","","","","","null","<div style=""font-size:60px;"">+</div>","null","fixation","","","","","","","","","","","","","",""
"revaluation","71","391689","0.0-3.0-13.0-2.0-0.4","spark_pilot_2","7111","5","8","Male","","false","","","","","[715,221.79999999701977]","./assets/img/space/11.jpg","[""ArrowUp"",""ArrowRight""]","practice block","space","36","{""ArrowUp,ArrowLeft"":3,""ArrowUp,ArrowRight"":36,""ArrowDown,ArrowLeft"":15,""ArrowDown,ArrowRight"":23}","true","ArrowUp,ArrowRight","false","","","","","","","",""
"html-keyboard-response","72","392199","0.0-3.0-13.0-2.0-1.4","spark_pilot_2","7111","5","8","Male","","","","","","","null","<div style=""font-size:60px;"">+</div>","null","fixation","","","","","","","","","","","","","",""
"revaluation","73","398224","0.0-3.0-13.0-2.0-0.5","spark_pilot_2","7111","5","8","Male","","false","","","","","[1104.7999999970198,589.2999999970198]","./assets/img/space/12.jpg","[""ArrowUp"",""ArrowRight""]","practice block","space","36","{""ArrowUp,ArrowLeft"":3,""ArrowUp,ArrowRight"":36,""ArrowDown,ArrowLeft"":15,""ArrowDown,ArrowRight"":23}","true","ArrowUp,ArrowRight","false","","","","","","","",""
"html-keyboard-response","74","398736","0.0-3.0-13.0-2.0-1.5","spark_pilot_2","7111","5","8","Male","","","","","","","null","<div style=""font-size:60px;"">+</div>","null","fixation","","","","","","","","","","","","","",""
"revaluation","75","404756","0.0-3.0-13.0-2.0-0.6","spark_pilot_2","7111","5","8","Male","","false","","","","","[611.7999999970198,528.4000000059605]","./assets/img/space/13.jpg","[""ArrowUp"",""ArrowRight""]","practice block","space","36","{""ArrowUp,ArrowLeft"":3,""ArrowUp,ArrowRight"":36,""ArrowDown,ArrowLeft"":15,""ArrowDown,ArrowRight"":23}","true","ArrowUp,ArrowRight","false","","","","","","","",""
"html-keyboard-response","76","405261","0.0-3.0-13.0-2.0-1.6","spark_pilot_2","7111","5","8","Male","","","","","","","null","<div style=""font-size:60px;"">+</div>","null","fixation","","","","","","","","","","","","","",""
"revaluation","77","411287","0.0-3.0-13.0-2.0-0.7","spark_pilot_2","7111","5","8","Male","","false","","","","","[951.7999999970198,163.3999999910593]","./assets/img/space/14.jpg","[""ArrowUp"",""ArrowRight""]","practice block","space","36","{""ArrowUp,ArrowLeft"":3,""ArrowUp,ArrowRight"":36,""ArrowDown,ArrowLeft"":15,""ArrowDown,ArrowRight"":23}","true","ArrowUp,ArrowRight","false","","","","","","","",""
"html-keyboard-response","78","411792","0.0-3.0-13.0-2.0-1.7","spark_pilot_2","7111","5","8","Male","","","","","","","null","<div style=""font-size:60px;"">+</div>","null","fixation","","","","","","","","","","","","","",""
"revaluation","79","415809","0.0-3.0-13.0-2.0-0.8","spark_pilot_2","7111","5","8","Male","","false","","","","","[1092.7000000029802]","./assets/img/space/catch/3.jpg","[""spaceBar""]","practice block","space","0","{""ArrowUp,ArrowLeft"":3,""ArrowUp,ArrowRight"":36,""ArrowDown,ArrowLeft"":15,""ArrowDown,ArrowRight"":23}","true","spaceBar","true","","","","","","","",""
"html-keyboard-response","80","416319","0.0-3.0-13.0-2.0-1.8","spark_pilot_2","7111","5","8","Male","","","","","","","null","<div style=""font-size:60px;"">+</div>","null","fixation","","","","","","","","","","","","","",""
"learning-instructions","81","430462","0.0-3.0-13.0-3.0-0.0","spark_pilot_2","7111","5","8","Male","","","","","","","1049.699999988079","<p> Now, you will travel with a friend who will choose whether you go up or down first. </p>
            <p> On these turns, you will just see the animal that they found. You will still get to choose which chest to search for treasure.</p>","","instructions","","","","","","","","","","","","","",""
"revaluation","82","434478","0.0-3.0-13.0-4.0-0.0","spark_pilot_2","7111","5","8","Male","","false","","","","","[1717.5]","./assets/img/space/animals/rabbit.jpg","[""ArrowRight""]","practice block","space","23","{""ArrowUp,ArrowLeft"":3,""ArrowUp,ArrowRight"":36,""ArrowDown,ArrowLeft"":15,""ArrowDown,ArrowRight"":23}","true","ArrowDown,ArrowRight","","","","","","","","",""
"html-keyboard-response","83","434982","0.0-3.0-13.0-4.0-1.0","spark_pilot_2","7111","5","8","Male","","","","","","","null","<div style=""font-size:60px;"">+</div>","null","fixation","","","","","","","","","","","","","",""
"revaluation","84","438998","0.0-3.0-13.0-4.0-0.1","spark_pilot_2","7111","5","8","Male","","false","","","","","[636.6999999880791]","./assets/img/space/animals/cat.jpg","[""ArrowRight""]","practice block","space","36","{""ArrowUp,ArrowLeft"":3,""ArrowUp,ArrowRight"":36,""ArrowDown,ArrowLeft"":15,""ArrowDown,ArrowRight"":23}","true","ArrowUp,ArrowRight","","","","","","","","",""
"html-keyboard-response","85","439500","0.0-3.0-13.0-4.0-1.1","spark_pilot_2","7111","5","8","Male","","","","","","","null","<div style=""font-size:60px;"">+</div>","null","fixation","","","","","","","","","","","","","",""
"revaluation","86","443518","0.0-3.0-13.0-4.0-0.2","spark_pilot_2","7111","5","8","Male","","false","","","","","[427]","./assets/img/space/animals/cat.jpg","[""ArrowRight""]","practice block","space","36","{""ArrowUp,ArrowLeft"":3,""ArrowUp,ArrowRight"":36,""ArrowDown,ArrowLeft"":15,""ArrowDown,ArrowRight"":23}","true","ArrowUp,ArrowRight","","","","","","","","",""
"html-keyboard-response","87","444022","0.0-3.0-13.0-4.0-1.2","spark_pilot_2","7111","5","8","Male","","","","","","","null","<div style=""font-size:60px;"">+</div>","null","fixation","","","","","","","","","","","","","",""
"revaluation","88","448038","0.0-3.0-13.0-4.0-0.3","spark_pilot_2","7111","5","8","Male","","false","","","","","[504.8999999910593]","./assets/img/space/animals/rabbit.jpg","[""ArrowRight""]","practice block","space","23","{""ArrowUp,ArrowLeft"":3,""ArrowUp,ArrowRight"":36,""ArrowDown,ArrowLeft"":15,""ArrowDown,ArrowRight"":23}","true","ArrowDown,ArrowRight","","","","","","","","",""
"html-keyboard-response","89","448542","0.0-3.0-13.0-4.0-1.3","spark_pilot_2","7111","5","8","Male","","","","","","","null","<div style=""font-size:60px;"">+</div>","null","fixation","","","","","","","","","","","","","",""
"learning-instructions","90","458805","0.0-3.0-13.0-5.0-0.0","spark_pilot_2","7111","5","8","Male","","","","","","","2880.8999999910593","<p> Time to play the dot game! </p>
            <p> For 15 seconds, click the red dots on the following screen as they appear. </p>","","instructions","","","","","","","","","","","","","",""
"revaluation","91","473815","0.0-3.0-13.0-6.0-0.0","spark_pilot_2","7111","5","8","Male","","","","","","","[120]","","","rest practice","","10","","","","","0","15000","","","","","",""
"learning-instructions","92","481681","0.0-3.0-13.0-7.0-0.0","spark_pilot_2","7111","5","8","Male","","","","","","","1724.4000000059605","<p> You have almost finished this part of the game! </p>
            <p> We are going to ask you to make a few more choices. </p>","","instructions","","","","","","","","","","","","","",""
"learning-instructions","93","496960","0.0-3.0-13.0-7.0-0.1","spark_pilot_2","7111","5","8","Male","","","","","","","1236.2000000029802","<p> First, you need to decide whether to go up or down. When you see each picture, use the arrow keys to make your choice. </p>
            <p><b>You will not see which animal you found, but try to get to the one that will give you the most treasure.</b></p>","","instructions","","","","","","","","","","","","","",""
"revaluation","94","498157","0.0-3.0-13.0-8.0","spark_pilot_2","7111","5","8","Male","","false","","","","","[1195.699999988079]","./assets/img/space/15.jpg","[""ArrowUp""]","practice block","space","0","{""ArrowUp,ArrowLeft"":3,""ArrowUp,ArrowRight"":36,""ArrowDown,ArrowLeft"":15,""ArrowDown,ArrowRight"":23}","true","ArrowUp","false","","","","","","","",""
"html-keyboard-response","95","498664","0.0-3.0-13.0-9.0","spark_pilot_2","7111","5","8","Male","","","","","","","null","<div style=""font-size:60px;"">+</div>","null","fixation","","","","","","","","","","","","","",""
"learning-instructions","96","511489","0.0-3.0-13.0-10.0-0.0","spark_pilot_2","7111","5","8","Male","","","","","","","1421.199999988079","<p> Now you will see the animals again and can search their chests for treasure. </p>
            <p> This time, you will not see how much treasure you earned, but you will earn more bonus money for making better choices. </p>","","instructions","","","","","","","","","","","","","",""
"revaluation","97","512396","0.0-3.0-13.0-11.0-0.0","spark_pilot_2","7111","5","8","Male","","false","","","","","[905.6000000089407]","./assets/img/space/animals/cat.jpg","[""ArrowRight""]","practice block","space","0","{""ArrowUp,ArrowLeft"":3,""ArrowUp,ArrowRight"":36,""ArrowDown,ArrowLeft"":15,""ArrowDown,ArrowRight"":23}","true","ArrowUp,ArrowRight","","","","","","","","",""
"html-keyboard-response","98","512903","0.0-3.0-13.0-11.0-1.0","spark_pilot_2","7111","5","8","Male","","","","","","","null","<div style=""font-size:60px;"">+</div>","null","fixation","","","","","","","","","","","","","",""
"revaluation","99","513535","0.0-3.0-13.0-11.0-0.1","spark_pilot_2","7111","5","8","Male","","false","","","","","[630.3999999910593]","./assets/img/space/animals/rabbit.jpg","[""ArrowRight""]","practice block","space","0","{""ArrowUp,ArrowLeft"":3,""ArrowUp,ArrowRight"":36,""ArrowDown,ArrowLeft"":15,""ArrowDown,ArrowRight"":23}","true","ArrowDown,ArrowRight","","","","","","","","",""
"html-keyboard-response","100","514038","0.0-3.0-13.0-11.0-1.1","spark_pilot_2","7111","5","8","Male","","","","","","","null","<div style=""font-size:60px;"">+</div>","null","fixation","","","","","","","","","","","","","",""
"learning-instructions","101","519835","0.0-3.0-14.0-0.0","spark_pilot_2","7111","5","8","Male","","","","","","","1204.5","<p> Before you start, we're going to ask you a few questions about how the game works. </p>","","instructions","","","","","","","","","","","","","",""
"comp-q","102","526521","0.0-3.0-15.0-0.0-0.0","spark_pilot_2","7111","5","8","Male","","","","","","","1088.0999999940395","<p> <b> True or False? </b> </p>
            <p> There can be 50 pieces of treasure in a given animal's chest. </p>","1","comp_question","","","","true","","","","","","","","","",""
"comp-q","103","534486","0.0-3.0-15.0-0.0-1.0","spark_pilot_2","7111","5","8","Male","","","","","","","1290.2999999970198","<p> <b> That's right! </b> The amount of treasure in each chest can range from 0 to 40 pieces. </p>","0","comp_answer","","","","","","","","","","","","","",""
"comp-q","104","544035","0.0-3.0-15.0-0.1-0.1","spark_pilot_2","7111","5","8","Male","","","","","","","2417.1000000089407","<p> <b> True or False? </b> </p><p> In this game, all animals have the same amount of treasure in their left and right chests. </p>","0","comp_question","","","","false","","","","","","","","","",""
"comp-q","105","550729","0.0-3.0-15.0-0.1-1.1","spark_pilot_2","7111","5","8","Male","","","","","","","1575.0999999940395","<p> <b>Incorrect.</b> Animals have different amounts of treasure in their treasure chests. </p>","0","comp_answer","","","","","","","","","","","","","",""
"comp-q","106","559066","0.0-3.0-15.0-0.2-0.2","spark_pilot_2","7111","5","8","Male","","","","","","","1245.6000000089407","<p> <b> True or False? </b> </p><p> In this game, all animals have the same amount of treasure in their left and right chests. </p>","1","comp_question","","","","true","","","","","","","","","",""
"comp-q","107","565800","0.0-3.0-15.0-0.2-1.2","spark_pilot_2","7111","5","8","Male","","","","","","","1488.5999999940395","<p> <b> That's right! </b> Animals have different amounts of treasure in their treasure chests. </p>","0","comp_answer","","","","","","","","","","","","","",""
"comp-q","108","573266","0.0-3.0-15.0-0.3-0.3","spark_pilot_2","7111","5","8","Male","","","","","","","1611.5999999940395","<p> <b> True or False? </b> </p><p> The same animal will always be there if you go up in the same place. </p>","0","comp_question","","","","true","","","","","","","","","",""
"comp-q","109","581791","0.0-3.0-15.0-0.3-1.3","spark_pilot_2","7111","5","8","Male","","","","","","","2068.0999999940395","<p> <b> That's right! </b> One animal lives in the upper part and one lives in the lower part of every place. </p>","0","comp_answer","","","","","","","","","","","","","",""
"comp-q","110","588172","0.0-3.0-15.0-0.4-0.4","spark_pilot_2","7111","5","8","Male","","","","","","","843.9000000059605","<p> <b> True or False? </b> </p><p> If you see a different picture, it means you are in a new place. </p>","0","comp_question","","","","false","","","","","","","","","",""
"comp-q","111","601190","0.0-3.0-15.0-0.4-1.4","spark_pilot_2","7111","5","8","Male","","","","","","","1897.300000011921","<p> <b>Incorrect.</b> Lots of different images may show the same place. For example,  you may see three different images that all remind you that you are in outer space. </p>","0","comp_answer","","","","","","","","","","","","","",""
"comp-q","112","608278","0.0-3.0-15.0-0.5-0.5","spark_pilot_2","7111","5","8","Male","","","","","","","1584","<p> <b> True or False? </b> </p><p> If you see a different picture, it means you are in a new place. </p>","1","comp_question","","","","true","","","","","","","","","",""
"comp-q","113","621518","0.0-3.0-15.0-0.5-1.5","spark_pilot_2","7111","5","8","Male","","","","","","","1989.2000000029802","<p> <b> That's right! </b> Lots of different images may show the same place. For example,  you may see three different images that all remind you that you are in outer space. </p>","0","comp_answer","","","","","","","","","","","","","",""
"learning-instructions","114","632812","0.0-3.0-16.0-0.0","spark_pilot_2","7111","5","8","Male","","","","","","","1336.6000000089407","<p> Good job. Remember to do your best because the amount of treasure you earn will be converted into bonus money. </p>
            <p> It’s time to start the real game! </p>","","instructions","","","","","","","","","","","","","",""
"learning-instructions","115","636627","0.0-4.0-0.0-0.0","spark_pilot_2","7111","5","8","Male","","","","","","","1041.2000000029802","<p> This time you are searching for treasure in the <b>canyon</b>.</p>","","instructions","","","","","","","","","","","","","",""
"learning-instructions","116","654743","0.0-4.0-0.0-0.1","spark_pilot_2","7111","5","8","Male","","","","","","","778.5","<p><b>New</b> animals with <b>new</b> treasure chests live here. You need to explore to discover where the animal with the best treasure chest is.</p>
                    <p> Like before, once you figure out which animal has the chest with the most treasure, you should try to get to that animal and select that chest! </p>","","instructions","","","","","","","","","","","","","",""
"learning-instructions","117","670082","0.0-4.0-1.0-0.0","spark_pilot_2","7111","5","8","Male","","","","","","","606.1999999880791","<p> Remember, when you see a picture of the place, use the up and down keys to <b>find an animal</b>.</p>
            <p> When you encounter an animal, you should use the left and right keys to <b>select a treasure chest</b>.</p>
            <p> Don't forget to look out for the robber! </p>","","instructions","","","","","","","","","","","","","",""
"revaluation","118","676107","0.0-4.0-2.0-0.0","spark_pilot_2","7111","5","8","Male","","false","","","","","[1747.0999999940395,534.6999999880791]","./assets/img/canyon/memory/26.jpg","[""ArrowUp"",""ArrowRight""]","value training","canyon","10","{""ArrowUp,ArrowLeft"":26,""ArrowUp,ArrowRight"":10,""ArrowDown,ArrowLeft"":5,""ArrowDown,ArrowRight"":17}","false","ArrowUp,ArrowRight","false","","","original","1","0","","",""
"html-keyboard-response","119","676617","0.0-4.0-2.0-1.0","spark_pilot_2","7111","5","8","Male","","","","","","","null","<div style=""font-size:60px;"">+</div>","null","fixation","","","","","","","","","","","1","","",""
"revaluation","120","682641","0.0-4.0-2.0-0.1","spark_pilot_2","7111","5","8","Male","","false","","","","","[759.7999999970198,548.7999999970198]","./assets/img/canyon/memory/35.jpg","[""ArrowUp"",""ArrowLeft""]","value training","canyon","26","{""ArrowUp,ArrowLeft"":26,""ArrowUp,ArrowRight"":10,""ArrowDown,ArrowLeft"":5,""ArrowDown,ArrowRight"":17}","true","ArrowUp,ArrowLeft","false","","","original","1","2","","",""
"html-keyboard-response","121","683146","0.0-4.0-2.0-1.1","spark_pilot_2","7111","5","8","Male","","","","","","","null","<div style=""font-size:60px;"">+</div>","null","fixation","","","","","","","","","","","3","","",""
"revaluation","122","687164","0.0-4.0-2.0-0.2","spark_pilot_2","7111","5","8","Male","","false","","","","","[465.79999999701977]","./assets/img/canyon/catch/6.jpg","[""ArrowDown""]","value training","canyon","-10","{""ArrowUp,ArrowLeft"":26,""ArrowUp,ArrowRight"":10,""ArrowDown,ArrowLeft"":5,""ArrowDown,ArrowRight"":17}","false","ArrowDown","true","","","original","1","4","","",""
"html-keyboard-response","123","687668","0.0-4.0-2.0-1.2","spark_pilot_2","7111","5","8","Male","","","","","","","null","<div style=""font-size:60px;"">+</div>","null","fixation","","","","","","","","","","","5","","",""
"revaluation","124","691686","0.0-4.0-2.0-0.3","spark_pilot_2","7111","5","8","Male","","false","","","","","[789.1000000089407]","./assets/img/canyon/catch/7.jpg","[""spaceBar""]","value training","canyon","0","{""ArrowUp,ArrowLeft"":26,""ArrowUp,ArrowRight"":10,""ArrowDown,ArrowLeft"":5,""ArrowDown,ArrowRight"":17}","true","spaceBar","true","","","original","1","6","","",""
"html-keyboard-response","125","692195","0.0-4.0-2.0-1.3","spark_pilot_2","7111","5","8","Male","","","","","","","null","<div style=""font-size:60px;"">+</div>","null","fixation","","","","","","","","","","","7","","",""
"revaluation","126","698222","0.0-4.0-2.0-0.4","spark_pilot_2","7111","5","8","Male","","false","","","","","[1569.7999999970198,1082.2000000029802]","./assets/img/canyon/memory/20.jpg","[""ArrowDown"",""ArrowLeft""]","value training","canyon","5","{""ArrowUp,ArrowLeft"":26,""ArrowUp,ArrowRight"":10,""ArrowDown,ArrowLeft"":5,""ArrowDown,ArrowRight"":17}","false","ArrowDown,ArrowLeft","false","","","original","1","8","","",""
"html-keyboard-response","127","698730","0.0-4.0-2.0-1.4","spark_pilot_2","7111","5","8","Male","","","","","","","null","<div style=""font-size:60px;"">+</div>","null","fixation","","","","","","","","","","","9","","",""
"revaluation","128","704747","0.0-4.0-2.0-0.5","spark_pilot_2","7111","5","8","Male","","false","","","","","[946.7999999970198,508.40000000596046]","./assets/img/canyon/memory/7.jpg","[""ArrowDown"",""ArrowRight""]","value training","canyon","17","{""ArrowUp,ArrowLeft"":26,""ArrowUp,ArrowRight"":10,""ArrowDown,ArrowLeft"":5,""ArrowDown,ArrowRight"":17}","false","ArrowDown,ArrowRight","false","","","original","1","10","","",""
"html-keyboard-response","129","705251","0.0-4.0-2.0-1.5","spark_pilot_2","7111","5","8","Male","","","","","","","null","<div style=""font-size:60px;"">+</div>","null","fixation","","","","","","","","","","","11","","",""
"revaluation","130","711272","0.0-4.0-2.0-0.6","spark_pilot_2","7111","5","8","Male","","false","","","","","[696.5999999940395,446.09999999403954]","./assets/img/canyon/memory/2.jpg","[""ArrowUp"",""ArrowLeft""]","value training","canyon","26","{""ArrowUp,ArrowLeft"":26,""ArrowUp,ArrowRight"":10,""ArrowDown,ArrowLeft"":5,""ArrowDown,ArrowRight"":17}","true","ArrowUp,ArrowLeft","false","","","original","1","12","","",""
"html-keyboard-response","131","711782","0.0-4.0-2.0-1.6","spark_pilot_2","7111","5","8","Male","","","","","","","null","<div style=""font-size:60px;"">+</div>","null","fixation","","","","","","","","","","","13","","",""
"revaluation","132","715797","0.0-4.0-2.0-0.7","spark_pilot_2","7111","5","8","Male","","false","","","","","[932.4000000059605]","./assets/img/canyon/catch/4.jpg","[""spaceBar""]","value training","canyon","0","{""ArrowUp,ArrowLeft"":26,""ArrowUp,ArrowRight"":10,""ArrowDown,ArrowLeft"":5,""ArrowDown,ArrowRight"":17}","true","spaceBar","true","","","original","1","14","","",""
"html-keyboard-response","133","716307","0.0-4.0-2.0-1.7","spark_pilot_2","7111","5","8","Male","","","","","","","null","<div style=""font-size:60px;"">+</div>","null","fixation","","","","","","","","","","","15","","",""
"revaluation","134","722331","0.0-4.0-2.0-0.8","spark_pilot_2","7111","5","8","Male","","false","","","","","[1140.7000000029802,330.1000000089407]","./assets/img/canyon/memory/32.jpg","[""ArrowUp"",""ArrowLeft""]","value training","canyon","26","{""ArrowUp,ArrowLeft"":26,""ArrowUp,ArrowRight"":10,""ArrowDown,ArrowLeft"":5,""ArrowDown,ArrowRight"":17}","true","ArrowUp,ArrowLeft","false","","","original","1","16","","",""
"html-keyboard-response","135","722841","0.0-4.0-2.0-1.8","spark_pilot_2","7111","5","8","Male","","","","","","","null","<div style=""font-size:60px;"">+</div>","null","fixation","","","","","","","","","","","17","","",""
"revaluation","136","728865","0.0-4.0-2.0-0.9","spark_pilot_2","7111","5","8","Male","","false","","","","","[772,654.5]","./assets/img/canyon/memory/14.jpg","[""ArrowUp"",""ArrowLeft""]","value training","canyon","26","{""ArrowUp,ArrowLeft"":26,""ArrowUp,ArrowRight"":10,""ArrowDown,ArrowLeft"":5,""ArrowDown,ArrowRight"":17}","true","ArrowUp,ArrowLeft","false","","","original","1","18","","",""
"html-keyboard-response","137","729376","0.0-4.0-2.0-1.9","spark_pilot_2","7111","5","8","Male","","","","","","","null","<div style=""font-size:60px;"">+</div>","null","fixation","","","","","","","","","","","19","","",""
"revaluation","138","735400","0.0-4.0-2.0-0.10","spark_pilot_2","7111","5","8","Male","","false","","","","","[1020.2999999970198,544.8000000119209]","./assets/img/canyon/memory/8.jpg","[""ArrowUp"",""ArrowLeft""]","value training","canyon","26","{""ArrowUp,ArrowLeft"":26,""ArrowUp,ArrowRight"":10,""ArrowDown,ArrowLeft"":5,""ArrowDown,ArrowRight"":17}","true","ArrowUp,ArrowLeft","false","","","original","1","20","","",""
"html-keyboard-response","139","735911","0.0-4.0-2.0-1.10","spark_pilot_2","7111","5","8","Male","","","","","","","null","<div style=""font-size:60px;"">+</div>","null","fixation","","","","","","","","","","","21","","",""
"revaluation","140","741936","0.0-4.0-2.0-0.11","spark_pilot_2","7111","5","8","Male","","false","","","","","[1078.5,341.30000001192093]","./assets/img/canyon/memory/20.jpg","[""ArrowUp"",""ArrowLeft""]","value training","canyon","26","{""ArrowUp,ArrowLeft"":26,""ArrowUp,ArrowRight"":10,""ArrowDown,ArrowLeft"":5,""ArrowDown,ArrowRight"":17}","true","ArrowUp,ArrowLeft","false","","","original","1","22","","",""
"html-keyboard-response","141","742446","0.0-4.0-2.0-1.11","spark_pilot_2","7111","5","8","Male","","","","","","","null","<div style=""font-size:60px;"">+</div>","null","fixation","","","","","","","","","","","23","","",""
"revaluation","142","748468","0.0-4.0-2.0-0.12","spark_pilot_2","7111","5","8","Male","","false","","","","","[789.4000000059605,528.5]","./assets/img/canyon/memory/2.jpg","[""ArrowUp"",""ArrowLeft""]","value training","canyon","26","{""ArrowUp,ArrowLeft"":26,""ArrowUp,ArrowRight"":10,""ArrowDown,ArrowLeft"":5,""ArrowDown,ArrowRight"":17}","true","ArrowUp,ArrowLeft","false","","","original","1","24","","",""
"html-keyboard-response","143","748971","0.0-4.0-2.0-1.12","spark_pilot_2","7111","5","8","Male","","","","","","","null","<div style=""font-size:60px;"">+</div>","null","fixation","","","","","","","","","","","25","","",""
"revaluation","144","754996","0.0-4.0-2.0-0.13","spark_pilot_2","7111","5","8","Male","","false","","","","","[542.9000000059605,387.79999999701977]","./assets/img/canyon/memory/18.jpg","[""ArrowUp"",""ArrowLeft""]","value training","canyon","26","{""ArrowUp,ArrowLeft"":26,""ArrowUp,ArrowRight"":10,""ArrowDown,ArrowLeft"":5,""ArrowDown,ArrowRight"":17}","true","ArrowUp,ArrowLeft","false","","","original","1","26","","",""
"html-keyboard-response","145","755501","0.0-4.0-2.0-1.13","spark_pilot_2","7111","5","8","Male","","","","","","","null","<div style=""font-size:60px;"">+</div>","null","fixation","","","","","","","","","","","27","","",""
"revaluation","146","759518","0.0-4.0-2.0-0.14","spark_pilot_2","7111","5","8","Male","","false","","","","","[1148.5]","./assets/img/canyon/catch/5.jpg","[""spaceBar""]","value training","canyon","0","{""ArrowUp,ArrowLeft"":26,""ArrowUp,ArrowRight"":10,""ArrowDown,ArrowLeft"":5,""ArrowDown,ArrowRight"":17}","true","spaceBar","true","","","original","1","28","","",""
"html-keyboard-response","147","760028","0.0-4.0-2.0-1.14","spark_pilot_2","7111","5","8","Male","","","","","","","null","<div style=""font-size:60px;"">+</div>","null","fixation","","","","","","","","","","","29","","",""
"revaluation","148","766054","0.0-4.0-2.0-0.15","spark_pilot_2","7111","5","8","Male","","false","","","","","[894,388.70000000298023]","./assets/img/canyon/memory/7.jpg","[""ArrowUp"",""ArrowLeft""]","value training","canyon","26","{""ArrowUp,ArrowLeft"":26,""ArrowUp,ArrowRight"":10,""ArrowDown,ArrowLeft"":5,""ArrowDown,ArrowRight"":17}","true","ArrowUp,ArrowLeft","false","","","original","1","30","","",""
"html-keyboard-response","149","766565","0.0-4.0-2.0-1.15","spark_pilot_2","7111","5","8","Male","","","","","","","null","<div style=""font-size:60px;"">+</div>","null","fixation","","","","","","","","","","","31","","",""
"revaluation","150","772587","0.0-4.0-2.0-0.16","spark_pilot_2","7111","5","8","Male","","false","","","","","[661.2999999970198,421.70000000298023]","./assets/img/canyon/memory/29.jpg","[""ArrowUp"",""ArrowLeft""]","value training","canyon","26","{""ArrowUp,ArrowLeft"":26,""ArrowUp,ArrowRight"":10,""ArrowDown,ArrowLeft"":5,""ArrowDown,ArrowRight"":17}","true","ArrowUp,ArrowLeft","false","","","original","1","32","","",""
"html-keyboard-response","151","773090","0.0-4.0-2.0-1.16","spark_pilot_2","7111","5","8","Male","","","","","","","null","<div style=""font-size:60px;"">+</div>","null","fixation","","","","","","","","","","","33","","",""
"revaluation","152","777107","0.0-4.0-2.0-0.17","spark_pilot_2","7111","5","8","Male","","false","","","","","[878.5]","./assets/img/canyon/catch/1.jpg","[""spaceBar""]","value training","canyon","0","{""ArrowUp,ArrowLeft"":26,""ArrowUp,ArrowRight"":10,""ArrowDown,ArrowLeft"":5,""ArrowDown,ArrowRight"":17}","true","spaceBar","true","","","original","1","34","","",""
"html-keyboard-response","153","777612","0.0-4.0-2.0-1.17","spark_pilot_2","7111","5","8","Male","","","","","","","null","<div style=""font-size:60px;"">+</div>","null","fixation","","","","","","","","","","","35","","",""
"revaluation","154","783637","0.0-4.0-2.0-0.18","spark_pilot_2","7111","5","8","Male","","false","","","","","[537.2999999970198,1115.7000000029802]","./assets/img/canyon/memory/33.jpg","[""ArrowUp"",""ArrowLeft""]","value training","canyon","26","{""ArrowUp,ArrowLeft"":26,""ArrowUp,ArrowRight"":10,""ArrowDown,ArrowLeft"":5,""ArrowDown,ArrowRight"":17}","true","ArrowUp,ArrowLeft","false","","","original","1","36","","",""
"html-keyboard-response","155","784148","0.0-4.0-2.0-1.18","spark_pilot_2","7111","5","8","Male","","","","","","","null","<div style=""font-size:60px;"">+</div>","null","fixation","","","","","","","","","","","37","","",""
"revaluation","156","790174","0.0-4.0-2.0-0.19","spark_pilot_2","7111","5","8","Male","","false","","","","","[775.7999999970198,468.90000000596046]","./assets/img/canyon/memory/35.jpg","[""ArrowUp"",""ArrowLeft""]","value training","canyon","26","{""ArrowUp,ArrowLeft"":26,""ArrowUp,ArrowRight"":10,""ArrowDown,ArrowLeft"":5,""ArrowDown,ArrowRight"":17}","true","ArrowUp,ArrowLeft","false","","","original","1","38","","",""
"html-keyboard-response","157","790684","0.0-4.0-2.0-1.19","spark_pilot_2","7111","5","8","Male","","","","","","","null","<div style=""font-size:60px;"">+</div>","null","fixation","","","","","","","","","","","39","","",""
"revaluation","158","796710","0.0-4.0-2.0-0.20","spark_pilot_2","7111","5","8","Male","","false","","","","","[848.7999999970198,476.5]","./assets/img/canyon/memory/14.jpg","[""ArrowUp"",""ArrowLeft""]","value training","canyon","26","{""ArrowUp,ArrowLeft"":26,""ArrowUp,ArrowRight"":10,""ArrowDown,ArrowLeft"":5,""ArrowDown,ArrowRight"":17}","true","ArrowUp,ArrowLeft","false","","","original","1","40","","",""
"html-keyboard-response","159","797221","0.0-4.0-2.0-1.20","spark_pilot_2","7111","5","8","Male","","","","","","","null","<div style=""font-size:60px;"">+</div>","null","fixation","","","","","","","","","","","41","","",""
"revaluation","160","803241","0.0-4.0-2.0-0.21","spark_pilot_2","7111","5","8","Male","","false","","","","","[908,456.09999999403954]","./assets/img/canyon/memory/18.jpg","[""ArrowUp"",""ArrowLeft""]","value training","canyon","26","{""ArrowUp,ArrowLeft"":26,""ArrowUp,ArrowRight"":10,""ArrowDown,ArrowLeft"":5,""ArrowDown,ArrowRight"":17}","true","ArrowUp,ArrowLeft","false","","","original","1","42","","",""
"html-keyboard-response","161","803746","0.0-4.0-2.0-1.21","spark_pilot_2","7111","5","8","Male","","","","","","","null","<div style=""font-size:60px;"">+</div>","null","fixation","","","","","","","","","","","43","","",""
"revaluation","162","809772","0.0-4.0-2.0-0.22","spark_pilot_2","7111","5","8","Male","","false","","","","","[873.5999999940395,660.5999999940395]","./assets/img/canyon/memory/32.jpg","[""ArrowUp"",""ArrowLeft""]","value training","canyon","26","{""ArrowUp,ArrowLeft"":26,""ArrowUp,ArrowRight"":10,""ArrowDown,ArrowLeft"":5,""ArrowDown,ArrowRight"":17}","true","ArrowUp,ArrowLeft","false","","","original","1","44","","",""
"html-keyboard-response","163","810276","0.0-4.0-2.0-1.22","spark_pilot_2","7111","5","8","Male","","","","","","","null","<div style=""font-size:60px;"">+</div>","null","fixation","","","","","","","","","","","45","","",""
"revaluation","164","816302","0.0-4.0-2.0-0.23","spark_pilot_2","7111","5","8","Male","","false","","","","","[904.2000000029802,974.7999999970198]","./assets/img/canyon/memory/9.jpg","[""ArrowUp"",""ArrowLeft""]","value training","canyon","26","{""ArrowUp,ArrowLeft"":26,""ArrowUp,ArrowRight"":10,""ArrowDown,ArrowLeft"":5,""ArrowDown,ArrowRight"":17}","true","ArrowUp,ArrowLeft","false","","","original","1","46","","",""
"html-keyboard-response","165","816812","0.0-4.0-2.0-1.23","spark_pilot_2","7111","5","8","Male","","","","","","","null","<div style=""font-size:60px;"">+</div>","null","fixation","","","","","","","","","","","47","","",""
"revaluation","166","822836","0.0-4.0-2.0-0.24","spark_pilot_2","7111","5","8","Male","","false","","","","","[818.0999999940395,825.0999999940395]","./assets/img/canyon/memory/31.jpg","[""ArrowUp"",""ArrowLeft""]","value training","canyon","26","{""ArrowUp,ArrowLeft"":26,""ArrowUp,ArrowRight"":10,""ArrowDown,ArrowLeft"":5,""ArrowDown,ArrowRight"":17}","true","ArrowUp,ArrowLeft","false","","","original","1","48","","",""
"html-keyboard-response","167","823337","0.0-4.0-2.0-1.24","spark_pilot_2","7111","5","8","Male","","","","","","","null","<div style=""font-size:60px;"">+</div>","null","fixation","","","","","","","","","","","49","","",""
"revaluation","168","829363","0.0-4.0-2.0-0.25","spark_pilot_2","7111","5","8","Male","","false","","","","","[766.5,253.90000000596046]","./assets/img/canyon/memory/38.jpg","[""ArrowUp"",""ArrowLeft""]","value training","canyon","26","{""ArrowUp,ArrowLeft"":26,""ArrowUp,ArrowRight"":10,""ArrowDown,ArrowLeft"":5,""ArrowDown,ArrowRight"":17}","true","ArrowUp,ArrowLeft","false","","","original","1","50","","",""
"html-keyboard-response","169","829868","0.0-4.0-2.0-1.25","spark_pilot_2","7111","5","8","Male","","","","","","","null","<div style=""font-size:60px;"">+</div>","null","fixation","","","","","","","","","","","51","","",""
"revaluation","170","835894","0.0-4.0-2.0-0.26","spark_pilot_2","7111","5","8","Male","","false","","","","","[712.5,759]","./assets/img/canyon/memory/31.jpg","[""ArrowUp"",""ArrowLeft""]","value training","canyon","26","{""ArrowUp,ArrowLeft"":26,""ArrowUp,ArrowRight"":10,""ArrowDown,ArrowLeft"":5,""ArrowDown,ArrowRight"":17}","true","ArrowUp,ArrowLeft","false","","","original","1","52","","",""
"html-keyboard-response","171","836404","0.0-4.0-2.0-1.26","spark_pilot_2","7111","5","8","Male","","","","","","","null","<div style=""font-size:60px;"">+</div>","null","fixation","","","","","","","","","","","53","","",""
"revaluation","172","842430","0.0-4.0-2.0-0.27","spark_pilot_2","7111","5","8","Male","","false","","","","","[1267.7000000029802,500]","./assets/img/canyon/memory/1.jpg","[""ArrowUp"",""ArrowLeft""]","value training","canyon","26","{""ArrowUp,ArrowLeft"":26,""ArrowUp,ArrowRight"":10,""ArrowDown,ArrowLeft"":5,""ArrowDown,ArrowRight"":17}","true","ArrowUp,ArrowLeft","false","","","original","1","54","","",""
"html-keyboard-response","173","842941","0.0-4.0-2.0-1.27","spark_pilot_2","7111","5","8","Male","","","","","","","null","<div style=""font-size:60px;"">+</div>","null","fixation","","","","","","","","","","","55","","",""
"revaluation","174","848963","0.0-4.0-2.0-0.28","spark_pilot_2","7111","5","8","Male","","false","","","","","[616,464]","./assets/img/canyon/memory/9.jpg","[""ArrowUp"",""ArrowLeft""]","value training","canyon","26","{""ArrowUp,ArrowLeft"":26,""ArrowUp,ArrowRight"":10,""ArrowDown,ArrowLeft"":5,""ArrowDown,ArrowRight"":17}","true","ArrowUp,ArrowLeft","false","","","original","1","56","","",""
"html-keyboard-response","175","849466","0.0-4.0-2.0-1.28","spark_pilot_2","7111","5","8","Male","","","","","","","null","<div style=""font-size:60px;"">+</div>","null","fixation","","","","","","","","","","","57","","",""
"revaluation","176","855491","0.0-4.0-2.0-0.29","spark_pilot_2","7111","5","8","Male","","false","","","","","[554.1000000089407,494.79999999701977]","./assets/img/canyon/memory/30.jpg","[""ArrowUp"",""ArrowLeft""]","value training","canyon","26","{""ArrowUp,ArrowLeft"":26,""ArrowUp,ArrowRight"":10,""ArrowDown,ArrowLeft"":5,""ArrowDown,ArrowRight"":17}","true","ArrowUp,ArrowLeft","false","","","original","1","58","","",""
"html-keyboard-response","177","855996","0.0-4.0-2.0-1.29","spark_pilot_2","7111","5","8","Male","","","","","","","null","<div style=""font-size:60px;"">+</div>","null","fixation","","","","","","","","","","","59","","",""
"revaluation","178","862022","0.0-4.0-2.0-0.30","spark_pilot_2","7111","5","8","Male","","false","","","","","[756.4000000059605,675]","./assets/img/canyon/memory/29.jpg","[""ArrowUp"",""ArrowLeft""]","value training","canyon","26","{""ArrowUp,ArrowLeft"":26,""ArrowUp,ArrowRight"":10,""ArrowDown,ArrowLeft"":5,""ArrowDown,ArrowRight"":17}","true","ArrowUp,ArrowLeft","false","","","original","1","60","","",""
"html-keyboard-response","179","862533","0.0-4.0-2.0-1.30","spark_pilot_2","7111","5","8","Male","","","","","","","null","<div style=""font-size:60px;"">+</div>","null","fixation","","","","","","","","","","","61","","",""
"revaluation","180","868557","0.0-4.0-2.0-0.31","spark_pilot_2","7111","5","8","Male","","false","","","","","[727.9000000059605,544.5999999940395]","./assets/img/canyon/memory/1.jpg","[""ArrowUp"",""ArrowLeft""]","value training","canyon","26","{""ArrowUp,ArrowLeft"":26,""ArrowUp,ArrowRight"":10,""ArrowDown,ArrowLeft"":5,""ArrowDown,ArrowRight"":17}","true","ArrowUp,ArrowLeft","false","","","original","1","62","","",""
"html-keyboard-response","181","869069","0.0-4.0-2.0-1.31","spark_pilot_2","7111","5","8","Male","","","","","","","null","<div style=""font-size:60px;"">+</div>","null","fixation","","","","","","","","","","","63","","",""
"revaluation","182","875089","0.0-4.0-2.0-0.32","spark_pilot_2","7111","5","8","Male","","false","","","","","[547.5,732.5999999940395]","./assets/img/canyon/memory/39.jpg","[""ArrowUp"",""ArrowLeft""]","value training","canyon","26","{""ArrowUp,ArrowLeft"":26,""ArrowUp,ArrowRight"":10,""ArrowDown,ArrowLeft"":5,""ArrowDown,ArrowRight"":17}","true","ArrowUp,ArrowLeft","false","","","original","1","64","","",""
"html-keyboard-response","183","875593","0.0-4.0-2.0-1.32","spark_pilot_2","7111","5","8","Male","","","","","","","null","<div style=""font-size:60px;"">+</div>","null","fixation","","","","","","","","","","","65","","",""
"revaluation","184","881619","0.0-4.0-2.0-0.33","spark_pilot_2","7111","5","8","Male","","false","","","","","[753.2999999970198,437]","./assets/img/canyon/memory/3.jpg","[""ArrowUp"",""ArrowLeft""]","value training","canyon","26","{""ArrowUp,ArrowLeft"":26,""ArrowUp,ArrowRight"":10,""ArrowDown,ArrowLeft"":5,""ArrowDown,ArrowRight"":17}","true","ArrowUp,ArrowLeft","false","","","original","1","66","","",""
"html-keyboard-response","185","882124","0.0-4.0-2.0-1.33","spark_pilot_2","7111","5","8","Male","","","","","","","null","<div style=""font-size:60px;"">+</div>","null","fixation","","","","","","","","","","","67","","",""
"revaluation","186","886141","0.0-4.0-2.0-0.34","spark_pilot_2","7111","5","8","Male","","true","","","","","[]","./assets/img/canyon/memory/8.jpg","[]","value training","canyon","-5","{""ArrowUp,ArrowLeft"":26,""ArrowUp,ArrowRight"":10,""ArrowDown,ArrowLeft"":5,""ArrowDown,ArrowRight"":17}","false","","false","","","original","1","68","","",""
"html-keyboard-response","187","886652","0.0-4.0-2.0-1.34","spark_pilot_2","7111","5","8","Male","","","","","","","null","<div style=""font-size:60px;"">+</div>","null","fixation","","","","","","","","","","","69","","",""
"revaluation","188","892678","0.0-4.0-2.0-0.35","spark_pilot_2","7111","5","8","Male","","false","","","","","[554.1999999880791,926.7000000029802]","./assets/img/canyon/memory/3.jpg","[""ArrowUp"",""ArrowLeft""]","value training","canyon","26","{""ArrowUp,ArrowLeft"":26,""ArrowUp,ArrowRight"":10,""ArrowDown,ArrowLeft"":5,""ArrowDown,ArrowRight"":17}","true","ArrowUp,ArrowLeft","false","","","original","1","70","","",""
"html-keyboard-response","189","893189","0.0-4.0-2.0-1.35","spark_pilot_2","7111","5","8","Male","","","","","","","null","<div style=""font-size:60px;"">+</div>","null","fixation","","","","","","","","","","","71","","",""
"revaluation","190","899214","0.0-4.0-2.0-0.36","spark_pilot_2","7111","5","8","Male","","false","","","","","[717.2000000029802,382.8999999910593]","./assets/img/canyon/memory/33.jpg","[""ArrowUp"",""ArrowLeft""]","value training","canyon","26","{""ArrowUp,ArrowLeft"":26,""ArrowUp,ArrowRight"":10,""ArrowDown,ArrowLeft"":5,""ArrowDown,ArrowRight"":17}","true","ArrowUp,ArrowLeft","false","","","original","1","72","","",""
"html-keyboard-response","191","899725","0.0-4.0-2.0-1.36","spark_pilot_2","7111","5","8","Male","","","","","","","null","<div style=""font-size:60px;"">+</div>","null","fixation","","","","","","","","","","","73","","",""
"revaluation","192","903739","0.0-4.0-2.0-0.37","spark_pilot_2","7111","5","8","Male","","false","","","","","[772.0999999940395]","./assets/img/canyon/catch/3.jpg","[""ArrowUp""]","value training","canyon","-10","{""ArrowUp,ArrowLeft"":26,""ArrowUp,ArrowRight"":10,""ArrowDown,ArrowLeft"":5,""ArrowDown,ArrowRight"":17}","false","ArrowUp","true","","","original","1","74","","",""
"html-keyboard-response","193","904241","0.0-4.0-2.0-1.37","spark_pilot_2","7111","5","8","Male","","","","","","","null","<div style=""font-size:60px;"">+</div>","null","fixation","","","","","","","","","","","75","","",""
"revaluation","194","910267","0.0-4.0-2.0-0.38","spark_pilot_2","7111","5","8","Male","","false","","","","","[643.7000000029802,413.5]","./assets/img/canyon/memory/41.jpg","[""ArrowUp"",""ArrowLeft""]","value training","canyon","26","{""ArrowUp,ArrowLeft"":26,""ArrowUp,ArrowRight"":10,""ArrowDown,ArrowLeft"":5,""ArrowDown,ArrowRight"":17}","true","ArrowUp,ArrowLeft","false","","","original","1","76","","",""
"html-keyboard-response","195","910772","0.0-4.0-2.0-1.38","spark_pilot_2","7111","5","8","Male","","","","","","","null","<div style=""font-size:60px;"">+</div>","null","fixation","","","","","","","","","","","77","","",""
"revaluation","196","916798","0.0-4.0-2.0-0.39","spark_pilot_2","7111","5","8","Male","","false","","","","","[741,730.7000000029802]","./assets/img/canyon/memory/12.jpg","[""ArrowUp"",""ArrowLeft""]","value training","canyon","26","{""ArrowUp,ArrowLeft"":26,""ArrowUp,ArrowRight"":10,""ArrowDown,ArrowLeft"":5,""ArrowDown,ArrowRight"":17}","true","ArrowUp,ArrowLeft","false","","","original","1","78","","",""
"html-keyboard-response","197","917308","0.0-4.0-2.0-1.39","spark_pilot_2","7111","5","8","Male","","","","","","","null","<div style=""font-size:60px;"">+</div>","null","fixation","","","","","","","","","","","79","","",""
"revaluation","198","921326","0.0-4.0-2.0-0.40","spark_pilot_2","7111","5","8","Male","","false","","","","","[663.6999999880791]","./assets/img/canyon/catch/2.jpg","[""ArrowUp""]","value training","canyon","-10","{""ArrowUp,ArrowLeft"":26,""ArrowUp,ArrowRight"":10,""ArrowDown,ArrowLeft"":5,""ArrowDown,ArrowRight"":17}","false","ArrowUp","true","","","original","1","80","","",""
"html-keyboard-response","199","921836","0.0-4.0-2.0-1.40","spark_pilot_2","7111","5","8","Male","","","","","","","null","<div style=""font-size:60px;"">+</div>","null","fixation","","","","","","","","","","","81","","",""
"revaluation","200","927862","0.0-4.0-2.0-0.41","spark_pilot_2","7111","5","8","Male","","false","","","","","[1683.2000000029802,656.8000000119209]","./assets/img/canyon/memory/39.jpg","[""ArrowUp"",""ArrowLeft""]","value training","canyon","26","{""ArrowUp,ArrowLeft"":26,""ArrowUp,ArrowRight"":10,""ArrowDown,ArrowLeft"":5,""ArrowDown,ArrowRight"":17}","true","ArrowUp,ArrowLeft","false","","","original","1","82","","",""
"html-keyboard-response","201","928373","0.0-4.0-2.0-1.41","spark_pilot_2","7111","5","8","Male","","","","","","","null","<div style=""font-size:60px;"">+</div>","null","fixation","","","","","","","","","","","83","","",""
"revaluation","202","934395","0.0-4.0-2.0-0.42","spark_pilot_2","7111","5","8","Male","","false","","","","","[1116.699999988079,1400.5999999940395]","./assets/img/canyon/memory/10.jpg","[""ArrowUp"",""ArrowLeft""]","value training","canyon","26","{""ArrowUp,ArrowLeft"":26,""ArrowUp,ArrowRight"":10,""ArrowDown,ArrowLeft"":5,""ArrowDown,ArrowRight"":17}","true","ArrowUp,ArrowLeft","false","","","original","1","84","","",""
"html-keyboard-response","203","934897","0.0-4.0-2.0-1.42","spark_pilot_2","7111","5","8","Male","","","","","","","null","<div style=""font-size:60px;"">+</div>","null","fixation","","","","","","","","","","","85","","",""
"revaluation","204","940923","0.0-4.0-2.0-0.43","spark_pilot_2","7111","5","8","Male","","false","","","","","[742.6000000089407,515.7000000029802]","./assets/img/canyon/memory/12.jpg","[""ArrowUp"",""ArrowLeft""]","value training","canyon","26","{""ArrowUp,ArrowLeft"":26,""ArrowUp,ArrowRight"":10,""ArrowDown,ArrowLeft"":5,""ArrowDown,ArrowRight"":17}","true","ArrowUp,ArrowLeft","false","","","original","1","86","","",""
"html-keyboard-response","205","941428","0.0-4.0-2.0-1.43","spark_pilot_2","7111","5","8","Male","","","","","","","null","<div style=""font-size:60px;"">+</div>","null","fixation","","","","","","","","","","","87","","",""
"revaluation","206","947454","0.0-4.0-2.0-0.44","spark_pilot_2","7111","5","8","Male","","false","","","","","[845,949.2000000029802]","./assets/img/canyon/memory/38.jpg","[""ArrowUp"",""ArrowLeft""]","value training","canyon","26","{""ArrowUp,ArrowLeft"":26,""ArrowUp,ArrowRight"":10,""ArrowDown,ArrowLeft"":5,""ArrowDown,ArrowRight"":17}","true","ArrowUp,ArrowLeft","false","","","original","1","88","","",""
"html-keyboard-response","207","947964","0.0-4.0-2.0-1.44","spark_pilot_2","7111","5","8","Male","","","","","","","null","<div style=""font-size:60px;"">+</div>","null","fixation","","","","","","","","","","","89","","",""
"revaluation","208","953987","0.0-4.0-2.0-0.45","spark_pilot_2","7111","5","8","Male","","false","","","","","[726.2000000029802,369.79999999701977]","./assets/img/canyon/memory/26.jpg","[""ArrowUp"",""ArrowLeft""]","value training","canyon","26","{""ArrowUp,ArrowLeft"":26,""ArrowUp,ArrowRight"":10,""ArrowDown,ArrowLeft"":5,""ArrowDown,ArrowRight"":17}","true","ArrowUp,ArrowLeft","false","","","original","1","90","","",""
"html-keyboard-response","209","954489","0.0-4.0-2.0-1.45","spark_pilot_2","7111","5","8","Male","","","","","","","null","<div style=""font-size:60px;"">+</div>","null","fixation","","","","","","","","","","","91","","",""
"revaluation","210","958506","0.0-4.0-2.0-0.46","spark_pilot_2","7111","5","8","Male","","false","","","","","[1341.7999999970198]","./assets/img/canyon/catch/0.jpg","[""spaceBar""]","value training","canyon","0","{""ArrowUp,ArrowLeft"":26,""ArrowUp,ArrowRight"":10,""ArrowDown,ArrowLeft"":5,""ArrowDown,ArrowRight"":17}","true","spaceBar","true","","","original","1","92","","",""
"html-keyboard-response","211","959011","0.0-4.0-2.0-1.46","spark_pilot_2","7111","5","8","Male","","","","","","","null","<div style=""font-size:60px;"">+</div>","null","fixation","","","","","","","","","","","93","","",""
"revaluation","212","965038","0.0-4.0-2.0-0.47","spark_pilot_2","7111","5","8","Male","","false","","","","","[740.9000000059605,536.5999999940395]","./assets/img/canyon/memory/30.jpg","[""ArrowUp"",""ArrowLeft""]","value training","canyon","26","{""ArrowUp,ArrowLeft"":26,""ArrowUp,ArrowRight"":10,""ArrowDown,ArrowLeft"":5,""ArrowDown,ArrowRight"":17}","true","ArrowUp,ArrowLeft","false","","","original","1","94","","",""
"html-keyboard-response","213","965547","0.0-4.0-2.0-1.47","spark_pilot_2","7111","5","8","Male","","","","","","","null","<div style=""font-size:60px;"">+</div>","null","fixation","","","","","","","","","","","95","","",""
"revaluation","214","971574","0.0-4.0-2.0-0.48","spark_pilot_2","7111","5","8","Male","","false","","","","","[911,554]","./assets/img/canyon/memory/10.jpg","[""ArrowUp"",""ArrowLeft""]","value training","canyon","26","{""ArrowUp,ArrowLeft"":26,""ArrowUp,ArrowRight"":10,""ArrowDown,ArrowLeft"":5,""ArrowDown,ArrowRight"":17}","true","ArrowUp,ArrowLeft","false","","","original","1","96","","",""
"html-keyboard-response","215","972084","0.0-4.0-2.0-1.48","spark_pilot_2","7111","5","8","Male","","","","","","","null","<div style=""font-size:60px;"">+</div>","null","fixation","","","","","","","","","","","97","","",""
"revaluation","216","978110","0.0-4.0-2.0-0.49","spark_pilot_2","7111","5","8","Male","","false","","","","","[687.0999999940395,734.5]","./assets/img/canyon/memory/41.jpg","[""ArrowUp"",""ArrowLeft""]","value training","canyon","26","{""ArrowUp,ArrowLeft"":26,""ArrowUp,ArrowRight"":10,""ArrowDown,ArrowLeft"":5,""ArrowDown,ArrowRight"":17}","true","ArrowUp,ArrowLeft","false","","","original","1","98","","",""
"html-keyboard-response","217","978620","0.0-4.0-2.0-1.49","spark_pilot_2","7111","5","8","Male","","","","","","","null","<div style=""font-size:60px;"">+</div>","null","fixation","","","","","","","","","","","99","","",""
"learning-instructions","218","993822","0.0-4.0-3.0-0.0","spark_pilot_2","7111","5","8","Male","","","","","","","2172.7999999970198","<p> Now, you will travel with a friend who will choose whether you go up or down first. </p>
            <p> On these turns, you will just see the animal that they found. You will still get to choose which chest to search for treasure.</p>","","instructions","","","","","","","","","","","","","",""
"revaluation","219","997835","0.0-4.0-4.0-0.0","spark_pilot_2","7111","5","8","Male","","false","","","","","[1344.9000000059605]","./assets/img/canyon/animals/giraffe.jpg","[""ArrowLeft""]","revaluation","canyon","5","{""ArrowUp,ArrowLeft"":26,""ArrowUp,ArrowRight"":10,""ArrowDown,ArrowLeft"":5,""ArrowDown,ArrowRight"":17}","false","ArrowDown,ArrowLeft","","","","original","1","0","","",""
"html-keyboard-response","220","998346","0.0-4.0-4.0-1.0","spark_pilot_2","7111","5","8","Male","","","","","","","null","<div style=""font-size:60px;"">+</div>","null","fixation","","","","","","","","","","","1","","",""
"revaluation","221","1002365","0.0-4.0-4.0-0.1","spark_pilot_2","7111","5","8","Male","","false","","","","","[732.6999999880791]","./assets/img/canyon/animals/lion.jpg","[""ArrowLeft""]","revaluation","canyon","26","{""ArrowUp,ArrowLeft"":26,""ArrowUp,ArrowRight"":10,""ArrowDown,ArrowLeft"":5,""ArrowDown,ArrowRight"":17}","true","ArrowUp,ArrowLeft","","","","original","1","2","","",""
"html-keyboard-response","222","1002875","0.0-4.0-4.0-1.1","spark_pilot_2","7111","5","8","Male","","","","","","","null","<div style=""font-size:60px;"">+</div>","null","fixation","","","","","","","","","","","3","","",""
"revaluation","223","1006893","0.0-4.0-4.0-0.2","spark_pilot_2","7111","5","8","Male","","false","","","","","[848.2999999970198]","./assets/img/canyon/animals/giraffe.jpg","[""ArrowRight""]","revaluation","canyon","17","{""ArrowUp,ArrowLeft"":26,""ArrowUp,ArrowRight"":10,""ArrowDown,ArrowLeft"":5,""ArrowDown,ArrowRight"":17}","true","ArrowDown,ArrowRight","","","","original","1","4","","",""
"html-keyboard-response","224","1007403","0.0-4.0-4.0-1.2","spark_pilot_2","7111","5","8","Male","","","","","","","null","<div style=""font-size:60px;"">+</div>","null","fixation","","","","","","","","","","","5","","",""
"revaluation","225","1011419","0.0-4.0-4.0-0.3","spark_pilot_2","7111","5","8","Male","","false","","","","","[823]","./assets/img/canyon/animals/lion.jpg","[""ArrowLeft""]","revaluation","canyon","26","{""ArrowUp,ArrowLeft"":26,""ArrowUp,ArrowRight"":10,""ArrowDown,ArrowLeft"":5,""ArrowDown,ArrowRight"":17}","true","ArrowUp,ArrowLeft","","","","original","1","6","","",""
"html-keyboard-response","226","1011925","0.0-4.0-4.0-1.3","spark_pilot_2","7111","5","8","Male","","","","","","","null","<div style=""font-size:60px;"">+</div>","null","fixation","","","","","","","","","","","7","","",""
"revaluation","227","1015937","0.0-4.0-4.0-0.4","spark_pilot_2","7111","5","8","Male","","false","","","","","[887.8000000119209]","./assets/img/canyon/animals/lion.jpg","[""ArrowLeft""]","revaluation","canyon","26","{""ArrowUp,ArrowLeft"":26,""ArrowUp,ArrowRight"":10,""ArrowDown,ArrowLeft"":5,""ArrowDown,ArrowRight"":17}","true","ArrowUp,ArrowLeft","","","","original","1","8","","",""
"html-keyboard-response","228","1016442","0.0-4.0-4.0-1.4","spark_pilot_2","7111","5","8","Male","","","","","","","null","<div style=""font-size:60px;"">+</div>","null","fixation","","","","","","","","","","","9","","",""
"revaluation","229","1020459","0.0-4.0-4.0-0.5","spark_pilot_2","7111","5","8","Male","","false","","","","","[721.7999999970198]","./assets/img/canyon/animals/lion.jpg","[""ArrowLeft""]","revaluation","canyon","26","{""ArrowUp,ArrowLeft"":26,""ArrowUp,ArrowRight"":10,""ArrowDown,ArrowLeft"":5,""ArrowDown,ArrowRight"":17}","true","ArrowUp,ArrowLeft","","","","original","1","10","","",""
"html-keyboard-response","230","1020962","0.0-4.0-4.0-1.5","spark_pilot_2","7111","5","8","Male","","","","","","","null","<div style=""font-size:60px;"">+</div>","null","fixation","","","","","","","","","","","11","","",""
"revaluation","231","1024979","0.0-4.0-4.0-0.6","spark_pilot_2","7111","5","8","Male","","false","","","","","[828]","./assets/img/canyon/animals/giraffe.jpg","[""ArrowRight""]","revaluation","canyon","17","{""ArrowUp,ArrowLeft"":26,""ArrowUp,ArrowRight"":10,""ArrowDown,ArrowLeft"":5,""ArrowDown,ArrowRight"":17}","true","ArrowDown,ArrowRight","","","","original","1","12","","",""
"html-keyboard-response","232","1025481","0.0-4.0-4.0-1.6","spark_pilot_2","7111","5","8","Male","","","","","","","null","<div style=""font-size:60px;"">+</div>","null","fixation","","","","","","","","","","","13","","",""
"revaluation","233","1029499","0.0-4.0-4.0-0.7","spark_pilot_2","7111","5","8","Male","","false","","","","","[1177]","./assets/img/canyon/animals/lion.jpg","[""ArrowLeft""]","revaluation","canyon","26","{""ArrowUp,ArrowLeft"":26,""ArrowUp,ArrowRight"":10,""ArrowDown,ArrowLeft"":5,""ArrowDown,ArrowRight"":17}","true","ArrowUp,ArrowLeft","","","","original","1","14","","",""
"html-keyboard-response","234","1030003","0.0-4.0-4.0-1.7","spark_pilot_2","7111","5","8","Male","","","","","","","null","<div style=""font-size:60px;"">+</div>","null","fixation","","","","","","","","","","","15","","",""
"revaluation","235","1034021","0.0-4.0-4.0-0.8","spark_pilot_2","7111","5","8","Male","","false","","","","","[741.4000000059605]","./assets/img/canyon/animals/giraffe.jpg","[""ArrowRight""]","revaluation","canyon","17","{""ArrowUp,ArrowLeft"":26,""ArrowUp,ArrowRight"":10,""ArrowDown,ArrowLeft"":5,""ArrowDown,ArrowRight"":17}","true","ArrowDown,ArrowRight","","","","original","1","16","","",""
"html-keyboard-response","236","1034531","0.0-4.0-4.0-1.8","spark_pilot_2","7111","5","8","Male","","","","","","","null","<div style=""font-size:60px;"">+</div>","null","fixation","","","","","","","","","","","17","","",""
"revaluation","237","1038549","0.0-4.0-4.0-0.9","spark_pilot_2","7111","5","8","Male","","false","","","","","[608.3999999910593]","./assets/img/canyon/animals/giraffe.jpg","[""ArrowLeft""]","revaluation","canyon","5","{""ArrowUp,ArrowLeft"":26,""ArrowUp,ArrowRight"":10,""ArrowDown,ArrowLeft"":5,""ArrowDown,ArrowRight"":17}","false","ArrowDown,ArrowLeft","","","","original","1","18","","",""
"html-keyboard-response","238","1039059","0.0-4.0-4.0-1.9","spark_pilot_2","7111","5","8","Male","","","","","","","null","<div style=""font-size:60px;"">+</div>","null","fixation","","","","","","","","","","","19","","",""
"revaluation","239","1043076","0.0-4.0-4.0-0.10","spark_pilot_2","7111","5","8","Male","","false","","","","","[673.5]","./assets/img/canyon/animals/giraffe.jpg","[""ArrowRight""]","revaluation","canyon","17","{""ArrowUp,ArrowLeft"":26,""ArrowUp,ArrowRight"":10,""ArrowDown,ArrowLeft"":5,""ArrowDown,ArrowRight"":17}","true","ArrowDown,ArrowRight","","","","original","1","20","","",""
"html-keyboard-response","240","1043586","0.0-4.0-4.0-1.10","spark_pilot_2","7111","5","8","Male","","","","","","","null","<div style=""font-size:60px;"">+</div>","null","fixation","","","","","","","","","","","21","","",""
"revaluation","241","1047604","0.0-4.0-4.0-0.11","spark_pilot_2","7111","5","8","Male","","false","","","","","[670.5]","./assets/img/canyon/animals/giraffe.jpg","[""ArrowRight""]","revaluation","canyon","17","{""ArrowUp,ArrowLeft"":26,""ArrowUp,ArrowRight"":10,""ArrowDown,ArrowLeft"":5,""ArrowDown,ArrowRight"":17}","true","ArrowDown,ArrowRight","","","","original","1","22","","",""
"html-keyboard-response","242","1048114","0.0-4.0-4.0-1.11","spark_pilot_2","7111","5","8","Male","","","","","","","null","<div style=""font-size:60px;"">+</div>","null","fixation","","","","","","","","","","","23","","",""
"revaluation","243","1052132","0.0-4.0-4.0-0.12","spark_pilot_2","7111","5","8","Male","","false","","","","","[707.7000000029802]","./assets/img/canyon/animals/giraffe.jpg","[""ArrowRight""]","revaluation","canyon","17","{""ArrowUp,ArrowLeft"":26,""ArrowUp,ArrowRight"":10,""ArrowDown,ArrowLeft"":5,""ArrowDown,ArrowRight"":17}","true","ArrowDown,ArrowRight","","","","original","1","24","","",""
"html-keyboard-response","244","1052643","0.0-4.0-4.0-1.12","spark_pilot_2","7111","5","8","Male","","","","","","","null","<div style=""font-size:60px;"">+</div>","null","fixation","","","","","","","","","","","25","","",""
"revaluation","245","1056660","0.0-4.0-4.0-0.13","spark_pilot_2","7111","5","8","Male","","false","","","","","[606.5]","./assets/img/canyon/animals/lion.jpg","[""ArrowLeft""]","revaluation","canyon","26","{""ArrowUp,ArrowLeft"":26,""ArrowUp,ArrowRight"":10,""ArrowDown,ArrowLeft"":5,""ArrowDown,ArrowRight"":17}","true","ArrowUp,ArrowLeft","","","","original","1","26","","",""
"html-keyboard-response","246","1057170","0.0-4.0-4.0-1.13","spark_pilot_2","7111","5","8","Male","","","","","","","null","<div style=""font-size:60px;"">+</div>","null","fixation","","","","","","","","","","","27","","",""
"revaluation","247","1061188","0.0-4.0-4.0-0.14","spark_pilot_2","7111","5","8","Male","","false","","","","","[744.2999999970198]","./assets/img/canyon/animals/lion.jpg","[""ArrowLeft""]","revaluation","canyon","26","{""ArrowUp,ArrowLeft"":26,""ArrowUp,ArrowRight"":10,""ArrowDown,ArrowLeft"":5,""ArrowDown,ArrowRight"":17}","true","ArrowUp,ArrowLeft","","","","original","1","28","","",""
"html-keyboard-response","248","1061699","0.0-4.0-4.0-1.14","spark_pilot_2","7111","5","8","Male","","","","","","","null","<div style=""font-size:60px;"">+</div>","null","fixation","","","","","","","","","","","29","","",""
"revaluation","249","1065716","0.0-4.0-4.0-0.15","spark_pilot_2","7111","5","8","Male","","false","","","","","[560.2000000029802]","./assets/img/canyon/animals/lion.jpg","[""ArrowLeft""]","revaluation","canyon","26","{""ArrowUp,ArrowLeft"":26,""ArrowUp,ArrowRight"":10,""ArrowDown,ArrowLeft"":5,""ArrowDown,ArrowRight"":17}","true","ArrowUp,ArrowLeft","","","","original","1","30","","",""
"html-keyboard-response","250","1066226","0.0-4.0-4.0-1.15","spark_pilot_2","7111","5","8","Male","","","","","","","null","<div style=""font-size:60px;"">+</div>","null","fixation","","","","","","","","","","","31","","",""
"revaluation","251","1070244","0.0-4.0-4.0-0.16","spark_pilot_2","7111","5","8","Male","","false","","","","","[667.5]","./assets/img/canyon/animals/lion.jpg","[""ArrowLeft""]","revaluation","canyon","26","{""ArrowUp,ArrowLeft"":26,""ArrowUp,ArrowRight"":10,""ArrowDown,ArrowLeft"":5,""ArrowDown,ArrowRight"":17}","true","ArrowUp,ArrowLeft","","","","original","1","32","","",""
"html-keyboard-response","252","1070754","0.0-4.0-4.0-1.16","spark_pilot_2","7111","5","8","Male","","","","","","","null","<div style=""font-size:60px;"">+</div>","null","fixation","","","","","","","","","","","33","","",""
"revaluation","253","1074772","0.0-4.0-4.0-0.17","spark_pilot_2","7111","5","8","Male","","false","","","","","[395.20000000298023]","./assets/img/canyon/animals/giraffe.jpg","[""ArrowLeft""]","revaluation","canyon","5","{""ArrowUp,ArrowLeft"":26,""ArrowUp,ArrowRight"":10,""ArrowDown,ArrowLeft"":5,""ArrowDown,ArrowRight"":17}","false","ArrowDown,ArrowLeft","","","","original","1","34","","",""
"html-keyboard-response","254","1075282","0.0-4.0-4.0-1.17","spark_pilot_2","7111","5","8","Male","","","","","","","null","<div style=""font-size:60px;"">+</div>","null","fixation","","","","","","","","","","","35","","",""
"learning-instructions","255","1088728","0.0-4.0-5.0-0.0","spark_pilot_2","7111","5","8","Male","","","","","","","1860.2000000029802","<p> Time to play the dot game! </p>
            <p> For one minute, click the red dots on the following screen as they appear. </p>
            <p><b> Don't look away, as you will earn bonus for clicking dots</b>. </p>","","instructions","","","","","","","","","","","","","",""
"revaluation","256","1148736","0.0-4.0-6.0-0.0","spark_pilot_2","7111","5","8","Male","","","","","","","[100,279,121,121,116,325,115]","","","rest","","70","","","","","0","60000","","","","","",""
"learning-instructions","257","1156927","0.0-4.0-7.0-0.0","spark_pilot_2","7111","5","8","Male","","","","","","","1955.2000000029802","<p> You have almost finished this part of the game! </p>
            <p> We are going to ask you to make a few more choices. </p>","","instructions","","","","","","","","","","","","","",""
"learning-instructions","258","1172765","0.0-4.0-7.0-0.1","spark_pilot_2","7111","5","8","Male","","","","","","","1864.5999999940395","<p> First, you need to decide whether to go up or down. When you see each picture, use the arrow keys to make your choice. </p>
            <p><b>You will not see which animal you found, but try to get to the one that will give you the most treasure.</b></p>","","instructions","","","","","","","","","","","","","",""
"revaluation","259","1174225","0.0-4.0-8.0-0.0","spark_pilot_2","7111","5","8","Male","","false","","","","","[1456.4000000059605]","./assets/img/canyon/test/0.jpg","[""ArrowUp""]","first stage test","canyon","0","{""ArrowUp,ArrowLeft"":26,""ArrowUp,ArrowRight"":10,""ArrowDown,ArrowLeft"":5,""ArrowDown,ArrowRight"":17}","true","ArrowUp","false","","","original","1","","","",""
"html-keyboard-response","260","1174729","0.0-4.0-8.0-1.0","spark_pilot_2","7111","5","8","Male","","","","","","","null","<div style=""font-size:60px;"">+</div>","null","fixation","","","","","","","","","","","","","",""
"revaluation","261","1175340","0.0-4.0-8.0-0.1","spark_pilot_2","7111","5","8","Male","","false","","","","","[608.2999999970198]","./assets/img/canyon/test/3.jpg","[""ArrowUp""]","first stage test","canyon","0","{""ArrowUp,ArrowLeft"":26,""ArrowUp,ArrowRight"":10,""ArrowDown,ArrowLeft"":5,""ArrowDown,ArrowRight"":17}","true","ArrowUp","false","","","original","1","","","",""
"html-keyboard-response","262","1175850","0.0-4.0-8.0-1.1","spark_pilot_2","7111","5","8","Male","","","","","","","null","<div style=""font-size:60px;"">+</div>","null","fixation","","","","","","","","","","","","","",""
"revaluation","263","1176389","0.0-4.0-8.0-0.2","spark_pilot_2","7111","5","8","Male","","false","","","","","[536.5999999940395]","./assets/img/canyon/test/2.jpg","[""ArrowUp""]","first stage test","canyon","0","{""ArrowUp,ArrowLeft"":26,""ArrowUp,ArrowRight"":10,""ArrowDown,ArrowLeft"":5,""ArrowDown,ArrowRight"":17}","true","ArrowUp","false","","","original","1","","","",""
"html-keyboard-response","264","1176896","0.0-4.0-8.0-1.2","spark_pilot_2","7111","5","8","Male","","","","","","","null","<div style=""font-size:60px;"">+</div>","null","fixation","","","","","","","","","","","","","",""
"revaluation","265","1177381","0.0-4.0-8.0-0.3","spark_pilot_2","7111","5","8","Male","","false","","","","","[483.20000000298023]","./assets/img/canyon/test/1.jpg","[""ArrowUp""]","first stage test","canyon","0","{""ArrowUp,ArrowLeft"":26,""ArrowUp,ArrowRight"":10,""ArrowDown,ArrowLeft"":5,""ArrowDown,ArrowRight"":17}","true","ArrowUp","false","","","original","1","","","",""
"html-keyboard-response","266","1177889","0.0-4.0-8.0-1.3","spark_pilot_2","7111","5","8","Male","","","","","","","null","<div style=""font-size:60px;"">+</div>","null","fixation","","","","","","","","","","","","","",""
"learning-instructions","267","1190785","0.0-4.0-9.0-0.0","spark_pilot_2","7111","5","8","Male","","","","","","","1552","<p> Now you will see the animals again and can search their chests for treasure. </p>
            <p> This time, you will not see how much treasure you earned, but you will earn more bonus money for making better choices. </p>","","instructions","","","","","","","","","","","","","",""
"revaluation","268","1191774","0.0-4.0-10.0-0.0","spark_pilot_2","7111","5","8","Male","","false","","","","","[987.3999999910593]","./assets/img/canyon/animals/lion.jpg","[""ArrowLeft""]","second stage test","canyon","0","{""ArrowUp,ArrowLeft"":26,""ArrowUp,ArrowRight"":10,""ArrowDown,ArrowLeft"":5,""ArrowDown,ArrowRight"":17}","true","ArrowUp,ArrowLeft","","","","original","1","","","",""
"html-keyboard-response","269","1192282","0.0-4.0-10.0-1.0","spark_pilot_2","7111","5","8","Male","","","","","","","null","<div style=""font-size:60px;"">+</div>","null","fixation","","","","","","","","","","","","","",""
"revaluation","270","1192802","0.0-4.0-10.0-0.1","spark_pilot_2","7111","5","8","Male","","false","","","","","[517.1000000089407]","./assets/img/canyon/animals/lion.jpg","[""ArrowLeft""]","second stage test","canyon","0","{""ArrowUp,ArrowLeft"":26,""ArrowUp,ArrowRight"":10,""ArrowDown,ArrowLeft"":5,""ArrowDown,ArrowRight"":17}","true","ArrowUp,ArrowLeft","","","","original","1","","","",""
"html-keyboard-response","271","1193309","0.0-4.0-10.0-1.1","spark_pilot_2","7111","5","8","Male","","","","","","","null","<div style=""font-size:60px;"">+</div>","null","fixation","","","","","","","","","","","","","",""
"revaluation","272","1193715","0.0-4.0-10.0-0.2","spark_pilot_2","7111","5","8","Male","","false","","","","","[403.29999999701977]","./assets/img/canyon/animals/lion.jpg","[""ArrowLeft""]","second stage test","canyon","0","{""ArrowUp,ArrowLeft"":26,""ArrowUp,ArrowRight"":10,""ArrowDown,ArrowLeft"":5,""ArrowDown,ArrowRight"":17}","true","ArrowUp,ArrowLeft","","","","original","1","","","",""
"html-keyboard-response","273","1194219","0.0-4.0-10.0-1.2","spark_pilot_2","7111","5","8","Male","","","","","","","null","<div style=""font-size:60px;"">+</div>","null","fixation","","","","","","","","","","","","","",""
"revaluation","274","1194934","0.0-4.0-10.0-0.3","spark_pilot_2","7111","5","8","Male","","false","","","","","[713]","./assets/img/canyon/animals/lion.jpg","[""ArrowLeft""]","second stage test","canyon","0","{""ArrowUp,ArrowLeft"":26,""ArrowUp,ArrowRight"":10,""ArrowDown,ArrowLeft"":5,""ArrowDown,ArrowRight"":17}","true","ArrowUp,ArrowLeft","","","","original","1","","","",""
"html-keyboard-response","275","1195444","0.0-4.0-10.0-1.3","spark_pilot_2","7111","5","8","Male","","","","","","","null","<div style=""font-size:60px;"">+</div>","null","fixation","","","","","","","","","","","","","",""
"revaluation","276","1196084","0.0-4.0-10.0-0.4","spark_pilot_2","7111","5","8","Male","","false","","","","","[638.2000000029802]","./assets/img/canyon/animals/giraffe.jpg","[""ArrowLeft""]","second stage test","canyon","0","{""ArrowUp,ArrowLeft"":26,""ArrowUp,ArrowRight"":10,""ArrowDown,ArrowLeft"":5,""ArrowDown,ArrowRight"":17}","false","ArrowDown,ArrowLeft","","","","original","1","","","",""
"html-keyboard-response","277","1196586","0.0-4.0-10.0-1.4","spark_pilot_2","7111","5","8","Male","","","","","","","null","<div style=""font-size:60px;"">+</div>","null","fixation","","","","","","","","","","","","","",""
"revaluation","278","1197724","0.0-4.0-10.0-0.5","spark_pilot_2","7111","5","8","Male","","false","","","","","[1135.0999999940395]","./assets/img/canyon/animals/giraffe.jpg","[""ArrowRight""]","second stage test","canyon","0","{""ArrowUp,ArrowLeft"":26,""ArrowUp,ArrowRight"":10,""ArrowDown,ArrowLeft"":5,""ArrowDown,ArrowRight"":17}","true","ArrowDown,ArrowRight","","","","original","1","","","",""
"html-keyboard-response","279","1198229","0.0-4.0-10.0-1.5","spark_pilot_2","7111","5","8","Male","","","","","","","null","<div style=""font-size:60px;"">+</div>","null","fixation","","","","","","","","","","","","","",""
"revaluation","280","1198899","0.0-4.0-10.0-0.6","spark_pilot_2","7111","5","8","Male","","false","","","","","[667.5999999940395]","./assets/img/canyon/animals/giraffe.jpg","[""ArrowRight""]","second stage test","canyon","0","{""ArrowUp,ArrowLeft"":26,""ArrowUp,ArrowRight"":10,""ArrowDown,ArrowLeft"":5,""ArrowDown,ArrowRight"":17}","true","ArrowDown,ArrowRight","","","","original","1","","","",""
"html-keyboard-response","281","1199403","0.0-4.0-10.0-1.6","spark_pilot_2","7111","5","8","Male","","","","","","","null","<div style=""font-size:60px;"">+</div>","null","fixation","","","","","","","","","","","","","",""
"revaluation","282","1200087","0.0-4.0-10.0-0.7","spark_pilot_2","7111","5","8","Male","","false","","","","","[681.9000000059605]","./assets/img/canyon/animals/giraffe.jpg","[""ArrowRight""]","second stage test","canyon","0","{""ArrowUp,ArrowLeft"":26,""ArrowUp,ArrowRight"":10,""ArrowDown,ArrowLeft"":5,""ArrowDown,ArrowRight"":17}","true","ArrowDown,ArrowRight","","","","original","1","","","",""
"html-keyboard-response","283","1200593","0.0-4.0-10.0-1.7","spark_pilot_2","7111","5","8","Male","","","","","","","null","<div style=""font-size:60px;"">+</div>","null","fixation","","","","","","","","","","","","","",""
"learning-instructions","284","1204444","0.0-4.0-0.1-0.2","spark_pilot_2","7111","5","8","Male","","","","","","","1140","<p> This time you are searching for treasure in the <b>ocean</b>.</p>","","instructions","","","","","","","","","","","","","",""
"learning-instructions","285","1222426","0.0-4.0-0.1-0.3","spark_pilot_2","7111","5","8","Male","","","","","","","731.4000000059605","<p><b>New</b> animals with <b>new</b> treasure chests live here. You need to explore to discover where the animal with the best treasure chest is.</p>
                    <p> Like before, once you figure out which animal has the chest with the most treasure, you should try to get to that animal and select that chest! </p>","","instructions","","","","","","","","","","","","","",""
"learning-instructions","286","1238329","0.0-4.0-1.1-0.1","spark_pilot_2","7111","5","8","Male","","","","","","","1171.4000000059605","<p> Remember, when you see a picture of the place, use the up and down keys to <b>find an animal</b>.</p>
            <p> When you encounter an animal, you should use the left and right keys to <b>select a treasure chest</b>.</p>
            <p> Don't forget to look out for the robber! </p>","","instructions","","","","","","","","","","","","","",""
"revaluation","287","1244354","0.0-4.0-2.1-0.50","spark_pilot_2","7111","5","8","Male","","false","","","","","[1716,710.2999999970198]","./assets/img/ocean/memory/14.jpg","[""ArrowDown"",""ArrowRight""]","value training","ocean","30","{""ArrowUp,ArrowLeft"":23,""ArrowUp,ArrowRight"":10,""ArrowDown,ArrowLeft"":8,""ArrowDown,ArrowRight"":30}","true","ArrowDown,ArrowRight","false","","","revaluation","2","0","","",""
"html-keyboard-response","288","1244861","0.0-4.0-2.1-1.50","spark_pilot_2","7111","5","8","Male","","","","","","","null","<div style=""font-size:60px;"">+</div>","null","fixation","","","","","","","","","","","1","","",""
"revaluation","289","1250882","0.0-4.0-2.1-0.51","spark_pilot_2","7111","5","8","Male","","false","","","","","[474.5,525.0999999940395]","./assets/img/ocean/memory/30.jpg","[""ArrowDown"",""ArrowLeft""]","value training","ocean","8","{""ArrowUp,ArrowLeft"":23,""ArrowUp,ArrowRight"":10,""ArrowDown,ArrowLeft"":8,""ArrowDown,ArrowRight"":30}","false","ArrowDown,ArrowLeft","false","","","revaluation","2","2","","",""
"html-keyboard-response","290","1251386","0.0-4.0-2.1-1.51","spark_pilot_2","7111","5","8","Male","","","","","","","null","<div style=""font-size:60px;"">+</div>","null","fixation","","","","","","","","","","","3","","",""
"revaluation","291","1257410","0.0-4.0-2.1-0.52","spark_pilot_2","7111","5","8","Male","","false","","","","","[461,602.9000000059605]","./assets/img/ocean/memory/38.jpg","[""ArrowUp"",""ArrowLeft""]","value training","ocean","23","{""ArrowUp,ArrowLeft"":23,""ArrowUp,ArrowRight"":10,""ArrowDown,ArrowLeft"":8,""ArrowDown,ArrowRight"":30}","false","ArrowUp,ArrowLeft","false","","","revaluation","2","4","","",""
"html-keyboard-response","292","1257915","0.0-4.0-2.1-1.52","spark_pilot_2","7111","5","8","Male","","","","","","","null","<div style=""font-size:60px;"">+</div>","null","fixation","","","","","","","","","","","5","","",""
"revaluation","293","1263937","0.0-4.0-2.1-0.53","spark_pilot_2","7111","5","8","Male","","false","","","","","[1218.7000000029802,372.09999999403954]","./assets/img/ocean/memory/9.jpg","[""ArrowUp"",""ArrowRight""]","value training","ocean","10","{""ArrowUp,ArrowLeft"":23,""ArrowUp,ArrowRight"":10,""ArrowDown,ArrowLeft"":8,""ArrowDown,ArrowRight"":30}","false","ArrowUp,ArrowRight","false","","","revaluation","2","6","","",""
"html-keyboard-response","294","1264442","0.0-4.0-2.1-1.53","spark_pilot_2","7111","5","8","Male","","","","","","","null","<div style=""font-size:60px;"">+</div>","null","fixation","","","","","","","","","","","7","","",""
"revaluation","295","1270469","0.0-4.0-2.1-0.54","spark_pilot_2","7111","5","8","Male","","false","","","","","[1016.5,329]","./assets/img/ocean/memory/38.jpg","[""ArrowDown"",""ArrowRight""]","value training","ocean","30","{""ArrowUp,ArrowLeft"":23,""ArrowUp,ArrowRight"":10,""ArrowDown,ArrowLeft"":8,""ArrowDown,ArrowRight"":30}","true","ArrowDown,ArrowRight","false","","","revaluation","2","8","","",""
"html-keyboard-response","296","1270979","0.0-4.0-2.1-1.54","spark_pilot_2","7111","5","8","Male","","","","","","","null","<div style=""font-size:60px;"">+</div>","null","fixation","","","","","","","","","","","9","","",""
"revaluation","297","1277005","0.0-4.0-2.1-0.55","spark_pilot_2","7111","5","8","Male","","false","","","","","[500.79999999701977,589.5999999940395]","./assets/img/ocean/memory/1.jpg","[""ArrowDown"",""ArrowRight""]","value training","ocean","30","{""ArrowUp,ArrowLeft"":23,""ArrowUp,ArrowRight"":10,""ArrowDown,ArrowLeft"":8,""ArrowDown,ArrowRight"":30}","true","ArrowDown,ArrowRight","false","","","revaluation","2","10","","",""
"html-keyboard-response","298","1277515","0.0-4.0-2.1-1.55","spark_pilot_2","7111","5","8","Male","","","","","","","null","<div style=""font-size:60px;"">+</div>","null","fixation","","","","","","","","","","","11","","",""
"revaluation","299","1283541","0.0-4.0-2.1-0.56","spark_pilot_2","7111","5","8","Male","","false","","","","","[548.5,445.5]","./assets/img/ocean/memory/26.jpg","[""ArrowDown"",""ArrowRight""]","value training","ocean","30","{""ArrowUp,ArrowLeft"":23,""ArrowUp,ArrowRight"":10,""ArrowDown,ArrowLeft"":8,""ArrowDown,ArrowRight"":30}","true","ArrowDown,ArrowRight","false","","","revaluation","2","12","","",""
"html-keyboard-response","300","1284052","0.0-4.0-2.1-1.56","spark_pilot_2","7111","5","8","Male","","","","","","","null","<div style=""font-size:60px;"">+</div>","null","fixation","","","","","","","","","","","13","","",""
"revaluation","301","1290073","0.0-4.0-2.1-0.57","spark_pilot_2","7111","5","8","Male","","false","","","","","[1081.0999999940395,529.4000000059605]","./assets/img/ocean/memory/12.jpg","[""ArrowDown"",""ArrowRight""]","value training","ocean","30","{""ArrowUp,ArrowLeft"":23,""ArrowUp,ArrowRight"":10,""ArrowDown,ArrowLeft"":8,""ArrowDown,ArrowRight"":30}","true","ArrowDown,ArrowRight","false","","","revaluation","2","14","","",""
"html-keyboard-response","302","1290577","0.0-4.0-2.1-1.57","spark_pilot_2","7111","5","8","Male","","","","","","","null","<div style=""font-size:60px;"">+</div>","null","fixation","","","","","","","","","","","15","","",""
"revaluation","303","1296602","0.0-4.0-2.1-0.58","spark_pilot_2","7111","5","8","Male","","false","","","","","[392.5,589]","./assets/img/ocean/memory/20.jpg","[""ArrowDown"",""ArrowRight""]","value training","ocean","30","{""ArrowUp,ArrowLeft"":23,""ArrowUp,ArrowRight"":10,""ArrowDown,ArrowLeft"":8,""ArrowDown,ArrowRight"":30}","true","ArrowDown,ArrowRight","false","","","revaluation","2","16","","",""
"html-keyboard-response","304","1297107","0.0-4.0-2.1-1.58","spark_pilot_2","7111","5","8","Male","","","","","","","null","<div style=""font-size:60px;"">+</div>","null","fixation","","","","","","","","","","","17","","",""
"revaluation","305","1303133","0.0-4.0-2.1-0.59","spark_pilot_2","7111","5","8","Male","","false","","","","","[566.2999999970198,669.2000000029802]","./assets/img/ocean/memory/39.jpg","[""ArrowDown"",""ArrowRight""]","value training","ocean","30","{""ArrowUp,ArrowLeft"":23,""ArrowUp,ArrowRight"":10,""ArrowDown,ArrowLeft"":8,""ArrowDown,ArrowRight"":30}","true","ArrowDown,ArrowRight","false","","","revaluation","2","18","","",""
"html-keyboard-response","306","1303644","0.0-4.0-2.1-1.59","spark_pilot_2","7111","5","8","Male","","","","","","","null","<div style=""font-size:60px;"">+</div>","null","fixation","","","","","","","","","","","19","","",""
"revaluation","307","1309666","0.0-4.0-2.1-0.60","spark_pilot_2","7111","5","8","Male","","false","","","","","[913.7999999970198,561.5]","./assets/img/ocean/memory/10.jpg","[""ArrowDown"",""ArrowRight""]","value training","ocean","30","{""ArrowUp,ArrowLeft"":23,""ArrowUp,ArrowRight"":10,""ArrowDown,ArrowLeft"":8,""ArrowDown,ArrowRight"":30}","true","ArrowDown,ArrowRight","false","","","revaluation","2","20","","",""
"html-keyboard-response","308","1310169","0.0-4.0-2.1-1.60","spark_pilot_2","7111","5","8","Male","","","","","","","null","<div style=""font-size:60px;"">+</div>","null","fixation","","","","","","","","","","","21","","",""
"revaluation","309","1316193","0.0-4.0-2.1-0.61","spark_pilot_2","7111","5","8","Male","","false","","","","","[1746.5,554.2000000029802]","./assets/img/ocean/memory/8.jpg","[""ArrowDown"",""ArrowRight""]","value training","ocean","30","{""ArrowUp,ArrowLeft"":23,""ArrowUp,ArrowRight"":10,""ArrowDown,ArrowLeft"":8,""ArrowDown,ArrowRight"":30}","true","ArrowDown,ArrowRight","false","","","revaluation","2","22","","",""
"html-keyboard-response","310","1316699","0.0-4.0-2.1-1.61","spark_pilot_2","7111","5","8","Male","","","","","","","null","<div style=""font-size:60px;"">+</div>","null","fixation","","","","","","","","","","","23","","",""
