"trial_type","trial_index","time_elapsed","internal_node_id","task_version","subject_id","assigned_condition","age","gender","success","timeout","failed_images","failed_audio","failed_video","browser_interaction","rt","stimulus","response","task_part","environment","score","rewardMap","correct","fullState","isCatch","numberMissed","duration","condition","order","trial_num","key_press","ground_truth","bonus"
"pavlovia","0","2629","0.0-0.0","spark_pilot_2","7390","3","16","Male","","","","","","","","","","","","","","","","","","","","","","","",""
"preload","1","13766","0.0-1.0","spark_pilot_2","7390","3","16","Male","true","false","[]","[]","[]","[{""event"":""fullscreenenter"",""trial"":2,""time"":17918}]","","","","","","","","","","","","","","","","","",""
"fullscreen","2","18899","0.0-2.0","spark_pilot_2","7390","3","16","Male","true","","","","","","","","","","","","","","","","","","","","","","",""
"audio-button-response","3","23250","0.0-3.0-0.0-0.0","spark_pilot_2","7390","3","16","Male","","","","","","","4320","./assets/audio/audiotest/turtle.mp3","4","audio_test","","","","","","","","","","","","","",""
"audio-button-response","4","26226","0.0-3.0-0.1-0.1","spark_pilot_2","7390","3","16","Male","","","","","","","1949","./assets/audio/audiotest/turtle.mp3","2","audio_test","","","","","","","","","","","","","",""
"learning-instructions","5","35299","0.0-3.0-1.0-0.0","spark_pilot_2","7390","3","16","Male","","","","","","","2092.300000000745","<p> Welcome! Please remember to stay in fullscreen mode and don't click away from the experiment. </p>","","instructions","","","","","","","","","","","","","",""
"learning-instructions","6","70211","0.0-3.0-1.0-0.1","spark_pilot_2","7390","3","16","Male","","","","","","","26513.5","<p> Today you will be playing a game to earn treasure. </p>
            <p> At the end of the experiment, you will earn a bonus based on how much treasure you find. </p>
            <img src='./assets/img/instructions/treasure.jpg' class='instructions-image'>","","instructions","","","","","","","","","","","","","",""
"learning-instructions","7","79859","0.0-3.0-1.0-0.2","spark_pilot_2","7390","3","16","Male","","","","","","","1391.5999999977648","<p> Animals have hidden treasure in treasure chests. </p>
            <p> You need to first find an animal and then choose which of their treasure chests to search. </p>
            <img src='./assets/img/space/animals/cat.jpg' class='instructions-image'>","","instructions","","","","","","","","","","","","","",""
"learning-instructions","8","94835","0.0-3.0-1.0-0.3","spark_pilot_2","7390","3","16","Male","","","","","","","1827.4000000022352","<p> In each round, you will search for treasure in a different place. In the real game, there will be two rounds. </p>
            <p> You will begin with a separate, practice round where you will search for treasure in outer space. </p>
            <img src='./assets/img/space/0.jpg' class='instructions-image'>","","instructions","","","","","","","","","","","","","",""
"learning-instructions","9","108876","0.0-3.0-1.0-0.4","spark_pilot_2","7390","3","16","Male","","","","","","","2627.5","<p> On every turn, you will see a picture of the place that you are in, but the specific image may be different each time. </p>
            <p> For example, both of these images mean you are in outer space. </p>
            <img src='./assets/img/instructions/outerspace.jpg' class='instructions-image'>","","instructions","","","","","","","","","","","","","",""
"learning-instructions","10","118283","0.0-3.0-1.0-0.5","spark_pilot_2","7390","3","16","Male","","","","","","","1585.3999999985099","<p> You need to decide which direction to travel in. </p>
            <p> You can choose between going <b>up or down</b> by using the arrow keys. </p>
            <img src='./assets/img/instructions/updown.jpg' class='instructions-image'>","","instructions","","","","","","","","","","","","","",""
"learning-instructions","11","130604","0.0-3.0-1.0-0.6","spark_pilot_2","7390","3","16","Male","","","","","","","3515.60000000149","<p> You will have <b>2 seconds</b> to make your choice. </p>
            <p> If you do not make a choice within 2 seconds, you will not find an animal or earn treasure. </p>
            <img src='./assets/img/instructions/2seconds.jpg' class='instructions-image'>","","instructions","","","","","","","","","","","","","",""
"learning-instructions","12","139732","0.0-3.0-1.0-0.7","spark_pilot_2","7390","3","16","Male","","","","","","","2103.5","<p> Let’s try practicing that now! </p>
            <p> When you see a picture of the place you are in, press the <b>up</b> key to travel up. </p>
            <img src='./assets/img/instructions/pressUp.jpg' class='instructions-image'>","","instructions","","","","","","","","","","","","","",""
"revaluation","13","143768","0.0-3.0-2.0-0.0","spark_pilot_2","7390","3","16","Male","","true","","","","","[]","./assets/img/space/0.jpg","[]","first stage practice","space","-5","null","null","","false","","","","","","","",""
"html-keyboard-response","14","144278","0.0-3.0-2.0-1.0","spark_pilot_2","7390","3","16","Male","","","","","","","null","<div style=""font-size:60px;"">+</div>","null","fixation","","","","","","","","","","","","","",""
"revaluation","15","148298","0.0-3.0-2.0-0.1","spark_pilot_2","7390","3","16","Male","","false","","","","","[748.8000000007451]","./assets/img/space/1.jpg","[""ArrowUp""]","first stage practice","space","0","null","null","ArrowUp","false","","","","","","","",""
"html-keyboard-response","16","148817","0.0-3.0-2.0-1.1","spark_pilot_2","7390","3","16","Male","","","","","","","null","<div style=""font-size:60px;"">+</div>","null","fixation","","","","","","","","","","","","","",""
"revaluation","17","152858","0.0-3.0-2.0-0.2","spark_pilot_2","7390","3","16","Male","","false","","","","","[1017.0999999977648]","./assets/img/space/2.jpg","[""ArrowUp""]","first stage practice","space","0","null","null","ArrowUp","false","","","","","","","",""
"html-keyboard-response","18","153378","0.0-3.0-2.0-1.2","spark_pilot_2","7390","3","16","Male","","","","","","","null","<div style=""font-size:60px;"">+</div>","null","fixation","","","","","","","","","","","","","",""
"learning-instructions","19","159461","0.0-3.0-3.0-0.0","spark_pilot_2","7390","3","16","Male","","","","","","","1391.800000000745","<p> Great job! Now try pressing the <b>down</b> key to travel down. </p>
            <img src='./assets/img/instructions/pressDown.jpg' class='instructions-image'>","","instructions","","","","","","","","","","","","","",""
"revaluation","20","163488","0.0-3.0-4.0-0.0","spark_pilot_2","7390","3","16","Male","","false","","","","","[1086.5]","./assets/img/space/3.jpg","[""ArrowDown""]","first stage practice","space","0","null","null","ArrowDown","false","","","","","","","",""
"html-keyboard-response","21","164008","0.0-3.0-4.0-1.0","spark_pilot_2","7390","3","16","Male","","","","","","","null","<div style=""font-size:60px;"">+</div>","null","fixation","","","","","","","","","","","","","",""
"revaluation","22","168038","0.0-3.0-4.0-0.1","spark_pilot_2","7390","3","16","Male","","false","","","","","[275.0999999977648]","./assets/img/space/4.jpg","[""ArrowDown""]","first stage practice","space","0","null","null","ArrowDown","false","","","","","","","",""
"html-keyboard-response","23","168557","0.0-3.0-4.0-1.1","spark_pilot_2","7390","3","16","Male","","","","","","","null","<div style=""font-size:60px;"">+</div>","null","fixation","","","","","","","","","","","","","",""
"revaluation","24","172588","0.0-3.0-4.0-0.2","spark_pilot_2","7390","3","16","Male","","false","","","","","[45.30000000074506]","./assets/img/space/5.jpg","[""ArrowDown""]","first stage practice","space","0","null","null","ArrowDown","false","","","","","","","",""
"html-keyboard-response","25","173108","0.0-3.0-4.0-1.2","spark_pilot_2","7390","3","16","Male","","","","","","","null","<div style=""font-size:60px;"">+</div>","null","fixation","","","","","","","","","","","","","",""
"learning-instructions","26","184285","0.0-3.0-5.0-0.0","spark_pilot_2","7390","3","16","Male","","","","","","","1335.800000000745","<p> The animals don’t move, so the animal in the upper part of a place will stay in the upper part of a place, and the animal in the lower part of a place will stay in the lower part of a place. </p>","","instructions","","","","","","","","","","","","","",""
"learning-instructions","27","196413","0.0-3.0-5.0-0.1","spark_pilot_2","7390","3","16","Male","","","","","","","3003.7000000029802","<p> Each animal has two treasure chests for you to choose from. </p>
            <p> The amount of treasure in each chest can range from <b> 0 to 40 pieces.</b></p>","","instructions","","","","","","","","","","","","","",""
"learning-instructions","28","209869","0.0-3.0-5.0-0.2","spark_pilot_2","7390","3","16","Male","","","","","","","2279.599999997765","<p> You should decide which chest to search for treasure by using the <b>left</b> and <b>right</b> arrow keys. </p>
            <p><b> Pay attention to which animal is on the screen, as the animals have different treasure chests. </b></p>
            <img src='./assets/img/instructions/leftright.jpg' class='instructions-image'>","","instructions","","","","","","","","","","","","","",""
"learning-instructions","29","217165","0.0-3.0-5.0-0.3","spark_pilot_2","7390","3","16","Male","","","","","","","945.6999999992549","<p> Let’s try practicing that now. </p>
            <p> When you see an animal, choose which chest to search for treasure. </p>
            <img src='./assets/img/instructions/chooseChest.jpg' class='instructions-image'>","","instructions","","","","","","","","","","","","","",""
"revaluation","30","221200","0.0-3.0-6.0-0.0","spark_pilot_2","7390","3","16","Male","","false","","","","","[1334.3999999985099]","./assets/img/space/animals/cat.jpg","[""ArrowRight""]","second stage practice","space","36","{""ArrowUp,ArrowLeft"":3,""ArrowUp,ArrowRight"":36,""ArrowDown,ArrowLeft"":15,""ArrowDown,ArrowRight"":23}","true","ArrowUp,ArrowRight","","","","","","","","",""
"html-keyboard-response","31","221718","0.0-3.0-6.0-1.0","spark_pilot_2","7390","3","16","Male","","","","","","","null","<div style=""font-size:60px;"">+</div>","null","fixation","","","","","","","","","","","","","",""
"revaluation","32","225758","0.0-3.0-6.0-0.1","spark_pilot_2","7390","3","16","Male","","false","","","","","[533.1000000014901]","./assets/img/space/animals/cat.jpg","[""ArrowLeft""]","second stage practice","space","3","{""ArrowUp,ArrowLeft"":3,""ArrowUp,ArrowRight"":36,""ArrowDown,ArrowLeft"":15,""ArrowDown,ArrowRight"":23}","false","ArrowUp,ArrowLeft","","","","","","","","",""
"html-keyboard-response","33","226268","0.0-3.0-6.0-1.1","spark_pilot_2","7390","3","16","Male","","","","","","","null","<div style=""font-size:60px;"">+</div>","null","fixation","","","","","","","","","","","","","",""
"revaluation","34","230308","0.0-3.0-6.0-0.2","spark_pilot_2","7390","3","16","Male","","false","","","","","[695.3000000007451]","./assets/img/space/animals/rabbit.jpg","[""ArrowRight""]","second stage practice","space","23","{""ArrowUp,ArrowLeft"":3,""ArrowUp,ArrowRight"":36,""ArrowDown,ArrowLeft"":15,""ArrowDown,ArrowRight"":23}","true","ArrowDown,ArrowRight","","","","","","","","",""
"html-keyboard-response","35","230828","0.0-3.0-6.0-1.2","spark_pilot_2","7390","3","16","Male","","","","","","","null","<div style=""font-size:60px;"">+</div>","null","fixation","","","","","","","","","","","","","",""
"revaluation","36","234868","0.0-3.0-6.0-0.3","spark_pilot_2","7390","3","16","Male","","false","","","","","[831.1999999992549]","./assets/img/space/animals/rabbit.jpg","[""ArrowRight""]","second stage practice","space","23","{""ArrowUp,ArrowLeft"":3,""ArrowUp,ArrowRight"":36,""ArrowDown,ArrowLeft"":15,""ArrowDown,ArrowRight"":23}","true","ArrowDown,ArrowRight","","","","","","","","",""
"html-keyboard-response","37","235388","0.0-3.0-6.0-1.3","spark_pilot_2","7390","3","16","Male","","","","","","","null","<div style=""font-size:60px;"">+</div>","null","fixation","","","","","","","","","","","","","",""
"learning-instructions","38","254430","0.0-3.0-7.0-0.0","spark_pilot_2","7390","3","16","Male","","","","","","","2239.699999999255","<p> Great job. Now let’s try putting it together. </p>
            <p> On each turn, you will first see a picture to remind you of the place you are in, and you need to choose whether to go up or down. </p>
            <p> Then you will see an animal and choose which of its chests to search for treasure. </p>","","instructions","","","","","","","","","","","","","",""
"learning-instructions","39","264534","0.0-3.0-7.0-0.1","spark_pilot_2","7390","3","16","Male","","","","","","","1843.800000000745","<p> When you choose whether to go up or down, try to go to the animal with the chest with the most treasure. </p>
            <p> Try practicing that now! </p>","","instructions","","","","","","","","","","","","","",""
"revaluation","40","270579","0.0-3.0-8.0-0.0","spark_pilot_2","7390","3","16","Male","","false","","","","","[750.8000000007451,1008.6999999992549]","./assets/img/space/6.jpg","[""ArrowUp"",""ArrowRight""]","full practice","space","36","{""ArrowUp,ArrowLeft"":3,""ArrowUp,ArrowRight"":36,""ArrowDown,ArrowLeft"":15,""ArrowDown,ArrowRight"":23}","true","ArrowUp,ArrowRight","false","","","","","","","",""
"html-keyboard-response","41","271084","0.0-3.0-8.0-1.0","spark_pilot_2","7390","3","16","Male","","","","","","","null","<div style=""font-size:60px;"">+</div>","null","fixation","","","","","","","","","","","","","",""
"revaluation","42","277149","0.0-3.0-8.0-0.1","spark_pilot_2","7390","3","16","Male","","false","","","","","[1239.5,1000.8000000007451]","./assets/img/space/7.jpg","[""ArrowDown"",""ArrowLeft""]","full practice","space","15","{""ArrowUp,ArrowLeft"":3,""ArrowUp,ArrowRight"":36,""ArrowDown,ArrowLeft"":15,""ArrowDown,ArrowRight"":23}","false","ArrowDown,ArrowLeft","false","","","","","","","",""
"html-keyboard-response","43","277669","0.0-3.0-8.0-1.1","spark_pilot_2","7390","3","16","Male","","","","","","","null","<div style=""font-size:60px;"">+</div>","null","fixation","","","","","","","","","","","","","",""
"revaluation","44","283719","0.0-3.0-8.0-0.2","spark_pilot_2","7390","3","16","Male","","false","","","","","[1447.4000000022352,734.6999999992549]","./assets/img/space/8.jpg","[""ArrowUp"",""ArrowRight""]","full practice","space","36","{""ArrowUp,ArrowLeft"":3,""ArrowUp,ArrowRight"":36,""ArrowDown,ArrowLeft"":15,""ArrowDown,ArrowRight"":23}","true","ArrowUp,ArrowRight","false","","","","","","","",""
"html-keyboard-response","45","284229","0.0-3.0-8.0-1.2","spark_pilot_2","7390","3","16","Male","","","","","","","null","<div style=""font-size:60px;"">+</div>","null","fixation","","","","","","","","","","","","","",""
"revaluation","46","290279","0.0-3.0-8.0-0.3","spark_pilot_2","7390","3","16","Male","","false","","","","","[1119.3999999985099,668.6999999992549]","./assets/img/space/9.jpg","[""ArrowUp"",""ArrowLeft""]","full practice","space","3","{""ArrowUp,ArrowLeft"":3,""ArrowUp,ArrowRight"":36,""ArrowDown,ArrowLeft"":15,""ArrowDown,ArrowRight"":23}","false","ArrowUp,ArrowLeft","false","","","","","","","",""
"html-keyboard-response","47","290799","0.0-3.0-8.0-1.3","spark_pilot_2","7390","3","16","Male","","","","","","","null","<div style=""font-size:60px;"">+</div>","null","fixation","","","","","","","","","","","","","",""
"revaluation","48","296802","0.0-3.0-8.0-0.4","spark_pilot_2","7390","3","16","Male","","false","","","","","[1645.2999999970198,516.6999999992549]","./assets/img/space/10.jpg","[""ArrowUp"",""ArrowRight""]","full practice","space","36","{""ArrowUp,ArrowLeft"":3,""ArrowUp,ArrowRight"":36,""ArrowDown,ArrowLeft"":15,""ArrowDown,ArrowRight"":23}","true","ArrowUp,ArrowRight","false","","","","","","","",""
"html-keyboard-response","49","297303","0.0-3.0-8.0-1.4","spark_pilot_2","7390","3","16","Male","","","","","","","null","<div style=""font-size:60px;"">+</div>","null","fixation","","","","","","","","","","","","","",""
"learning-instructions","50","309558","0.0-3.0-9.0-0.0","spark_pilot_2","7390","3","16","Male","","","","","","","1806.6000000014901","<p> One last thing: sometimes, you will see a robber. The robber can be anywhere in the picture. </p>
            <p> If you do not stop them, you will lose treasure. </p>
            <img src='./assets/img/instructions/robber.jpg' class='instructions-image'>","","instructions","","","","","","","","","","","","","",""
"learning-instructions","51","318519","0.0-3.0-9.0-0.1","spark_pilot_2","7390","3","16","Male","","","","","","","1796.7999999970198","<p> If you see the robber, you should <b>press the space bar</b> rather than using the arrow keys. </p>
            <p> Try practicing that now! </p>","","instructions","","","","","","","","","","","","","",""
"revaluation","52","322551","0.0-3.0-10.0-0.0","spark_pilot_2","7390","3","16","Male","","false","","","","","[1766.8999999985099]","./assets/img/space/catch/0.jpg","[""spaceBar""]","catch practice","space","0","{""ArrowUp,ArrowLeft"":3,""ArrowUp,ArrowRight"":36,""ArrowDown,ArrowLeft"":15,""ArrowDown,ArrowRight"":23}","true","spaceBar","true","","","","","","","",""
"html-keyboard-response","53","323071","0.0-3.0-10.0-1.0","spark_pilot_2","7390","3","16","Male","","","","","","","null","<div style=""font-size:60px;"">+</div>","null","fixation","","","","","","","","","","","","","",""
"revaluation","54","327111","0.0-3.0-10.0-0.1","spark_pilot_2","7390","3","16","Male","","false","","","","","[470.19999999925494]","./assets/img/space/catch/1.jpg","[""spaceBar""]","catch practice","space","0","{""ArrowUp,ArrowLeft"":3,""ArrowUp,ArrowRight"":36,""ArrowDown,ArrowLeft"":15,""ArrowDown,ArrowRight"":23}","true","spaceBar","true","","","","","","","",""
"html-keyboard-response","55","327631","0.0-3.0-10.0-1.1","spark_pilot_2","7390","3","16","Male","","","","","","","null","<div style=""font-size:60px;"">+</div>","null","fixation","","","","","","","","","","","","","",""
"revaluation","56","331661","0.0-3.0-10.0-0.2","spark_pilot_2","7390","3","16","Male","","false","","","","","[670.1999999992549]","./assets/img/space/catch/2.jpg","[""spaceBar""]","catch practice","space","0","{""ArrowUp,ArrowLeft"":3,""ArrowUp,ArrowRight"":36,""ArrowDown,ArrowLeft"":15,""ArrowDown,ArrowRight"":23}","true","spaceBar","true","","","","","","","",""
"html-keyboard-response","57","332171","0.0-3.0-10.0-1.2","spark_pilot_2","7390","3","16","Male","","","","","","","null","<div style=""font-size:60px;"">+</div>","null","fixation","","","","","","","","","","","","","",""
"learning-instructions","58","356775","0.0-3.0-11.0-0.0","spark_pilot_2","7390","3","16","Male","","","","","","","11012.699999999255","<p> After you explore a place to find treasure, it will be time to play a different game. </p>
            <p> During this game, red dots will appear on the screen and fall down slowly. </p>
            <p><b> You must click on them before they reach the bottom. </b></p>
            <img src='./assets/img/instructions/dotGame.jpg' class='instructions-image'>","","instructions","","","","","","","","","","","","","",""
"learning-instructions","59","362823","0.0-3.0-11.0-0.1","spark_pilot_2","7390","3","16","Male","","","","","","","380.69999999925494","<p> For every dot you click, you will earn additional treasure. </p>
            <p> Let’s try practicing that now. </p>","","instructions","","","","","","","","","","","","","",""
"revaluation","60","377829","0.0-3.0-12.0-0.0","spark_pilot_2","7390","3","16","Male","","","","","","","[63,44]","","","rest practice","","20","","","","","0","15000","","","","","",""
"learning-instructions","61","384200","0.0-3.0-13.0-0.0-0.0","spark_pilot_2","7390","3","16","Male","","","","","","","1117.1000000014901","<p> Now, you will practice a shortened version of the game to get a sense of how it all fits together. </p>","","instructions","","","","","","","","","","","","","",""
"learning-instructions","62","389232","0.0-3.0-13.0-0.0-0.1","spark_pilot_2","7390","3","16","Male","","","","","","","1858.9000000022352","<p>This time you are searching for treasure in outer space.</p>","","instructions","","","","","","","","","","","","","",""
"learning-instructions","63","405328","0.0-3.0-13.0-1.0-0.0","spark_pilot_2","7390","3","16","Male","","","","","","","1334.800000000745","<p> Remember, when you see a picture of the place, use the up and down keys to <b>find an animal</b>.</p>
            <p> When you encounter an animal, you should use the left and right keys to <b>select a treasure chest</b>.</p>
            <p> Don't forget to look out for the robber! </p>","","instructions","","","","","","","","","","","","","",""
"revaluation","64","411382","0.0-3.0-13.0-2.0-0.0","spark_pilot_2","7390","3","16","Male","","false","","","","","[1182.6000000014901,609.8000000007451]","./assets/img/space/11.jpg","[""ArrowUp"",""ArrowRight""]","practice block","space","36","{""ArrowUp,ArrowLeft"":3,""ArrowUp,ArrowRight"":36,""ArrowDown,ArrowLeft"":15,""ArrowDown,ArrowRight"":23}","true","ArrowUp,ArrowRight","false","","","","","","","",""
"html-keyboard-response","65","411902","0.0-3.0-13.0-2.0-1.0","spark_pilot_2","7390","3","16","Male","","","","","","","null","<div style=""font-size:60px;"">+</div>","null","fixation","","","","","","","","","","","","","",""
"revaluation","66","417952","0.0-3.0-13.0-2.0-0.1","spark_pilot_2","7390","3","16","Male","","false","","","","","[712.4000000022352,573.8999999985099]","./assets/img/space/12.jpg","[""ArrowUp"",""ArrowRight""]","practice block","space","36","{""ArrowUp,ArrowLeft"":3,""ArrowUp,ArrowRight"":36,""ArrowDown,ArrowLeft"":15,""ArrowDown,ArrowRight"":23}","true","ArrowUp,ArrowRight","false","","","","","","","",""
"html-keyboard-response","67","418472","0.0-3.0-13.0-2.0-1.1","spark_pilot_2","7390","3","16","Male","","","","","","","null","<div style=""font-size:60px;"">+</div>","null","fixation","","","","","","","","","","","","","",""
"revaluation","68","424523","0.0-3.0-13.0-2.0-0.2","spark_pilot_2","7390","3","16","Male","","false","","","","","[702.5,621.6999999992549]","./assets/img/space/13.jpg","[""ArrowDown"",""ArrowLeft""]","practice block","space","15","{""ArrowUp,ArrowLeft"":3,""ArrowUp,ArrowRight"":36,""ArrowDown,ArrowLeft"":15,""ArrowDown,ArrowRight"":23}","false","ArrowDown,ArrowLeft","false","","","","","","","",""
"html-keyboard-response","69","425042","0.0-3.0-13.0-2.0-1.2","spark_pilot_2","7390","3","16","Male","","","","","","","null","<div style=""font-size:60px;"">+</div>","null","fixation","","","","","","","","","","","","","",""
"revaluation","70","431102","0.0-3.0-13.0-2.0-0.3","spark_pilot_2","7390","3","16","Male","","false","","","","","[612.3000000007451,714]","./assets/img/space/14.jpg","[""ArrowUp"",""ArrowRight""]","practice block","space","36","{""ArrowUp,ArrowLeft"":3,""ArrowUp,ArrowRight"":36,""ArrowDown,ArrowLeft"":15,""ArrowDown,ArrowRight"":23}","true","ArrowUp,ArrowRight","false","","","","","","","",""
"html-keyboard-response","71","431612","0.0-3.0-13.0-2.0-1.3","spark_pilot_2","7390","3","16","Male","","","","","","","null","<div style=""font-size:60px;"">+</div>","null","fixation","","","","","","","","","","","","","",""
"revaluation","72","437625","0.0-3.0-13.0-2.0-0.4","spark_pilot_2","7390","3","16","Male","","false","","","","","[1386.5,1017.6999999992549]","./assets/img/space/11.jpg","[""ArrowUp"",""ArrowRight""]","practice block","space","36","{""ArrowUp,ArrowLeft"":3,""ArrowUp,ArrowRight"":36,""ArrowDown,ArrowLeft"":15,""ArrowDown,ArrowRight"":23}","true","ArrowUp,ArrowRight","false","","","","","","","",""
"html-keyboard-response","73","438127","0.0-3.0-13.0-2.0-1.4","spark_pilot_2","7390","3","16","Male","","","","","","","null","<div style=""font-size:60px;"">+</div>","null","fixation","","","","","","","","","","","","","",""
"revaluation","74","444129","0.0-3.0-13.0-2.0-0.5","spark_pilot_2","7390","3","16","Male","","false","","","","","[1480.8999999985099,664.5]","./assets/img/space/12.jpg","[""ArrowDown"",""ArrowRight""]","practice block","space","23","{""ArrowUp,ArrowLeft"":3,""ArrowUp,ArrowRight"":36,""ArrowDown,ArrowLeft"":15,""ArrowDown,ArrowRight"":23}","false","ArrowDown,ArrowRight","false","","","","","","","",""
"html-keyboard-response","75","444630","0.0-3.0-13.0-2.0-1.5","spark_pilot_2","7390","3","16","Male","","","","","","","null","<div style=""font-size:60px;"">+</div>","null","fixation","","","","","","","","","","","","","",""
"revaluation","76","450635","0.0-3.0-13.0-2.0-0.6","spark_pilot_2","7390","3","16","Male","","false","","","","","[905.6999999992549,472.5999999977648]","./assets/img/space/13.jpg","[""ArrowUp"",""ArrowRight""]","practice block","space","36","{""ArrowUp,ArrowLeft"":3,""ArrowUp,ArrowRight"":36,""ArrowDown,ArrowLeft"":15,""ArrowDown,ArrowRight"":23}","true","ArrowUp,ArrowRight","false","","","","","","","",""
"html-keyboard-response","77","451136","0.0-3.0-13.0-2.0-1.6","spark_pilot_2","7390","3","16","Male","","","","","","","null","<div style=""font-size:60px;"">+</div>","null","fixation","","","","","","","","","","","","","",""
"revaluation","78","457140","0.0-3.0-13.0-2.0-0.7","spark_pilot_2","7390","3","16","Male","","false","","","","","[727.6000000014901,750.2000000029802]","./assets/img/space/14.jpg","[""ArrowUp"",""ArrowLeft""]","practice block","space","3","{""ArrowUp,ArrowLeft"":3,""ArrowUp,ArrowRight"":36,""ArrowDown,ArrowLeft"":15,""ArrowDown,ArrowRight"":23}","false","ArrowUp,ArrowLeft","false","","","","","","","",""
"html-keyboard-response","79","457641","0.0-3.0-13.0-2.0-1.7","spark_pilot_2","7390","3","16","Male","","","","","","","null","<div style=""font-size:60px;"">+</div>","null","fixation","","","","","","","","","","","","","",""
"revaluation","80","461645","0.0-3.0-13.0-2.0-0.8","spark_pilot_2","7390","3","16","Male","","false","","","","","[1174.5]","./assets/img/space/catch/3.jpg","[""spaceBar""]","practice block","space","0","{""ArrowUp,ArrowLeft"":3,""ArrowUp,ArrowRight"":36,""ArrowDown,ArrowLeft"":15,""ArrowDown,ArrowRight"":23}","true","spaceBar","true","","","","","","","",""
"html-keyboard-response","81","462147","0.0-3.0-13.0-2.0-1.8","spark_pilot_2","7390","3","16","Male","","","","","","","null","<div style=""font-size:60px;"">+</div>","null","fixation","","","","","","","","","","","","","",""
"learning-instructions","82","499427","0.0-3.0-13.0-3.0-0.0","spark_pilot_2","7390","3","16","Male","","","","","","","24362.10000000149","<p> Now, you will travel with a friend who will choose whether you go up or down first. </p>
            <p> On these turns, you will just see the animal that they found. You will still get to choose which chest to search for treasure.</p>","","instructions","","","","","","","","","","","","","",""
"revaluation","83","503444","0.0-3.0-13.0-4.0-0.0","spark_pilot_2","7390","3","16","Male","","false","","","","","[1070.300000000745]","./assets/img/space/animals/cat.jpg","[""ArrowRight""]","practice block","space","36","{""ArrowUp,ArrowLeft"":3,""ArrowUp,ArrowRight"":36,""ArrowDown,ArrowLeft"":15,""ArrowDown,ArrowRight"":23}","true","ArrowUp,ArrowRight","","","","","","","","",""
"html-keyboard-response","84","503964","0.0-3.0-13.0-4.0-1.0","spark_pilot_2","7390","3","16","Male","","","","","","","null","<div style=""font-size:60px;"">+</div>","null","fixation","","","","","","","","","","","","","",""
"revaluation","85","507968","0.0-3.0-13.0-4.0-0.1","spark_pilot_2","7390","3","16","Male","","false","","","","","[541.3000000007451]","./assets/img/space/animals/cat.jpg","[""ArrowLeft""]","practice block","space","3","{""ArrowUp,ArrowLeft"":3,""ArrowUp,ArrowRight"":36,""ArrowDown,ArrowLeft"":15,""ArrowDown,ArrowRight"":23}","false","ArrowUp,ArrowLeft","","","","","","","","",""
"html-keyboard-response","86","508469","0.0-3.0-13.0-4.0-1.1","spark_pilot_2","7390","3","16","Male","","","","","","","null","<div style=""font-size:60px;"">+</div>","null","fixation","","","","","","","","","","","","","",""
"revaluation","87","512473","0.0-3.0-13.0-4.0-0.2","spark_pilot_2","7390","3","16","Male","","false","","","","","[300]","./assets/img/space/animals/rabbit.jpg","[""ArrowLeft""]","practice block","space","15","{""ArrowUp,ArrowLeft"":3,""ArrowUp,ArrowRight"":36,""ArrowDown,ArrowLeft"":15,""ArrowDown,ArrowRight"":23}","false","ArrowDown,ArrowLeft","","","","","","","","",""
"html-keyboard-response","88","512974","0.0-3.0-13.0-4.0-1.2","spark_pilot_2","7390","3","16","Male","","","","","","","null","<div style=""font-size:60px;"">+</div>","null","fixation","","","","","","","","","","","","","",""
"revaluation","89","516978","0.0-3.0-13.0-4.0-0.3","spark_pilot_2","7390","3","16","Male","","false","","","","","[299.0999999977648]","./assets/img/space/animals/rabbit.jpg","[""ArrowRight""]","practice block","space","23","{""ArrowUp,ArrowLeft"":3,""ArrowUp,ArrowRight"":36,""ArrowDown,ArrowLeft"":15,""ArrowDown,ArrowRight"":23}","true","ArrowDown,ArrowRight","","","","","","","","",""
"html-keyboard-response","90","517479","0.0-3.0-13.0-4.0-1.3","spark_pilot_2","7390","3","16","Male","","","","","","","null","<div style=""font-size:60px;"">+</div>","null","fixation","","","","","","","","","","","","","",""
"learning-instructions","91","526243","0.0-3.0-13.0-5.0-0.0","spark_pilot_2","7390","3","16","Male","","","","","","","1399.4000000022352","<p> Time to play the dot game! </p>
            <p> For 15 seconds, click the red dots on the following screen as they appear. </p>","","instructions","","","","","","","","","","","","","",""
"revaluation","92","541244","0.0-3.0-13.0-6.0-0.0","spark_pilot_2","7390","3","16","Male","","","","","","","[47]","","","rest practice","","10","","","","","0","15000","","","","","",""
"learning-instructions","93","550867","0.0-3.0-13.0-7.0-0.0","spark_pilot_2","7390","3","16","Male","","","","","","","3503.39999999851","<p> You have almost finished this part of the game! </p>
            <p> We are going to ask you to make a few more choices. </p>","","instructions","","","","","","","","","","","","","",""
"learning-instructions","94","566060","0.0-3.0-13.0-7.0-0.1","spark_pilot_2","7390","3","16","Male","","","","","","","1185.3999999985099","<p> First, you need to decide whether to go up or down. When you see each picture, use the arrow keys to make your choice. </p>
            <p><b>You will not see which animal you found, but try to get to the one that will give you the most treasure.</b></p>","","instructions","","","","","","","","","","","","","",""
"revaluation","95","567100","0.0-3.0-13.0-8.0","spark_pilot_2","7390","3","16","Male","","false","","","","","[1038.4000000022352]","./assets/img/space/15.jpg","[""ArrowUp""]","practice block","space","0","{""ArrowUp,ArrowLeft"":3,""ArrowUp,ArrowRight"":36,""ArrowDown,ArrowLeft"":15,""ArrowDown,ArrowRight"":23}","true","ArrowUp","false","","","","","","","",""
"html-keyboard-response","96","567603","0.0-3.0-13.0-9.0","spark_pilot_2","7390","3","16","Male","","","","","","","null","<div style=""font-size:60px;"">+</div>","null","fixation","","","","","","","","","","","","","",""
"learning-instructions","97","579980","0.0-3.0-13.0-10.0-0.0","spark_pilot_2","7390","3","16","Male","","","","","","","1015.5","<p> Now you will see the animals again and can search their chests for treasure. </p>
            <p> This time, you will not see how much treasure you earned, but you will earn more bonus money for making better choices. </p>","","instructions","","","","","","","","","","","","","",""
"revaluation","98","580908","0.0-3.0-13.0-11.0-0.0","spark_pilot_2","7390","3","16","Male","","false","","","","","[926.8000000007451]","./assets/img/space/animals/cat.jpg","[""ArrowRight""]","practice block","space","0","{""ArrowUp,ArrowLeft"":3,""ArrowUp,ArrowRight"":36,""ArrowDown,ArrowLeft"":15,""ArrowDown,ArrowRight"":23}","true","ArrowUp,ArrowRight","","","","","","","","",""
"html-keyboard-response","99","581413","0.0-3.0-13.0-11.0-1.0","spark_pilot_2","7390","3","16","Male","","","","","","","null","<div style=""font-size:60px;"">+</div>","null","fixation","","","","","","","","","","","","","",""
"revaluation","100","582292","0.0-3.0-13.0-11.0-0.1","spark_pilot_2","7390","3","16","Male","","false","","","","","[876.8999999985099]","./assets/img/space/animals/rabbit.jpg","[""ArrowRight""]","practice block","space","0","{""ArrowUp,ArrowLeft"":3,""ArrowUp,ArrowRight"":36,""ArrowDown,ArrowLeft"":15,""ArrowDown,ArrowRight"":23}","true","ArrowDown,ArrowRight","","","","","","","","",""
"html-keyboard-response","101","582803","0.0-3.0-13.0-11.0-1.1","spark_pilot_2","7390","3","16","Male","","","","","","","null","<div style=""font-size:60px;"">+</div>","null","fixation","","","","","","","","","","","","","",""
"learning-instructions","102","589004","0.0-3.0-14.0-0.0","spark_pilot_2","7390","3","16","Male","","","","","","","1629.199999999255","<p> Before you start, we're going to ask you a few questions about how the game works. </p>","","instructions","","","","","","","","","","","","","",""
"comp-q","103","595276","0.0-3.0-15.0-0.0-0.0","spark_pilot_2","7390","3","16","Male","","","","","","","699.9000000022352","<p> <b> True or False? </b> </p>
            <p> There can be 50 pieces of treasure in a given animal's chest. </p>","0","comp_question","","","","false","","","","","","","","","",""
"comp-q","104","602676","0.0-3.0-15.0-0.0-1.0","spark_pilot_2","7390","3","16","Male","","","","","","","871.2999999970198","<p> <b>Incorrect.</b> The amount of treasure in each chest can range from 0 to 40 pieces. </p>","0","comp_answer","","","","","","","","","","","","","",""
"comp-q","105","608668","0.0-3.0-15.0-0.1-0.1","spark_pilot_2","7390","3","16","Male","","","","","","","433.30000000074506","<p> <b> True or False? </b> </p>
            <p> There can be 50 pieces of treasure in a given animal's chest. </p>","1","comp_question","","","","true","","","","","","","","","",""
"comp-q","106","618044","0.0-3.0-15.0-0.1-1.1","spark_pilot_2","7390","3","16","Male","","","","","","","2439.5","<p> <b> That's right! </b> The amount of treasure in each chest can range from 0 to 40 pieces. </p>","0","comp_answer","","","","","","","","","","","","","",""
"comp-q","107","625589","0.0-3.0-15.0-0.2-0.2","spark_pilot_2","7390","3","16","Male","","","","","","","433.3999999985099","<p> <b> True or False? </b> </p><p> In this game, all animals have the same amount of treasure in their left and right chests. </p>","1","comp_question","","","","true","","","","","","","","","",""
"comp-q","108","632229","0.0-3.0-15.0-0.2-1.2","spark_pilot_2","7390","3","16","Male","","","","","","","1413.3999999985099","<p> <b> That's right! </b> Animals have different amounts of treasure in their treasure chests. </p>","0","comp_answer","","","","","","","","","","","","","",""
"comp-q","109","645997","0.0-3.0-15.0-0.3-0.3","spark_pilot_2","7390","3","16","Male","","","","","","","7921.300000000745","<p> <b> True or False? </b> </p><p> The same animal will always be there if you go up in the same place. </p>","0","comp_question","","","","true","","","","","","","","","",""
"comp-q","110","655053","0.0-3.0-15.0-0.3-1.3","spark_pilot_2","7390","3","16","Male","","","","","","","2607.39999999851","<p> <b> That's right! </b> One animal lives in the upper part and one lives in the lower part of every place. </p>","0","comp_answer","","","","","","","","","","","","","",""
"comp-q","111","664877","0.0-3.0-15.0-0.4-0.4","spark_pilot_2","7390","3","16","Male","","","","","","","4311.300000000745","<p> <b> True or False? </b> </p><p> If you see a different picture, it means you are in a new place. </p>","1","comp_question","","","","true","","","","","","","","","",""
"comp-q","112","678085","0.0-3.0-15.0-0.4-1.4","spark_pilot_2","7390","3","16","Male","","","","","","","1989.4000000022352","<p> <b> That's right! </b> Lots of different images may show the same place. For example,  you may see three different images that all remind you that you are in outer space. </p>","0","comp_answer","","","","","","","","","","","","","",""
"learning-instructions","113","689062","0.0-3.0-16.0-0.0","spark_pilot_2","7390","3","16","Male","","","","","","","1135.199999999255","<p> Good job. Remember to do your best because the amount of treasure you earn will be converted into bonus money. </p>
            <p> It’s time to start the real game! </p>","","instructions","","","","","","","","","","","","","",""
"learning-instructions","114","693726","0.0-4.0-0.0-0.0","spark_pilot_2","7390","3","16","Male","","","","","","","1969.300000000745","<p> This time you are searching for treasure in the <b>ocean</b>.</p>","","instructions","","","","","","","","","","","","","",""
"learning-instructions","115","772855","0.0-4.0-0.0-0.1","spark_pilot_2","7390","3","16","Male","","","","","","","61847.5","<p><b>New</b> animals with <b>new</b> treasure chests live here. You need to explore to discover where the animal with the best treasure chest is.</p>
                    <p> Like before, once you figure out which animal has the chest with the most treasure, you should try to get to that animal and select that chest! </p>","","instructions","","","","","","","","","","","","","",""
"learning-instructions","116","790311","0.0-4.0-1.0-0.0","spark_pilot_2","7390","3","16","Male","","","","","","","2714.5","<p> Remember, when you see a picture of the place, use the up and down keys to <b>find an animal</b>.</p>
            <p> When you encounter an animal, you should use the left and right keys to <b>select a treasure chest</b>.</p>
            <p> Don't forget to look out for the robber! </p>","","instructions","","","","","","","","","","","","","",""
"revaluation","117","796355","0.0-4.0-2.0-0.0","spark_pilot_2","7390","3","16","Male","","false","","","","","[1278.5999999977648,1105.5]","./assets/img/ocean/memory/1.jpg","[""ArrowUp"",""ArrowRight""]","value training","ocean","10","{""ArrowUp,ArrowLeft"":23,""ArrowUp,ArrowRight"":10,""ArrowDown,ArrowLeft"":8,""ArrowDown,ArrowRight"":30}","false","ArrowUp,ArrowRight","false","","","original","1","0","","",""
"html-keyboard-response","118","796875","0.0-4.0-2.0-1.0","spark_pilot_2","7390","3","16","Male","","","","","","","null","<div style=""font-size:60px;"">+</div>","null","fixation","","","","","","","","","","","1","","",""
"revaluation","119","802925","0.0-4.0-2.0-0.1","spark_pilot_2","7390","3","16","Male","","false","","","","","[1914.0999999977648,457.3999999985099]","./assets/img/ocean/memory/0.jpg","[""ArrowUp"",""ArrowLeft""]","value training","ocean","23","{""ArrowUp,ArrowLeft"":23,""ArrowUp,ArrowRight"":10,""ArrowDown,ArrowLeft"":8,""ArrowDown,ArrowRight"":30}","false","ArrowUp,ArrowLeft","false","","","original","1","2","","",""
"html-keyboard-response","120","803445","0.0-4.0-2.0-1.1","spark_pilot_2","7390","3","16","Male","","","","","","","null","<div style=""font-size:60px;"">+</div>","null","fixation","","","","","","","","","","","3","","",""
"revaluation","121","809485","0.0-4.0-2.0-0.2","spark_pilot_2","7390","3","16","Male","","false","","","","","[1008.0999999977648,367.4000000022352]","./assets/img/ocean/memory/36.jpg","[""ArrowUp"",""ArrowLeft""]","value training","ocean","23","{""ArrowUp,ArrowLeft"":23,""ArrowUp,ArrowRight"":10,""ArrowDown,ArrowLeft"":8,""ArrowDown,ArrowRight"":30}","false","ArrowUp,ArrowLeft","false","","","original","1","4","","",""
"html-keyboard-response","122","810005","0.0-4.0-2.0-1.2","spark_pilot_2","7390","3","16","Male","","","","","","","null","<div style=""font-size:60px;"">+</div>","null","fixation","","","","","","","","","","","5","","",""
"revaluation","123","816045","0.0-4.0-2.0-0.3","spark_pilot_2","7390","3","16","Male","","false","","","","","[1064.0999999977648,823.3999999985099]","./assets/img/ocean/memory/20.jpg","[""ArrowDown"",""ArrowLeft""]","value training","ocean","8","{""ArrowUp,ArrowLeft"":23,""ArrowUp,ArrowRight"":10,""ArrowDown,ArrowLeft"":8,""ArrowDown,ArrowRight"":30}","false","ArrowDown,ArrowLeft","false","","","original","1","6","","",""
"html-keyboard-response","124","816555","0.0-4.0-2.0-1.3","spark_pilot_2","7390","3","16","Male","","","","","","","null","<div style=""font-size:60px;"">+</div>","null","fixation","","","","","","","","","","","7","","",""
"revaluation","125","822559","0.0-4.0-2.0-0.4","spark_pilot_2","7390","3","16","Male","","false","","","","","[1202.1000000014901,296.69999999925494]","./assets/img/ocean/memory/20.jpg","[""ArrowUp"",""ArrowLeft""]","value training","ocean","23","{""ArrowUp,ArrowLeft"":23,""ArrowUp,ArrowRight"":10,""ArrowDown,ArrowLeft"":8,""ArrowDown,ArrowRight"":30}","false","ArrowUp,ArrowLeft","false","","","original","1","8","","",""
"html-keyboard-response","126","823060","0.0-4.0-2.0-1.4","spark_pilot_2","7390","3","16","Male","","","","","","","null","<div style=""font-size:60px;"">+</div>","null","fixation","","","","","","","","","","","9","","",""
"revaluation","127","829066","0.0-4.0-2.0-0.5","spark_pilot_2","7390","3","16","Male","","false","","","","","[232.69999999925494,239.89999999850988]","./assets/img/ocean/memory/33.jpg","[""ArrowDown"",""ArrowRight""]","value training","ocean","30","{""ArrowUp,ArrowLeft"":23,""ArrowUp,ArrowRight"":10,""ArrowDown,ArrowLeft"":8,""ArrowDown,ArrowRight"":30}","true","ArrowDown,ArrowRight","false","","","original","1","10","","",""
"html-keyboard-response","128","829566","0.0-4.0-2.0-1.5","spark_pilot_2","7390","3","16","Male","","","","","","","null","<div style=""font-size:60px;"">+</div>","null","fixation","","","","","","","","","","","11","","",""
"revaluation","129","835570","0.0-4.0-2.0-0.6","spark_pilot_2","7390","3","16","Male","","false","","","","","[576.5999999977648,216]","./assets/img/ocean/memory/10.jpg","[""ArrowUp"",""ArrowLeft""]","value training","ocean","23","{""ArrowUp,ArrowLeft"":23,""ArrowUp,ArrowRight"":10,""ArrowDown,ArrowLeft"":8,""ArrowDown,ArrowRight"":30}","false","ArrowUp,ArrowLeft","false","","","original","1","12","","",""
"html-keyboard-response","130","836071","0.0-4.0-2.0-1.6","spark_pilot_2","7390","3","16","Male","","","","","","","null","<div style=""font-size:60px;"">+</div>","null","fixation","","","","","","","","","","","13","","",""
"revaluation","131","840075","0.0-4.0-2.0-0.7","spark_pilot_2","7390","3","16","Male","","false","","","","","[415.3999999985099]","./assets/img/ocean/catch/2.jpg","[""ArrowDown""]","value training","ocean","-10","{""ArrowUp,ArrowLeft"":23,""ArrowUp,ArrowRight"":10,""ArrowDown,ArrowLeft"":8,""ArrowDown,ArrowRight"":30}","false","ArrowDown","true","","","original","1","14","","",""
"html-keyboard-response","132","840576","0.0-4.0-2.0-1.7","spark_pilot_2","7390","3","16","Male","","","","","","","null","<div style=""font-size:60px;"">+</div>","null","fixation","","","","","","","","","","","15","","",""
"revaluation","133","846581","0.0-4.0-2.0-0.8","spark_pilot_2","7390","3","16","Male","","false","","","","","[662.7999999970198,700.6999999992549]","./assets/img/ocean/memory/13.jpg","[""ArrowUp"",""ArrowLeft""]","value training","ocean","23","{""ArrowUp,ArrowLeft"":23,""ArrowUp,ArrowRight"":10,""ArrowDown,ArrowLeft"":8,""ArrowDown,ArrowRight"":30}","false","ArrowUp,ArrowLeft","false","","","original","1","16","","",""
"html-keyboard-response","134","847081","0.0-4.0-2.0-1.8","spark_pilot_2","7390","3","16","Male","","","","","","","null","<div style=""font-size:60px;"">+</div>","null","fixation","","","","","","","","","","","17","","",""
"revaluation","135","853086","0.0-4.0-2.0-0.9","spark_pilot_2","7390","3","16","Male","","false","","","","","[349.0999999977648,372.5]","./assets/img/ocean/memory/10.jpg","[""ArrowDown"",""ArrowRight""]","value training","ocean","30","{""ArrowUp,ArrowLeft"":23,""ArrowUp,ArrowRight"":10,""ArrowDown,ArrowLeft"":8,""ArrowDown,ArrowRight"":30}","true","ArrowDown,ArrowRight","false","","","original","1","18","","",""
"html-keyboard-response","136","853587","0.0-4.0-2.0-1.9","spark_pilot_2","7390","3","16","Male","","","","","","","null","<div style=""font-size:60px;"">+</div>","null","fixation","","","","","","","","","","","19","","",""
"revaluation","137","859593","0.0-4.0-2.0-0.10","spark_pilot_2","7390","3","16","Male","","false","","","","","[403.5,241.79999999701977]","./assets/img/ocean/memory/14.jpg","[""ArrowDown"",""ArrowRight""]","value training","ocean","30","{""ArrowUp,ArrowLeft"":23,""ArrowUp,ArrowRight"":10,""ArrowDown,ArrowLeft"":8,""ArrowDown,ArrowRight"":30}","true","ArrowDown,ArrowRight","false","","","original","1","20","","",""
"html-keyboard-response","138","860094","0.0-4.0-2.0-1.10","spark_pilot_2","7390","3","16","Male","","","","","","","null","<div style=""font-size:60px;"">+</div>","null","fixation","","","","","","","","","","","21","","",""
"revaluation","139","864098","0.0-4.0-2.0-0.11","spark_pilot_2","7390","3","16","Male","","false","","","","","[1272.3999999985099]","./assets/img/ocean/catch/0.jpg","[""spaceBar""]","value training","ocean","0","{""ArrowUp,ArrowLeft"":23,""ArrowUp,ArrowRight"":10,""ArrowDown,ArrowLeft"":8,""ArrowDown,ArrowRight"":30}","true","spaceBar","true","","","original","1","22","","",""
"html-keyboard-response","140","864599","0.0-4.0-2.0-1.11","spark_pilot_2","7390","3","16","Male","","","","","","","null","<div style=""font-size:60px;"">+</div>","null","fixation","","","","","","","","","","","23","","",""
"revaluation","141","870602","0.0-4.0-2.0-0.12","spark_pilot_2","7390","3","16","Male","","false","","","","","[719.5,103.09999999776483]","./assets/img/ocean/memory/1.jpg","[""ArrowUp"",""ArrowLeft""]","value training","ocean","23","{""ArrowUp,ArrowLeft"":23,""ArrowUp,ArrowRight"":10,""ArrowDown,ArrowLeft"":8,""ArrowDown,ArrowRight"":30}","false","ArrowUp,ArrowLeft","false","","","original","1","24","","",""
"html-keyboard-response","142","871103","0.0-4.0-2.0-1.12","spark_pilot_2","7390","3","16","Male","","","","","","","null","<div style=""font-size:60px;"">+</div>","null","fixation","","","","","","","","","","","25","","",""
"revaluation","143","877107","0.0-4.0-2.0-0.13","spark_pilot_2","7390","3","16","Male","","false","","","","","[1271.199999999255,486.69999999925494]","./assets/img/ocean/memory/3.jpg","[""ArrowDown"",""ArrowRight""]","value training","ocean","30","{""ArrowUp,ArrowLeft"":23,""ArrowUp,ArrowRight"":10,""ArrowDown,ArrowLeft"":8,""ArrowDown,ArrowRight"":30}","true","ArrowDown,ArrowRight","false","","","original","1","26","","",""
"html-keyboard-response","144","877608","0.0-4.0-2.0-1.13","spark_pilot_2","7390","3","16","Male","","","","","","","null","<div style=""font-size:60px;"">+</div>","null","fixation","","","","","","","","","","","27","","",""
"revaluation","145","883611","0.0-4.0-2.0-0.14","spark_pilot_2","7390","3","16","Male","","false","","","","","[286.79999999701977,230.19999999925494]","./assets/img/ocean/memory/31.jpg","[""ArrowUp"",""ArrowRight""]","value training","ocean","10","{""ArrowUp,ArrowLeft"":23,""ArrowUp,ArrowRight"":10,""ArrowDown,ArrowLeft"":8,""ArrowDown,ArrowRight"":30}","false","ArrowUp,ArrowRight","false","","","original","1","28","","",""
"html-keyboard-response","146","884112","0.0-4.0-2.0-1.14","spark_pilot_2","7390","3","16","Male","","","","","","","null","<div style=""font-size:60px;"">+</div>","null","fixation","","","","","","","","","","","29","","",""
"revaluation","147","890118","0.0-4.0-2.0-0.15","spark_pilot_2","7390","3","16","Male","","false","","","","","[1110.5,269.5]","./assets/img/ocean/memory/7.jpg","[""ArrowUp"",""ArrowLeft""]","value training","ocean","23","{""ArrowUp,ArrowLeft"":23,""ArrowUp,ArrowRight"":10,""ArrowDown,ArrowLeft"":8,""ArrowDown,ArrowRight"":30}","false","ArrowUp,ArrowLeft","false","","","original","1","30","","",""
"html-keyboard-response","148","890619","0.0-4.0-2.0-1.15","spark_pilot_2","7390","3","16","Male","","","","","","","null","<div style=""font-size:60px;"">+</div>","null","fixation","","","","","","","","","","","31","","",""
"revaluation","149","896622","0.0-4.0-2.0-0.16","spark_pilot_2","7390","3","16","Male","","false","","","","","[381,676]","./assets/img/ocean/memory/8.jpg","[""ArrowDown"",""ArrowRight""]","value training","ocean","30","{""ArrowUp,ArrowLeft"":23,""ArrowUp,ArrowRight"":10,""ArrowDown,ArrowLeft"":8,""ArrowDown,ArrowRight"":30}","true","ArrowDown,ArrowRight","false","","","original","1","32","","",""
"html-keyboard-response","150","897123","0.0-4.0-2.0-1.16","spark_pilot_2","7390","3","16","Male","","","","","","","null","<div style=""font-size:60px;"">+</div>","null","fixation","","","","","","","","","","","33","","",""
"revaluation","151","903130","0.0-4.0-2.0-0.17","spark_pilot_2","7390","3","16","Male","","false","","","","","[796,123.60000000149012]","./assets/img/ocean/memory/34.jpg","[""ArrowDown"",""ArrowRight""]","value training","ocean","30","{""ArrowUp,ArrowLeft"":23,""ArrowUp,ArrowRight"":10,""ArrowDown,ArrowLeft"":8,""ArrowDown,ArrowRight"":30}","true","ArrowDown,ArrowRight","false","","","original","1","34","","",""
"html-keyboard-response","152","903631","0.0-4.0-2.0-1.17","spark_pilot_2","7390","3","16","Male","","","","","","","null","<div style=""font-size:60px;"">+</div>","null","fixation","","","","","","","","","","","35","","",""
"revaluation","153","909634","0.0-4.0-2.0-0.18","spark_pilot_2","7390","3","16","Male","","false","","","","","[320.20000000298023,327.3999999985099]","./assets/img/ocean/memory/31.jpg","[""ArrowDown"",""ArrowRight""]","value training","ocean","30","{""ArrowUp,ArrowLeft"":23,""ArrowUp,ArrowRight"":10,""ArrowDown,ArrowLeft"":8,""ArrowDown,ArrowRight"":30}","true","ArrowDown,ArrowRight","false","","","original","1","36","","",""
"html-keyboard-response","154","910136","0.0-4.0-2.0-1.18","spark_pilot_2","7390","3","16","Male","","","","","","","null","<div style=""font-size:60px;"">+</div>","null","fixation","","","","","","","","","","","37","","",""
"revaluation","155","916140","0.0-4.0-2.0-0.19","spark_pilot_2","7390","3","16","Male","","false","","","","","[351.80000000074506,351.1000000014901]","./assets/img/ocean/memory/4.jpg","[""ArrowUp"",""ArrowLeft""]","value training","ocean","23","{""ArrowUp,ArrowLeft"":23,""ArrowUp,ArrowRight"":10,""ArrowDown,ArrowLeft"":8,""ArrowDown,ArrowRight"":30}","false","ArrowUp,ArrowLeft","false","","","original","1","38","","",""
"html-keyboard-response","156","916642","0.0-4.0-2.0-1.19","spark_pilot_2","7390","3","16","Male","","","","","","","null","<div style=""font-size:60px;"">+</div>","null","fixation","","","","","","","","","","","39","","",""
"revaluation","157","922646","0.0-4.0-2.0-0.20","spark_pilot_2","7390","3","16","Male","","false","","","","","[653.9000000022352,460.80000000074506]","./assets/img/ocean/memory/27.jpg","[""ArrowUp"",""ArrowLeft""]","value training","ocean","23","{""ArrowUp,ArrowLeft"":23,""ArrowUp,ArrowRight"":10,""ArrowDown,ArrowLeft"":8,""ArrowDown,ArrowRight"":30}","false","ArrowUp,ArrowLeft","false","","","original","1","40","","",""
"html-keyboard-response","158","923147","0.0-4.0-2.0-1.20","spark_pilot_2","7390","3","16","Male","","","","","","","null","<div style=""font-size:60px;"">+</div>","null","fixation","","","","","","","","","","","41","","",""
"revaluation","159","927151","0.0-4.0-2.0-0.21","spark_pilot_2","7390","3","16","Male","","false","","","","","[316.6000000014901]","./assets/img/ocean/catch/6.jpg","[""ArrowDown""]","value training","ocean","-10","{""ArrowUp,ArrowLeft"":23,""ArrowUp,ArrowRight"":10,""ArrowDown,ArrowLeft"":8,""ArrowDown,ArrowRight"":30}","false","ArrowDown","true","","","original","1","42","","",""
"html-keyboard-response","160","927652","0.0-4.0-2.0-1.21","spark_pilot_2","7390","3","16","Male","","","","","","","null","<div style=""font-size:60px;"">+</div>","null","fixation","","","","","","","","","","","43","","",""
"revaluation","161","933656","0.0-4.0-2.0-0.22","spark_pilot_2","7390","3","16","Male","","false","","","","","[875.5999999977648,282.5]","./assets/img/ocean/memory/11.jpg","[""ArrowDown"",""ArrowRight""]","value training","ocean","30","{""ArrowUp,ArrowLeft"":23,""ArrowUp,ArrowRight"":10,""ArrowDown,ArrowLeft"":8,""ArrowDown,ArrowRight"":30}","true","ArrowDown,ArrowRight","false","","","original","1","44","","",""
"html-keyboard-response","162","934157","0.0-4.0-2.0-1.22","spark_pilot_2","7390","3","16","Male","","","","","","","null","<div style=""font-size:60px;"">+</div>","null","fixation","","","","","","","","","","","45","","",""
"revaluation","163","940162","0.0-4.0-2.0-0.23","spark_pilot_2","7390","3","16","Male","","false","","","","","[746.5,328.9000000022352]","./assets/img/ocean/memory/38.jpg","[""ArrowDown"",""ArrowRight""]","value training","ocean","30","{""ArrowUp,ArrowLeft"":23,""ArrowUp,ArrowRight"":10,""ArrowDown,ArrowLeft"":8,""ArrowDown,ArrowRight"":30}","true","ArrowDown,ArrowRight","false","","","original","1","46","","",""
"html-keyboard-response","164","940663","0.0-4.0-2.0-1.23","spark_pilot_2","7390","3","16","Male","","","","","","","null","<div style=""font-size:60px;"">+</div>","null","fixation","","","","","","","","","","","47","","",""
"revaluation","165","946667","0.0-4.0-2.0-0.24","spark_pilot_2","7390","3","16","Male","","false","","","","","[1017.1999999992549,664]","./assets/img/ocean/memory/21.jpg","[""ArrowDown"",""ArrowRight""]","value training","ocean","30","{""ArrowUp,ArrowLeft"":23,""ArrowUp,ArrowRight"":10,""ArrowDown,ArrowLeft"":8,""ArrowDown,ArrowRight"":30}","true","ArrowDown,ArrowRight","false","","","original","1","48","","",""
"html-keyboard-response","166","947168","0.0-4.0-2.0-1.24","spark_pilot_2","7390","3","16","Male","","","","","","","null","<div style=""font-size:60px;"">+</div>","null","fixation","","","","","","","","","","","49","","",""
"revaluation","167","951172","0.0-4.0-2.0-0.25","spark_pilot_2","7390","3","16","Male","","false","","","","","[1528]","./assets/img/ocean/catch/3.jpg","[""spaceBar""]","value training","ocean","0","{""ArrowUp,ArrowLeft"":23,""ArrowUp,ArrowRight"":10,""ArrowDown,ArrowLeft"":8,""ArrowDown,ArrowRight"":30}","true","spaceBar","true","","","original","1","50","","",""
"html-keyboard-response","168","951673","0.0-4.0-2.0-1.25","spark_pilot_2","7390","3","16","Male","","","","","","","null","<div style=""font-size:60px;"">+</div>","null","fixation","","","","","","","","","","","51","","",""
"revaluation","169","957676","0.0-4.0-2.0-0.26","spark_pilot_2","7390","3","16","Male","","false","","","","","[719.9000000022352,135.69999999925494]","./assets/img/ocean/memory/8.jpg","[""ArrowUp"",""ArrowLeft""]","value training","ocean","23","{""ArrowUp,ArrowLeft"":23,""ArrowUp,ArrowRight"":10,""ArrowDown,ArrowLeft"":8,""ArrowDown,ArrowRight"":30}","false","ArrowUp,ArrowLeft","false","","","original","1","52","","",""
"html-keyboard-response","170","958177","0.0-4.0-2.0-1.26","spark_pilot_2","7390","3","16","Male","","","","","","","null","<div style=""font-size:60px;"">+</div>","null","fixation","","","","","","","","","","","53","","",""
"revaluation","171","964182","0.0-4.0-2.0-0.27","spark_pilot_2","7390","3","16","Male","","false","","","","","[519.6000000014901,215.10000000149012]","./assets/img/ocean/memory/3.jpg","[""ArrowDown"",""ArrowRight""]","value training","ocean","30","{""ArrowUp,ArrowLeft"":23,""ArrowUp,ArrowRight"":10,""ArrowDown,ArrowLeft"":8,""ArrowDown,ArrowRight"":30}","true","ArrowDown,ArrowRight","false","","","original","1","54","","",""
"html-keyboard-response","172","964682","0.0-4.0-2.0-1.27","spark_pilot_2","7390","3","16","Male","","","","","","","null","<div style=""font-size:60px;"">+</div>","null","fixation","","","","","","","","","","","55","","",""
"revaluation","173","970686","0.0-4.0-2.0-0.28","spark_pilot_2","7390","3","16","Male","","false","","","","","[366.1000000014901,253.60000000149012]","./assets/img/ocean/memory/9.jpg","[""ArrowDown"",""ArrowRight""]","value training","ocean","30","{""ArrowUp,ArrowLeft"":23,""ArrowUp,ArrowRight"":10,""ArrowDown,ArrowLeft"":8,""ArrowDown,ArrowRight"":30}","true","ArrowDown,ArrowRight","false","","","original","1","56","","",""
"html-keyboard-response","174","971187","0.0-4.0-2.0-1.28","spark_pilot_2","7390","3","16","Male","","","","","","","null","<div style=""font-size:60px;"">+</div>","null","fixation","","","","","","","","","","","57","","",""
"revaluation","175","977191","0.0-4.0-2.0-0.29","spark_pilot_2","7390","3","16","Male","","false","","","","","[485.19999999925494,43.600000001490116]","./assets/img/ocean/memory/4.jpg","[""ArrowDown"",""ArrowRight""]","value training","ocean","30","{""ArrowUp,ArrowLeft"":23,""ArrowUp,ArrowRight"":10,""ArrowDown,ArrowLeft"":8,""ArrowDown,ArrowRight"":30}","true","ArrowDown,ArrowRight","false","","","original","1","58","","",""
"html-keyboard-response","176","977692","0.0-4.0-2.0-1.29","spark_pilot_2","7390","3","16","Male","","","","","","","null","<div style=""font-size:60px;"">+</div>","null","fixation","","","","","","","","","","","59","","",""
"revaluation","177","983696","0.0-4.0-2.0-0.30","spark_pilot_2","7390","3","16","Male","","false","","","","","[1100.800000000745,379.69999999925494]","./assets/img/ocean/memory/21.jpg","[""ArrowDown"",""ArrowRight""]","value training","ocean","30","{""ArrowUp,ArrowLeft"":23,""ArrowUp,ArrowRight"":10,""ArrowDown,ArrowLeft"":8,""ArrowDown,ArrowRight"":30}","true","ArrowDown,ArrowRight","false","","","original","1","60","","",""
"html-keyboard-response","178","984197","0.0-4.0-2.0-1.30","spark_pilot_2","7390","3","16","Male","","","","","","","null","<div style=""font-size:60px;"">+</div>","null","fixation","","","","","","","","","","","61","","",""
"revaluation","179","990202","0.0-4.0-2.0-0.31","spark_pilot_2","7390","3","16","Male","","false","","","","","[931.6000000014901,882.5999999977648]","./assets/img/ocean/memory/33.jpg","[""ArrowDown"",""ArrowRight""]","value training","ocean","30","{""ArrowUp,ArrowLeft"":23,""ArrowUp,ArrowRight"":10,""ArrowDown,ArrowLeft"":8,""ArrowDown,ArrowRight"":30}","true","ArrowDown,ArrowRight","false","","","original","1","62","","",""
"html-keyboard-response","180","990703","0.0-4.0-2.0-1.31","spark_pilot_2","7390","3","16","Male","","","","","","","null","<div style=""font-size:60px;"">+</div>","null","fixation","","","","","","","","","","","63","","",""
"revaluation","181","996707","0.0-4.0-2.0-0.32","spark_pilot_2","7390","3","16","Male","","false","","","","","[777.5999999977648,328.8999999985099]","./assets/img/ocean/memory/36.jpg","[""ArrowDown"",""ArrowRight""]","value training","ocean","30","{""ArrowUp,ArrowLeft"":23,""ArrowUp,ArrowRight"":10,""ArrowDown,ArrowLeft"":8,""ArrowDown,ArrowRight"":30}","true","ArrowDown,ArrowRight","false","","","original","1","64","","",""
"html-keyboard-response","182","997208","0.0-4.0-2.0-1.32","spark_pilot_2","7390","3","16","Male","","","","","","","null","<div style=""font-size:60px;"">+</div>","null","fixation","","","","","","","","","","","65","","",""
"revaluation","183","1001213","0.0-4.0-2.0-0.33","spark_pilot_2","7390","3","16","Male","","false","","","","","[472.6000000014901]","./assets/img/ocean/catch/4.jpg","[""ArrowDown""]","value training","ocean","-10","{""ArrowUp,ArrowLeft"":23,""ArrowUp,ArrowRight"":10,""ArrowDown,ArrowLeft"":8,""ArrowDown,ArrowRight"":30}","false","ArrowDown","true","","","original","1","66","","",""
"html-keyboard-response","184","1001714","0.0-4.0-2.0-1.33","spark_pilot_2","7390","3","16","Male","","","","","","","null","<div style=""font-size:60px;"">+</div>","null","fixation","","","","","","","","","","","67","","",""
"revaluation","185","1007718","0.0-4.0-2.0-0.34","spark_pilot_2","7390","3","16","Male","","false","","","","","[1022.3000000007451,853.5]","./assets/img/ocean/memory/11.jpg","[""ArrowDown"",""ArrowRight""]","value training","ocean","30","{""ArrowUp,ArrowLeft"":23,""ArrowUp,ArrowRight"":10,""ArrowDown,ArrowLeft"":8,""ArrowDown,ArrowRight"":30}","true","ArrowDown,ArrowRight","false","","","original","1","68","","",""
"html-keyboard-response","186","1008220","0.0-4.0-2.0-1.34","spark_pilot_2","7390","3","16","Male","","","","","","","null","<div style=""font-size:60px;"">+</div>","null","fixation","","","","","","","","","","","69","","",""
"revaluation","187","1014223","0.0-4.0-2.0-0.35","spark_pilot_2","7390","3","16","Male","","false","","","","","[789,509]","./assets/img/ocean/memory/26.jpg","[""ArrowDown"",""ArrowRight""]","value training","ocean","30","{""ArrowUp,ArrowLeft"":23,""ArrowUp,ArrowRight"":10,""ArrowDown,ArrowLeft"":8,""ArrowDown,ArrowRight"":30}","true","ArrowDown,ArrowRight","false","","","original","1","70","","",""
"html-keyboard-response","188","1014725","0.0-4.0-2.0-1.35","spark_pilot_2","7390","3","16","Male","","","","","","","null","<div style=""font-size:60px;"">+</div>","null","fixation","","","","","","","","","","","71","","",""
"revaluation","189","1020727","0.0-4.0-2.0-0.36","spark_pilot_2","7390","3","16","Male","","false","","","","","[685.5,533.3999999985099]","./assets/img/ocean/memory/26.jpg","[""ArrowDown"",""ArrowRight""]","value training","ocean","30","{""ArrowUp,ArrowLeft"":23,""ArrowUp,ArrowRight"":10,""ArrowDown,ArrowLeft"":8,""ArrowDown,ArrowRight"":30}","true","ArrowDown,ArrowRight","false","","","original","1","72","","",""
"html-keyboard-response","190","1021228","0.0-4.0-2.0-1.36","spark_pilot_2","7390","3","16","Male","","","","","","","null","<div style=""font-size:60px;"">+</div>","null","fixation","","","","","","","","","","","73","","",""
"revaluation","191","1025232","0.0-4.0-2.0-0.37","spark_pilot_2","7390","3","16","Male","","false","","","","","[1373.4000000022352]","./assets/img/ocean/catch/5.jpg","[""spaceBar""]","value training","ocean","0","{""ArrowUp,ArrowLeft"":23,""ArrowUp,ArrowRight"":10,""ArrowDown,ArrowLeft"":8,""ArrowDown,ArrowRight"":30}","true","spaceBar","true","","","original","1","74","","",""
"html-keyboard-response","192","1025733","0.0-4.0-2.0-1.37","spark_pilot_2","7390","3","16","Male","","","","","","","null","<div style=""font-size:60px;"">+</div>","null","fixation","","","","","","","","","","","75","","",""
"revaluation","193","1031736","0.0-4.0-2.0-0.38","spark_pilot_2","7390","3","16","Male","","false","","","","","[941.2999999970198,236.09999999776483]","./assets/img/ocean/memory/27.jpg","[""ArrowDown"",""ArrowRight""]","value training","ocean","30","{""ArrowUp,ArrowLeft"":23,""ArrowUp,ArrowRight"":10,""ArrowDown,ArrowLeft"":8,""ArrowDown,ArrowRight"":30}","true","ArrowDown,ArrowRight","false","","","original","1","76","","",""
"html-keyboard-response","194","1032238","0.0-4.0-2.0-1.38","spark_pilot_2","7390","3","16","Male","","","","","","","null","<div style=""font-size:60px;"">+</div>","null","fixation","","","","","","","","","","","77","","",""
"revaluation","195","1038243","0.0-4.0-2.0-0.39","spark_pilot_2","7390","3","16","Male","","false","","","","","[1012.0999999977648,298.70000000298023]","./assets/img/ocean/memory/7.jpg","[""ArrowDown"",""ArrowRight""]","value training","ocean","30","{""ArrowUp,ArrowLeft"":23,""ArrowUp,ArrowRight"":10,""ArrowDown,ArrowLeft"":8,""ArrowDown,ArrowRight"":30}","true","ArrowDown,ArrowRight","false","","","original","1","78","","",""
"html-keyboard-response","196","1038744","0.0-4.0-2.0-1.39","spark_pilot_2","7390","3","16","Male","","","","","","","null","<div style=""font-size:60px;"">+</div>","null","fixation","","","","","","","","","","","79","","",""
"revaluation","197","1044747","0.0-4.0-2.0-0.40","spark_pilot_2","7390","3","16","Male","","false","","","","","[1169.699999999255,977.3999999985099]","./assets/img/ocean/memory/35.jpg","[""ArrowDown"",""ArrowRight""]","value training","ocean","30","{""ArrowUp,ArrowLeft"":23,""ArrowUp,ArrowRight"":10,""ArrowDown,ArrowLeft"":8,""ArrowDown,ArrowRight"":30}","true","ArrowDown,ArrowRight","false","","","original","1","80","","",""
"html-keyboard-response","198","1045248","0.0-4.0-2.0-1.40","spark_pilot_2","7390","3","16","Male","","","","","","","null","<div style=""font-size:60px;"">+</div>","null","fixation","","","","","","","","","","","81","","",""
"revaluation","199","1049253","0.0-4.0-2.0-0.41","spark_pilot_2","7390","3","16","Male","","false","","","","","[1161.5]","./assets/img/ocean/catch/1.jpg","[""spaceBar""]","value training","ocean","0","{""ArrowUp,ArrowLeft"":23,""ArrowUp,ArrowRight"":10,""ArrowDown,ArrowLeft"":8,""ArrowDown,ArrowRight"":30}","true","spaceBar","true","","","original","1","82","","",""
"html-keyboard-response","200","1049754","0.0-4.0-2.0-1.41","spark_pilot_2","7390","3","16","Male","","","","","","","null","<div style=""font-size:60px;"">+</div>","null","fixation","","","","","","","","","","","83","","",""
"revaluation","201","1055759","0.0-4.0-2.0-0.42","spark_pilot_2","7390","3","16","Male","","false","","","","","[775.5,445.9000000022352]","./assets/img/ocean/memory/35.jpg","[""ArrowDown"",""ArrowRight""]","value training","ocean","30","{""ArrowUp,ArrowLeft"":23,""ArrowUp,ArrowRight"":10,""ArrowDown,ArrowLeft"":8,""ArrowDown,ArrowRight"":30}","true","ArrowDown,ArrowRight","false","","","original","1","84","","",""
"html-keyboard-response","202","1056260","0.0-4.0-2.0-1.42","spark_pilot_2","7390","3","16","Male","","","","","","","null","<div style=""font-size:60px;"">+</div>","null","fixation","","","","","","","","","","","85","","",""
"revaluation","203","1062264","0.0-4.0-2.0-0.43","spark_pilot_2","7390","3","16","Male","","false","","","","","[509.5999999977648,236.80000000074506]","./assets/img/ocean/memory/0.jpg","[""ArrowDown"",""ArrowRight""]","value training","ocean","30","{""ArrowUp,ArrowLeft"":23,""ArrowUp,ArrowRight"":10,""ArrowDown,ArrowLeft"":8,""ArrowDown,ArrowRight"":30}","true","ArrowDown,ArrowRight","false","","","original","1","86","","",""
"html-keyboard-response","204","1062765","0.0-4.0-2.0-1.43","spark_pilot_2","7390","3","16","Male","","","","","","","null","<div style=""font-size:60px;"">+</div>","null","fixation","","","","","","","","","","","87","","",""
"revaluation","205","1068768","0.0-4.0-2.0-0.44","spark_pilot_2","7390","3","16","Male","","false","","","","","[412.30000000074506,219.39999999850988]","./assets/img/ocean/memory/9.jpg","[""ArrowDown"",""ArrowLeft""]","value training","ocean","8","{""ArrowUp,ArrowLeft"":23,""ArrowUp,ArrowRight"":10,""ArrowDown,ArrowLeft"":8,""ArrowDown,ArrowRight"":30}","false","ArrowDown,ArrowLeft","false","","","original","1","88","","",""
"html-keyboard-response","206","1069270","0.0-4.0-2.0-1.44","spark_pilot_2","7390","3","16","Male","","","","","","","null","<div style=""font-size:60px;"">+</div>","null","fixation","","","","","","","","","","","89","","",""
"revaluation","207","1075274","0.0-4.0-2.0-0.45","spark_pilot_2","7390","3","16","Male","","false","","","","","[276,219.30000000074506]","./assets/img/ocean/memory/14.jpg","[""ArrowUp"",""ArrowRight""]","value training","ocean","10","{""ArrowUp,ArrowLeft"":23,""ArrowUp,ArrowRight"":10,""ArrowDown,ArrowLeft"":8,""ArrowDown,ArrowRight"":30}","false","ArrowUp,ArrowRight","false","","","original","1","90","","",""
"html-keyboard-response","208","1075775","0.0-4.0-2.0-1.45","spark_pilot_2","7390","3","16","Male","","","","","","","null","<div style=""font-size:60px;"">+</div>","null","fixation","","","","","","","","","","","91","","",""
"revaluation","209","1081779","0.0-4.0-2.0-0.46","spark_pilot_2","7390","3","16","Male","","false","","","","","[260.1000000014901,234.60000000149012]","./assets/img/ocean/memory/34.jpg","[""ArrowDown"",""ArrowRight""]","value training","ocean","30","{""ArrowUp,ArrowLeft"":23,""ArrowUp,ArrowRight"":10,""ArrowDown,ArrowLeft"":8,""ArrowDown,ArrowRight"":30}","true","ArrowDown,ArrowRight","false","","","original","1","92","","",""
"html-keyboard-response","210","1082280","0.0-4.0-2.0-1.46","spark_pilot_2","7390","3","16","Male","","","","","","","null","<div style=""font-size:60px;"">+</div>","null","fixation","","","","","","","","","","","93","","",""
"revaluation","211","1088284","0.0-4.0-2.0-0.47","spark_pilot_2","7390","3","16","Male","","false","","","","","[746.9000000022352,873.1999999992549]","./assets/img/ocean/memory/13.jpg","[""ArrowDown"",""ArrowRight""]","value training","ocean","30","{""ArrowUp,ArrowLeft"":23,""ArrowUp,ArrowRight"":10,""ArrowDown,ArrowLeft"":8,""ArrowDown,ArrowRight"":30}","true","ArrowDown,ArrowRight","false","","","original","1","94","","",""
"html-keyboard-response","212","1088785","0.0-4.0-2.0-1.47","spark_pilot_2","7390","3","16","Male","","","","","","","null","<div style=""font-size:60px;"">+</div>","null","fixation","","","","","","","","","","","95","","",""
"revaluation","213","1094790","0.0-4.0-2.0-0.48","spark_pilot_2","7390","3","16","Male","","false","","","","","[273.8999999985099,561.1999999992549]","./assets/img/ocean/memory/38.jpg","[""ArrowUp"",""ArrowRight""]","value training","ocean","10","{""ArrowUp,ArrowLeft"":23,""ArrowUp,ArrowRight"":10,""ArrowDown,ArrowLeft"":8,""ArrowDown,ArrowRight"":30}","false","ArrowUp,ArrowRight","false","","","original","1","96","","",""
"html-keyboard-response","214","1095292","0.0-4.0-2.0-1.48","spark_pilot_2","7390","3","16","Male","","","","","","","null","<div style=""font-size:60px;"">+</div>","null","fixation","","","","","","","","","","","97","","",""
"revaluation","215","1099295","0.0-4.0-2.0-0.49","spark_pilot_2","7390","3","16","Male","","false","","","","","[223.40000000223517]","./assets/img/ocean/catch/7.jpg","[""ArrowUp""]","value training","ocean","-10","{""ArrowUp,ArrowLeft"":23,""ArrowUp,ArrowRight"":10,""ArrowDown,ArrowLeft"":8,""ArrowDown,ArrowRight"":30}","false","ArrowUp","true","","","original","1","98","","",""
"html-keyboard-response","216","1099796","0.0-4.0-2.0-1.49","spark_pilot_2","7390","3","16","Male","","","","","","","null","<div style=""font-size:60px;"">+</div>","null","fixation","","","","","","","","","","","99","","",""
"learning-instructions","217","1116437","0.0-4.0-3.0-0.0","spark_pilot_2","7390","3","16","Male","","","","","","","3755.89999999851","<p> Now, you will travel with a friend who will choose whether you go up or down first. </p>
            <p> On these turns, you will just see the animal that they found. You will still get to choose which chest to search for treasure.</p>","","instructions","","","","","","","","","","","","","",""
"revaluation","218","1120450","0.0-4.0-4.0-0.0","spark_pilot_2","7390","3","16","Male","","false","","","","","[1406.5]","./assets/img/ocean/animals/octopus.jpg","[""ArrowRight""]","revaluation","ocean","30","{""ArrowUp,ArrowLeft"":23,""ArrowUp,ArrowRight"":10,""ArrowDown,ArrowLeft"":8,""ArrowDown,ArrowRight"":30}","true","ArrowDown,ArrowRight","","","","original","1","0","","",""
"html-keyboard-response","219","1120970","0.0-4.0-4.0-1.0","spark_pilot_2","7390","3","16","Male","","","","","","","null","<div style=""font-size:60px;"">+</div>","null","fixation","","","","","","","","","","","1","","",""
"revaluation","220","1125010","0.0-4.0-4.0-0.1","spark_pilot_2","7390","3","16","Male","","false","","","","","[273.29999999701977]","./assets/img/ocean/animals/octopus.jpg","[""ArrowRight""]","revaluation","ocean","30","{""ArrowUp,ArrowLeft"":23,""ArrowUp,ArrowRight"":10,""ArrowDown,ArrowLeft"":8,""ArrowDown,ArrowRight"":30}","true","ArrowDown,ArrowRight","","","","original","1","2","","",""
"html-keyboard-response","221","1125530","0.0-4.0-4.0-1.1","spark_pilot_2","7390","3","16","Male","","","","","","","null","<div style=""font-size:60px;"">+</div>","null","fixation","","","","","","","","","","","3","","",""
"revaluation","222","1129550","0.0-4.0-4.0-0.2","spark_pilot_2","7390","3","16","Male","","false","","","","","[409.3999999985099]","./assets/img/ocean/animals/octopus.jpg","[""ArrowRight""]","revaluation","ocean","30","{""ArrowUp,ArrowLeft"":23,""ArrowUp,ArrowRight"":10,""ArrowDown,ArrowLeft"":8,""ArrowDown,ArrowRight"":30}","true","ArrowDown,ArrowRight","","","","original","1","4","","",""
"html-keyboard-response","223","1130070","0.0-4.0-4.0-1.2","spark_pilot_2","7390","3","16","Male","","","","","","","null","<div style=""font-size:60px;"">+</div>","null","fixation","","","","","","","","","","","5","","",""
"revaluation","224","1134101","0.0-4.0-4.0-0.3","spark_pilot_2","7390","3","16","Male","","false","","","","","[389.5]","./assets/img/ocean/animals/octopus.jpg","[""ArrowRight""]","revaluation","ocean","30","{""ArrowUp,ArrowLeft"":23,""ArrowUp,ArrowRight"":10,""ArrowDown,ArrowLeft"":8,""ArrowDown,ArrowRight"":30}","true","ArrowDown,ArrowRight","","","","original","1","6","","",""
"html-keyboard-response","225","1134621","0.0-4.0-4.0-1.3","spark_pilot_2","7390","3","16","Male","","","","","","","null","<div style=""font-size:60px;"">+</div>","null","fixation","","","","","","","","","","","7","","",""
"revaluation","226","1138661","0.0-4.0-4.0-0.4","spark_pilot_2","7390","3","16","Male","","false","","","","","[319.4000000022352]","./assets/img/ocean/animals/octopus.jpg","[""ArrowRight""]","revaluation","ocean","30","{""ArrowUp,ArrowLeft"":23,""ArrowUp,ArrowRight"":10,""ArrowDown,ArrowLeft"":8,""ArrowDown,ArrowRight"":30}","true","ArrowDown,ArrowRight","","","","original","1","8","","",""
"html-keyboard-response","227","1139181","0.0-4.0-4.0-1.4","spark_pilot_2","7390","3","16","Male","","","","","","","null","<div style=""font-size:60px;"">+</div>","null","fixation","","","","","","","","","","","9","","",""
"revaluation","228","1143201","0.0-4.0-4.0-0.5","spark_pilot_2","7390","3","16","Male","","false","","","","","[583.2999999970198]","./assets/img/ocean/animals/seahorse.jpg","[""ArrowLeft""]","revaluation","ocean","23","{""ArrowUp,ArrowLeft"":23,""ArrowUp,ArrowRight"":10,""ArrowDown,ArrowLeft"":8,""ArrowDown,ArrowRight"":30}","true","ArrowUp,ArrowLeft","","","","original","1","10","","",""
"html-keyboard-response","229","1143705","0.0-4.0-4.0-1.5","spark_pilot_2","7390","3","16","Male","","","","","","","null","<div style=""font-size:60px;"">+</div>","null","fixation","","","","","","","","","","","11","","",""
"revaluation","230","1147709","0.0-4.0-4.0-0.6","spark_pilot_2","7390","3","16","Male","","false","","","","","[490.80000000074506]","./assets/img/ocean/animals/seahorse.jpg","[""ArrowLeft""]","revaluation","ocean","23","{""ArrowUp,ArrowLeft"":23,""ArrowUp,ArrowRight"":10,""ArrowDown,ArrowLeft"":8,""ArrowDown,ArrowRight"":30}","true","ArrowUp,ArrowLeft","","","","original","1","12","","",""
"html-keyboard-response","231","1148210","0.0-4.0-4.0-1.6","spark_pilot_2","7390","3","16","Male","","","","","","","null","<div style=""font-size:60px;"">+</div>","null","fixation","","","","","","","","","","","13","","",""
"revaluation","232","1152214","0.0-4.0-4.0-0.7","spark_pilot_2","7390","3","16","Male","","false","","","","","[545.8000000007451]","./assets/img/ocean/animals/seahorse.jpg","[""ArrowLeft""]","revaluation","ocean","23","{""ArrowUp,ArrowLeft"":23,""ArrowUp,ArrowRight"":10,""ArrowDown,ArrowLeft"":8,""ArrowDown,ArrowRight"":30}","true","ArrowUp,ArrowLeft","","","","original","1","14","","",""
"html-keyboard-response","233","1152715","0.0-4.0-4.0-1.7","spark_pilot_2","7390","3","16","Male","","","","","","","null","<div style=""font-size:60px;"">+</div>","null","fixation","","","","","","","","","","","15","","",""
"revaluation","234","1156718","0.0-4.0-4.0-0.8","spark_pilot_2","7390","3","16","Male","","false","","","","","[512.6999999992549]","./assets/img/ocean/animals/octopus.jpg","[""ArrowRight""]","revaluation","ocean","30","{""ArrowUp,ArrowLeft"":23,""ArrowUp,ArrowRight"":10,""ArrowDown,ArrowLeft"":8,""ArrowDown,ArrowRight"":30}","true","ArrowDown,ArrowRight","","","","original","1","16","","",""
"html-keyboard-response","235","1157220","0.0-4.0-4.0-1.8","spark_pilot_2","7390","3","16","Male","","","","","","","null","<div style=""font-size:60px;"">+</div>","null","fixation","","","","","","","","","","","17","","",""
"revaluation","236","1161224","0.0-4.0-4.0-0.9","spark_pilot_2","7390","3","16","Male","","false","","","","","[360]","./assets/img/ocean/animals/octopus.jpg","[""ArrowRight""]","revaluation","ocean","30","{""ArrowUp,ArrowLeft"":23,""ArrowUp,ArrowRight"":10,""ArrowDown,ArrowLeft"":8,""ArrowDown,ArrowRight"":30}","true","ArrowDown,ArrowRight","","","","original","1","18","","",""
"html-keyboard-response","237","1161725","0.0-4.0-4.0-1.9","spark_pilot_2","7390","3","16","Male","","","","","","","null","<div style=""font-size:60px;"">+</div>","null","fixation","","","","","","","","","","","19","","",""
"revaluation","238","1165729","0.0-4.0-4.0-0.10","spark_pilot_2","7390","3","16","Male","","false","","","","","[1222.0999999977648]","./assets/img/ocean/animals/seahorse.jpg","[""ArrowLeft""]","revaluation","ocean","23","{""ArrowUp,ArrowLeft"":23,""ArrowUp,ArrowRight"":10,""ArrowDown,ArrowLeft"":8,""ArrowDown,ArrowRight"":30}","true","ArrowUp,ArrowLeft","","","","original","1","20","","",""
"html-keyboard-response","239","1166231","0.0-4.0-4.0-1.10","spark_pilot_2","7390","3","16","Male","","","","","","","null","<div style=""font-size:60px;"">+</div>","null","fixation","","","","","","","","","","","21","","",""
"revaluation","240","1170234","0.0-4.0-4.0-0.11","spark_pilot_2","7390","3","16","Male","","false","","","","","[365]","./assets/img/ocean/animals/seahorse.jpg","[""ArrowLeft""]","revaluation","ocean","23","{""ArrowUp,ArrowLeft"":23,""ArrowUp,ArrowRight"":10,""ArrowDown,ArrowLeft"":8,""ArrowDown,ArrowRight"":30}","true","ArrowUp,ArrowLeft","","","","original","1","22","","",""
"html-keyboard-response","241","1170736","0.0-4.0-4.0-1.11","spark_pilot_2","7390","3","16","Male","","","","","","","null","<div style=""font-size:60px;"">+</div>","null","fixation","","","","","","","","","","","23","","",""
"revaluation","242","1174740","0.0-4.0-4.0-0.12","spark_pilot_2","7390","3","16","Male","","false","","","","","[444.19999999925494]","./assets/img/ocean/animals/seahorse.jpg","[""ArrowLeft""]","revaluation","ocean","23","{""ArrowUp,ArrowLeft"":23,""ArrowUp,ArrowRight"":10,""ArrowDown,ArrowLeft"":8,""ArrowDown,ArrowRight"":30}","true","ArrowUp,ArrowLeft","","","","original","1","24","","",""
"html-keyboard-response","243","1175241","0.0-4.0-4.0-1.12","spark_pilot_2","7390","3","16","Male","","","","","","","null","<div style=""font-size:60px;"">+</div>","null","fixation","","","","","","","","","","","25","","",""
"revaluation","244","1179244","0.0-4.0-4.0-0.13","spark_pilot_2","7390","3","16","Male","","false","","","","","[450.5999999977648]","./assets/img/ocean/animals/seahorse.jpg","[""ArrowLeft""]","revaluation","ocean","23","{""ArrowUp,ArrowLeft"":23,""ArrowUp,ArrowRight"":10,""ArrowDown,ArrowLeft"":8,""ArrowDown,ArrowRight"":30}","true","ArrowUp,ArrowLeft","","","","original","1","26","","",""
"html-keyboard-response","245","1179745","0.0-4.0-4.0-1.13","spark_pilot_2","7390","3","16","Male","","","","","","","null","<div style=""font-size:60px;"">+</div>","null","fixation","","","","","","","","","","","27","","",""
"revaluation","246","1183749","0.0-4.0-4.0-0.14","spark_pilot_2","7390","3","16","Male","","false","","","","","[650.3999999985099]","./assets/img/ocean/animals/seahorse.jpg","[""ArrowLeft""]","revaluation","ocean","23","{""ArrowUp,ArrowLeft"":23,""ArrowUp,ArrowRight"":10,""ArrowDown,ArrowLeft"":8,""ArrowDown,ArrowRight"":30}","true","ArrowUp,ArrowLeft","","","","original","1","28","","",""
"html-keyboard-response","247","1184251","0.0-4.0-4.0-1.14","spark_pilot_2","7390","3","16","Male","","","","","","","null","<div style=""font-size:60px;"">+</div>","null","fixation","","","","","","","","","","","29","","",""
"revaluation","248","1188256","0.0-4.0-4.0-0.15","spark_pilot_2","7390","3","16","Male","","true","","","","","[]","./assets/img/ocean/animals/octopus.jpg","[]","revaluation","ocean","-5","{""ArrowUp,ArrowLeft"":23,""ArrowUp,ArrowRight"":10,""ArrowDown,ArrowLeft"":8,""ArrowDown,ArrowRight"":30}","false","ArrowDown","","","","original","1","30","","",""
"html-keyboard-response","249","1188758","0.0-4.0-4.0-1.15","spark_pilot_2","7390","3","16","Male","","","","","","","null","<div style=""font-size:60px;"">+</div>","null","fixation","","","","","","","","","","","31","","",""
"revaluation","250","1192760","0.0-4.0-4.0-0.16","spark_pilot_2","7390","3","16","Male","","false","","","","","[758]","./assets/img/ocean/animals/seahorse.jpg","[""ArrowLeft""]","revaluation","ocean","23","{""ArrowUp,ArrowLeft"":23,""ArrowUp,ArrowRight"":10,""ArrowDown,ArrowLeft"":8,""ArrowDown,ArrowRight"":30}","true","ArrowUp,ArrowLeft","","","","original","1","32","","",""
"html-keyboard-response","251","1193262","0.0-4.0-4.0-1.16","spark_pilot_2","7390","3","16","Male","","","","","","","null","<div style=""font-size:60px;"">+</div>","null","fixation","","","","","","","","","","","33","","",""
"revaluation","252","1197266","0.0-4.0-4.0-0.17","spark_pilot_2","7390","3","16","Male","","false","","","","","[486.30000000074506]","./assets/img/ocean/animals/octopus.jpg","[""ArrowRight""]","revaluation","ocean","30","{""ArrowUp,ArrowLeft"":23,""ArrowUp,ArrowRight"":10,""ArrowDown,ArrowLeft"":8,""ArrowDown,ArrowRight"":30}","true","ArrowDown,ArrowRight","","","","original","1","34","","",""
"html-keyboard-response","253","1197766","0.0-4.0-4.0-1.17","spark_pilot_2","7390","3","16","Male","","","","","","","null","<div style=""font-size:60px;"">+</div>","null","fixation","","","","","","","","","","","35","","",""
"learning-instructions","254","1210655","0.0-4.0-5.0-0.0","spark_pilot_2","7390","3","16","Male","","","","","","","1279.7000000029802","<p> Time to play the dot game! </p>
            <p> For one minute, click the red dots on the following screen as they appear. </p>
            <p><b> Don't look away, as you will earn bonus for clicking dots</b>. </p>","","instructions","","","","","","","","","","","","","",""
"revaluation","255","1270658","0.0-4.0-6.0-0.0","spark_pilot_2","7390","3","16","Male","","","","","","","[40,29,73,105,51,49,54]","","","rest","","70","","","","","0","60000","","","","","",""
"learning-instructions","256","1278184","0.0-4.0-7.0-0.0","spark_pilot_2","7390","3","16","Male","","","","","","","1408.300000000745","<p> You have almost finished this part of the game! </p>
            <p> We are going to ask you to make a few more choices. </p>","","instructions","","","","","","","","","","","","","",""
"learning-instructions","257","1292976","0.0-4.0-7.0-0.1","spark_pilot_2","7390","3","16","Male","","","","","","","830.2000000029802","<p> First, you need to decide whether to go up or down. When you see each picture, use the arrow keys to make your choice. </p>
            <p><b>You will not see which animal you found, but try to get to the one that will give you the most treasure.</b></p>","","instructions","","","","","","","","","","","","","",""
"revaluation","258","1294560","0.0-4.0-8.0-0.0","spark_pilot_2","7390","3","16","Male","","false","","","","","[1582.800000000745]","./assets/img/ocean/test/0.jpg","[""ArrowDown""]","first stage test","ocean","0","{""ArrowUp,ArrowLeft"":23,""ArrowUp,ArrowRight"":10,""ArrowDown,ArrowLeft"":8,""ArrowDown,ArrowRight"":30}","true","ArrowDown","false","","","original","1","","","",""
"html-keyboard-response","259","1295064","0.0-4.0-8.0-1.0","spark_pilot_2","7390","3","16","Male","","","","","","","null","<div style=""font-size:60px;"">+</div>","null","fixation","","","","","","","","","","","","","",""
"revaluation","260","1295568","0.0-4.0-8.0-0.1","spark_pilot_2","7390","3","16","Male","","false","","","","","[502.1000000014901]","./assets/img/ocean/test/3.jpg","[""ArrowDown""]","first stage test","ocean","0","{""ArrowUp,ArrowLeft"":23,""ArrowUp,ArrowRight"":10,""ArrowDown,ArrowLeft"":8,""ArrowDown,ArrowRight"":30}","true","ArrowDown","false","","","original","1","","","",""
"html-keyboard-response","261","1296074","0.0-4.0-8.0-1.1","spark_pilot_2","7390","3","16","Male","","","","","","","null","<div style=""font-size:60px;"">+</div>","null","fixation","","","","","","","","","","","","","",""
"revaluation","262","1296384","0.0-4.0-8.0-0.2","spark_pilot_2","7390","3","16","Male","","false","","","","","[308]","./assets/img/ocean/test/1.jpg","[""ArrowDown""]","first stage test","ocean","0","{""ArrowUp,ArrowLeft"":23,""ArrowUp,ArrowRight"":10,""ArrowDown,ArrowLeft"":8,""ArrowDown,ArrowRight"":30}","true","ArrowDown","false","","","original","1","","","",""
"html-keyboard-response","263","1296904","0.0-4.0-8.0-1.2","spark_pilot_2","7390","3","16","Male","","","","","","","null","<div style=""font-size:60px;"">+</div>","null","fixation","","","","","","","","","","","","","",""
"revaluation","264","1297192","0.0-4.0-8.0-0.3","spark_pilot_2","7390","3","16","Male","","false","","","","","[286]","./assets/img/ocean/test/2.jpg","[""ArrowDown""]","first stage test","ocean","0","{""ArrowUp,ArrowLeft"":23,""ArrowUp,ArrowRight"":10,""ArrowDown,ArrowLeft"":8,""ArrowDown,ArrowRight"":30}","true","ArrowDown","false","","","original","1","","","",""
"html-keyboard-response","265","1297694","0.0-4.0-8.0-1.3","spark_pilot_2","7390","3","16","Male","","","","","","","null","<div style=""font-size:60px;"">+</div>","null","fixation","","","","","","","","","","","","","",""
"learning-instructions","266","1310472","0.0-4.0-9.0-0.0","spark_pilot_2","7390","3","16","Male","","","","","","","1446.300000000745","<p> Now you will see the animals again and can search their chests for treasure. </p>
            <p> This time, you will not see how much treasure you earned, but you will earn more bonus money for making better choices. </p>","","instructions","","","","","","","","","","","","","",""
"revaluation","267","1311272","0.0-4.0-10.0-0.0","spark_pilot_2","7390","3","16","Male","","false","","","","","[798.6999999992549]","./assets/img/ocean/animals/seahorse.jpg","[""ArrowLeft""]","second stage test","ocean","0","{""ArrowUp,ArrowLeft"":23,""ArrowUp,ArrowRight"":10,""ArrowDown,ArrowLeft"":8,""ArrowDown,ArrowRight"":30}","true","ArrowUp,ArrowLeft","","","","original","1","","","",""
"html-keyboard-response","268","1311774","0.0-4.0-10.0-1.0","spark_pilot_2","7390","3","16","Male","","","","","","","null","<div style=""font-size:60px;"">+</div>","null","fixation","","","","","","","","","","","","","",""
"revaluation","269","1312008","0.0-4.0-10.0-0.1","spark_pilot_2","7390","3","16","Male","","false","","","","","[231.90000000223517]","./assets/img/ocean/animals/seahorse.jpg","[""ArrowLeft""]","second stage test","ocean","0","{""ArrowUp,ArrowLeft"":23,""ArrowUp,ArrowRight"":10,""ArrowDown,ArrowLeft"":8,""ArrowDown,ArrowRight"":30}","true","ArrowUp,ArrowLeft","","","","original","1","","","",""
"html-keyboard-response","270","1312514","0.0-4.0-10.0-1.1","spark_pilot_2","7390","3","16","Male","","","","","","","null","<div style=""font-size:60px;"">+</div>","null","fixation","","","","","","","","","","","","","",""
"revaluation","271","1312720","0.0-4.0-10.0-0.2","spark_pilot_2","7390","3","16","Male","","false","","","","","[204]","./assets/img/ocean/animals/seahorse.jpg","[""ArrowLeft""]","second stage test","ocean","0","{""ArrowUp,ArrowLeft"":23,""ArrowUp,ArrowRight"":10,""ArrowDown,ArrowLeft"":8,""ArrowDown,ArrowRight"":30}","true","ArrowUp,ArrowLeft","","","","original","1","","","",""
"html-keyboard-response","272","1313224","0.0-4.0-10.0-1.2","spark_pilot_2","7390","3","16","Male","","","","","","","null","<div style=""font-size:60px;"">+</div>","null","fixation","","","","","","","","","","","","","",""
"revaluation","273","1313480","0.0-4.0-10.0-0.3","spark_pilot_2","7390","3","16","Male","","false","","","","","[253.80000000074506]","./assets/img/ocean/animals/seahorse.jpg","[""ArrowLeft""]","second stage test","ocean","0","{""ArrowUp,ArrowLeft"":23,""ArrowUp,ArrowRight"":10,""ArrowDown,ArrowLeft"":8,""ArrowDown,ArrowRight"":30}","true","ArrowUp,ArrowLeft","","","","original","1","","","",""
"html-keyboard-response","274","1313984","0.0-4.0-10.0-1.3","spark_pilot_2","7390","3","16","Male","","","","","","","null","<div style=""font-size:60px;"">+</div>","null","fixation","","","","","","","","","","","","","",""
"revaluation","275","1314224","0.0-4.0-10.0-0.4","spark_pilot_2","7390","3","16","Male","","false","","","","","[237.60000000149012]","./assets/img/ocean/animals/octopus.jpg","[""ArrowLeft""]","second stage test","ocean","0","{""ArrowUp,ArrowLeft"":23,""ArrowUp,ArrowRight"":10,""ArrowDown,ArrowLeft"":8,""ArrowDown,ArrowRight"":30}","false","ArrowDown,ArrowLeft","","","","original","1","","","",""
"html-keyboard-response","276","1314725","0.0-4.0-10.0-1.4","spark_pilot_2","7390","3","16","Male","","","","","","","null","<div style=""font-size:60px;"">+</div>","null","fixation","","","","","","","","","","","","","",""
"revaluation","277","1314765","0.0-4.0-10.0-0.5","spark_pilot_2","7390","3","16","Male","","false","","","","","[38.69999999925494]","./assets/img/ocean/animals/octopus.jpg","[""ArrowLeft""]","second stage test","ocean","0","{""ArrowUp,ArrowLeft"":23,""ArrowUp,ArrowRight"":10,""ArrowDown,ArrowLeft"":8,""ArrowDown,ArrowRight"":30}","false","ArrowDown,ArrowLeft","","","","original","1","","","",""
"html-keyboard-response","278","1315285","0.0-4.0-10.0-1.5","spark_pilot_2","7390","3","16","Male","","","","","","","null","<div style=""font-size:60px;"">+</div>","null","fixation","","","","","","","","","","","","","",""
"revaluation","279","1315311","0.0-4.0-10.0-0.6","spark_pilot_2","7390","3","16","Male","","false","","","","","[24.400000002235174]","./assets/img/ocean/animals/octopus.jpg","[""ArrowLeft""]","second stage test","ocean","0","{""ArrowUp,ArrowLeft"":23,""ArrowUp,ArrowRight"":10,""ArrowDown,ArrowLeft"":8,""ArrowDown,ArrowRight"":30}","false","ArrowDown,ArrowLeft","","","","original","1","","","",""
"html-keyboard-response","280","1315815","0.0-4.0-10.0-1.6","spark_pilot_2","7390","3","16","Male","","","","","","","null","<div style=""font-size:60px;"">+</div>","null","fixation","","","","","","","","","","","","","",""
"revaluation","281","1316369","0.0-4.0-10.0-0.7","spark_pilot_2","7390","3","16","Male","","false","","","","","[551.6000000014901]","./assets/img/ocean/animals/octopus.jpg","[""ArrowRight""]","second stage test","ocean","0","{""ArrowUp,ArrowLeft"":23,""ArrowUp,ArrowRight"":10,""ArrowDown,ArrowLeft"":8,""ArrowDown,ArrowRight"":30}","true","ArrowDown,ArrowRight","","","","original","1","","","",""
"html-keyboard-response","282","1316885","0.0-4.0-10.0-1.7","spark_pilot_2","7390","3","16","Male","","","","","","","null","<div style=""font-size:60px;"">+</div>","null","fixation","","","","","","","","","","","","","",""
"learning-instructions","283","1321105","0.0-4.0-0.1-0.2","spark_pilot_2","7390","3","16","Male","","","","","","","1448.5999999977648","<p> This time you are searching for treasure in the <b>canyon</b>.</p>","","instructions","","","","","","","","","","","","","",""
"learning-instructions","284","1338681","0.0-4.0-0.1-0.3","spark_pilot_2","7390","3","16","Male","","","","","","","334.3999999985099","<p><b>New</b> animals with <b>new</b> treasure chests live here. You need to explore to discover where the animal with the best treasure chest is.</p>
                    <p> Like before, once you figure out which animal has the chest with the most treasure, you should try to get to that animal and select that chest! </p>","","instructions","","","","","","","","","","","","","",""
"learning-instructions","285","1354393","0.0-4.0-1.1-0.1","spark_pilot_2","7390","3","16","Male","","","","","","","986.3000000007451","<p> Remember, when you see a picture of the place, use the up and down keys to <b>find an animal</b>.</p>
            <p> When you encounter an animal, you should use the left and right keys to <b>select a treasure chest</b>.</p>
            <p> Don't forget to look out for the robber! </p>","","instructions","","","","","","","","","","","","","",""
"revaluation","286","1358415","0.0-4.0-2.1-0.50","spark_pilot_2","7390","3","16","Male","","false","","","","","[1270.8999999985099]","./assets/img/canyon/catch/6.jpg","[""spaceBar""]","value training","canyon","0","{""ArrowUp,ArrowLeft"":26,""ArrowUp,ArrowRight"":10,""ArrowDown,ArrowLeft"":5,""ArrowDown,ArrowRight"":17}","true","spaceBar","true","","","revaluation","2","0","","",""
"html-keyboard-response","287","1358935","0.0-4.0-2.1-1.50","spark_pilot_2","7390","3","16","Male","","","","","","","null","<div style=""font-size:60px;"">+</div>","null","fixation","","","","","","","","","","","1","","",""
"revaluation","288","1364975","0.0-4.0-2.1-0.51","spark_pilot_2","7390","3","16","Male","","false","","","","","[903.8000000007451,815.9000000022352]","./assets/img/canyon/memory/13.jpg","[""ArrowUp"",""ArrowLeft""]","value training","canyon","26","{""ArrowUp,ArrowLeft"":26,""ArrowUp,ArrowRight"":10,""ArrowDown,ArrowLeft"":5,""ArrowDown,ArrowRight"":17}","true","ArrowUp,ArrowLeft","false","","","revaluation","2","2","","",""
"html-keyboard-response","289","1365495","0.0-4.0-2.1-1.51","spark_pilot_2","7390","3","16","Male","","","","","","","null","<div style=""font-size:60px;"">+</div>","null","fixation","","","","","","","","","","","3","","",""
"revaluation","290","1371546","0.0-4.0-2.1-0.52","spark_pilot_2","7390","3","16","Male","","false","","","","","[304.0999999977648,207.30000000074506]","./assets/img/canyon/memory/4.jpg","[""ArrowUp"",""ArrowRight""]","value training","canyon","10","{""ArrowUp,ArrowLeft"":26,""ArrowUp,ArrowRight"":10,""ArrowDown,ArrowLeft"":5,""ArrowDown,ArrowRight"":17}","false","ArrowUp,ArrowRight","false","","","revaluation","2","4","","",""
"html-keyboard-response","291","1372065","0.0-4.0-2.1-1.52","spark_pilot_2","7390","3","16","Male","","","","","","","null","<div style=""font-size:60px;"">+</div>","null","fixation","","","","","","","","","","","5","","",""
"revaluation","292","1376096","0.0-4.0-2.1-0.53","spark_pilot_2","7390","3","16","Male","","false","","","","","[206]","./assets/img/canyon/catch/1.jpg","[""ArrowDown""]","value training","canyon","-10","{""ArrowUp,ArrowLeft"":26,""ArrowUp,ArrowRight"":10,""ArrowDown,ArrowLeft"":5,""ArrowDown,ArrowRight"":17}","false","ArrowDown","true","","","revaluation","2","6","","",""
"html-keyboard-response","293","1376616","0.0-4.0-2.1-1.53","spark_pilot_2","7390","3","16","Male","","","","","","","null","<div style=""font-size:60px;"">+</div>","null","fixation","","","","","","","","","","","7","","",""
"revaluation","294","1382666","0.0-4.0-2.1-0.54","spark_pilot_2","7390","3","16","Male","","false","","","","","[952.1000000014901,343.3999999985099]","./assets/img/canyon/memory/10.jpg","[""ArrowDown"",""ArrowLeft""]","value training","canyon","5","{""ArrowUp,ArrowLeft"":26,""ArrowUp,ArrowRight"":10,""ArrowDown,ArrowLeft"":5,""ArrowDown,ArrowRight"":17}","false","ArrowDown,ArrowLeft","false","","","revaluation","2","8","","",""
"html-keyboard-response","295","1383186","0.0-4.0-2.1-1.54","spark_pilot_2","7390","3","16","Male","","","","","","","null","<div style=""font-size:60px;"">+</div>","null","fixation","","","","","","","","","","","9","","",""
"revaluation","296","1387190","0.0-4.0-2.1-0.55","spark_pilot_2","7390","3","16","Male","","false","","","","","[1294]","./assets/img/canyon/catch/4.jpg","[""spaceBar""]","value training","canyon","0","{""ArrowUp,ArrowLeft"":26,""ArrowUp,ArrowRight"":10,""ArrowDown,ArrowLeft"":5,""ArrowDown,ArrowRight"":17}","true","spaceBar","true","","","revaluation","2","10","","",""
"html-keyboard-response","297","1387691","0.0-4.0-2.1-1.55","spark_pilot_2","7390","3","16","Male","","","","","","","null","<div style=""font-size:60px;"">+</div>","null","fixation","","","","","","","","","","","11","","",""
"revaluation","298","1393694","0.0-4.0-2.1-0.56","spark_pilot_2","7390","3","16","Male","","false","","","","","[364.8999999985099,237.10000000149012]","./assets/img/canyon/memory/14.jpg","[""ArrowDown"",""ArrowRight""]","value training","canyon","17","{""ArrowUp,ArrowLeft"":26,""ArrowUp,ArrowRight"":10,""ArrowDown,ArrowLeft"":5,""ArrowDown,ArrowRight"":17}","false","ArrowDown,ArrowRight","false","","","revaluation","2","12","","",""
"html-keyboard-response","299","1394195","0.0-4.0-2.1-1.56","spark_pilot_2","7390","3","16","Male","","","","","","","null","<div style=""font-size:60px;"">+</div>","null","fixation","","","","","","","","","","","13","","",""
"revaluation","300","1400200","0.0-4.0-2.1-0.57","spark_pilot_2","7390","3","16","Male","","false","","","","","[348.69999999925494,196]","./assets/img/canyon/memory/20.jpg","[""ArrowUp"",""ArrowLeft""]","value training","canyon","26","{""ArrowUp,ArrowLeft"":26,""ArrowUp,ArrowRight"":10,""ArrowDown,ArrowLeft"":5,""ArrowDown,ArrowRight"":17}","true","ArrowUp,ArrowLeft","false","","","revaluation","2","14","","",""
"html-keyboard-response","301","1400702","0.0-4.0-2.1-1.57","spark_pilot_2","7390","3","16","Male","","","","","","","null","<div style=""font-size:60px;"">+</div>","null","fixation","","","","","","","","","","","15","","",""
"revaluation","302","1404705","0.0-4.0-2.1-0.58","spark_pilot_2","7390","3","16","Male","","false","","","","","[393.69999999925494]","./assets/img/canyon/catch/2.jpg","[""ArrowUp""]","value training","canyon","-10","{""ArrowUp,ArrowLeft"":26,""ArrowUp,ArrowRight"":10,""ArrowDown,ArrowLeft"":5,""ArrowDown,ArrowRight"":17}","false","ArrowUp","true","","","revaluation","2","16","","",""
"html-keyboard-response","303","1405206","0.0-4.0-2.1-1.58","spark_pilot_2","7390","3","16","Male","","","","","","","null","<div style=""font-size:60px;"">+</div>","null","fixation","","","","","","","","","","","17","","",""
"revaluation","304","1411211","0.0-4.0-2.1-0.59","spark_pilot_2","7390","3","16","Male","","false","","","","","[1025.5999999977648,232.29999999701977]","./assets/img/canyon/memory/34.jpg","[""ArrowUp"",""ArrowLeft""]","value training","canyon","26","{""ArrowUp,ArrowLeft"":26,""ArrowUp,ArrowRight"":10,""ArrowDown,ArrowLeft"":5,""ArrowDown,ArrowRight"":17}","true","ArrowUp,ArrowLeft","false","","","revaluation","2","18","","",""
"html-keyboard-response","305","1411712","0.0-4.0-2.1-1.59","spark_pilot_2","7390","3","16","Male","","","","","","","null","<div style=""font-size:60px;"">+</div>","null","fixation","","","","","","","","","","","19","","",""
"revaluation","306","1415715","0.0-4.0-2.1-0.60","spark_pilot_2","7390","3","16","Male","","false","","","","","[456.20000000298023]","./assets/img/canyon/catch/7.jpg","[""spaceBar""]","value training","canyon","0","{""ArrowUp,ArrowLeft"":26,""ArrowUp,ArrowRight"":10,""ArrowDown,ArrowLeft"":5,""ArrowDown,ArrowRight"":17}","true","spaceBar","true","","","revaluation","2","20","","",""
"html-keyboard-response","307","1416216","0.0-4.0-2.1-1.60","spark_pilot_2","7390","3","16","Male","","","","","","","null","<div style=""font-size:60px;"">+</div>","null","fixation","","","","","","","","","","","21","","",""
"revaluation","308","1422222","0.0-4.0-2.1-0.61","spark_pilot_2","7390","3","16","Male","","false","","","","","[631.5,54.70000000298023]","./assets/img/canyon/memory/21.jpg","[""ArrowUp"",""ArrowLeft""]","value training","canyon","26","{""ArrowUp,ArrowLeft"":26,""ArrowUp,ArrowRight"":10,""ArrowDown,ArrowLeft"":5,""ArrowDown,ArrowRight"":17}","true","ArrowUp,ArrowLeft","false","","","revaluation","2","22","","",""
