"trial_type","trial_index","time_elapsed","internal_node_id","task_version","subject_id","assigned_condition","age","gender","success","timeout","failed_images","failed_audio","failed_video","browser_interaction","rt","stimulus","response","task_part","environment","score","rewardMap","correct","fullState","isCatch","numberMissed","duration","condition","order","trial_num","key_press","ground_truth","bonus"
"pavlovia","0","1881","0.0-0.0","spark_pilot_2","7521","4","23","Male","","","","","","","","","","","","","","","","","","","","","","","",""
"preload","1","26730","0.0-1.0","spark_pilot_2","7521","4","23","Male","true","false","[]","[]","[]","[{""event"":""fullscreenenter"",""trial"":2,""time"":29971}]","","","","","","","","","","","","","","","","","",""
"fullscreen","2","30631","0.0-2.0","spark_pilot_2","7521","4","23","Male","true","","","","","","","","","","","","","","","","","","","","","","",""
"audio-button-response","3","33266","0.0-3.0-0.0-0.0","spark_pilot_2","7521","4","23","Male","","","","","","","2240","./assets/audio/audiotest/turtle.mp3","2","audio_test","","","","","","","","","","","","","",""
"learning-instructions","4","42868","0.0-3.0-1.0-0.0","spark_pilot_2","7521","4","23","Male","","","","","","","2404","<p> Welcome! Please remember to stay in fullscreen mode and don't click away from the experiment. </p>","","instructions","","","","","","","","","","","","","",""
"learning-instructions","5","52400","0.0-3.0-1.0-0.1","spark_pilot_2","7521","4","23","Male","","","","","","","904","<p> Today you will be playing a game to earn treasure. </p>
            <p> At the end of the experiment, you will earn a bonus based on how much treasure you find. </p>
            <img src='./assets/img/instructions/treasure.jpg' class='instructions-image'>","","instructions","","","","","","","","","","","","","",""
"learning-instructions","6","62755","0.0-3.0-1.0-0.2","spark_pilot_2","7521","4","23","Male","","","","","","","1901","<p> Animals have hidden treasure in treasure chests. </p>
            <p> You need to first find an animal and then choose which of their treasure chests to search. </p>
            <img src='./assets/img/space/animals/cat.jpg' class='instructions-image'>","","instructions","","","","","","","","","","","","","",""
"learning-instructions","7","78104","0.0-3.0-1.0-0.3","spark_pilot_2","7521","4","23","Male","","","","","","","1759","<p> In each round, you will search for treasure in a different place. In the real game, there will be two rounds. </p>
            <p> You will begin with a separate, practice round where you will search for treasure in outer space. </p>
            <img src='./assets/img/space/0.jpg' class='instructions-image'>","","instructions","","","","","","","","","","","","","",""
"learning-instructions","8","91220","0.0-3.0-1.0-0.4","spark_pilot_2","7521","4","23","Male","","","","","","","1318","<p> On every turn, you will see a picture of the place that you are in, but the specific image may be different each time. </p>
            <p> For example, both of these images mean you are in outer space. </p>
            <img src='./assets/img/instructions/outerspace.jpg' class='instructions-image'>","","instructions","","","","","","","","","","","","","",""
"learning-instructions","9","101247","0.0-3.0-1.0-0.5","spark_pilot_2","7521","4","23","Male","","","","","","","1931","<p> You need to decide which direction to travel in. </p>
            <p> You can choose between going <b>up or down</b> by using the arrow keys. </p>
            <img src='./assets/img/instructions/updown.jpg' class='instructions-image'>","","instructions","","","","","","","","","","","","","",""
"learning-instructions","10","110913","0.0-3.0-1.0-0.6","spark_pilot_2","7521","4","23","Male","","","","","","","563","<p> You will have <b>2 seconds</b> to make your choice. </p>
            <p> If you do not make a choice within 2 seconds, you will not find an animal or earn treasure. </p>
            <img src='./assets/img/instructions/2seconds.jpg' class='instructions-image'>","","instructions","","","","","","","","","","","","","",""
"learning-instructions","11","119323","0.0-3.0-1.0-0.7","spark_pilot_2","7521","4","23","Male","","","","","","","1139","<p> Let’s try practicing that now! </p>
            <p> When you see a picture of the place you are in, press the <b>up</b> key to travel up. </p>
            <img src='./assets/img/instructions/pressUp.jpg' class='instructions-image'>","","instructions","","","","","","","","","","","","","",""
"revaluation","12","123350","0.0-3.0-2.0-0.0","spark_pilot_2","7521","4","23","Male","","false","","","","","[1104]","./assets/img/space/0.jpg","[""ArrowUp""]","first stage practice","space","0","null","null","ArrowUp","false","","","","","","","",""
"html-keyboard-response","13","123877","0.0-3.0-2.0-1.0","spark_pilot_2","7521","4","23","Male","","","","","","","null","<div style=""font-size:60px;"">+</div>","null","fixation","","","","","","","","","","","","","",""
"revaluation","14","127926","0.0-3.0-2.0-0.1","spark_pilot_2","7521","4","23","Male","","false","","","","","[1518]","./assets/img/space/1.jpg","[""ArrowUp""]","first stage practice","space","0","null","null","ArrowUp","false","","","","","","","",""
"html-keyboard-response","15","128442","0.0-3.0-2.0-1.1","spark_pilot_2","7521","4","23","Male","","","","","","","null","<div style=""font-size:60px;"">+</div>","null","fixation","","","","","","","","","","","","","",""
"revaluation","16","132491","0.0-3.0-2.0-0.2","spark_pilot_2","7521","4","23","Male","","false","","","","","[1509]","./assets/img/space/2.jpg","[""ArrowUp""]","first stage practice","space","0","null","null","ArrowUp","false","","","","","","","",""
"html-keyboard-response","17","133002","0.0-3.0-2.0-1.2","spark_pilot_2","7521","4","23","Male","","","","","","","null","<div style=""font-size:60px;"">+</div>","null","fixation","","","","","","","","","","","","","",""
"learning-instructions","18","138988","0.0-3.0-3.0-0.0","spark_pilot_2","7521","4","23","Male","","","","","","","1163","<p> Great job! Now try pressing the <b>down</b> key to travel down. </p>
            <img src='./assets/img/instructions/pressDown.jpg' class='instructions-image'>","","instructions","","","","","","","","","","","","","",""
"revaluation","19","143023","0.0-3.0-4.0-0.0","spark_pilot_2","7521","4","23","Male","","false","","","","","[1468]","./assets/img/space/3.jpg","[""ArrowDown""]","first stage practice","space","0","null","null","ArrowDown","false","","","","","","","",""
"html-keyboard-response","20","143542","0.0-3.0-4.0-1.0","spark_pilot_2","7521","4","23","Male","","","","","","","null","<div style=""font-size:60px;"">+</div>","null","fixation","","","","","","","","","","","","","",""
"revaluation","21","147564","0.0-3.0-4.0-0.1","spark_pilot_2","7521","4","23","Male","","false","","","","","[1224]","./assets/img/space/4.jpg","[""ArrowDown""]","first stage practice","space","0","null","null","ArrowDown","false","","","","","","","",""
"html-keyboard-response","22","148083","0.0-3.0-4.0-1.1","spark_pilot_2","7521","4","23","Male","","","","","","","null","<div style=""font-size:60px;"">+</div>","null","fixation","","","","","","","","","","","","","",""
"revaluation","23","152114","0.0-3.0-4.0-0.2","spark_pilot_2","7521","4","23","Male","","false","","","","","[1204]","./assets/img/space/5.jpg","[""ArrowDown""]","first stage practice","space","0","null","null","ArrowDown","false","","","","","","","",""
"html-keyboard-response","24","152618","0.0-3.0-4.0-1.2","spark_pilot_2","7521","4","23","Male","","","","","","","null","<div style=""font-size:60px;"">+</div>","null","fixation","","","","","","","","","","","","","",""
"learning-instructions","25","164117","0.0-3.0-5.0-0.0","spark_pilot_2","7521","4","23","Male","","","","","","","1482","<p> The animals don’t move, so the animal in the upper part of a place will stay in the upper part of a place, and the animal in the lower part of a place will stay in the lower part of a place. </p>","","instructions","","","","","","","","","","","","","",""
"learning-instructions","26","174267","0.0-3.0-5.0-0.1","spark_pilot_2","7521","4","23","Male","","","","","","","813","<p> Each animal has two treasure chests for you to choose from. </p>
            <p> The amount of treasure in each chest can range from <b> 0 to 40 pieces.</b></p>","","instructions","","","","","","","","","","","","","",""
"learning-instructions","27","186234","0.0-3.0-5.0-0.2","spark_pilot_2","7521","4","23","Male","","","","","","","600","<p> You should decide which chest to search for treasure by using the <b>left</b> and <b>right</b> arrow keys. </p>
            <p><b> Pay attention to which animal is on the screen, as the animals have different treasure chests. </b></p>
            <img src='./assets/img/instructions/leftright.jpg' class='instructions-image'>","","instructions","","","","","","","","","","","","","",""
"learning-instructions","28","193498","0.0-3.0-5.0-0.3","spark_pilot_2","7521","4","23","Male","","","","","","","724","<p> Let’s try practicing that now. </p>
            <p> When you see an animal, choose which chest to search for treasure. </p>
            <img src='./assets/img/instructions/chooseChest.jpg' class='instructions-image'>","","instructions","","","","","","","","","","","","","",""
"revaluation","29","197533","0.0-3.0-6.0-0.0","spark_pilot_2","7521","4","23","Male","","false","","","","","[976]","./assets/img/space/animals/cat.jpg","[""ArrowLeft""]","second stage practice","space","3","{""ArrowUp,ArrowLeft"":3,""ArrowUp,ArrowRight"":36,""ArrowDown,ArrowLeft"":15,""ArrowDown,ArrowRight"":23}","false","ArrowUp,ArrowLeft","","","","","","","","",""
"html-keyboard-response","30","198053","0.0-3.0-6.0-1.0","spark_pilot_2","7521","4","23","Male","","","","","","","null","<div style=""font-size:60px;"">+</div>","null","fixation","","","","","","","","","","","","","",""
"revaluation","31","202073","0.0-3.0-6.0-0.1","spark_pilot_2","7521","4","23","Male","","false","","","","","[376]","./assets/img/space/animals/rabbit.jpg","[""ArrowRight""]","second stage practice","space","23","{""ArrowUp,ArrowLeft"":3,""ArrowUp,ArrowRight"":36,""ArrowDown,ArrowLeft"":15,""ArrowDown,ArrowRight"":23}","true","ArrowDown,ArrowRight","","","","","","","","",""
"html-keyboard-response","32","202583","0.0-3.0-6.0-1.1","spark_pilot_2","7521","4","23","Male","","","","","","","null","<div style=""font-size:60px;"">+</div>","null","fixation","","","","","","","","","","","","","",""
"revaluation","33","206605","0.0-3.0-6.0-0.2","spark_pilot_2","7521","4","23","Male","","false","","","","","[240]","./assets/img/space/animals/rabbit.jpg","[""ArrowLeft""]","second stage practice","space","15","{""ArrowUp,ArrowLeft"":3,""ArrowUp,ArrowRight"":36,""ArrowDown,ArrowLeft"":15,""ArrowDown,ArrowRight"":23}","false","ArrowDown,ArrowLeft","","","","","","","","",""
"html-keyboard-response","34","207122","0.0-3.0-6.0-1.2","spark_pilot_2","7521","4","23","Male","","","","","","","null","<div style=""font-size:60px;"">+</div>","null","fixation","","","","","","","","","","","","","",""
"revaluation","35","211144","0.0-3.0-6.0-0.3","spark_pilot_2","7521","4","23","Male","","false","","","","","[306]","./assets/img/space/animals/cat.jpg","[""ArrowRight""]","second stage practice","space","36","{""ArrowUp,ArrowLeft"":3,""ArrowUp,ArrowRight"":36,""ArrowDown,ArrowLeft"":15,""ArrowDown,ArrowRight"":23}","true","ArrowUp,ArrowRight","","","","","","","","",""
"html-keyboard-response","36","211662","0.0-3.0-6.0-1.3","spark_pilot_2","7521","4","23","Male","","","","","","","null","<div style=""font-size:60px;"">+</div>","null","fixation","","","","","","","","","","","","","",""
"learning-instructions","37","230006","0.0-3.0-7.0-0.0","spark_pilot_2","7521","4","23","Male","","","","","","","1383","<p> Great job. Now let’s try putting it together. </p>
            <p> On each turn, you will first see a picture to remind you of the place you are in, and you need to choose whether to go up or down. </p>
            <p> Then you will see an animal and choose which of its chests to search for treasure. </p>","","instructions","","","","","","","","","","","","","",""
"learning-instructions","38","239027","0.0-3.0-7.0-0.1","spark_pilot_2","7521","4","23","Male","","","","","","","514","<p> When you choose whether to go up or down, try to go to the animal with the chest with the most treasure. </p>
            <p> Try practicing that now! </p>","","instructions","","","","","","","","","","","","","",""
"revaluation","39","245053","0.0-3.0-8.0-0.0","spark_pilot_2","7521","4","23","Male","","false","","","","","[1029,361]","./assets/img/space/6.jpg","[""ArrowUp"",""ArrowLeft""]","full practice","space","3","{""ArrowUp,ArrowLeft"":3,""ArrowUp,ArrowRight"":36,""ArrowDown,ArrowLeft"":15,""ArrowDown,ArrowRight"":23}","false","ArrowUp,ArrowLeft","false","","","","","","","",""
"html-keyboard-response","40","245573","0.0-3.0-8.0-1.0","spark_pilot_2","7521","4","23","Male","","","","","","","null","<div style=""font-size:60px;"">+</div>","null","fixation","","","","","","","","","","","","","",""
"revaluation","41","251603","0.0-3.0-8.0-0.1","spark_pilot_2","7521","4","23","Male","","false","","","","","[921,633]","./assets/img/space/7.jpg","[""ArrowDown"",""ArrowRight""]","full practice","space","23","{""ArrowUp,ArrowLeft"":3,""ArrowUp,ArrowRight"":36,""ArrowDown,ArrowLeft"":15,""ArrowDown,ArrowRight"":23}","false","ArrowDown,ArrowRight","false","","","","","","","",""
"html-keyboard-response","42","252123","0.0-3.0-8.0-1.1","spark_pilot_2","7521","4","23","Male","","","","","","","null","<div style=""font-size:60px;"">+</div>","null","fixation","","","","","","","","","","","","","",""
"revaluation","43","258174","0.0-3.0-8.0-0.2","spark_pilot_2","7521","4","23","Male","","false","","","","","[558,519]","./assets/img/space/8.jpg","[""ArrowUp"",""ArrowRight""]","full practice","space","36","{""ArrowUp,ArrowLeft"":3,""ArrowUp,ArrowRight"":36,""ArrowDown,ArrowLeft"":15,""ArrowDown,ArrowRight"":23}","true","ArrowUp,ArrowRight","false","","","","","","","",""
"html-keyboard-response","44","258693","0.0-3.0-8.0-1.2","spark_pilot_2","7521","4","23","Male","","","","","","","null","<div style=""font-size:60px;"">+</div>","null","fixation","","","","","","","","","","","","","",""
"revaluation","45","264743","0.0-3.0-8.0-0.3","spark_pilot_2","7521","4","23","Male","","false","","","","","[900,705]","./assets/img/space/9.jpg","[""ArrowDown"",""ArrowLeft""]","full practice","space","15","{""ArrowUp,ArrowLeft"":3,""ArrowUp,ArrowRight"":36,""ArrowDown,ArrowLeft"":15,""ArrowDown,ArrowRight"":23}","false","ArrowDown,ArrowLeft","false","","","","","","","",""
"html-keyboard-response","46","265255","0.0-3.0-8.0-1.3","spark_pilot_2","7521","4","23","Male","","","","","","","null","<div style=""font-size:60px;"">+</div>","null","fixation","","","","","","","","","","","","","",""
"revaluation","47","271283","0.0-3.0-8.0-0.4","spark_pilot_2","7521","4","23","Male","","false","","","","","[613,703]","./assets/img/space/10.jpg","[""ArrowDown"",""ArrowRight""]","full practice","space","23","{""ArrowUp,ArrowLeft"":3,""ArrowUp,ArrowRight"":36,""ArrowDown,ArrowLeft"":15,""ArrowDown,ArrowRight"":23}","false","ArrowDown,ArrowRight","false","","","","","","","",""
"html-keyboard-response","48","271802","0.0-3.0-8.0-1.4","spark_pilot_2","7521","4","23","Male","","","","","","","null","<div style=""font-size:60px;"">+</div>","null","fixation","","","","","","","","","","","","","",""
"learning-instructions","49","283488","0.0-3.0-9.0-0.0","spark_pilot_2","7521","4","23","Male","","","","","","","1281","<p> One last thing: sometimes, you will see a robber. The robber can be anywhere in the picture. </p>
            <p> If you do not stop them, you will lose treasure. </p>
            <img src='./assets/img/instructions/robber.jpg' class='instructions-image'>","","instructions","","","","","","","","","","","","","",""
"learning-instructions","50","291351","0.0-3.0-9.0-0.1","spark_pilot_2","7521","4","23","Male","","","","","","","526","<p> If you see the robber, you should <b>press the space bar</b> rather than using the arrow keys. </p>
            <p> Try practicing that now! </p>","","instructions","","","","","","","","","","","","","",""
"revaluation","51","295363","0.0-3.0-10.0-0.0","spark_pilot_2","7521","4","23","Male","","false","","","","","[792]","./assets/img/space/catch/0.jpg","[""spaceBar""]","catch practice","space","0","{""ArrowUp,ArrowLeft"":3,""ArrowUp,ArrowRight"":36,""ArrowDown,ArrowLeft"":15,""ArrowDown,ArrowRight"":23}","true","spaceBar","true","","","","","","","",""
"html-keyboard-response","52","295882","0.0-3.0-10.0-1.0","spark_pilot_2","7521","4","23","Male","","","","","","","null","<div style=""font-size:60px;"">+</div>","null","fixation","","","","","","","","","","","","","",""
"revaluation","53","299905","0.0-3.0-10.0-0.1","spark_pilot_2","7521","4","23","Male","","false","","","","","[1025]","./assets/img/space/catch/1.jpg","[""spaceBar""]","catch practice","space","0","{""ArrowUp,ArrowLeft"":3,""ArrowUp,ArrowRight"":36,""ArrowDown,ArrowLeft"":15,""ArrowDown,ArrowRight"":23}","true","spaceBar","true","","","","","","","",""
"html-keyboard-response","54","300422","0.0-3.0-10.0-1.1","spark_pilot_2","7521","4","23","Male","","","","","","","null","<div style=""font-size:60px;"">+</div>","null","fixation","","","","","","","","","","","","","",""
"revaluation","55","304456","0.0-3.0-10.0-0.2","spark_pilot_2","7521","4","23","Male","","false","","","","","[492]","./assets/img/space/catch/2.jpg","[""spaceBar""]","catch practice","space","0","{""ArrowUp,ArrowLeft"":3,""ArrowUp,ArrowRight"":36,""ArrowDown,ArrowLeft"":15,""ArrowDown,ArrowRight"":23}","true","spaceBar","true","","","","","","","",""
"html-keyboard-response","56","304962","0.0-3.0-10.0-1.2","spark_pilot_2","7521","4","23","Male","","","","","","","null","<div style=""font-size:60px;"">+</div>","null","fixation","","","","","","","","","","","","","",""
"learning-instructions","57","319896","0.0-3.0-11.0-0.0","spark_pilot_2","7521","4","23","Male","","","","","","","991","<p> After you explore a place to find treasure, it will be time to play a different game. </p>
            <p> During this game, red dots will appear on the screen and fall down slowly. </p>
            <p><b> You must click on them before they reach the bottom. </b></p>
            <img src='./assets/img/instructions/dotGame.jpg' class='instructions-image'>","","instructions","","","","","","","","","","","","","",""
"learning-instructions","58","332864","0.0-3.0-11.0-0.1","spark_pilot_2","7521","4","23","Male","","","","","","","7170","<p> For every dot you click, you will earn additional treasure. </p>
            <p> Let’s try practicing that now. </p>","","instructions","","","","","","","","","","","","","",""
"revaluation","59","347883","0.0-3.0-12.0-0.0","spark_pilot_2","7521","4","23","Male","","","","","","","[84]","","","rest practice","","10","","","","","0","15000","","","","","",""
"learning-instructions","60","371694","0.0-3.0-13.0-0.0-0.0","spark_pilot_2","7521","4","23","Male","","","","","","","18499","<p> Now, you will practice a shortened version of the game to get a sense of how it all fits together. </p>","","instructions","","","","","","","","","","","","","",""
"learning-instructions","61","379024","0.0-3.0-13.0-0.0-0.1","spark_pilot_2","7521","4","23","Male","","","","","","","4050","<p>This time you are searching for treasure in outer space.</p>","","instructions","","","","","","","","","","","","","",""
"learning-instructions","62","394950","0.0-3.0-13.0-1.0-0.0","spark_pilot_2","7521","4","23","Male","","","","","","","877","<p> Remember, when you see a picture of the place, use the up and down keys to <b>find an animal</b>.</p>
            <p> When you encounter an animal, you should use the left and right keys to <b>select a treasure chest</b>.</p>
            <p> Don't forget to look out for the robber! </p>","","instructions","","","","","","","","","","","","","",""
"revaluation","63","400988","0.0-3.0-13.0-2.0-0.0","spark_pilot_2","7521","4","23","Male","","false","","","","","[1450,910]","./assets/img/space/11.jpg","[""ArrowDown"",""ArrowRight""]","practice block","space","23","{""ArrowUp,ArrowLeft"":3,""ArrowUp,ArrowRight"":36,""ArrowDown,ArrowLeft"":15,""ArrowDown,ArrowRight"":23}","false","ArrowDown,ArrowRight","false","","","","","","","",""
"html-keyboard-response","64","401493","0.0-3.0-13.0-2.0-1.0","spark_pilot_2","7521","4","23","Male","","","","","","","null","<div style=""font-size:60px;"">+</div>","null","fixation","","","","","","","","","","","","","",""
"revaluation","65","407543","0.0-3.0-13.0-2.0-0.1","spark_pilot_2","7521","4","23","Male","","false","","","","","[721,242]","./assets/img/space/12.jpg","[""ArrowDown"",""ArrowRight""]","practice block","space","23","{""ArrowUp,ArrowLeft"":3,""ArrowUp,ArrowRight"":36,""ArrowDown,ArrowLeft"":15,""ArrowDown,ArrowRight"":23}","false","ArrowDown,ArrowRight","false","","","","","","","",""
"html-keyboard-response","66","408053","0.0-3.0-13.0-2.0-1.1","spark_pilot_2","7521","4","23","Male","","","","","","","null","<div style=""font-size:60px;"">+</div>","null","fixation","","","","","","","","","","","","","",""
"revaluation","67","414084","0.0-3.0-13.0-2.0-0.2","spark_pilot_2","7521","4","23","Male","","false","","","","","[714,323]","./assets/img/space/13.jpg","[""ArrowUp"",""ArrowLeft""]","practice block","space","3","{""ArrowUp,ArrowLeft"":3,""ArrowUp,ArrowRight"":36,""ArrowDown,ArrowLeft"":15,""ArrowDown,ArrowRight"":23}","false","ArrowUp,ArrowLeft","false","","","","","","","",""
"html-keyboard-response","68","414594","0.0-3.0-13.0-2.0-1.2","spark_pilot_2","7521","4","23","Male","","","","","","","null","<div style=""font-size:60px;"">+</div>","null","fixation","","","","","","","","","","","","","",""
"revaluation","69","420633","0.0-3.0-13.0-2.0-0.3","spark_pilot_2","7521","4","23","Male","","false","","","","","[792,271]","./assets/img/space/14.jpg","[""ArrowDown"",""ArrowLeft""]","practice block","space","15","{""ArrowUp,ArrowLeft"":3,""ArrowUp,ArrowRight"":36,""ArrowDown,ArrowLeft"":15,""ArrowDown,ArrowRight"":23}","false","ArrowDown,ArrowLeft","false","","","","","","","",""
"html-keyboard-response","70","421153","0.0-3.0-13.0-2.0-1.3","spark_pilot_2","7521","4","23","Male","","","","","","","null","<div style=""font-size:60px;"">+</div>","null","fixation","","","","","","","","","","","","","",""
"revaluation","71","427184","0.0-3.0-13.0-2.0-0.4","spark_pilot_2","7521","4","23","Male","","false","","","","","[1137,693]","./assets/img/space/11.jpg","[""ArrowUp"",""ArrowRight""]","practice block","space","36","{""ArrowUp,ArrowLeft"":3,""ArrowUp,ArrowRight"":36,""ArrowDown,ArrowLeft"":15,""ArrowDown,ArrowRight"":23}","true","ArrowUp,ArrowRight","false","","","","","","","",""
"html-keyboard-response","72","427693","0.0-3.0-13.0-2.0-1.4","spark_pilot_2","7521","4","23","Male","","","","","","","null","<div style=""font-size:60px;"">+</div>","null","fixation","","","","","","","","","","","","","",""
"revaluation","73","433723","0.0-3.0-13.0-2.0-0.5","spark_pilot_2","7521","4","23","Male","","false","","","","","[735,481]","./assets/img/space/12.jpg","[""ArrowDown"",""ArrowLeft""]","practice block","space","15","{""ArrowUp,ArrowLeft"":3,""ArrowUp,ArrowRight"":36,""ArrowDown,ArrowLeft"":15,""ArrowDown,ArrowRight"":23}","false","ArrowDown,ArrowLeft","false","","","","","","","",""
"html-keyboard-response","74","434243","0.0-3.0-13.0-2.0-1.5","spark_pilot_2","7521","4","23","Male","","","","","","","null","<div style=""font-size:60px;"">+</div>","null","fixation","","","","","","","","","","","","","",""
"revaluation","75","440284","0.0-3.0-13.0-2.0-0.6","spark_pilot_2","7521","4","23","Male","","false","","","","","[543,230]","./assets/img/space/13.jpg","[""ArrowDown"",""ArrowLeft""]","practice block","space","15","{""ArrowUp,ArrowLeft"":3,""ArrowUp,ArrowRight"":36,""ArrowDown,ArrowLeft"":15,""ArrowDown,ArrowRight"":23}","false","ArrowDown,ArrowLeft","false","","","","","","","",""
"html-keyboard-response","76","440793","0.0-3.0-13.0-2.0-1.6","spark_pilot_2","7521","4","23","Male","","","","","","","null","<div style=""font-size:60px;"">+</div>","null","fixation","","","","","","","","","","","","","",""
"revaluation","77","446844","0.0-3.0-13.0-2.0-0.7","spark_pilot_2","7521","4","23","Male","","false","","","","","[292,278]","./assets/img/space/14.jpg","[""ArrowDown"",""ArrowLeft""]","practice block","space","15","{""ArrowUp,ArrowLeft"":3,""ArrowUp,ArrowRight"":36,""ArrowDown,ArrowLeft"":15,""ArrowDown,ArrowRight"":23}","false","ArrowDown,ArrowLeft","false","","","","","","","",""
"html-keyboard-response","78","447352","0.0-3.0-13.0-2.0-1.7","spark_pilot_2","7521","4","23","Male","","","","","","","null","<div style=""font-size:60px;"">+</div>","null","fixation","","","","","","","","","","","","","",""
"revaluation","79","451373","0.0-3.0-13.0-2.0-0.8","spark_pilot_2","7521","4","23","Male","","false","","","","","[289]","./assets/img/space/catch/3.jpg","[""ArrowUp""]","practice block","space","-10","{""ArrowUp,ArrowLeft"":3,""ArrowUp,ArrowRight"":36,""ArrowDown,ArrowLeft"":15,""ArrowDown,ArrowRight"":23}","false","ArrowUp","true","","","","","","","",""
"html-keyboard-response","80","451883","0.0-3.0-13.0-2.0-1.8","spark_pilot_2","7521","4","23","Male","","","","","","","null","<div style=""font-size:60px;"">+</div>","null","fixation","","","","","","","","","","","","","",""
"learning-instructions","81","465868","0.0-3.0-13.0-3.0-0.0","spark_pilot_2","7521","4","23","Male","","","","","","","953","<p> Now, you will travel with a friend who will choose whether you go up or down first. </p>
            <p> On these turns, you will just see the animal that they found. You will still get to choose which chest to search for treasure.</p>","","instructions","","","","","","","","","","","","","",""
"revaluation","82","469893","0.0-3.0-13.0-4.0-0.0","spark_pilot_2","7521","4","23","Male","","false","","","","","[1077]","./assets/img/space/animals/cat.jpg","[""ArrowRight""]","practice block","space","36","{""ArrowUp,ArrowLeft"":3,""ArrowUp,ArrowRight"":36,""ArrowDown,ArrowLeft"":15,""ArrowDown,ArrowRight"":23}","true","ArrowUp,ArrowRight","","","","","","","","",""
"html-keyboard-response","83","470403","0.0-3.0-13.0-4.0-1.0","spark_pilot_2","7521","4","23","Male","","","","","","","null","<div style=""font-size:60px;"">+</div>","null","fixation","","","","","","","","","","","","","",""
"revaluation","84","474413","0.0-3.0-13.0-4.0-0.1","spark_pilot_2","7521","4","23","Male","","false","","","","","[891]","./assets/img/space/animals/rabbit.jpg","[""ArrowLeft""]","practice block","space","15","{""ArrowUp,ArrowLeft"":3,""ArrowUp,ArrowRight"":36,""ArrowDown,ArrowLeft"":15,""ArrowDown,ArrowRight"":23}","false","ArrowDown,ArrowLeft","","","","","","","","",""
"html-keyboard-response","85","474923","0.0-3.0-13.0-4.0-1.1","spark_pilot_2","7521","4","23","Male","","","","","","","null","<div style=""font-size:60px;"">+</div>","null","fixation","","","","","","","","","","","","","",""
"revaluation","86","478953","0.0-3.0-13.0-4.0-0.2","spark_pilot_2","7521","4","23","Male","","false","","","","","[605]","./assets/img/space/animals/rabbit.jpg","[""ArrowRight""]","practice block","space","23","{""ArrowUp,ArrowLeft"":3,""ArrowUp,ArrowRight"":36,""ArrowDown,ArrowLeft"":15,""ArrowDown,ArrowRight"":23}","true","ArrowDown,ArrowRight","","","","","","","","",""
"html-keyboard-response","87","479473","0.0-3.0-13.0-4.0-1.2","spark_pilot_2","7521","4","23","Male","","","","","","","null","<div style=""font-size:60px;"">+</div>","null","fixation","","","","","","","","","","","","","",""
"revaluation","88","483504","0.0-3.0-13.0-4.0-0.3","spark_pilot_2","7521","4","23","Male","","false","","","","","[551]","./assets/img/space/animals/cat.jpg","[""ArrowLeft""]","practice block","space","3","{""ArrowUp,ArrowLeft"":3,""ArrowUp,ArrowRight"":36,""ArrowDown,ArrowLeft"":15,""ArrowDown,ArrowRight"":23}","false","ArrowUp,ArrowLeft","","","","","","","","",""
"html-keyboard-response","89","484023","0.0-3.0-13.0-4.0-1.3","spark_pilot_2","7521","4","23","Male","","","","","","","null","<div style=""font-size:60px;"">+</div>","null","fixation","","","","","","","","","","","","","",""
"learning-instructions","90","492321","0.0-3.0-13.0-5.0-0.0","spark_pilot_2","7521","4","23","Male","","","","","","","826","<p> Time to play the dot game! </p>
            <p> For 15 seconds, click the red dots on the following screen as they appear. </p>","","instructions","","","","","","","","","","","","","",""
"revaluation","91","507333","0.0-3.0-13.0-6.0-0.0","spark_pilot_2","7521","4","23","Male","","","","","","","[61]","","","rest practice","","10","","","","","0","15000","","","","","",""
"learning-instructions","92","514596","0.0-3.0-13.0-7.0-0.0","spark_pilot_2","7521","4","23","Male","","","","","","","1061","<p> You have almost finished this part of the game! </p>
            <p> We are going to ask you to make a few more choices. </p>","","instructions","","","","","","","","","","","","","",""
"learning-instructions","93","529321","0.0-3.0-13.0-7.0-0.1","spark_pilot_2","7521","4","23","Male","","","","","","","526","<p> First, you need to decide whether to go up or down. When you see each picture, use the arrow keys to make your choice. </p>
            <p><b>You will not see which animal you found, but try to get to the one that will give you the most treasure.</b></p>","","instructions","","","","","","","","","","","","","",""
"revaluation","94","530289","0.0-3.0-13.0-8.0","spark_pilot_2","7521","4","23","Male","","false","","","","","[964]","./assets/img/space/15.jpg","[""ArrowUp""]","practice block","space","0","{""ArrowUp,ArrowLeft"":3,""ArrowUp,ArrowRight"":36,""ArrowDown,ArrowLeft"":15,""ArrowDown,ArrowRight"":23}","true","ArrowUp","false","","","","","","","",""
"html-keyboard-response","95","530803","0.0-3.0-13.0-9.0","spark_pilot_2","7521","4","23","Male","","","","","","","null","<div style=""font-size:60px;"">+</div>","null","fixation","","","","","","","","","","","","","",""
"learning-instructions","96","542764","0.0-3.0-13.0-10.0-0.0","spark_pilot_2","7521","4","23","Male","","","","","","","428","<p> Now you will see the animals again and can search their chests for treasure. </p>
            <p> This time, you will not see how much treasure you earned, but you will earn more bonus money for making better choices. </p>","","instructions","","","","","","","","","","","","","",""
"revaluation","97","543540","0.0-3.0-13.0-11.0-0.0","spark_pilot_2","7521","4","23","Male","","false","","","","","[774]","./assets/img/space/animals/cat.jpg","[""ArrowRight""]","practice block","space","0","{""ArrowUp,ArrowLeft"":3,""ArrowUp,ArrowRight"":36,""ArrowDown,ArrowLeft"":15,""ArrowDown,ArrowRight"":23}","true","ArrowUp,ArrowRight","","","","","","","","",""
"html-keyboard-response","98","544043","0.0-3.0-13.0-11.0-1.0","spark_pilot_2","7521","4","23","Male","","","","","","","null","<div style=""font-size:60px;"">+</div>","null","fixation","","","","","","","","","","","","","",""
"revaluation","99","545769","0.0-3.0-13.0-11.0-0.1","spark_pilot_2","7521","4","23","Male","","false","","","","","[1720]","./assets/img/space/animals/rabbit.jpg","[""ArrowRight""]","practice block","space","0","{""ArrowUp,ArrowLeft"":3,""ArrowUp,ArrowRight"":36,""ArrowDown,ArrowLeft"":15,""ArrowDown,ArrowRight"":23}","true","ArrowDown,ArrowRight","","","","","","","","",""
"html-keyboard-response","100","546283","0.0-3.0-13.0-11.0-1.1","spark_pilot_2","7521","4","23","Male","","","","","","","null","<div style=""font-size:60px;"">+</div>","null","fixation","","","","","","","","","","","","","",""
"learning-instructions","101","551880","0.0-3.0-14.0-0.0","spark_pilot_2","7521","4","23","Male","","","","","","","966","<p> Before you start, we're going to ask you a few questions about how the game works. </p>","","instructions","","","","","","","","","","","","","",""
"comp-q","102","558610","0.0-3.0-15.0-0.0-0.0","spark_pilot_2","7521","4","23","Male","","","","","","","1014","<p> <b> True or False? </b> </p>
            <p> There can be 50 pieces of treasure in a given animal's chest. </p>","1","comp_question","","","","true","","","","","","","","","",""
"comp-q","103","567309","0.0-3.0-15.0-0.0-1.0","spark_pilot_2","7521","4","23","Male","","","","","","","1875","<p> <b> That's right! </b> The amount of treasure in each chest can range from 0 to 40 pieces. </p>","0","comp_answer","","","","","","","","","","","","","",""
"comp-q","104","575058","0.0-3.0-15.0-0.1-0.1","spark_pilot_2","7521","4","23","Male","","","","","","","474","<p> <b> True or False? </b> </p><p> In this game, all animals have the same amount of treasure in their left and right chests. </p>","1","comp_question","","","","true","","","","","","","","","",""
"comp-q","105","581285","0.0-3.0-15.0-0.1-1.1","spark_pilot_2","7521","4","23","Male","","","","","","","890","<p> <b> That's right! </b> Animals have different amounts of treasure in their treasure chests. </p>","0","comp_answer","","","","","","","","","","","","","",""
"comp-q","106","587727","0.0-3.0-15.0-0.2-0.2","spark_pilot_2","7521","4","23","Male","","","","","","","472","<p> <b> True or False? </b> </p><p> The same animal will always be there if you go up in the same place. </p>","0","comp_question","","","","true","","","","","","","","","",""
"comp-q","107","596210","0.0-3.0-15.0-0.2-1.2","spark_pilot_2","7521","4","23","Male","","","","","","","1826","<p> <b> That's right! </b> One animal lives in the upper part and one lives in the lower part of every place. </p>","0","comp_answer","","","","","","","","","","","","","",""
"comp-q","108","604218","0.0-3.0-15.0-0.3-0.3","spark_pilot_2","7521","4","23","Male","","","","","","","2312","<p> <b> True or False? </b> </p><p> If you see a different picture, it means you are in a new place. </p>","0","comp_question","","","","false","","","","","","","","","",""
"comp-q","109","617534","0.0-3.0-15.0-0.3-1.3","spark_pilot_2","7521","4","23","Male","","","","","","","1979","<p> <b>Incorrect.</b> Lots of different images may show the same place. For example,  you may see three different images that all remind you that you are in outer space. </p>","0","comp_answer","","","","","","","","","","","","","",""
"comp-q","110","624012","0.0-3.0-15.0-0.4-0.4","spark_pilot_2","7521","4","23","Male","","","","","","","958","<p> <b> True or False? </b> </p><p> If you see a different picture, it means you are in a new place. </p>","1","comp_question","","","","true","","","","","","","","","",""
"comp-q","111","637200","0.0-3.0-15.0-0.4-1.4","spark_pilot_2","7521","4","23","Male","","","","","","","1685","<p> <b> That's right! </b> Lots of different images may show the same place. For example,  you may see three different images that all remind you that you are in outer space. </p>","0","comp_answer","","","","","","","","","","","","","",""
"learning-instructions","112","648420","0.0-3.0-16.0-0.0","spark_pilot_2","7521","4","23","Male","","","","","","","1125","<p> Good job. Remember to do your best because the amount of treasure you earn will be converted into bonus money. </p>
            <p> It’s time to start the real game! </p>","","instructions","","","","","","","","","","","","","",""
"learning-instructions","113","651786","0.0-4.0-0.0-0.0","spark_pilot_2","7521","4","23","Male","","","","","","","552","<p> This time you are searching for treasure in the <b>ocean</b>.</p>","","instructions","","","","","","","","","","","","","",""
"learning-instructions","114","670211","0.0-4.0-0.0-0.1","spark_pilot_2","7521","4","23","Male","","","","","","","809","<p><b>New</b> animals with <b>new</b> treasure chests live here. You need to explore to discover where the animal with the best treasure chest is.</p>
                    <p> Like before, once you figure out which animal has the chest with the most treasure, you should try to get to that animal and select that chest! </p>","","instructions","","","","","","","","","","","","","",""
"learning-instructions","115","685366","0.0-4.0-1.0-0.0","spark_pilot_2","7521","4","23","Male","","","","","","","410","<p> Remember, when you see a picture of the place, use the up and down keys to <b>find an animal</b>.</p>
            <p> When you encounter an animal, you should use the left and right keys to <b>select a treasure chest</b>.</p>
            <p> Don't forget to look out for the robber! </p>","","instructions","","","","","","","","","","","","","",""
"revaluation","116","691388","0.0-4.0-2.0-0.0","spark_pilot_2","7521","4","23","Male","","false","","","","","[1010,489]","./assets/img/ocean/memory/2.jpg","[""ArrowUp"",""ArrowRight""]","value training","ocean","10","{""ArrowUp,ArrowLeft"":26,""ArrowUp,ArrowRight"":10,""ArrowDown,ArrowLeft"":5,""ArrowDown,ArrowRight"":17}","false","ArrowUp,ArrowRight","false","","","revaluation","1","0","","",""
"html-keyboard-response","117","691896","0.0-4.0-2.0-1.0","spark_pilot_2","7521","4","23","Male","","","","","","","null","<div style=""font-size:60px;"">+</div>","null","fixation","","","","","","","","","","","1","","",""
"revaluation","118","697927","0.0-4.0-2.0-0.1","spark_pilot_2","7521","4","23","Male","","false","","","","","[666,271]","./assets/img/ocean/memory/40.jpg","[""ArrowUp"",""ArrowLeft""]","value training","ocean","26","{""ArrowUp,ArrowLeft"":26,""ArrowUp,ArrowRight"":10,""ArrowDown,ArrowLeft"":5,""ArrowDown,ArrowRight"":17}","true","ArrowUp,ArrowLeft","false","","","revaluation","1","2","","",""
"html-keyboard-response","119","698431","0.0-4.0-2.0-1.1","spark_pilot_2","7521","4","23","Male","","","","","","","null","<div style=""font-size:60px;"">+</div>","null","fixation","","","","","","","","","","","3","","",""
"revaluation","120","704463","0.0-4.0-2.0-0.2","spark_pilot_2","7521","4","23","Male","","false","","","","","[559,227]","./assets/img/ocean/memory/32.jpg","[""ArrowDown"",""ArrowRight""]","value training","ocean","17","{""ArrowUp,ArrowLeft"":26,""ArrowUp,ArrowRight"":10,""ArrowDown,ArrowLeft"":5,""ArrowDown,ArrowRight"":17}","false","ArrowDown,ArrowRight","false","","","revaluation","1","4","","",""
"html-keyboard-response","121","704973","0.0-4.0-2.0-1.2","spark_pilot_2","7521","4","23","Male","","","","","","","null","<div style=""font-size:60px;"">+</div>","null","fixation","","","","","","","","","","","5","","",""
"revaluation","122","709003","0.0-4.0-2.0-0.3","spark_pilot_2","7521","4","23","Male","","false","","","","","[911]","./assets/img/ocean/catch/6.jpg","[""spaceBar""]","value training","ocean","0","{""ArrowUp,ArrowLeft"":26,""ArrowUp,ArrowRight"":10,""ArrowDown,ArrowLeft"":5,""ArrowDown,ArrowRight"":17}","true","spaceBar","true","","","revaluation","1","6","","",""
"html-keyboard-response","123","709512","0.0-4.0-2.0-1.3","spark_pilot_2","7521","4","23","Male","","","","","","","null","<div style=""font-size:60px;"">+</div>","null","fixation","","","","","","","","","","","7","","",""
"revaluation","124","715552","0.0-4.0-2.0-0.4","spark_pilot_2","7521","4","23","Male","","false","","","","","[342,258]","./assets/img/ocean/memory/8.jpg","[""ArrowDown"",""ArrowLeft""]","value training","ocean","5","{""ArrowUp,ArrowLeft"":26,""ArrowUp,ArrowRight"":10,""ArrowDown,ArrowLeft"":5,""ArrowDown,ArrowRight"":17}","false","ArrowDown,ArrowLeft","false","","","revaluation","1","8","","",""
"html-keyboard-response","125","716072","0.0-4.0-2.0-1.4","spark_pilot_2","7521","4","23","Male","","","","","","","null","<div style=""font-size:60px;"">+</div>","null","fixation","","","","","","","","","","","9","","",""
"revaluation","126","722113","0.0-4.0-2.0-0.5","spark_pilot_2","7521","4","23","Male","","false","","","","","[582,272]","./assets/img/ocean/memory/10.jpg","[""ArrowUp"",""ArrowLeft""]","value training","ocean","26","{""ArrowUp,ArrowLeft"":26,""ArrowUp,ArrowRight"":10,""ArrowDown,ArrowLeft"":5,""ArrowDown,ArrowRight"":17}","true","ArrowUp,ArrowLeft","false","","","revaluation","1","10","","",""
"html-keyboard-response","127","722633","0.0-4.0-2.0-1.5","spark_pilot_2","7521","4","23","Male","","","","","","","null","<div style=""font-size:60px;"">+</div>","null","fixation","","","","","","","","","","","11","","",""
"revaluation","128","728671","0.0-4.0-2.0-0.6","spark_pilot_2","7521","4","23","Male","","false","","","","","[971,439]","./assets/img/ocean/memory/2.jpg","[""ArrowUp"",""ArrowLeft""]","value training","ocean","26","{""ArrowUp,ArrowLeft"":26,""ArrowUp,ArrowRight"":10,""ArrowDown,ArrowLeft"":5,""ArrowDown,ArrowRight"":17}","true","ArrowUp,ArrowLeft","false","","","revaluation","1","12","","",""
"html-keyboard-response","129","729183","0.0-4.0-2.0-1.6","spark_pilot_2","7521","4","23","Male","","","","","","","null","<div style=""font-size:60px;"">+</div>","null","fixation","","","","","","","","","","","13","","",""
"revaluation","130","735206","0.0-4.0-2.0-0.7","spark_pilot_2","7521","4","23","Male","","false","","","","","[817,270]","./assets/img/ocean/memory/0.jpg","[""ArrowUp"",""ArrowLeft""]","value training","ocean","26","{""ArrowUp,ArrowLeft"":26,""ArrowUp,ArrowRight"":10,""ArrowDown,ArrowLeft"":5,""ArrowDown,ArrowRight"":17}","true","ArrowUp,ArrowLeft","false","","","revaluation","1","14","","",""
"html-keyboard-response","131","735723","0.0-4.0-2.0-1.7","spark_pilot_2","7521","4","23","Male","","","","","","","null","<div style=""font-size:60px;"">+</div>","null","fixation","","","","","","","","","","","15","","",""
"revaluation","132","741763","0.0-4.0-2.0-0.8","spark_pilot_2","7521","4","23","Male","","false","","","","","[614,283]","./assets/img/ocean/memory/5.jpg","[""ArrowUp"",""ArrowLeft""]","value training","ocean","26","{""ArrowUp,ArrowLeft"":26,""ArrowUp,ArrowRight"":10,""ArrowDown,ArrowLeft"":5,""ArrowDown,ArrowRight"":17}","true","ArrowUp,ArrowLeft","false","","","revaluation","1","16","","",""
"html-keyboard-response","133","742282","0.0-4.0-2.0-1.8","spark_pilot_2","7521","4","23","Male","","","","","","","null","<div style=""font-size:60px;"">+</div>","null","fixation","","","","","","","","","","","17","","",""
"revaluation","134","748333","0.0-4.0-2.0-0.9","spark_pilot_2","7521","4","23","Male","","false","","","","","[401,293]","./assets/img/ocean/memory/5.jpg","[""ArrowUp"",""ArrowLeft""]","value training","ocean","26","{""ArrowUp,ArrowLeft"":26,""ArrowUp,ArrowRight"":10,""ArrowDown,ArrowLeft"":5,""ArrowDown,ArrowRight"":17}","true","ArrowUp,ArrowLeft","false","","","revaluation","1","18","","",""
"html-keyboard-response","135","748853","0.0-4.0-2.0-1.9","spark_pilot_2","7521","4","23","Male","","","","","","","null","<div style=""font-size:60px;"">+</div>","null","fixation","","","","","","","","","","","19","","",""
"revaluation","136","754883","0.0-4.0-2.0-0.10","spark_pilot_2","7521","4","23","Male","","false","","","","","[487,279]","./assets/img/ocean/memory/39.jpg","[""ArrowUp"",""ArrowLeft""]","value training","ocean","26","{""ArrowUp,ArrowLeft"":26,""ArrowUp,ArrowRight"":10,""ArrowDown,ArrowLeft"":5,""ArrowDown,ArrowRight"":17}","true","ArrowUp,ArrowLeft","false","","","revaluation","1","20","","",""
"html-keyboard-response","137","755394","0.0-4.0-2.0-1.10","spark_pilot_2","7521","4","23","Male","","","","","","","null","<div style=""font-size:60px;"">+</div>","null","fixation","","","","","","","","","","","21","","",""
"revaluation","138","761433","0.0-4.0-2.0-0.11","spark_pilot_2","7521","4","23","Male","","false","","","","","[511,276]","./assets/img/ocean/memory/32.jpg","[""ArrowUp"",""ArrowLeft""]","value training","ocean","26","{""ArrowUp,ArrowLeft"":26,""ArrowUp,ArrowRight"":10,""ArrowDown,ArrowLeft"":5,""ArrowDown,ArrowRight"":17}","true","ArrowUp,ArrowLeft","false","","","revaluation","1","22","","",""
"html-keyboard-response","139","761952","0.0-4.0-2.0-1.11","spark_pilot_2","7521","4","23","Male","","","","","","","null","<div style=""font-size:60px;"">+</div>","null","fixation","","","","","","","","","","","23","","",""
"revaluation","140","767983","0.0-4.0-2.0-0.12","spark_pilot_2","7521","4","23","Male","","false","","","","","[558,354]","./assets/img/ocean/memory/9.jpg","[""ArrowUp"",""ArrowLeft""]","value training","ocean","26","{""ArrowUp,ArrowLeft"":26,""ArrowUp,ArrowRight"":10,""ArrowDown,ArrowLeft"":5,""ArrowDown,ArrowRight"":17}","true","ArrowUp,ArrowLeft","false","","","revaluation","1","24","","",""
"html-keyboard-response","141","768503","0.0-4.0-2.0-1.12","spark_pilot_2","7521","4","23","Male","","","","","","","null","<div style=""font-size:60px;"">+</div>","null","fixation","","","","","","","","","","","25","","",""
"revaluation","142","774544","0.0-4.0-2.0-0.13","spark_pilot_2","7521","4","23","Male","","false","","","","","[632,253]","./assets/img/ocean/memory/7.jpg","[""ArrowUp"",""ArrowLeft""]","value training","ocean","26","{""ArrowUp,ArrowLeft"":26,""ArrowUp,ArrowRight"":10,""ArrowDown,ArrowLeft"":5,""ArrowDown,ArrowRight"":17}","true","ArrowUp,ArrowLeft","false","","","revaluation","1","26","","",""
"html-keyboard-response","143","775062","0.0-4.0-2.0-1.13","spark_pilot_2","7521","4","23","Male","","","","","","","null","<div style=""font-size:60px;"">+</div>","null","fixation","","","","","","","","","","","27","","",""
"revaluation","144","781114","0.0-4.0-2.0-0.14","spark_pilot_2","7521","4","23","Male","","false","","","","","[529,274]","./assets/img/ocean/memory/36.jpg","[""ArrowUp"",""ArrowLeft""]","value training","ocean","26","{""ArrowUp,ArrowLeft"":26,""ArrowUp,ArrowRight"":10,""ArrowDown,ArrowLeft"":5,""ArrowDown,ArrowRight"":17}","true","ArrowUp,ArrowLeft","false","","","revaluation","1","28","","",""
"html-keyboard-response","145","781623","0.0-4.0-2.0-1.14","spark_pilot_2","7521","4","23","Male","","","","","","","null","<div style=""font-size:60px;"">+</div>","null","fixation","","","","","","","","","","","29","","",""
"revaluation","146","787654","0.0-4.0-2.0-0.15","spark_pilot_2","7521","4","23","Male","","false","","","","","[1114,312]","./assets/img/ocean/memory/33.jpg","[""ArrowUp"",""ArrowLeft""]","value training","ocean","26","{""ArrowUp,ArrowLeft"":26,""ArrowUp,ArrowRight"":10,""ArrowDown,ArrowLeft"":5,""ArrowDown,ArrowRight"":17}","true","ArrowUp,ArrowLeft","false","","","revaluation","1","30","","",""
"html-keyboard-response","147","788173","0.0-4.0-2.0-1.15","spark_pilot_2","7521","4","23","Male","","","","","","","null","<div style=""font-size:60px;"">+</div>","null","fixation","","","","","","","","","","","31","","",""
"revaluation","148","794195","0.0-4.0-2.0-0.16","spark_pilot_2","7521","4","23","Male","","false","","","","","[842,526]","./assets/img/ocean/memory/37.jpg","[""ArrowUp"",""ArrowLeft""]","value training","ocean","26","{""ArrowUp,ArrowLeft"":26,""ArrowUp,ArrowRight"":10,""ArrowDown,ArrowLeft"":5,""ArrowDown,ArrowRight"":17}","true","ArrowUp,ArrowLeft","false","","","revaluation","1","32","","",""
"html-keyboard-response","149","794713","0.0-4.0-2.0-1.16","spark_pilot_2","7521","4","23","Male","","","","","","","null","<div style=""font-size:60px;"">+</div>","null","fixation","","","","","","","","","","","33","","",""
"revaluation","150","800733","0.0-4.0-2.0-0.17","spark_pilot_2","7521","4","23","Male","","false","","","","","[879,377]","./assets/img/ocean/memory/40.jpg","[""ArrowUp"",""ArrowLeft""]","value training","ocean","26","{""ArrowUp,ArrowLeft"":26,""ArrowUp,ArrowRight"":10,""ArrowDown,ArrowLeft"":5,""ArrowDown,ArrowRight"":17}","true","ArrowUp,ArrowLeft","false","","","revaluation","1","34","","",""
"html-keyboard-response","151","801253","0.0-4.0-2.0-1.17","spark_pilot_2","7521","4","23","Male","","","","","","","null","<div style=""font-size:60px;"">+</div>","null","fixation","","","","","","","","","","","35","","",""
"revaluation","152","807284","0.0-4.0-2.0-0.18","spark_pilot_2","7521","4","23","Male","","false","","","","","[1266,392]","./assets/img/ocean/memory/6.jpg","[""ArrowDown"",""ArrowLeft""]","value training","ocean","5","{""ArrowUp,ArrowLeft"":26,""ArrowUp,ArrowRight"":10,""ArrowDown,ArrowLeft"":5,""ArrowDown,ArrowRight"":17}","false","ArrowDown,ArrowLeft","false","","","revaluation","1","36","","",""
"html-keyboard-response","153","807793","0.0-4.0-2.0-1.18","spark_pilot_2","7521","4","23","Male","","","","","","","null","<div style=""font-size:60px;"">+</div>","null","fixation","","","","","","","","","","","37","","",""
"revaluation","154","811814","0.0-4.0-2.0-0.19","spark_pilot_2","7521","4","23","Male","","false","","","","","[1190]","./assets/img/ocean/catch/7.jpg","[""spaceBar""]","value training","ocean","0","{""ArrowUp,ArrowLeft"":26,""ArrowUp,ArrowRight"":10,""ArrowDown,ArrowLeft"":5,""ArrowDown,ArrowRight"":17}","true","spaceBar","true","","","revaluation","1","38","","",""
"html-keyboard-response","155","812333","0.0-4.0-2.0-1.19","spark_pilot_2","7521","4","23","Male","","","","","","","null","<div style=""font-size:60px;"">+</div>","null","fixation","","","","","","","","","","","39","","",""
"revaluation","156","818394","0.0-4.0-2.0-0.20","spark_pilot_2","7521","4","23","Male","","false","","","","","[1266,296]","./assets/img/ocean/memory/3.jpg","[""ArrowUp"",""ArrowRight""]","value training","ocean","10","{""ArrowUp,ArrowLeft"":26,""ArrowUp,ArrowRight"":10,""ArrowDown,ArrowLeft"":5,""ArrowDown,ArrowRight"":17}","false","ArrowUp,ArrowRight","false","","","revaluation","1","40","","",""
"html-keyboard-response","157","818913","0.0-4.0-2.0-1.20","spark_pilot_2","7521","4","23","Male","","","","","","","null","<div style=""font-size:60px;"">+</div>","null","fixation","","","","","","","","","","","41","","",""
"revaluation","158","824928","0.0-4.0-2.0-0.21","spark_pilot_2","7521","4","23","Male","","false","","","","","[681,249]","./assets/img/ocean/memory/9.jpg","[""ArrowDown"",""ArrowRight""]","value training","ocean","17","{""ArrowUp,ArrowLeft"":26,""ArrowUp,ArrowRight"":10,""ArrowDown,ArrowLeft"":5,""ArrowDown,ArrowRight"":17}","false","ArrowDown,ArrowRight","false","","","revaluation","1","42","","",""
"html-keyboard-response","159","825432","0.0-4.0-2.0-1.21","spark_pilot_2","7521","4","23","Male","","","","","","","null","<div style=""font-size:60px;"">+</div>","null","fixation","","","","","","","","","","","43","","",""
"revaluation","160","829449","0.0-4.0-2.0-0.22","spark_pilot_2","7521","4","23","Male","","false","","","","","[1422]","./assets/img/ocean/catch/1.jpg","[""spaceBar""]","value training","ocean","0","{""ArrowUp,ArrowLeft"":26,""ArrowUp,ArrowRight"":10,""ArrowDown,ArrowLeft"":5,""ArrowDown,ArrowRight"":17}","true","spaceBar","true","","","revaluation","1","44","","",""
"html-keyboard-response","161","829963","0.0-4.0-2.0-1.22","spark_pilot_2","7521","4","23","Male","","","","","","","null","<div style=""font-size:60px;"">+</div>","null","fixation","","","","","","","","","","","45","","",""
"revaluation","162","836004","0.0-4.0-2.0-0.23","spark_pilot_2","7521","4","23","Male","","false","","","","","[728,122]","./assets/img/ocean/memory/1.jpg","[""ArrowDown"",""ArrowLeft""]","value training","ocean","5","{""ArrowUp,ArrowLeft"":26,""ArrowUp,ArrowRight"":10,""ArrowDown,ArrowLeft"":5,""ArrowDown,ArrowRight"":17}","false","ArrowDown,ArrowLeft","false","","","revaluation","1","46","","",""
"html-keyboard-response","163","836523","0.0-4.0-2.0-1.23","spark_pilot_2","7521","4","23","Male","","","","","","","null","<div style=""font-size:60px;"">+</div>","null","fixation","","","","","","","","","","","47","","",""
"revaluation","164","842553","0.0-4.0-2.0-0.24","spark_pilot_2","7521","4","23","Male","","false","","","","","[436,403]","./assets/img/ocean/memory/35.jpg","[""ArrowUp"",""ArrowLeft""]","value training","ocean","26","{""ArrowUp,ArrowLeft"":26,""ArrowUp,ArrowRight"":10,""ArrowDown,ArrowLeft"":5,""ArrowDown,ArrowRight"":17}","true","ArrowUp,ArrowLeft","false","","","revaluation","1","48","","",""
"html-keyboard-response","165","843073","0.0-4.0-2.0-1.24","spark_pilot_2","7521","4","23","Male","","","","","","","null","<div style=""font-size:60px;"">+</div>","null","fixation","","","","","","","","","","","49","","",""
"revaluation","166","847103","0.0-4.0-2.0-0.25","spark_pilot_2","7521","4","23","Male","","false","","","","","[1141]","./assets/img/ocean/catch/3.jpg","[""spaceBar""]","value training","ocean","0","{""ArrowUp,ArrowLeft"":26,""ArrowUp,ArrowRight"":10,""ArrowDown,ArrowLeft"":5,""ArrowDown,ArrowRight"":17}","true","spaceBar","true","","","revaluation","1","50","","",""
"html-keyboard-response","167","847613","0.0-4.0-2.0-1.25","spark_pilot_2","7521","4","23","Male","","","","","","","null","<div style=""font-size:60px;"">+</div>","null","fixation","","","","","","","","","","","51","","",""
"revaluation","168","853645","0.0-4.0-2.0-0.26","spark_pilot_2","7521","4","23","Male","","false","","","","","[1863,829]","./assets/img/ocean/memory/4.jpg","[""ArrowDown"",""ArrowLeft""]","value training","ocean","5","{""ArrowUp,ArrowLeft"":26,""ArrowUp,ArrowRight"":10,""ArrowDown,ArrowLeft"":5,""ArrowDown,ArrowRight"":17}","false","ArrowDown,ArrowLeft","false","","","revaluation","1","52","","",""
"html-keyboard-response","169","854163","0.0-4.0-2.0-1.26","spark_pilot_2","7521","4","23","Male","","","","","","","null","<div style=""font-size:60px;"">+</div>","null","fixation","","","","","","","","","","","53","","",""
"revaluation","170","860233","0.0-4.0-2.0-0.27","spark_pilot_2","7521","4","23","Male","","false","","","","","[506,676]","./assets/img/ocean/memory/34.jpg","[""ArrowUp"",""ArrowLeft""]","value training","ocean","26","{""ArrowUp,ArrowLeft"":26,""ArrowUp,ArrowRight"":10,""ArrowDown,ArrowLeft"":5,""ArrowDown,ArrowRight"":17}","true","ArrowUp,ArrowLeft","false","","","revaluation","1","54","","",""
"html-keyboard-response","171","860753","0.0-4.0-2.0-1.27","spark_pilot_2","7521","4","23","Male","","","","","","","null","<div style=""font-size:60px;"">+</div>","null","fixation","","","","","","","","","","","55","","",""
"revaluation","172","866794","0.0-4.0-2.0-0.28","spark_pilot_2","7521","4","23","Male","","false","","","","","[602,282]","./assets/img/ocean/memory/41.jpg","[""ArrowUp"",""ArrowLeft""]","value training","ocean","26","{""ArrowUp,ArrowLeft"":26,""ArrowUp,ArrowRight"":10,""ArrowDown,ArrowLeft"":5,""ArrowDown,ArrowRight"":17}","true","ArrowUp,ArrowLeft","false","","","revaluation","1","56","","",""
"html-keyboard-response","173","867313","0.0-4.0-2.0-1.28","spark_pilot_2","7521","4","23","Male","","","","","","","null","<div style=""font-size:60px;"">+</div>","null","fixation","","","","","","","","","","","57","","",""
"revaluation","174","873354","0.0-4.0-2.0-0.29","spark_pilot_2","7521","4","23","Male","","false","","","","","[1450,307]","./assets/img/ocean/memory/7.jpg","[""ArrowUp"",""ArrowLeft""]","value training","ocean","26","{""ArrowUp,ArrowLeft"":26,""ArrowUp,ArrowRight"":10,""ArrowDown,ArrowLeft"":5,""ArrowDown,ArrowRight"":17}","true","ArrowUp,ArrowLeft","false","","","revaluation","1","58","","",""
"html-keyboard-response","175","873873","0.0-4.0-2.0-1.29","spark_pilot_2","7521","4","23","Male","","","","","","","null","<div style=""font-size:60px;"">+</div>","null","fixation","","","","","","","","","","","59","","",""
"revaluation","176","879915","0.0-4.0-2.0-0.30","spark_pilot_2","7521","4","23","Male","","false","","","","","[662,288]","./assets/img/ocean/memory/8.jpg","[""ArrowUp"",""ArrowLeft""]","value training","ocean","26","{""ArrowUp,ArrowLeft"":26,""ArrowUp,ArrowRight"":10,""ArrowDown,ArrowLeft"":5,""ArrowDown,ArrowRight"":17}","true","ArrowUp,ArrowLeft","false","","","revaluation","1","60","","",""
"html-keyboard-response","177","880427","0.0-4.0-2.0-1.30","spark_pilot_2","7521","4","23","Male","","","","","","","null","<div style=""font-size:60px;"">+</div>","null","fixation","","","","","","","","","","","61","","",""
"revaluation","178","886444","0.0-4.0-2.0-0.31","spark_pilot_2","7521","4","23","Male","","false","","","","","[549,450]","./assets/img/ocean/memory/41.jpg","[""ArrowUp"",""ArrowLeft""]","value training","ocean","26","{""ArrowUp,ArrowLeft"":26,""ArrowUp,ArrowRight"":10,""ArrowDown,ArrowLeft"":5,""ArrowDown,ArrowRight"":17}","true","ArrowUp,ArrowLeft","false","","","revaluation","1","62","","",""
"html-keyboard-response","179","886963","0.0-4.0-2.0-1.31","spark_pilot_2","7521","4","23","Male","","","","","","","null","<div style=""font-size:60px;"">+</div>","null","fixation","","","","","","","","","","","63","","",""
"revaluation","180","891003","0.0-4.0-2.0-0.32","spark_pilot_2","7521","4","23","Male","","false","","","","","[441]","./assets/img/ocean/catch/0.jpg","[""ArrowUp""]","value training","ocean","-10","{""ArrowUp,ArrowLeft"":26,""ArrowUp,ArrowRight"":10,""ArrowDown,ArrowLeft"":5,""ArrowDown,ArrowRight"":17}","false","ArrowUp","true","","","revaluation","1","64","","",""
"html-keyboard-response","181","891523","0.0-4.0-2.0-1.32","spark_pilot_2","7521","4","23","Male","","","","","","","null","<div style=""font-size:60px;"">+</div>","null","fixation","","","","","","","","","","","65","","",""
"revaluation","182","897574","0.0-4.0-2.0-0.33","spark_pilot_2","7521","4","23","Male","","false","","","","","[899,593]","./assets/img/ocean/memory/36.jpg","[""ArrowUp"",""ArrowLeft""]","value training","ocean","26","{""ArrowUp,ArrowLeft"":26,""ArrowUp,ArrowRight"":10,""ArrowDown,ArrowLeft"":5,""ArrowDown,ArrowRight"":17}","true","ArrowUp,ArrowLeft","false","","","revaluation","1","66","","",""
"html-keyboard-response","183","898093","0.0-4.0-2.0-1.33","spark_pilot_2","7521","4","23","Male","","","","","","","null","<div style=""font-size:60px;"">+</div>","null","fixation","","","","","","","","","","","67","","",""
"revaluation","184","902114","0.0-4.0-2.0-0.34","spark_pilot_2","7521","4","23","Male","","false","","","","","[808]","./assets/img/ocean/catch/2.jpg","[""spaceBar""]","value training","ocean","0","{""ArrowUp,ArrowLeft"":26,""ArrowUp,ArrowRight"":10,""ArrowDown,ArrowLeft"":5,""ArrowDown,ArrowRight"":17}","true","spaceBar","true","","","revaluation","1","68","","",""
"html-keyboard-response","185","902632","0.0-4.0-2.0-1.34","spark_pilot_2","7521","4","23","Male","","","","","","","null","<div style=""font-size:60px;"">+</div>","null","fixation","","","","","","","","","","","69","","",""
"revaluation","186","908664","0.0-4.0-2.0-0.35","spark_pilot_2","7521","4","23","Male","","false","","","","","[717,444]","./assets/img/ocean/memory/38.jpg","[""ArrowUp"",""ArrowLeft""]","value training","ocean","26","{""ArrowUp,ArrowLeft"":26,""ArrowUp,ArrowRight"":10,""ArrowDown,ArrowLeft"":5,""ArrowDown,ArrowRight"":17}","true","ArrowUp,ArrowLeft","false","","","revaluation","1","70","","",""
"html-keyboard-response","187","909182","0.0-4.0-2.0-1.35","spark_pilot_2","7521","4","23","Male","","","","","","","null","<div style=""font-size:60px;"">+</div>","null","fixation","","","","","","","","","","","71","","",""
"revaluation","188","913214","0.0-4.0-2.0-0.36","spark_pilot_2","7521","4","23","Male","","false","","","","","[788]","./assets/img/ocean/catch/4.jpg","[""spaceBar""]","value training","ocean","0","{""ArrowUp,ArrowLeft"":26,""ArrowUp,ArrowRight"":10,""ArrowDown,ArrowLeft"":5,""ArrowDown,ArrowRight"":17}","true","spaceBar","true","","","revaluation","1","72","","",""
"html-keyboard-response","189","913733","0.0-4.0-2.0-1.36","spark_pilot_2","7521","4","23","Male","","","","","","","null","<div style=""font-size:60px;"">+</div>","null","fixation","","","","","","","","","","","73","","",""
"revaluation","190","919764","0.0-4.0-2.0-0.37","spark_pilot_2","7521","4","23","Male","","false","","","","","[948,412]","./assets/img/ocean/memory/0.jpg","[""ArrowUp"",""ArrowLeft""]","value training","ocean","26","{""ArrowUp,ArrowLeft"":26,""ArrowUp,ArrowRight"":10,""ArrowDown,ArrowLeft"":5,""ArrowDown,ArrowRight"":17}","true","ArrowUp,ArrowLeft","false","","","revaluation","1","74","","",""
"html-keyboard-response","191","920273","0.0-4.0-2.0-1.37","spark_pilot_2","7521","4","23","Male","","","","","","","null","<div style=""font-size:60px;"">+</div>","null","fixation","","","","","","","","","","","75","","",""
"revaluation","192","926314","0.0-4.0-2.0-0.38","spark_pilot_2","7521","4","23","Male","","false","","","","","[644,620]","./assets/img/ocean/memory/1.jpg","[""ArrowUp"",""ArrowLeft""]","value training","ocean","26","{""ArrowUp,ArrowLeft"":26,""ArrowUp,ArrowRight"":10,""ArrowDown,ArrowLeft"":5,""ArrowDown,ArrowRight"":17}","true","ArrowUp,ArrowLeft","false","","","revaluation","1","76","","",""
"html-keyboard-response","193","926833","0.0-4.0-2.0-1.38","spark_pilot_2","7521","4","23","Male","","","","","","","null","<div style=""font-size:60px;"">+</div>","null","fixation","","","","","","","","","","","77","","",""
"revaluation","194","932873","0.0-4.0-2.0-0.39","spark_pilot_2","7521","4","23","Male","","false","","","","","[756,516]","./assets/img/ocean/memory/35.jpg","[""ArrowUp"",""ArrowLeft""]","value training","ocean","26","{""ArrowUp,ArrowLeft"":26,""ArrowUp,ArrowRight"":10,""ArrowDown,ArrowLeft"":5,""ArrowDown,ArrowRight"":17}","true","ArrowUp,ArrowLeft","false","","","revaluation","1","78","","",""
"html-keyboard-response","195","933393","0.0-4.0-2.0-1.39","spark_pilot_2","7521","4","23","Male","","","","","","","null","<div style=""font-size:60px;"">+</div>","null","fixation","","","","","","","","","","","79","","",""
"revaluation","196","939424","0.0-4.0-2.0-0.40","spark_pilot_2","7521","4","23","Male","","false","","","","","[467,369]","./assets/img/ocean/memory/38.jpg","[""ArrowUp"",""ArrowLeft""]","value training","ocean","26","{""ArrowUp,ArrowLeft"":26,""ArrowUp,ArrowRight"":10,""ArrowDown,ArrowLeft"":5,""ArrowDown,ArrowRight"":17}","true","ArrowUp,ArrowLeft","false","","","revaluation","1","80","","",""
"html-keyboard-response","197","939943","0.0-4.0-2.0-1.40","spark_pilot_2","7521","4","23","Male","","","","","","","null","<div style=""font-size:60px;"">+</div>","null","fixation","","","","","","","","","","","81","","",""
"revaluation","198","945963","0.0-4.0-2.0-0.41","spark_pilot_2","7521","4","23","Male","","false","","","","","[457,589]","./assets/img/ocean/memory/4.jpg","[""ArrowUp"",""ArrowLeft""]","value training","ocean","26","{""ArrowUp,ArrowLeft"":26,""ArrowUp,ArrowRight"":10,""ArrowDown,ArrowLeft"":5,""ArrowDown,ArrowRight"":17}","true","ArrowUp,ArrowLeft","false","","","revaluation","1","82","","",""
"html-keyboard-response","199","946483","0.0-4.0-2.0-1.41","spark_pilot_2","7521","4","23","Male","","","","","","","null","<div style=""font-size:60px;"">+</div>","null","fixation","","","","","","","","","","","83","","",""
"revaluation","200","952503","0.0-4.0-2.0-0.42","spark_pilot_2","7521","4","23","Male","","false","","","","","[483,391]","./assets/img/ocean/memory/33.jpg","[""ArrowUp"",""ArrowLeft""]","value training","ocean","26","{""ArrowUp,ArrowLeft"":26,""ArrowUp,ArrowRight"":10,""ArrowDown,ArrowLeft"":5,""ArrowDown,ArrowRight"":17}","true","ArrowUp,ArrowLeft","false","","","revaluation","1","84","","",""
"html-keyboard-response","201","953023","0.0-4.0-2.0-1.42","spark_pilot_2","7521","4","23","Male","","","","","","","null","<div style=""font-size:60px;"">+</div>","null","fixation","","","","","","","","","","","85","","",""
"revaluation","202","959063","0.0-4.0-2.0-0.43","spark_pilot_2","7521","4","23","Male","","false","","","","","[658,352]","./assets/img/ocean/memory/37.jpg","[""ArrowUp"",""ArrowLeft""]","value training","ocean","26","{""ArrowUp,ArrowLeft"":26,""ArrowUp,ArrowRight"":10,""ArrowDown,ArrowLeft"":5,""ArrowDown,ArrowRight"":17}","true","ArrowUp,ArrowLeft","false","","","revaluation","1","86","","",""
"html-keyboard-response","203","959583","0.0-4.0-2.0-1.43","spark_pilot_2","7521","4","23","Male","","","","","","","null","<div style=""font-size:60px;"">+</div>","null","fixation","","","","","","","","","","","87","","",""
"revaluation","204","963613","0.0-4.0-2.0-0.44","spark_pilot_2","7521","4","23","Male","","false","","","","","[1240]","./assets/img/ocean/catch/5.jpg","[""spaceBar""]","value training","ocean","0","{""ArrowUp,ArrowLeft"":26,""ArrowUp,ArrowRight"":10,""ArrowDown,ArrowLeft"":5,""ArrowDown,ArrowRight"":17}","true","spaceBar","true","","","revaluation","1","88","","",""
"html-keyboard-response","205","964123","0.0-4.0-2.0-1.44","spark_pilot_2","7521","4","23","Male","","","","","","","null","<div style=""font-size:60px;"">+</div>","null","fixation","","","","","","","","","","","89","","",""
"revaluation","206","970164","0.0-4.0-2.0-0.45","spark_pilot_2","7521","4","23","Male","","false","","","","","[682,544]","./assets/img/ocean/memory/39.jpg","[""ArrowUp"",""ArrowLeft""]","value training","ocean","26","{""ArrowUp,ArrowLeft"":26,""ArrowUp,ArrowRight"":10,""ArrowDown,ArrowLeft"":5,""ArrowDown,ArrowRight"":17}","true","ArrowUp,ArrowLeft","false","","","revaluation","1","90","","",""
"html-keyboard-response","207","970667","0.0-4.0-2.0-1.45","spark_pilot_2","7521","4","23","Male","","","","","","","null","<div style=""font-size:60px;"">+</div>","null","fixation","","","","","","","","","","","91","","",""
"revaluation","208","976704","0.0-4.0-2.0-0.46","spark_pilot_2","7521","4","23","Male","","false","","","","","[656,345]","./assets/img/ocean/memory/10.jpg","[""ArrowUp"",""ArrowLeft""]","value training","ocean","26","{""ArrowUp,ArrowLeft"":26,""ArrowUp,ArrowRight"":10,""ArrowDown,ArrowLeft"":5,""ArrowDown,ArrowRight"":17}","true","ArrowUp,ArrowLeft","false","","","revaluation","1","92","","",""
"html-keyboard-response","209","977223","0.0-4.0-2.0-1.46","spark_pilot_2","7521","4","23","Male","","","","","","","null","<div style=""font-size:60px;"">+</div>","null","fixation","","","","","","","","","","","93","","",""
"revaluation","210","983234","0.0-4.0-2.0-0.47","spark_pilot_2","7521","4","23","Male","","false","","","","","[642,472]","./assets/img/ocean/memory/6.jpg","[""ArrowUp"",""ArrowLeft""]","value training","ocean","26","{""ArrowUp,ArrowLeft"":26,""ArrowUp,ArrowRight"":10,""ArrowDown,ArrowLeft"":5,""ArrowDown,ArrowRight"":17}","true","ArrowUp,ArrowLeft","false","","","revaluation","1","94","","",""
"html-keyboard-response","211","983753","0.0-4.0-2.0-1.47","spark_pilot_2","7521","4","23","Male","","","","","","","null","<div style=""font-size:60px;"">+</div>","null","fixation","","","","","","","","","","","95","","",""
"revaluation","212","989774","0.0-4.0-2.0-0.48","spark_pilot_2","7521","4","23","Male","","false","","","","","[740,453]","./assets/img/ocean/memory/3.jpg","[""ArrowUp"",""ArrowLeft""]","value training","ocean","26","{""ArrowUp,ArrowLeft"":26,""ArrowUp,ArrowRight"":10,""ArrowDown,ArrowLeft"":5,""ArrowDown,ArrowRight"":17}","true","ArrowUp,ArrowLeft","false","","","revaluation","1","96","","",""
"html-keyboard-response","213","990293","0.0-4.0-2.0-1.48","spark_pilot_2","7521","4","23","Male","","","","","","","null","<div style=""font-size:60px;"">+</div>","null","fixation","","","","","","","","","","","97","","",""
"revaluation","214","996334","0.0-4.0-2.0-0.49","spark_pilot_2","7521","4","23","Male","","false","","","","","[472,306]","./assets/img/ocean/memory/34.jpg","[""ArrowUp"",""ArrowLeft""]","value training","ocean","26","{""ArrowUp,ArrowLeft"":26,""ArrowUp,ArrowRight"":10,""ArrowDown,ArrowLeft"":5,""ArrowDown,ArrowRight"":17}","true","ArrowUp,ArrowLeft","false","","","revaluation","1","98","","",""
"html-keyboard-response","215","996853","0.0-4.0-2.0-1.49","spark_pilot_2","7521","4","23","Male","","","","","","","null","<div style=""font-size:60px;"">+</div>","null","fixation","","","","","","","","","","","99","","",""
"learning-instructions","216","1011386","0.0-4.0-3.0-0.0","spark_pilot_2","7521","4","23","Male","","","","","","","1640","<p> Now, you will travel with a friend who will choose whether you go up or down first. </p>
            <p> On these turns, you will just see the animal that they found. You will still get to choose which chest to search for treasure.</p>","","instructions","","","","","","","","","","","","","",""
"revaluation","217","1015414","0.0-4.0-4.0-0.0","spark_pilot_2","7521","4","23","Male","","false","","","","","[1612]","./assets/img/ocean/animals/octopus.jpg","[""ArrowLeft""]","revaluation","ocean","8","{""ArrowUp,ArrowLeft"":2,""ArrowUp,ArrowRight"":11,""ArrowDown,ArrowLeft"":8,""ArrowDown,ArrowRight"":27}","false","ArrowDown,ArrowLeft","","","","revaluation","1","0","","",""
"html-keyboard-response","218","1015934","0.0-4.0-4.0-1.0","spark_pilot_2","7521","4","23","Male","","","","","","","null","<div style=""font-size:60px;"">+</div>","null","fixation","","","","","","","","","","","1","","",""
"revaluation","219","1019973","0.0-4.0-4.0-0.1","spark_pilot_2","7521","4","23","Male","","false","","","","","[617]","./assets/img/ocean/animals/seahorse.jpg","[""ArrowRight""]","revaluation","ocean","11","{""ArrowUp,ArrowLeft"":2,""ArrowUp,ArrowRight"":11,""ArrowDown,ArrowLeft"":8,""ArrowDown,ArrowRight"":27}","true","ArrowUp,ArrowRight","","","","revaluation","1","2","","",""
"html-keyboard-response","220","1020484","0.0-4.0-4.0-1.1","spark_pilot_2","7521","4","23","Male","","","","","","","null","<div style=""font-size:60px;"">+</div>","null","fixation","","","","","","","","","","","3","","",""
"revaluation","221","1024503","0.0-4.0-4.0-0.2","spark_pilot_2","7521","4","23","Male","","false","","","","","[434]","./assets/img/ocean/animals/octopus.jpg","[""ArrowRight""]","revaluation","ocean","27","{""ArrowUp,ArrowLeft"":2,""ArrowUp,ArrowRight"":11,""ArrowDown,ArrowLeft"":8,""ArrowDown,ArrowRight"":27}","true","ArrowDown,ArrowRight","","","","revaluation","1","4","","",""
"html-keyboard-response","222","1025018","0.0-4.0-4.0-1.2","spark_pilot_2","7521","4","23","Male","","","","","","","null","<div style=""font-size:60px;"">+</div>","null","fixation","","","","","","","","","","","5","","",""
"revaluation","223","1029044","0.0-4.0-4.0-0.3","spark_pilot_2","7521","4","23","Male","","false","","","","","[402]","./assets/img/ocean/animals/octopus.jpg","[""ArrowLeft""]","revaluation","ocean","8","{""ArrowUp,ArrowLeft"":2,""ArrowUp,ArrowRight"":11,""ArrowDown,ArrowLeft"":8,""ArrowDown,ArrowRight"":27}","false","ArrowDown,ArrowLeft","","","","revaluation","1","6","","",""
"html-keyboard-response","224","1029563","0.0-4.0-4.0-1.3","spark_pilot_2","7521","4","23","Male","","","","","","","null","<div style=""font-size:60px;"">+</div>","null","fixation","","","","","","","","","","","7","","",""
"revaluation","225","1033593","0.0-4.0-4.0-0.4","spark_pilot_2","7521","4","23","Male","","false","","","","","[849]","./assets/img/ocean/animals/seahorse.jpg","[""ArrowRight""]","revaluation","ocean","11","{""ArrowUp,ArrowLeft"":2,""ArrowUp,ArrowRight"":11,""ArrowDown,ArrowLeft"":8,""ArrowDown,ArrowRight"":27}","true","ArrowUp,ArrowRight","","","","revaluation","1","8","","",""
"html-keyboard-response","226","1034113","0.0-4.0-4.0-1.4","spark_pilot_2","7521","4","23","Male","","","","","","","null","<div style=""font-size:60px;"">+</div>","null","fixation","","","","","","","","","","","9","","",""
"revaluation","227","1038143","0.0-4.0-4.0-0.5","spark_pilot_2","7521","4","23","Male","","false","","","","","[405]","./assets/img/ocean/animals/octopus.jpg","[""ArrowRight""]","revaluation","ocean","27","{""ArrowUp,ArrowLeft"":2,""ArrowUp,ArrowRight"":11,""ArrowDown,ArrowLeft"":8,""ArrowDown,ArrowRight"":27}","true","ArrowDown,ArrowRight","","","","revaluation","1","10","","",""
"html-keyboard-response","228","1038663","0.0-4.0-4.0-1.5","spark_pilot_2","7521","4","23","Male","","","","","","","null","<div style=""font-size:60px;"">+</div>","null","fixation","","","","","","","","","","","11","","",""
"revaluation","229","1042683","0.0-4.0-4.0-0.6","spark_pilot_2","7521","4","23","Male","","false","","","","","[272]","./assets/img/ocean/animals/octopus.jpg","[""ArrowRight""]","revaluation","ocean","27","{""ArrowUp,ArrowLeft"":2,""ArrowUp,ArrowRight"":11,""ArrowDown,ArrowLeft"":8,""ArrowDown,ArrowRight"":27}","true","ArrowDown,ArrowRight","","","","revaluation","1","12","","",""
"html-keyboard-response","230","1043203","0.0-4.0-4.0-1.6","spark_pilot_2","7521","4","23","Male","","","","","","","null","<div style=""font-size:60px;"">+</div>","null","fixation","","","","","","","","","","","13","","",""
"revaluation","231","1047223","0.0-4.0-4.0-0.7","spark_pilot_2","7521","4","23","Male","","false","","","","","[336]","./assets/img/ocean/animals/seahorse.jpg","[""ArrowRight""]","revaluation","ocean","11","{""ArrowUp,ArrowLeft"":2,""ArrowUp,ArrowRight"":11,""ArrowDown,ArrowLeft"":8,""ArrowDown,ArrowRight"":27}","true","ArrowUp,ArrowRight","","","","revaluation","1","14","","",""
"html-keyboard-response","232","1047743","0.0-4.0-4.0-1.7","spark_pilot_2","7521","4","23","Male","","","","","","","null","<div style=""font-size:60px;"">+</div>","null","fixation","","","","","","","","","","","15","","",""
"revaluation","233","1051775","0.0-4.0-4.0-0.8","spark_pilot_2","7521","4","23","Male","","false","","","","","[368]","./assets/img/ocean/animals/seahorse.jpg","[""ArrowRight""]","revaluation","ocean","11","{""ArrowUp,ArrowLeft"":2,""ArrowUp,ArrowRight"":11,""ArrowDown,ArrowLeft"":8,""ArrowDown,ArrowRight"":27}","true","ArrowUp,ArrowRight","","","","revaluation","1","16","","",""
"html-keyboard-response","234","1052293","0.0-4.0-4.0-1.8","spark_pilot_2","7521","4","23","Male","","","","","","","null","<div style=""font-size:60px;"">+</div>","null","fixation","","","","","","","","","","","17","","",""
"revaluation","235","1056324","0.0-4.0-4.0-0.9","spark_pilot_2","7521","4","23","Male","","false","","","","","[333]","./assets/img/ocean/animals/seahorse.jpg","[""ArrowLeft""]","revaluation","ocean","2","{""ArrowUp,ArrowLeft"":2,""ArrowUp,ArrowRight"":11,""ArrowDown,ArrowLeft"":8,""ArrowDown,ArrowRight"":27}","false","ArrowUp,ArrowLeft","","","","revaluation","1","18","","",""
"html-keyboard-response","236","1056844","0.0-4.0-4.0-1.9","spark_pilot_2","7521","4","23","Male","","","","","","","null","<div style=""font-size:60px;"">+</div>","null","fixation","","","","","","","","","","","19","","",""
"revaluation","237","1060879","0.0-4.0-4.0-0.10","spark_pilot_2","7521","4","23","Male","","false","","","","","[277]","./assets/img/ocean/animals/seahorse.jpg","[""ArrowLeft""]","revaluation","ocean","2","{""ArrowUp,ArrowLeft"":2,""ArrowUp,ArrowRight"":11,""ArrowDown,ArrowLeft"":8,""ArrowDown,ArrowRight"":27}","false","ArrowUp,ArrowLeft","","","","revaluation","1","20","","",""
"html-keyboard-response","238","1061393","0.0-4.0-4.0-1.10","spark_pilot_2","7521","4","23","Male","","","","","","","null","<div style=""font-size:60px;"">+</div>","null","fixation","","","","","","","","","","","21","","",""
"revaluation","239","1065414","0.0-4.0-4.0-0.11","spark_pilot_2","7521","4","23","Male","","false","","","","","[506]","./assets/img/ocean/animals/seahorse.jpg","[""ArrowRight""]","revaluation","ocean","11","{""ArrowUp,ArrowLeft"":2,""ArrowUp,ArrowRight"":11,""ArrowDown,ArrowLeft"":8,""ArrowDown,ArrowRight"":27}","true","ArrowUp,ArrowRight","","","","revaluation","1","22","","",""
"html-keyboard-response","240","1065920","0.0-4.0-4.0-1.11","spark_pilot_2","7521","4","23","Male","","","","","","","null","<div style=""font-size:60px;"">+</div>","null","fixation","","","","","","","","","","","23","","",""
"revaluation","241","1069924","0.0-4.0-4.0-0.12","spark_pilot_2","7521","4","23","Male","","false","","","","","[427]","./assets/img/ocean/animals/octopus.jpg","[""ArrowLeft""]","revaluation","ocean","8","{""ArrowUp,ArrowLeft"":2,""ArrowUp,ArrowRight"":11,""ArrowDown,ArrowLeft"":8,""ArrowDown,ArrowRight"":27}","false","ArrowDown,ArrowLeft","","","","revaluation","1","24","","",""
"html-keyboard-response","242","1070444","0.0-4.0-4.0-1.12","spark_pilot_2","7521","4","23","Male","","","","","","","null","<div style=""font-size:60px;"">+</div>","null","fixation","","","","","","","","","","","25","","",""
"revaluation","243","1074473","0.0-4.0-4.0-0.13","spark_pilot_2","7521","4","23","Male","","false","","","","","[277]","./assets/img/ocean/animals/octopus.jpg","[""ArrowRight""]","revaluation","ocean","27","{""ArrowUp,ArrowLeft"":2,""ArrowUp,ArrowRight"":11,""ArrowDown,ArrowLeft"":8,""ArrowDown,ArrowRight"":27}","true","ArrowDown,ArrowRight","","","","revaluation","1","26","","",""
"html-keyboard-response","244","1074993","0.0-4.0-4.0-1.13","spark_pilot_2","7521","4","23","Male","","","","","","","null","<div style=""font-size:60px;"">+</div>","null","fixation","","","","","","","","","","","27","","",""
"revaluation","245","1079014","0.0-4.0-4.0-0.14","spark_pilot_2","7521","4","23","Male","","false","","","","","[280]","./assets/img/ocean/animals/seahorse.jpg","[""ArrowRight""]","revaluation","ocean","11","{""ArrowUp,ArrowLeft"":2,""ArrowUp,ArrowRight"":11,""ArrowDown,ArrowLeft"":8,""ArrowDown,ArrowRight"":27}","true","ArrowUp,ArrowRight","","","","revaluation","1","28","","",""
"html-keyboard-response","246","1079533","0.0-4.0-4.0-1.14","spark_pilot_2","7521","4","23","Male","","","","","","","null","<div style=""font-size:60px;"">+</div>","null","fixation","","","","","","","","","","","29","","",""
"revaluation","247","1083555","0.0-4.0-4.0-0.15","spark_pilot_2","7521","4","23","Male","","false","","","","","[298]","./assets/img/ocean/animals/octopus.jpg","[""ArrowRight""]","revaluation","ocean","27","{""ArrowUp,ArrowLeft"":2,""ArrowUp,ArrowRight"":11,""ArrowDown,ArrowLeft"":8,""ArrowDown,ArrowRight"":27}","true","ArrowDown,ArrowRight","","","","revaluation","1","30","","",""
"html-keyboard-response","248","1084073","0.0-4.0-4.0-1.15","spark_pilot_2","7521","4","23","Male","","","","","","","null","<div style=""font-size:60px;"">+</div>","null","fixation","","","","","","","","","","","31","","",""
"revaluation","249","1088095","0.0-4.0-4.0-0.16","spark_pilot_2","7521","4","23","Male","","false","","","","","[371]","./assets/img/ocean/animals/seahorse.jpg","[""ArrowRight""]","revaluation","ocean","11","{""ArrowUp,ArrowLeft"":2,""ArrowUp,ArrowRight"":11,""ArrowDown,ArrowLeft"":8,""ArrowDown,ArrowRight"":27}","true","ArrowUp,ArrowRight","","","","revaluation","1","32","","",""
"html-keyboard-response","250","1088613","0.0-4.0-4.0-1.16","spark_pilot_2","7521","4","23","Male","","","","","","","null","<div style=""font-size:60px;"">+</div>","null","fixation","","","","","","","","","","","33","","",""
"revaluation","251","1092654","0.0-4.0-4.0-0.17","spark_pilot_2","7521","4","23","Male","","false","","","","","[318]","./assets/img/ocean/animals/octopus.jpg","[""ArrowRight""]","revaluation","ocean","27","{""ArrowUp,ArrowLeft"":2,""ArrowUp,ArrowRight"":11,""ArrowDown,ArrowLeft"":8,""ArrowDown,ArrowRight"":27}","true","ArrowDown,ArrowRight","","","","revaluation","1","34","","",""
"html-keyboard-response","252","1093173","0.0-4.0-4.0-1.17","spark_pilot_2","7521","4","23","Male","","","","","","","null","<div style=""font-size:60px;"">+</div>","null","fixation","","","","","","","","","","","35","","",""
"learning-instructions","253","1105795","0.0-4.0-5.0-0.0","spark_pilot_2","7521","4","23","Male","","","","","","","1121","<p> Time to play the dot game! </p>
            <p> For one minute, click the red dots on the following screen as they appear. </p>
            <p><b> Don't look away, as you will earn bonus for clicking dots</b>. </p>","","instructions","","","","","","","","","","","","","",""
"revaluation","254","1165818","0.0-4.0-6.0-0.0","spark_pilot_2","7521","4","23","Male","","","","","","","[80,67,60,63,52,59,68]","","","rest","","70","","","","","0","60000","","","","","",""
"learning-instructions","255","1173405","0.0-4.0-7.0-0.0","spark_pilot_2","7521","4","23","Male","","","","","","","1471","<p> You have almost finished this part of the game! </p>
            <p> We are going to ask you to make a few more choices. </p>","","instructions","","","","","","","","","","","","","",""
"learning-instructions","256","1187926","0.0-4.0-7.0-0.1","spark_pilot_2","7521","4","23","Male","","","","","","","541","<p> First, you need to decide whether to go up or down. When you see each picture, use the arrow keys to make your choice. </p>
            <p><b>You will not see which animal you found, but try to get to the one that will give you the most treasure.</b></p>","","instructions","","","","","","","","","","","","","",""
"revaluation","257","1188797","0.0-4.0-8.0-0.0","spark_pilot_2","7521","4","23","Male","","false","","","","","[868]","./assets/img/ocean/test/1.jpg","[""ArrowDown""]","first stage test","ocean","0","{""ArrowUp,ArrowLeft"":2,""ArrowUp,ArrowRight"":11,""ArrowDown,ArrowLeft"":8,""ArrowDown,ArrowRight"":27}","true","ArrowDown","false","","","revaluation","1","","","",""
"html-keyboard-response","258","1189303","0.0-4.0-8.0-1.0","spark_pilot_2","7521","4","23","Male","","","","","","","null","<div style=""font-size:60px;"">+</div>","null","fixation","","","","","","","","","","","","","",""
"revaluation","259","1189820","0.0-4.0-8.0-0.1","spark_pilot_2","7521","4","23","Male","","false","","","","","[513]","./assets/img/ocean/test/2.jpg","[""ArrowUp""]","first stage test","ocean","0","{""ArrowUp,ArrowLeft"":2,""ArrowUp,ArrowRight"":11,""ArrowDown,ArrowLeft"":8,""ArrowDown,ArrowRight"":27}","false","ArrowUp","false","","","revaluation","1","","","",""
"html-keyboard-response","260","1190323","0.0-4.0-8.0-1.1","spark_pilot_2","7521","4","23","Male","","","","","","","null","<div style=""font-size:60px;"">+</div>","null","fixation","","","","","","","","","","","","","",""
"revaluation","261","1191233","0.0-4.0-8.0-0.2","spark_pilot_2","7521","4","23","Male","","false","","","","","[907]","./assets/img/ocean/test/3.jpg","[""ArrowUp""]","first stage test","ocean","0","{""ArrowUp,ArrowLeft"":2,""ArrowUp,ArrowRight"":11,""ArrowDown,ArrowLeft"":8,""ArrowDown,ArrowRight"":27}","false","ArrowUp","false","","","revaluation","1","","","",""
"html-keyboard-response","262","1191754","0.0-4.0-8.0-1.2","spark_pilot_2","7521","4","23","Male","","","","","","","null","<div style=""font-size:60px;"">+</div>","null","fixation","","","","","","","","","","","","","",""
"revaluation","263","1192660","0.0-4.0-8.0-0.3","spark_pilot_2","7521","4","23","Male","","false","","","","","[904]","./assets/img/ocean/test/0.jpg","[""ArrowUp""]","first stage test","ocean","0","{""ArrowUp,ArrowLeft"":2,""ArrowUp,ArrowRight"":11,""ArrowDown,ArrowLeft"":8,""ArrowDown,ArrowRight"":27}","false","ArrowUp","false","","","revaluation","1","","","",""
"html-keyboard-response","264","1193173","0.0-4.0-8.0-1.3","spark_pilot_2","7521","4","23","Male","","","","","","","null","<div style=""font-size:60px;"">+</div>","null","fixation","","","","","","","","","","","","","",""
"learning-instructions","265","1205028","0.0-4.0-9.0-0.0","spark_pilot_2","7521","4","23","Male","","","","","","","493","<p> Now you will see the animals again and can search their chests for treasure. </p>
            <p> This time, you will not see how much treasure you earned, but you will earn more bonus money for making better choices. </p>","","instructions","","","","","","","","","","","","","",""
"revaluation","266","1205923","0.0-4.0-10.0-0.0","spark_pilot_2","7521","4","23","Male","","false","","","","","[892]","./assets/img/ocean/animals/seahorse.jpg","[""ArrowRight""]","second stage test","ocean","0","{""ArrowUp,ArrowLeft"":2,""ArrowUp,ArrowRight"":11,""ArrowDown,ArrowLeft"":8,""ArrowDown,ArrowRight"":27}","true","ArrowUp,ArrowRight","","","","revaluation","1","","","",""
"html-keyboard-response","267","1206433","0.0-4.0-10.0-1.0","spark_pilot_2","7521","4","23","Male","","","","","","","null","<div style=""font-size:60px;"">+</div>","null","fixation","","","","","","","","","","","","","",""
"revaluation","268","1206961","0.0-4.0-10.0-0.1","spark_pilot_2","7521","4","23","Male","","false","","","","","[523]","./assets/img/ocean/animals/seahorse.jpg","[""ArrowRight""]","second stage test","ocean","0","{""ArrowUp,ArrowLeft"":2,""ArrowUp,ArrowRight"":11,""ArrowDown,ArrowLeft"":8,""ArrowDown,ArrowRight"":27}","true","ArrowUp,ArrowRight","","","","revaluation","1","","","",""
"html-keyboard-response","269","1207474","0.0-4.0-10.0-1.1","spark_pilot_2","7521","4","23","Male","","","","","","","null","<div style=""font-size:60px;"">+</div>","null","fixation","","","","","","","","","","","","","",""
"revaluation","270","1207878","0.0-4.0-10.0-0.2","spark_pilot_2","7521","4","23","Male","","false","","","","","[401]","./assets/img/ocean/animals/seahorse.jpg","[""ArrowRight""]","second stage test","ocean","0","{""ArrowUp,ArrowLeft"":2,""ArrowUp,ArrowRight"":11,""ArrowDown,ArrowLeft"":8,""ArrowDown,ArrowRight"":27}","true","ArrowUp,ArrowRight","","","","revaluation","1","","","",""
"html-keyboard-response","271","1208393","0.0-4.0-10.0-1.2","spark_pilot_2","7521","4","23","Male","","","","","","","null","<div style=""font-size:60px;"">+</div>","null","fixation","","","","","","","","","","","","","",""
"revaluation","272","1208927","0.0-4.0-10.0-0.3","spark_pilot_2","7521","4","23","Male","","false","","","","","[530]","./assets/img/ocean/animals/seahorse.jpg","[""ArrowRight""]","second stage test","ocean","0","{""ArrowUp,ArrowLeft"":2,""ArrowUp,ArrowRight"":11,""ArrowDown,ArrowLeft"":8,""ArrowDown,ArrowRight"":27}","true","ArrowUp,ArrowRight","","","","revaluation","1","","","",""
"html-keyboard-response","273","1209433","0.0-4.0-10.0-1.3","spark_pilot_2","7521","4","23","Male","","","","","","","null","<div style=""font-size:60px;"">+</div>","null","fixation","","","","","","","","","","","","","",""
"revaluation","274","1210479","0.0-4.0-10.0-0.4","spark_pilot_2","7521","4","23","Male","","false","","","","","[1036]","./assets/img/ocean/animals/octopus.jpg","[""ArrowRight""]","second stage test","ocean","0","{""ArrowUp,ArrowLeft"":2,""ArrowUp,ArrowRight"":11,""ArrowDown,ArrowLeft"":8,""ArrowDown,ArrowRight"":27}","true","ArrowDown,ArrowRight","","","","revaluation","1","","","",""
"html-keyboard-response","275","1210990","0.0-4.0-10.0-1.4","spark_pilot_2","7521","4","23","Male","","","","","","","null","<div style=""font-size:60px;"">+</div>","null","fixation","","","","","","","","","","","","","",""
"revaluation","276","1211335","0.0-4.0-10.0-0.5","spark_pilot_2","7521","4","23","Male","","false","","","","","[337]","./assets/img/ocean/animals/octopus.jpg","[""ArrowRight""]","second stage test","ocean","0","{""ArrowUp,ArrowLeft"":2,""ArrowUp,ArrowRight"":11,""ArrowDown,ArrowLeft"":8,""ArrowDown,ArrowRight"":27}","true","ArrowDown,ArrowRight","","","","revaluation","1","","","",""
"html-keyboard-response","277","1211843","0.0-4.0-10.0-1.5","spark_pilot_2","7521","4","23","Male","","","","","","","null","<div style=""font-size:60px;"">+</div>","null","fixation","","","","","","","","","","","","","",""
"revaluation","278","1212159","0.0-4.0-10.0-0.6","spark_pilot_2","7521","4","23","Male","","false","","","","","[312]","./assets/img/ocean/animals/octopus.jpg","[""ArrowRight""]","second stage test","ocean","0","{""ArrowUp,ArrowLeft"":2,""ArrowUp,ArrowRight"":11,""ArrowDown,ArrowLeft"":8,""ArrowDown,ArrowRight"":27}","true","ArrowDown,ArrowRight","","","","revaluation","1","","","",""
"html-keyboard-response","279","1212664","0.0-4.0-10.0-1.6","spark_pilot_2","7521","4","23","Male","","","","","","","null","<div style=""font-size:60px;"">+</div>","null","fixation","","","","","","","","","","","","","",""
"revaluation","280","1212980","0.0-4.0-10.0-0.7","spark_pilot_2","7521","4","23","Male","","false","","","","","[314]","./assets/img/ocean/animals/octopus.jpg","[""ArrowRight""]","second stage test","ocean","0","{""ArrowUp,ArrowLeft"":2,""ArrowUp,ArrowRight"":11,""ArrowDown,ArrowLeft"":8,""ArrowDown,ArrowRight"":27}","true","ArrowDown,ArrowRight","","","","revaluation","1","","","",""
"html-keyboard-response","281","1213493","0.0-4.0-10.0-1.7","spark_pilot_2","7521","4","23","Male","","","","","","","null","<div style=""font-size:60px;"">+</div>","null","fixation","","","","","","","","","","","","","",""
"learning-instructions","282","1217613","0.0-4.0-0.1-0.2","spark_pilot_2","7521","4","23","Male","","","","","","","1308","<p> This time you are searching for treasure in the <b>canyon</b>.</p>","","instructions","","","","","","","","","","","","","",""
"learning-instructions","283","1235597","0.0-4.0-0.1-0.3","spark_pilot_2","7521","4","23","Male","","","","","","","723","<p><b>New</b> animals with <b>new</b> treasure chests live here. You need to explore to discover where the animal with the best treasure chest is.</p>
                    <p> Like before, once you figure out which animal has the chest with the most treasure, you should try to get to that animal and select that chest! </p>","","instructions","","","","","","","","","","","","","",""
"learning-instructions","284","1250780","0.0-4.0-1.1-0.1","spark_pilot_2","7521","4","23","Male","","","","","","","445","<p> Remember, when you see a picture of the place, use the up and down keys to <b>find an animal</b>.</p>
            <p> When you encounter an animal, you should use the left and right keys to <b>select a treasure chest</b>.</p>
            <p> Don't forget to look out for the robber! </p>","","instructions","","","","","","","","","","","","","",""
"revaluation","285","1256814","0.0-4.0-2.1-0.50","spark_pilot_2","7521","4","23","Male","","false","","","","","[1056,416]","./assets/img/canyon/memory/6.jpg","[""ArrowUp"",""ArrowRight""]","value training","canyon","10","{""ArrowUp,ArrowLeft"":23,""ArrowUp,ArrowRight"":10,""ArrowDown,ArrowLeft"":8,""ArrowDown,ArrowRight"":30}","false","ArrowUp,ArrowRight","false","","","original","2","0","","",""
"html-keyboard-response","286","1257334","0.0-4.0-2.1-1.50","spark_pilot_2","7521","4","23","Male","","","","","","","null","<div style=""font-size:60px;"">+</div>","null","fixation","","","","","","","","","","","1","","",""
"revaluation","287","1263373","0.0-4.0-2.1-0.51","spark_pilot_2","7521","4","23","Male","","false","","","","","[286,269]","./assets/img/canyon/memory/32.jpg","[""ArrowUp"",""ArrowLeft""]","value training","canyon","23","{""ArrowUp,ArrowLeft"":23,""ArrowUp,ArrowRight"":10,""ArrowDown,ArrowLeft"":8,""ArrowDown,ArrowRight"":30}","false","ArrowUp,ArrowLeft","false","","","original","2","2","","",""
"html-keyboard-response","288","1263883","0.0-4.0-2.1-1.51","spark_pilot_2","7521","4","23","Male","","","","","","","null","<div style=""font-size:60px;"">+</div>","null","fixation","","","","","","","","","","","3","","",""
"revaluation","289","1269914","0.0-4.0-2.1-0.52","spark_pilot_2","7521","4","23","Male","","false","","","","","[218,277]","./assets/img/canyon/memory/8.jpg","[""ArrowDown"",""ArrowRight""]","value training","canyon","30","{""ArrowUp,ArrowLeft"":23,""ArrowUp,ArrowRight"":10,""ArrowDown,ArrowLeft"":8,""ArrowDown,ArrowRight"":30}","true","ArrowDown,ArrowRight","false","","","original","2","4","","",""
"html-keyboard-response","290","1270434","0.0-4.0-2.1-1.52","spark_pilot_2","7521","4","23","Male","","","","","","","null","<div style=""font-size:60px;"">+</div>","null","fixation","","","","","","","","","","","5","","",""
"revaluation","291","1274461","0.0-4.0-2.1-0.53","spark_pilot_2","7521","4","23","Male","","false","","","","","[267]","./assets/img/canyon/catch/4.jpg","[""ArrowDown""]","value training","canyon","-10","{""ArrowUp,ArrowLeft"":23,""ArrowUp,ArrowRight"":10,""ArrowDown,ArrowLeft"":8,""ArrowDown,ArrowRight"":30}","false","ArrowDown","true","","","original","2","6","","",""
"html-keyboard-response","292","1274961","0.0-4.0-2.1-1.53","spark_pilot_2","7521","4","23","Male","","","","","","","null","<div style=""font-size:60px;"">+</div>","null","fixation","","","","","","","","","","","7","","",""
"revaluation","293","1278984","0.0-4.0-2.1-0.54","spark_pilot_2","7521","4","23","Male","","false","","","","","[411]","./assets/img/canyon/catch/2.jpg","[""ArrowDown""]","value training","canyon","-10","{""ArrowUp,ArrowLeft"":23,""ArrowUp,ArrowRight"":10,""ArrowDown,ArrowLeft"":8,""ArrowDown,ArrowRight"":30}","false","ArrowDown","true","","","original","2","8","","",""
"html-keyboard-response","294","1279504","0.0-4.0-2.1-1.54","spark_pilot_2","7521","4","23","Male","","","","","","","null","<div style=""font-size:60px;"">+</div>","null","fixation","","","","","","","","","","","9","","",""
"revaluation","295","1285514","0.0-4.0-2.1-0.55","spark_pilot_2","7521","4","23","Male","","false","","","","","[1039,319]","./assets/img/canyon/memory/2.jpg","[""ArrowDown"",""ArrowLeft""]","value training","canyon","8","{""ArrowUp,ArrowLeft"":23,""ArrowUp,ArrowRight"":10,""ArrowDown,ArrowLeft"":8,""ArrowDown,ArrowRight"":30}","false","ArrowDown,ArrowLeft","false","","","original","2","10","","",""
"html-keyboard-response","296","1286033","0.0-4.0-2.1-1.55","spark_pilot_2","7521","4","23","Male","","","","","","","null","<div style=""font-size:60px;"">+</div>","null","fixation","","","","","","","","","","","11","","",""
"revaluation","297","1292044","0.0-4.0-2.1-0.56","spark_pilot_2","7521","4","23","Male","","false","","","","","[796,725]","./assets/img/canyon/memory/1.jpg","[""ArrowDown"",""ArrowRight""]","value training","canyon","30","{""ArrowUp,ArrowLeft"":23,""ArrowUp,ArrowRight"":10,""ArrowDown,ArrowLeft"":8,""ArrowDown,ArrowRight"":30}","true","ArrowDown,ArrowRight","false","","","original","2","12","","",""
"html-keyboard-response","298","1292563","0.0-4.0-2.1-1.56","spark_pilot_2","7521","4","23","Male","","","","","","","null","<div style=""font-size:60px;"">+</div>","null","fixation","","","","","","","","","","","13","","",""
"revaluation","299","1298594","0.0-4.0-2.1-0.57","spark_pilot_2","7521","4","23","Male","","false","","","","","[895,415]","./assets/img/canyon/memory/39.jpg","[""ArrowDown"",""ArrowRight""]","value training","canyon","30","{""ArrowUp,ArrowLeft"":23,""ArrowUp,ArrowRight"":10,""ArrowDown,ArrowLeft"":8,""ArrowDown,ArrowRight"":30}","true","ArrowDown,ArrowRight","false","","","original","2","14","","",""
"html-keyboard-response","300","1299113","0.0-4.0-2.1-1.57","spark_pilot_2","7521","4","23","Male","","","","","","","null","<div style=""font-size:60px;"">+</div>","null","fixation","","","","","","","","","","","15","","",""
"revaluation","301","1305163","0.0-4.0-2.1-0.58","spark_pilot_2","7521","4","23","Male","","false","","","","","[752,305]","./assets/img/canyon/memory/6.jpg","[""ArrowDown"",""ArrowRight""]","value training","canyon","30","{""ArrowUp,ArrowLeft"":23,""ArrowUp,ArrowRight"":10,""ArrowDown,ArrowLeft"":8,""ArrowDown,ArrowRight"":30}","true","ArrowDown,ArrowRight","false","","","original","2","16","","",""
"html-keyboard-response","302","1305683","0.0-4.0-2.1-1.58","spark_pilot_2","7521","4","23","Male","","","","","","","null","<div style=""font-size:60px;"">+</div>","null","fixation","","","","","","","","","","","17","","",""
"revaluation","303","1309694","0.0-4.0-2.1-0.59","spark_pilot_2","7521","4","23","Male","","false","","","","","[830]","./assets/img/canyon/catch/0.jpg","[""spaceBar""]","value training","canyon","0","{""ArrowUp,ArrowLeft"":23,""ArrowUp,ArrowRight"":10,""ArrowDown,ArrowLeft"":8,""ArrowDown,ArrowRight"":30}","true","spaceBar","true","","","original","2","18","","",""
"html-keyboard-response","304","1310213","0.0-4.0-2.1-1.59","spark_pilot_2","7521","4","23","Male","","","","","","","null","<div style=""font-size:60px;"">+</div>","null","fixation","","","","","","","","","","","19","","",""
"revaluation","305","1316239","0.0-4.0-2.1-0.60","spark_pilot_2","7521","4","23","Male","","false","","","","","[576,299]","./assets/img/canyon/memory/10.jpg","[""ArrowDown"",""ArrowRight""]","value training","canyon","30","{""ArrowUp,ArrowLeft"":23,""ArrowUp,ArrowRight"":10,""ArrowDown,ArrowLeft"":8,""ArrowDown,ArrowRight"":30}","true","ArrowDown,ArrowRight","false","","","original","2","20","","",""
"html-keyboard-response","306","1316753","0.0-4.0-2.1-1.60","spark_pilot_2","7521","4","23","Male","","","","","","","null","<div style=""font-size:60px;"">+</div>","null","fixation","","","","","","","","","","","21","","",""
"revaluation","307","1322784","0.0-4.0-2.1-0.61","spark_pilot_2","7521","4","23","Male","","false","","","","","[1250,508]","./assets/img/canyon/memory/36.jpg","[""ArrowDown"",""ArrowRight""]","value training","canyon","30","{""ArrowUp,ArrowLeft"":23,""ArrowUp,ArrowRight"":10,""ArrowDown,ArrowLeft"":8,""ArrowDown,ArrowRight"":30}","true","ArrowDown,ArrowRight","false","","","original","2","22","","",""
"html-keyboard-response","308","1323293","0.0-4.0-2.1-1.61","spark_pilot_2","7521","4","23","Male","","","","","","","null","<div style=""font-size:60px;"">+</div>","null","fixation","","","","","","","","","","","23","","",""
"revaluation","309","1329323","0.0-4.0-2.1-0.62","spark_pilot_2","7521","4","23","Male","","false","","","","","[523,388]","./assets/img/canyon/memory/7.jpg","[""ArrowDown"",""ArrowRight""]","value training","canyon","30","{""ArrowUp,ArrowLeft"":23,""ArrowUp,ArrowRight"":10,""ArrowDown,ArrowLeft"":8,""ArrowDown,ArrowRight"":30}","true","ArrowDown,ArrowRight","false","","","original","2","24","","",""
"html-keyboard-response","310","1329843","0.0-4.0-2.1-1.62","spark_pilot_2","7521","4","23","Male","","","","","","","null","<div style=""font-size:60px;"">+</div>","null","fixation","","","","","","","","","","","25","","",""
"revaluation","311","1335854","0.0-4.0-2.1-0.63","spark_pilot_2","7521","4","23","Male","","false","","","","","[678,301]","./assets/img/canyon/memory/5.jpg","[""ArrowDown"",""ArrowRight""]","value training","canyon","30","{""ArrowUp,ArrowLeft"":23,""ArrowUp,ArrowRight"":10,""ArrowDown,ArrowLeft"":8,""ArrowDown,ArrowRight"":30}","true","ArrowDown,ArrowRight","false","","","original","2","26","","",""
"html-keyboard-response","312","1336367","0.0-4.0-2.1-1.63","spark_pilot_2","7521","4","23","Male","","","","","","","null","<div style=""font-size:60px;"">+</div>","null","fixation","","","","","","","","","","","27","","",""
"revaluation","313","1342403","0.0-4.0-2.1-0.64","spark_pilot_2","7521","4","23","Male","","false","","","","","[579,328]","./assets/img/canyon/memory/34.jpg","[""ArrowDown"",""ArrowRight""]","value training","canyon","30","{""ArrowUp,ArrowLeft"":23,""ArrowUp,ArrowRight"":10,""ArrowDown,ArrowLeft"":8,""ArrowDown,ArrowRight"":30}","true","ArrowDown,ArrowRight","false","","","original","2","28","","",""
"html-keyboard-response","314","1342924","0.0-4.0-2.1-1.64","spark_pilot_2","7521","4","23","Male","","","","","","","null","<div style=""font-size:60px;"">+</div>","null","fixation","","","","","","","","","","","29","","",""
"revaluation","315","1348954","0.0-4.0-2.1-0.65","spark_pilot_2","7521","4","23","Male","","false","","","","","[531,350]","./assets/img/canyon/memory/39.jpg","[""ArrowDown"",""ArrowRight""]","value training","canyon","30","{""ArrowUp,ArrowLeft"":23,""ArrowUp,ArrowRight"":10,""ArrowDown,ArrowLeft"":8,""ArrowDown,ArrowRight"":30}","true","ArrowDown,ArrowRight","false","","","original","2","30","","",""
"html-keyboard-response","316","1349473","0.0-4.0-2.1-1.65","spark_pilot_2","7521","4","23","Male","","","","","","","null","<div style=""font-size:60px;"">+</div>","null","fixation","","","","","","","","","","","31","","",""
