"trial_type","trial_index","time_elapsed","internal_node_id","task_version","subject_id","assigned_condition","age","gender","success","timeout","failed_images","failed_audio","failed_video","browser_interaction","rt","stimulus","response","task_part","environment","score","rewardMap","correct","fullState","isCatch","numberMissed","duration","condition","order","trial_num","key_press","ground_truth","bonus"
"pavlovia","0","2580","0.0-0.0","spark_pilot_2","7987","3","21","Female","","","","","","","","","","","","","","","","","","","","","","","",""
"preload","1","62963","0.0-1.0","spark_pilot_2","7987","3","21","Female","true","false","[]","[]","[]","[{""event"":""fullscreenenter"",""trial"":2,""time"":68515}]","","","","","","","","","","","","","","","","","",""
"fullscreen","2","69499","0.0-2.0","spark_pilot_2","7987","3","21","Female","true","","","","","","","","","","","","","","","","","","","","","","",""
"audio-button-response","3","72662","0.0-3.0-0.0-0.0","spark_pilot_2","7987","3","21","Female","","","","","","","3131","./assets/audio/audiotest/turtle.mp3","2","audio_test","","","","","","","","","","","","","",""
"learning-instructions","4","87456","0.0-3.0-1.0-0.0","spark_pilot_2","7987","3","21","Female","","","","","","","7783.5","<p> Welcome! Please remember to stay in fullscreen mode and don't click away from the experiment. </p>","","instructions","","","","","","","","","","","","","",""
"learning-instructions","5","98769","0.0-3.0-1.0-0.1","spark_pilot_2","7987","3","21","Female","","","","","","","2831.5999999046326","<p> Today you will be playing a game to earn treasure. </p>
            <p> At the end of the experiment, you will earn a bonus based on how much treasure you find. </p>
            <img src='./assets/img/instructions/treasure.jpg' class='instructions-image'>","","instructions","","","","","","","","","","","","","",""
"learning-instructions","6","109432","0.0-3.0-1.0-0.2","spark_pilot_2","7987","3","21","Female","","","","","","","1924.8999998569489","<p> Animals have hidden treasure in treasure chests. </p>
            <p> You need to first find an animal and then choose which of their treasure chests to search. </p>
            <img src='./assets/img/space/animals/cat.jpg' class='instructions-image'>","","instructions","","","","","","","","","","","","","",""
"learning-instructions","7","124093","0.0-3.0-1.0-0.3","spark_pilot_2","7987","3","21","Female","","","","","","","1485.2000000476837","<p> In each round, you will search for treasure in a different place. In the real game, there will be two rounds. </p>
            <p> You will begin with a separate, practice round where you will search for treasure in outer space. </p>
            <img src='./assets/img/space/0.jpg' class='instructions-image'>","","instructions","","","","","","","","","","","","","",""
"learning-instructions","8","139177","0.0-3.0-1.0-0.4","spark_pilot_2","7987","3","21","Female","","","","","","","3638.7000000476837","<p> On every turn, you will see a picture of the place that you are in, but the specific image may be different each time. </p>
            <p> For example, both of these images mean you are in outer space. </p>
            <img src='./assets/img/instructions/outerspace.jpg' class='instructions-image'>","","instructions","","","","","","","","","","","","","",""
"learning-instructions","9","148598","0.0-3.0-1.0-0.5","spark_pilot_2","7987","3","21","Female","","","","","","","1589.1000001430511","<p> You need to decide which direction to travel in. </p>
            <p> You can choose between going <b>up or down</b> by using the arrow keys. </p>
            <img src='./assets/img/instructions/updown.jpg' class='instructions-image'>","","instructions","","","","","","","","","","","","","",""
"learning-instructions","10","159353","0.0-3.0-1.0-0.6","spark_pilot_2","7987","3","21","Female","","","","","","","1934.7999999523163","<p> You will have <b>2 seconds</b> to make your choice. </p>
            <p> If you do not make a choice within 2 seconds, you will not find an animal or earn treasure. </p>
            <img src='./assets/img/instructions/2seconds.jpg' class='instructions-image'>","","instructions","","","","","","","","","","","","","",""
"learning-instructions","11","168501","0.0-3.0-1.0-0.7","spark_pilot_2","7987","3","21","Female","","","","","","","2093","<p> Let’s try practicing that now! </p>
            <p> When you see a picture of the place you are in, press the <b>up</b> key to travel up. </p>
            <img src='./assets/img/instructions/pressUp.jpg' class='instructions-image'>","","instructions","","","","","","","","","","","","","",""
"revaluation","12","172529","0.0-3.0-2.0-0.0","spark_pilot_2","7987","3","21","Female","","false","","","","","[1534.7999999523163]","./assets/img/space/0.jpg","[""ArrowUp""]","first stage practice","space","0","null","null","ArrowUp","false","","","","","","","",""
"html-keyboard-response","13","173030","0.0-3.0-2.0-1.0","spark_pilot_2","7987","3","21","Female","","","","","","","null","<div style=""font-size:60px;"">+</div>","null","fixation","","","","","","","","","","","","","",""
"revaluation","14","177064","0.0-3.0-2.0-0.1","spark_pilot_2","7987","3","21","Female","","true","","","","","[]","./assets/img/space/1.jpg","[]","first stage practice","space","-5","null","null","","false","","","","","","","",""
"html-keyboard-response","15","177571","0.0-3.0-2.0-1.1","spark_pilot_2","7987","3","21","Female","","","","","","","null","<div style=""font-size:60px;"">+</div>","null","fixation","","","","","","","","","","","","","",""
"revaluation","16","181596","0.0-3.0-2.0-0.2","spark_pilot_2","7987","3","21","Female","","true","","","","","[]","./assets/img/space/2.jpg","[]","first stage practice","space","-5","null","null","","false","","","","","","","",""
"html-keyboard-response","17","182111","0.0-3.0-2.0-1.2","spark_pilot_2","7987","3","21","Female","","","","","","","null","<div style=""font-size:60px;"">+</div>","null","fixation","","","","","","","","","","","","","",""
"learning-instructions","18","189412","0.0-3.0-3.0-0.0","spark_pilot_2","7987","3","21","Female","","","","","","","2593.7000000476837","<p> Great job! Now try pressing the <b>down</b> key to travel down. </p>
            <img src='./assets/img/instructions/pressDown.jpg' class='instructions-image'>","","instructions","","","","","","","","","","","","","",""
"revaluation","19","193434","0.0-3.0-4.0-0.0","spark_pilot_2","7987","3","21","Female","","false","","","","","[834.4000000953674]","./assets/img/space/3.jpg","[""ArrowDown""]","first stage practice","space","0","null","null","ArrowDown","false","","","","","","","",""
"html-keyboard-response","20","193936","0.0-3.0-4.0-1.0","spark_pilot_2","7987","3","21","Female","","","","","","","null","<div style=""font-size:60px;"">+</div>","null","fixation","","","","","","","","","","","","","",""
"revaluation","21","197957","0.0-3.0-4.0-0.1","spark_pilot_2","7987","3","21","Female","","false","","","","","[1382.2000000476837]","./assets/img/space/4.jpg","[""ArrowDown""]","first stage practice","space","0","null","null","ArrowDown","false","","","","","","","",""
"html-keyboard-response","22","198460","0.0-3.0-4.0-1.1","spark_pilot_2","7987","3","21","Female","","","","","","","null","<div style=""font-size:60px;"">+</div>","null","fixation","","","","","","","","","","","","","",""
"revaluation","23","202482","0.0-3.0-4.0-0.2","spark_pilot_2","7987","3","21","Female","","false","","","","","[1298.5999999046326]","./assets/img/space/5.jpg","[""ArrowDown""]","first stage practice","space","0","null","null","ArrowDown","false","","","","","","","",""
"html-keyboard-response","24","202995","0.0-3.0-4.0-1.2","spark_pilot_2","7987","3","21","Female","","","","","","","null","<div style=""font-size:60px;"">+</div>","null","fixation","","","","","","","","","","","","","",""
"learning-instructions","25","213949","0.0-3.0-5.0-0.0","spark_pilot_2","7987","3","21","Female","","","","","","","1090.5999999046326","<p> The animals don’t move, so the animal in the upper part of a place will stay in the upper part of a place, and the animal in the lower part of a place will stay in the lower part of a place. </p>","","instructions","","","","","","","","","","","","","",""
"learning-instructions","26","223953","0.0-3.0-5.0-0.1","spark_pilot_2","7987","3","21","Female","","","","","","","854.9000000953674","<p> Each animal has two treasure chests for you to choose from. </p>
            <p> The amount of treasure in each chest can range from <b> 0 to 40 pieces.</b></p>","","instructions","","","","","","","","","","","","","",""
"learning-instructions","27","237037","0.0-3.0-5.0-0.2","spark_pilot_2","7987","3","21","Female","","","","","","","1889.1000001430511","<p> You should decide which chest to search for treasure by using the <b>left</b> and <b>right</b> arrow keys. </p>
            <p><b> Pay attention to which animal is on the screen, as the animals have different treasure chests. </b></p>
            <img src='./assets/img/instructions/leftright.jpg' class='instructions-image'>","","instructions","","","","","","","","","","","","","",""
"learning-instructions","28","245058","0.0-3.0-5.0-0.3","spark_pilot_2","7987","3","21","Female","","","","","","","1638.7999999523163","<p> Let’s try practicing that now. </p>
            <p> When you see an animal, choose which chest to search for treasure. </p>
            <img src='./assets/img/instructions/chooseChest.jpg' class='instructions-image'>","","instructions","","","","","","","","","","","","","",""
"revaluation","29","249077","0.0-3.0-6.0-0.0","spark_pilot_2","7987","3","21","Female","","false","","","","","[1332.7000000476837]","./assets/img/space/animals/cat.jpg","[""ArrowLeft""]","second stage practice","space","3","{""ArrowUp,ArrowLeft"":3,""ArrowUp,ArrowRight"":36,""ArrowDown,ArrowLeft"":15,""ArrowDown,ArrowRight"":23}","false","ArrowUp,ArrowLeft","","","","","","","","",""
"html-keyboard-response","30","249597","0.0-3.0-6.0-1.0","spark_pilot_2","7987","3","21","Female","","","","","","","null","<div style=""font-size:60px;"">+</div>","null","fixation","","","","","","","","","","","","","",""
"revaluation","31","253633","0.0-3.0-6.0-0.1","spark_pilot_2","7987","3","21","Female","","false","","","","","[1249.7999999523163]","./assets/img/space/animals/cat.jpg","[""ArrowRight""]","second stage practice","space","36","{""ArrowUp,ArrowLeft"":3,""ArrowUp,ArrowRight"":36,""ArrowDown,ArrowLeft"":15,""ArrowDown,ArrowRight"":23}","true","ArrowUp,ArrowRight","","","","","","","","",""
"html-keyboard-response","32","254147","0.0-3.0-6.0-1.1","spark_pilot_2","7987","3","21","Female","","","","","","","null","<div style=""font-size:60px;"">+</div>","null","fixation","","","","","","","","","","","","","",""
"revaluation","33","258157","0.0-3.0-6.0-0.2","spark_pilot_2","7987","3","21","Female","","false","","","","","[1380]","./assets/img/space/animals/rabbit.jpg","[""ArrowLeft""]","second stage practice","space","15","{""ArrowUp,ArrowLeft"":3,""ArrowUp,ArrowRight"":36,""ArrowDown,ArrowLeft"":15,""ArrowDown,ArrowRight"":23}","false","ArrowDown,ArrowLeft","","","","","","","","",""
"html-keyboard-response","34","258672","0.0-3.0-6.0-1.2","spark_pilot_2","7987","3","21","Female","","","","","","","null","<div style=""font-size:60px;"">+</div>","null","fixation","","","","","","","","","","","","","",""
"revaluation","35","262693","0.0-3.0-6.0-0.3","spark_pilot_2","7987","3","21","Female","","false","","","","","[583.5999999046326]","./assets/img/space/animals/rabbit.jpg","[""ArrowRight""]","second stage practice","space","23","{""ArrowUp,ArrowLeft"":3,""ArrowUp,ArrowRight"":36,""ArrowDown,ArrowLeft"":15,""ArrowDown,ArrowRight"":23}","true","ArrowDown,ArrowRight","","","","","","","","",""
"html-keyboard-response","36","263202","0.0-3.0-6.0-1.3","spark_pilot_2","7987","3","21","Female","","","","","","","null","<div style=""font-size:60px;"">+</div>","null","fixation","","","","","","","","","","","","","",""
"learning-instructions","37","280774","0.0-3.0-7.0-0.0","spark_pilot_2","7987","3","21","Female","","","","","","","745.2999999523163","<p> Great job. Now let’s try putting it together. </p>
            <p> On each turn, you will first see a picture to remind you of the place you are in, and you need to choose whether to go up or down. </p>
            <p> Then you will see an animal and choose which of its chests to search for treasure. </p>","","instructions","","","","","","","","","","","","","",""
"learning-instructions","38","290742","0.0-3.0-7.0-0.1","spark_pilot_2","7987","3","21","Female","","","","","","","1693.4000000953674","<p> When you choose whether to go up or down, try to go to the animal with the chest with the most treasure. </p>
            <p> Try practicing that now! </p>","","instructions","","","","","","","","","","","","","",""
"revaluation","39","296773","0.0-3.0-8.0-0.0","spark_pilot_2","7987","3","21","Female","","false","","","","","[1130.2000000476837,1332.1999998092651]","./assets/img/space/6.jpg","[""ArrowUp"",""ArrowRight""]","full practice","space","36","{""ArrowUp,ArrowLeft"":3,""ArrowUp,ArrowRight"":36,""ArrowDown,ArrowLeft"":15,""ArrowDown,ArrowRight"":23}","true","ArrowUp,ArrowRight","false","","","","","","","",""
"html-keyboard-response","40","297292","0.0-3.0-8.0-1.0","spark_pilot_2","7987","3","21","Female","","","","","","","null","<div style=""font-size:60px;"">+</div>","null","fixation","","","","","","","","","","","","","",""
"revaluation","41","303332","0.0-3.0-8.0-0.1","spark_pilot_2","7987","3","21","Female","","false","","","","","[1217.6000001430511,1149.9000000953674]","./assets/img/space/7.jpg","[""ArrowDown"",""ArrowLeft""]","full practice","space","15","{""ArrowUp,ArrowLeft"":3,""ArrowUp,ArrowRight"":36,""ArrowDown,ArrowLeft"":15,""ArrowDown,ArrowRight"":23}","false","ArrowDown,ArrowLeft","false","","","","","","","",""
"html-keyboard-response","42","303837","0.0-3.0-8.0-1.1","spark_pilot_2","7987","3","21","Female","","","","","","","null","<div style=""font-size:60px;"">+</div>","null","fixation","","","","","","","","","","","","","",""
"revaluation","43","309872","0.0-3.0-8.0-0.2","spark_pilot_2","7987","3","21","Female","","false","","","","","[586.0999999046326,907.8999998569489]","./assets/img/space/8.jpg","[""ArrowUp"",""ArrowRight""]","full practice","space","36","{""ArrowUp,ArrowLeft"":3,""ArrowUp,ArrowRight"":36,""ArrowDown,ArrowLeft"":15,""ArrowDown,ArrowRight"":23}","true","ArrowUp,ArrowRight","false","","","","","","","",""
"html-keyboard-response","44","310383","0.0-3.0-8.0-1.2","spark_pilot_2","7987","3","21","Female","","","","","","","null","<div style=""font-size:60px;"">+</div>","null","fixation","","","","","","","","","","","","","",""
"revaluation","45","316437","0.0-3.0-8.0-0.3","spark_pilot_2","7987","3","21","Female","","false","","","","","[912.1999998092651,515.6000001430511]","./assets/img/space/9.jpg","[""ArrowUp"",""ArrowRight""]","full practice","space","36","{""ArrowUp,ArrowLeft"":3,""ArrowUp,ArrowRight"":36,""ArrowDown,ArrowLeft"":15,""ArrowDown,ArrowRight"":23}","true","ArrowUp,ArrowRight","false","","","","","","","",""
"html-keyboard-response","46","316938","0.0-3.0-8.0-1.3","spark_pilot_2","7987","3","21","Female","","","","","","","null","<div style=""font-size:60px;"">+</div>","null","fixation","","","","","","","","","","","","","",""
"revaluation","47","322955","0.0-3.0-8.0-0.4","spark_pilot_2","7987","3","21","Female","","false","","","","","[910.2000000476837,816.7000000476837]","./assets/img/space/10.jpg","[""ArrowUp"",""ArrowRight""]","full practice","space","36","{""ArrowUp,ArrowLeft"":3,""ArrowUp,ArrowRight"":36,""ArrowDown,ArrowLeft"":15,""ArrowDown,ArrowRight"":23}","true","ArrowUp,ArrowRight","false","","","","","","","",""
"html-keyboard-response","48","323456","0.0-3.0-8.0-1.4","spark_pilot_2","7987","3","21","Female","","","","","","","null","<div style=""font-size:60px;"">+</div>","null","fixation","","","","","","","","","","","","","",""
"learning-instructions","49","335314","0.0-3.0-9.0-0.0","spark_pilot_2","7987","3","21","Female","","","","","","","1325","<p> One last thing: sometimes, you will see a robber. The robber can be anywhere in the picture. </p>
            <p> If you do not stop them, you will lose treasure. </p>
            <img src='./assets/img/instructions/robber.jpg' class='instructions-image'>","","instructions","","","","","","","","","","","","","",""
"learning-instructions","50","344138","0.0-3.0-9.0-0.1","spark_pilot_2","7987","3","21","Female","","","","","","","1638.9000000953674","<p> If you see the robber, you should <b>press the space bar</b> rather than using the arrow keys. </p>
            <p> Try practicing that now! </p>","","instructions","","","","","","","","","","","","","",""
"revaluation","51","348159","0.0-3.0-10.0-0.0","spark_pilot_2","7987","3","21","Female","","false","","","","","[414.2999999523163]","./assets/img/space/catch/0.jpg","[""spaceBar""]","catch practice","space","0","{""ArrowUp,ArrowLeft"":3,""ArrowUp,ArrowRight"":36,""ArrowDown,ArrowLeft"":15,""ArrowDown,ArrowRight"":23}","true","spaceBar","true","","","","","","","",""
"html-keyboard-response","52","348660","0.0-3.0-10.0-1.0","spark_pilot_2","7987","3","21","Female","","","","","","","null","<div style=""font-size:60px;"">+</div>","null","fixation","","","","","","","","","","","","","",""
"revaluation","53","352668","0.0-3.0-10.0-0.1","spark_pilot_2","7987","3","21","Female","","false","","","","","[515.5999999046326]","./assets/img/space/catch/1.jpg","[""spaceBar""]","catch practice","space","0","{""ArrowUp,ArrowLeft"":3,""ArrowUp,ArrowRight"":36,""ArrowDown,ArrowLeft"":15,""ArrowDown,ArrowRight"":23}","true","spaceBar","true","","","","","","","",""
"html-keyboard-response","54","353177","0.0-3.0-10.0-1.1","spark_pilot_2","7987","3","21","Female","","","","","","","null","<div style=""font-size:60px;"">+</div>","null","fixation","","","","","","","","","","","","","",""
"revaluation","55","357188","0.0-3.0-10.0-0.2","spark_pilot_2","7987","3","21","Female","","false","","","","","[518.5]","./assets/img/space/catch/2.jpg","[""spaceBar""]","catch practice","space","0","{""ArrowUp,ArrowLeft"":3,""ArrowUp,ArrowRight"":36,""ArrowDown,ArrowLeft"":15,""ArrowDown,ArrowRight"":23}","true","spaceBar","true","","","","","","","",""
"html-keyboard-response","56","357690","0.0-3.0-10.0-1.2","spark_pilot_2","7987","3","21","Female","","","","","","","null","<div style=""font-size:60px;"">+</div>","null","fixation","","","","","","","","","","","","","",""
"learning-instructions","57","374143","0.0-3.0-11.0-0.0","spark_pilot_2","7987","3","21","Female","","","","","","","2833.100000143051","<p> After you explore a place to find treasure, it will be time to play a different game. </p>
            <p> During this game, red dots will appear on the screen and fall down slowly. </p>
            <p><b> You must click on them before they reach the bottom. </b></p>
            <img src='./assets/img/instructions/dotGame.jpg' class='instructions-image'>","","instructions","","","","","","","","","","","","","",""
"learning-instructions","58","381686","0.0-3.0-11.0-0.1","spark_pilot_2","7987","3","21","Female","","","","","","","1857.1999998092651","<p> For every dot you click, you will earn additional treasure. </p>
            <p> Let’s try practicing that now. </p>","","instructions","","","","","","","","","","","","","",""
"revaluation","59","396695","0.0-3.0-12.0-0.0","spark_pilot_2","7987","3","21","Female","","","","","","","[105]","","","rest practice","","10","","","","","0","15000","","","","","",""
"learning-instructions","60","404211","0.0-3.0-13.0-0.0-0.0","spark_pilot_2","7987","3","21","Female","","","","","","","2231.2999999523163","<p> Now, you will practice a shortened version of the game to get a sense of how it all fits together. </p>","","instructions","","","","","","","","","","","","","",""
"learning-instructions","61","409906","0.0-3.0-13.0-0.0-0.1","spark_pilot_2","7987","3","21","Female","","","","","","","2497.100000143051","<p>This time you are searching for treasure in outer space.</p>","","instructions","","","","","","","","","","","","","",""
"learning-instructions","62","427278","0.0-3.0-13.0-1.0-0.0","spark_pilot_2","7987","3","21","Female","","","","","","","2578.7000000476837","<p> Remember, when you see a picture of the place, use the up and down keys to <b>find an animal</b>.</p>
            <p> When you encounter an animal, you should use the left and right keys to <b>select a treasure chest</b>.</p>
            <p> Don't forget to look out for the robber! </p>","","instructions","","","","","","","","","","","","","",""
"revaluation","63","433328","0.0-3.0-13.0-2.0-0.0","spark_pilot_2","7987","3","21","Female","","false","","","","","[1514.2000000476837,975.6000001430511]","./assets/img/space/11.jpg","[""ArrowUp"",""ArrowRight""]","practice block","space","36","{""ArrowUp,ArrowLeft"":3,""ArrowUp,ArrowRight"":36,""ArrowDown,ArrowLeft"":15,""ArrowDown,ArrowRight"":23}","true","ArrowUp,ArrowRight","false","","","","","","","",""
"html-keyboard-response","64","433836","0.0-3.0-13.0-2.0-1.0","spark_pilot_2","7987","3","21","Female","","","","","","","null","<div style=""font-size:60px;"">+</div>","null","fixation","","","","","","","","","","","","","",""
"revaluation","65","439878","0.0-3.0-13.0-2.0-0.1","spark_pilot_2","7987","3","21","Female","","false","","","","","[987.7999999523163,748.7999999523163]","./assets/img/space/12.jpg","[""ArrowUp"",""ArrowRight""]","practice block","space","36","{""ArrowUp,ArrowLeft"":3,""ArrowUp,ArrowRight"":36,""ArrowDown,ArrowLeft"":15,""ArrowDown,ArrowRight"":23}","true","ArrowUp,ArrowRight","false","","","","","","","",""
"html-keyboard-response","66","440394","0.0-3.0-13.0-2.0-1.1","spark_pilot_2","7987","3","21","Female","","","","","","","null","<div style=""font-size:60px;"">+</div>","null","fixation","","","","","","","","","","","","","",""
"revaluation","67","446435","0.0-3.0-13.0-2.0-0.2","spark_pilot_2","7987","3","21","Female","","false","","","","","[998.2999999523163,731.7000000476837]","./assets/img/space/13.jpg","[""ArrowUp"",""ArrowRight""]","practice block","space","36","{""ArrowUp,ArrowLeft"":3,""ArrowUp,ArrowRight"":36,""ArrowDown,ArrowLeft"":15,""ArrowDown,ArrowRight"":23}","true","ArrowUp,ArrowRight","false","","","","","","","",""
"html-keyboard-response","68","446938","0.0-3.0-13.0-2.0-1.2","spark_pilot_2","7987","3","21","Female","","","","","","","null","<div style=""font-size:60px;"">+</div>","null","fixation","","","","","","","","","","","","","",""
"revaluation","69","452966","0.0-3.0-13.0-2.0-0.3","spark_pilot_2","7987","3","21","Female","","false","","","","","[1054,1082.7999999523163]","./assets/img/space/14.jpg","[""ArrowUp"",""ArrowRight""]","practice block","space","36","{""ArrowUp,ArrowLeft"":3,""ArrowUp,ArrowRight"":36,""ArrowDown,ArrowLeft"":15,""ArrowDown,ArrowRight"":23}","true","ArrowUp,ArrowRight","false","","","","","","","",""
"html-keyboard-response","70","453478","0.0-3.0-13.0-2.0-1.3","spark_pilot_2","7987","3","21","Female","","","","","","","null","<div style=""font-size:60px;"">+</div>","null","fixation","","","","","","","","","","","","","",""
"revaluation","71","459482","0.0-3.0-13.0-2.0-0.4","spark_pilot_2","7987","3","21","Female","","false","","","","","[1170.2999999523163,673.2999999523163]","./assets/img/space/11.jpg","[""ArrowUp"",""ArrowRight""]","practice block","space","36","{""ArrowUp,ArrowLeft"":3,""ArrowUp,ArrowRight"":36,""ArrowDown,ArrowLeft"":15,""ArrowDown,ArrowRight"":23}","true","ArrowUp,ArrowRight","false","","","","","","","",""
"html-keyboard-response","72","459983","0.0-3.0-13.0-2.0-1.4","spark_pilot_2","7987","3","21","Female","","","","","","","null","<div style=""font-size:60px;"">+</div>","null","fixation","","","","","","","","","","","","","",""
"revaluation","73","465987","0.0-3.0-13.0-2.0-0.5","spark_pilot_2","7987","3","21","Female","","false","","","","","[1241.7000000476837,673]","./assets/img/space/12.jpg","[""ArrowUp"",""ArrowRight""]","practice block","space","36","{""ArrowUp,ArrowLeft"":3,""ArrowUp,ArrowRight"":36,""ArrowDown,ArrowLeft"":15,""ArrowDown,ArrowRight"":23}","true","ArrowUp,ArrowRight","false","","","","","","","",""
"html-keyboard-response","74","466494","0.0-3.0-13.0-2.0-1.5","spark_pilot_2","7987","3","21","Female","","","","","","","null","<div style=""font-size:60px;"">+</div>","null","fixation","","","","","","","","","","","","","",""
"revaluation","75","472500","0.0-3.0-13.0-2.0-0.6","spark_pilot_2","7987","3","21","Female","","false","","","","","[1090.0999999046326,736.7000000476837]","./assets/img/space/13.jpg","[""ArrowUp"",""ArrowRight""]","practice block","space","36","{""ArrowUp,ArrowLeft"":3,""ArrowUp,ArrowRight"":36,""ArrowDown,ArrowLeft"":15,""ArrowDown,ArrowRight"":23}","true","ArrowUp,ArrowRight","false","","","","","","","",""
"html-keyboard-response","76","473002","0.0-3.0-13.0-2.0-1.6","spark_pilot_2","7987","3","21","Female","","","","","","","null","<div style=""font-size:60px;"">+</div>","null","fixation","","","","","","","","","","","","","",""
"revaluation","77","479007","0.0-3.0-13.0-2.0-0.7","spark_pilot_2","7987","3","21","Female","","false","","","","","[1038.7000000476837,533.8999998569489]","./assets/img/space/14.jpg","[""ArrowUp"",""ArrowRight""]","practice block","space","36","{""ArrowUp,ArrowLeft"":3,""ArrowUp,ArrowRight"":36,""ArrowDown,ArrowLeft"":15,""ArrowDown,ArrowRight"":23}","true","ArrowUp,ArrowRight","false","","","","","","","",""
"html-keyboard-response","78","479512","0.0-3.0-13.0-2.0-1.7","spark_pilot_2","7987","3","21","Female","","","","","","","null","<div style=""font-size:60px;"">+</div>","null","fixation","","","","","","","","","","","","","",""
"revaluation","79","483515","0.0-3.0-13.0-2.0-0.8","spark_pilot_2","7987","3","21","Female","","false","","","","","[600.7000000476837]","./assets/img/space/catch/3.jpg","[""spaceBar""]","practice block","space","0","{""ArrowUp,ArrowLeft"":3,""ArrowUp,ArrowRight"":36,""ArrowDown,ArrowLeft"":15,""ArrowDown,ArrowRight"":23}","true","spaceBar","true","","","","","","","",""
"html-keyboard-response","80","484017","0.0-3.0-13.0-2.0-1.8","spark_pilot_2","7987","3","21","Female","","","","","","","null","<div style=""font-size:60px;"">+</div>","null","fixation","","","","","","","","","","","","","",""
"learning-instructions","81","507447","0.0-3.0-13.0-3.0-0.0","spark_pilot_2","7987","3","21","Female","","","","","","","10477.200000047684","<p> Now, you will travel with a friend who will choose whether you go up or down first. </p>
            <p> On these turns, you will just see the animal that they found. You will still get to choose which chest to search for treasure.</p>","","instructions","","","","","","","","","","","","","",""
"revaluation","82","511474","0.0-3.0-13.0-4.0-0.0","spark_pilot_2","7987","3","21","Female","","false","","","","","[1521.5999999046326]","./assets/img/space/animals/rabbit.jpg","[""ArrowRight""]","practice block","space","23","{""ArrowUp,ArrowLeft"":3,""ArrowUp,ArrowRight"":36,""ArrowDown,ArrowLeft"":15,""ArrowDown,ArrowRight"":23}","true","ArrowDown,ArrowRight","","","","","","","","",""
"html-keyboard-response","83","511978","0.0-3.0-13.0-4.0-1.0","spark_pilot_2","7987","3","21","Female","","","","","","","null","<div style=""font-size:60px;"">+</div>","null","fixation","","","","","","","","","","","","","",""
"revaluation","84","515999","0.0-3.0-13.0-4.0-0.1","spark_pilot_2","7987","3","21","Female","","false","","","","","[1077.7000000476837]","./assets/img/space/animals/rabbit.jpg","[""ArrowRight""]","practice block","space","23","{""ArrowUp,ArrowLeft"":3,""ArrowUp,ArrowRight"":36,""ArrowDown,ArrowLeft"":15,""ArrowDown,ArrowRight"":23}","true","ArrowDown,ArrowRight","","","","","","","","",""
"html-keyboard-response","85","516509","0.0-3.0-13.0-4.0-1.1","spark_pilot_2","7987","3","21","Female","","","","","","","null","<div style=""font-size:60px;"">+</div>","null","fixation","","","","","","","","","","","","","",""
"revaluation","86","520528","0.0-3.0-13.0-4.0-0.2","spark_pilot_2","7987","3","21","Female","","false","","","","","[1428]","./assets/img/space/animals/cat.jpg","[""ArrowRight""]","practice block","space","36","{""ArrowUp,ArrowLeft"":3,""ArrowUp,ArrowRight"":36,""ArrowDown,ArrowLeft"":15,""ArrowDown,ArrowRight"":23}","true","ArrowUp,ArrowRight","","","","","","","","",""
"html-keyboard-response","87","521046","0.0-3.0-13.0-4.0-1.2","spark_pilot_2","7987","3","21","Female","","","","","","","null","<div style=""font-size:60px;"">+</div>","null","fixation","","","","","","","","","","","","","",""
"revaluation","88","525084","0.0-3.0-13.0-4.0-0.3","spark_pilot_2","7987","3","21","Female","","false","","","","","[1034.3999998569489]","./assets/img/space/animals/cat.jpg","[""ArrowRight""]","practice block","space","36","{""ArrowUp,ArrowLeft"":3,""ArrowUp,ArrowRight"":36,""ArrowDown,ArrowLeft"":15,""ArrowDown,ArrowRight"":23}","true","ArrowUp,ArrowRight","","","","","","","","",""
"html-keyboard-response","89","525598","0.0-3.0-13.0-4.0-1.3","spark_pilot_2","7987","3","21","Female","","","","","","","null","<div style=""font-size:60px;"">+</div>","null","fixation","","","","","","","","","","","","","",""
"learning-instructions","90","534447","0.0-3.0-13.0-5.0-0.0","spark_pilot_2","7987","3","21","Female","","","","","","","1466.7000000476837","<p> Time to play the dot game! </p>
            <p> For 15 seconds, click the red dots on the following screen as they appear. </p>","","instructions","","","","","","","","","","","","","",""
"revaluation","91","549449","0.0-3.0-13.0-6.0-0.0","spark_pilot_2","7987","3","21","Female","","","","","","","[81]","","","rest practice","","10","","","","","0","15000","","","","","",""
"learning-instructions","92","557327","0.0-3.0-13.0-7.0-0.0","spark_pilot_2","7987","3","21","Female","","","","","","","1737.2000000476837","<p> You have almost finished this part of the game! </p>
            <p> We are going to ask you to make a few more choices. </p>","","instructions","","","","","","","","","","","","","",""
"learning-instructions","93","588096","0.0-3.0-13.0-7.0-0.1","spark_pilot_2","7987","3","21","Female","","","","","","","16745.5","<p> First, you need to decide whether to go up or down. When you see each picture, use the arrow keys to make your choice. </p>
            <p><b>You will not see which animal you found, but try to get to the one that will give you the most treasure.</b></p>","","instructions","","","","","","","","","","","","","",""
"revaluation","94","589227","0.0-3.0-13.0-8.0","spark_pilot_2","7987","3","21","Female","","false","","","","","[1129.9000000953674]","./assets/img/space/15.jpg","[""ArrowUp""]","practice block","space","0","{""ArrowUp,ArrowLeft"":3,""ArrowUp,ArrowRight"":36,""ArrowDown,ArrowLeft"":15,""ArrowDown,ArrowRight"":23}","true","ArrowUp","false","","","","","","","",""
"html-keyboard-response","95","589739","0.0-3.0-13.0-9.0","spark_pilot_2","7987","3","21","Female","","","","","","","null","<div style=""font-size:60px;"">+</div>","null","fixation","","","","","","","","","","","","","",""
"learning-instructions","96","603852","0.0-3.0-13.0-10.0-0.0","spark_pilot_2","7987","3","21","Female","","","","","","","2731.0999999046326","<p> Now you will see the animals again and can search their chests for treasure. </p>
            <p> This time, you will not see how much treasure you earned, but you will earn more bonus money for making better choices. </p>","","instructions","","","","","","","","","","","","","",""
"revaluation","97","605131","0.0-3.0-13.0-11.0-0.0","spark_pilot_2","7987","3","21","Female","","false","","","","","[1278.5999999046326]","./assets/img/space/animals/cat.jpg","[""ArrowRight""]","practice block","space","0","{""ArrowUp,ArrowLeft"":3,""ArrowUp,ArrowRight"":36,""ArrowDown,ArrowLeft"":15,""ArrowDown,ArrowRight"":23}","true","ArrowUp,ArrowRight","","","","","","","","",""
"html-keyboard-response","98","605635","0.0-3.0-13.0-11.0-1.0","spark_pilot_2","7987","3","21","Female","","","","","","","null","<div style=""font-size:60px;"">+</div>","null","fixation","","","","","","","","","","","","","",""
"revaluation","99","606563","0.0-3.0-13.0-11.0-0.1","spark_pilot_2","7987","3","21","Female","","false","","","","","[927]","./assets/img/space/animals/rabbit.jpg","[""ArrowRight""]","practice block","space","0","{""ArrowUp,ArrowLeft"":3,""ArrowUp,ArrowRight"":36,""ArrowDown,ArrowLeft"":15,""ArrowDown,ArrowRight"":23}","true","ArrowDown,ArrowRight","","","","","","","","",""
"html-keyboard-response","100","607076","0.0-3.0-13.0-11.0-1.1","spark_pilot_2","7987","3","21","Female","","","","","","","null","<div style=""font-size:60px;"">+</div>","null","fixation","","","","","","","","","","","","","",""
"learning-instructions","101","614332","0.0-3.0-14.0-0.0","spark_pilot_2","7987","3","21","Female","","","","","","","2670.899999856949","<p> Before you start, we're going to ask you a few questions about how the game works. </p>","","instructions","","","","","","","","","","","","","",""
"comp-q","102","621780","0.0-3.0-15.0-0.0-0.0","spark_pilot_2","7987","3","21","Female","","","","","","","1856.2999999523163","<p> <b> True or False? </b> </p>
            <p> There can be 50 pieces of treasure in a given animal's chest. </p>","1","comp_question","","","","true","","","","","","","","","",""
"comp-q","103","631252","0.0-3.0-15.0-0.0-1.0","spark_pilot_2","7987","3","21","Female","","","","","","","2811.2000000476837","<p> <b> That's right! </b> The amount of treasure in each chest can range from 0 to 40 pieces. </p>","0","comp_answer","","","","","","","","","","","","","",""
"comp-q","104","639796","0.0-3.0-15.0-0.1-0.1","spark_pilot_2","7987","3","21","Female","","","","","","","1135","<p> <b> True or False? </b> </p><p> In this game, all animals have the same amount of treasure in their left and right chests. </p>","1","comp_question","","","","true","","","","","","","","","",""
"comp-q","105","646708","0.0-3.0-15.0-0.1-1.1","spark_pilot_2","7987","3","21","Female","","","","","","","1677.5","<p> <b> That's right! </b> Animals have different amounts of treasure in their treasure chests. </p>","0","comp_answer","","","","","","","","","","","","","",""
"comp-q","106","654700","0.0-3.0-15.0-0.2-0.2","spark_pilot_2","7987","3","21","Female","","","","","","","2138.9000000953674","<p> <b> True or False? </b> </p><p> The same animal will always be there if you go up in the same place. </p>","1","comp_question","","","","false","","","","","","","","","",""
"comp-q","107","663020","0.0-3.0-15.0-0.2-1.2","spark_pilot_2","7987","3","21","Female","","","","","","","2009.2000000476837","<p> <b>Incorrect.</b> One animal lives in the upper part and one lives in the lower part of every place. </p>","0","comp_answer","","","","","","","","","","","","","",""
"comp-q","108","669580","0.0-3.0-15.0-0.3-0.3","spark_pilot_2","7987","3","21","Female","","","","","","","738.7000000476837","<p> <b> True or False? </b> </p><p> The same animal will always be there if you go up in the same place. </p>","0","comp_question","","","","true","","","","","","","","","",""
"comp-q","109","677140","0.0-3.0-15.0-0.3-1.3","spark_pilot_2","7987","3","21","Female","","","","","","","1109.1999998092651","<p> <b> That's right! </b> One animal lives in the upper part and one lives in the lower part of every place. </p>","0","comp_answer","","","","","","","","","","","","","",""
"comp-q","110","683672","0.0-3.0-15.0-0.4-0.4","spark_pilot_2","7987","3","21","Female","","","","","","","1001","<p> <b> True or False? </b> </p><p> If you see a different picture, it means you are in a new place. </p>","0","comp_question","","","","false","","","","","","","","","",""
"comp-q","111","695696","0.0-3.0-15.0-0.4-1.4","spark_pilot_2","7987","3","21","Female","","","","","","","915","<p> <b>Incorrect.</b> Lots of different images may show the same place. For example,  you may see three different images that all remind you that you are in outer space. </p>","0","comp_answer","","","","","","","","","","","","","",""
"comp-q","112","702956","0.0-3.0-15.0-0.5-0.5","spark_pilot_2","7987","3","21","Female","","","","","","","1764.8999998569489","<p> <b> True or False? </b> </p><p> If you see a different picture, it means you are in a new place. </p>","1","comp_question","","","","true","","","","","","","","","",""
"comp-q","113","715740","0.0-3.0-15.0-0.5-1.5","spark_pilot_2","7987","3","21","Female","","","","","","","1539","<p> <b> That's right! </b> Lots of different images may show the same place. For example,  you may see three different images that all remind you that you are in outer space. </p>","0","comp_answer","","","","","","","","","","","","","",""
"learning-instructions","114","734504","0.0-3.0-16.0-0.0","spark_pilot_2","7987","3","21","Female","","","","","","","8903","<p> Good job. Remember to do your best because the amount of treasure you earn will be converted into bonus money. </p>
            <p> It’s time to start the real game! </p>","","instructions","","","","","","","","","","","","","",""
"learning-instructions","115","739684","0.0-4.0-0.0-0.0","spark_pilot_2","7987","3","21","Female","","","","","","","2463","<p> This time you are searching for treasure in the <b>ocean</b>.</p>","","instructions","","","","","","","","","","","","","",""
"learning-instructions","116","760661","0.0-4.0-0.0-0.1","spark_pilot_2","7987","3","21","Female","","","","","","","3658.9000000953674","<p><b>New</b> animals with <b>new</b> treasure chests live here. You need to explore to discover where the animal with the best treasure chest is.</p>
                    <p> Like before, once you figure out which animal has the chest with the most treasure, you should try to get to that animal and select that chest! </p>","","instructions","","","","","","","","","","","","","",""
"learning-instructions","117","779449","0.0-4.0-1.0-0.0","spark_pilot_2","7987","3","21","Female","","","","","","","4057.2999999523163","<p> Remember, when you see a picture of the place, use the up and down keys to <b>find an animal</b>.</p>
            <p> When you encounter an animal, you should use the left and right keys to <b>select a treasure chest</b>.</p>
            <p> Don't forget to look out for the robber! </p>","","instructions","","","","","","","","","","","","","",""
"revaluation","118","785478","0.0-4.0-2.0-0.0","spark_pilot_2","7987","3","21","Female","","false","","","","","[1042,778.7999999523163]","./assets/img/ocean/memory/6.jpg","[""ArrowUp"",""ArrowRight""]","value training","ocean","10","{""ArrowUp,ArrowLeft"":23,""ArrowUp,ArrowRight"":10,""ArrowDown,ArrowLeft"":8,""ArrowDown,ArrowRight"":30}","false","ArrowUp,ArrowRight","false","","","original","1","0","","",""
"html-keyboard-response","119","785990","0.0-4.0-2.0-1.0","spark_pilot_2","7987","3","21","Female","","","","","","","null","<div style=""font-size:60px;"">+</div>","null","fixation","","","","","","","","","","","1","","",""
"revaluation","120","790006","0.0-4.0-2.0-0.1","spark_pilot_2","7987","3","21","Female","","false","","","","","[756]","./assets/img/ocean/catch/0.jpg","[""spaceBar""]","value training","ocean","0","{""ArrowUp,ArrowLeft"":23,""ArrowUp,ArrowRight"":10,""ArrowDown,ArrowLeft"":8,""ArrowDown,ArrowRight"":30}","true","spaceBar","true","","","original","1","2","","",""
"html-keyboard-response","121","790520","0.0-4.0-2.0-1.1","spark_pilot_2","7987","3","21","Female","","","","","","","null","<div style=""font-size:60px;"">+</div>","null","fixation","","","","","","","","","","","3","","",""
"revaluation","122","796537","0.0-4.0-2.0-0.2","spark_pilot_2","7987","3","21","Female","","false","","","","","[1378.2000000476837,870.7999999523163]","./assets/img/ocean/memory/15.jpg","[""ArrowUp"",""ArrowLeft""]","value training","ocean","23","{""ArrowUp,ArrowLeft"":23,""ArrowUp,ArrowRight"":10,""ArrowDown,ArrowLeft"":8,""ArrowDown,ArrowRight"":30}","false","ArrowUp,ArrowLeft","false","","","original","1","4","","",""
"html-keyboard-response","123","797050","0.0-4.0-2.0-1.2","spark_pilot_2","7987","3","21","Female","","","","","","","null","<div style=""font-size:60px;"">+</div>","null","fixation","","","","","","","","","","","5","","",""
"revaluation","124","803084","0.0-4.0-2.0-0.3","spark_pilot_2","7987","3","21","Female","","false","","","","","[920.5,551.7999999523163]","./assets/img/ocean/memory/5.jpg","[""ArrowDown"",""ArrowRight""]","value training","ocean","30","{""ArrowUp,ArrowLeft"":23,""ArrowUp,ArrowRight"":10,""ArrowDown,ArrowLeft"":8,""ArrowDown,ArrowRight"":30}","true","ArrowDown,ArrowRight","false","","","original","1","6","","",""
"html-keyboard-response","125","803600","0.0-4.0-2.0-1.3","spark_pilot_2","7987","3","21","Female","","","","","","","null","<div style=""font-size:60px;"">+</div>","null","fixation","","","","","","","","","","","7","","",""
"revaluation","126","809609","0.0-4.0-2.0-0.4","spark_pilot_2","7987","3","21","Female","","false","","","","","[1387.0999999046326,890.0999999046326]","./assets/img/ocean/memory/39.jpg","[""ArrowDown"",""ArrowLeft""]","value training","ocean","8","{""ArrowUp,ArrowLeft"":23,""ArrowUp,ArrowRight"":10,""ArrowDown,ArrowLeft"":8,""ArrowDown,ArrowRight"":30}","false","ArrowDown,ArrowLeft","false","","","original","1","8","","",""
"html-keyboard-response","127","810112","0.0-4.0-2.0-1.4","spark_pilot_2","7987","3","21","Female","","","","","","","null","<div style=""font-size:60px;"">+</div>","null","fixation","","","","","","","","","","","9","","",""
"revaluation","128","816116","0.0-4.0-2.0-0.5","spark_pilot_2","7987","3","21","Female","","false","","","","","[746.5,818]","./assets/img/ocean/memory/11.jpg","[""ArrowDown"",""ArrowRight""]","value training","ocean","30","{""ArrowUp,ArrowLeft"":23,""ArrowUp,ArrowRight"":10,""ArrowDown,ArrowLeft"":8,""ArrowDown,ArrowRight"":30}","true","ArrowDown,ArrowRight","false","","","original","1","10","","",""
"html-keyboard-response","129","816618","0.0-4.0-2.0-1.5","spark_pilot_2","7987","3","21","Female","","","","","","","null","<div style=""font-size:60px;"">+</div>","null","fixation","","","","","","","","","","","11","","",""
"revaluation","130","822622","0.0-4.0-2.0-0.6","spark_pilot_2","7987","3","21","Female","","false","","","","","[961.0999999046326,735.8999998569489]","./assets/img/ocean/memory/29.jpg","[""ArrowDown"",""ArrowRight""]","value training","ocean","30","{""ArrowUp,ArrowLeft"":23,""ArrowUp,ArrowRight"":10,""ArrowDown,ArrowLeft"":8,""ArrowDown,ArrowRight"":30}","true","ArrowDown,ArrowRight","false","","","original","1","12","","",""
"html-keyboard-response","131","823133","0.0-4.0-2.0-1.6","spark_pilot_2","7987","3","21","Female","","","","","","","null","<div style=""font-size:60px;"">+</div>","null","fixation","","","","","","","","","","","13","","",""
"revaluation","132","829139","0.0-4.0-2.0-0.7","spark_pilot_2","7987","3","21","Female","","false","","","","","[733.0999999046326,811.7000000476837]","./assets/img/ocean/memory/16.jpg","[""ArrowDown"",""ArrowRight""]","value training","ocean","30","{""ArrowUp,ArrowLeft"":23,""ArrowUp,ArrowRight"":10,""ArrowDown,ArrowLeft"":8,""ArrowDown,ArrowRight"":30}","true","ArrowDown,ArrowRight","false","","","original","1","14","","",""
"html-keyboard-response","133","829641","0.0-4.0-2.0-1.7","spark_pilot_2","7987","3","21","Female","","","","","","","null","<div style=""font-size:60px;"">+</div>","null","fixation","","","","","","","","","","","15","","",""
"revaluation","134","835657","0.0-4.0-2.0-0.8","spark_pilot_2","7987","3","21","Female","","false","","","","","[721.5,429.7999999523163]","./assets/img/ocean/memory/27.jpg","[""ArrowDown"",""ArrowRight""]","value training","ocean","30","{""ArrowUp,ArrowLeft"":23,""ArrowUp,ArrowRight"":10,""ArrowDown,ArrowLeft"":8,""ArrowDown,ArrowRight"":30}","true","ArrowDown,ArrowRight","false","","","original","1","16","","",""
"html-keyboard-response","135","836158","0.0-4.0-2.0-1.8","spark_pilot_2","7987","3","21","Female","","","","","","","null","<div style=""font-size:60px;"">+</div>","null","fixation","","","","","","","","","","","17","","",""
"revaluation","136","842167","0.0-4.0-2.0-0.9","spark_pilot_2","7987","3","21","Female","","false","","","","","[789.2000000476837,398.90000009536743]","./assets/img/ocean/memory/27.jpg","[""ArrowDown"",""ArrowRight""]","value training","ocean","30","{""ArrowUp,ArrowLeft"":23,""ArrowUp,ArrowRight"":10,""ArrowDown,ArrowLeft"":8,""ArrowDown,ArrowRight"":30}","true","ArrowDown,ArrowRight","false","","","original","1","18","","",""
"html-keyboard-response","137","842668","0.0-4.0-2.0-1.9","spark_pilot_2","7987","3","21","Female","","","","","","","null","<div style=""font-size:60px;"">+</div>","null","fixation","","","","","","","","","","","19","","",""
"revaluation","138","848674","0.0-4.0-2.0-0.10","spark_pilot_2","7987","3","21","Female","","false","","","","","[815.1999998092651,365.90000009536743]","./assets/img/ocean/memory/2.jpg","[""ArrowDown"",""ArrowRight""]","value training","ocean","30","{""ArrowUp,ArrowLeft"":23,""ArrowUp,ArrowRight"":10,""ArrowDown,ArrowLeft"":8,""ArrowDown,ArrowRight"":30}","true","ArrowDown,ArrowRight","false","","","original","1","20","","",""
"html-keyboard-response","139","849176","0.0-4.0-2.0-1.10","spark_pilot_2","7987","3","21","Female","","","","","","","null","<div style=""font-size:60px;"">+</div>","null","fixation","","","","","","","","","","","21","","",""
"revaluation","140","855184","0.0-4.0-2.0-0.11","spark_pilot_2","7987","3","21","Female","","false","","","","","[827.2999999523163,363.09999990463257]","./assets/img/ocean/memory/39.jpg","[""ArrowDown"",""ArrowRight""]","value training","ocean","30","{""ArrowUp,ArrowLeft"":23,""ArrowUp,ArrowRight"":10,""ArrowDown,ArrowLeft"":8,""ArrowDown,ArrowRight"":30}","true","ArrowDown,ArrowRight","false","","","original","1","22","","",""
"html-keyboard-response","141","855686","0.0-4.0-2.0-1.11","spark_pilot_2","7987","3","21","Female","","","","","","","null","<div style=""font-size:60px;"">+</div>","null","fixation","","","","","","","","","","","23","","",""
"revaluation","142","861699","0.0-4.0-2.0-0.12","spark_pilot_2","7987","3","21","Female","","false","","","","","[782.2999999523163,349]","./assets/img/ocean/memory/12.jpg","[""ArrowDown"",""ArrowRight""]","value training","ocean","30","{""ArrowUp,ArrowLeft"":23,""ArrowUp,ArrowRight"":10,""ArrowDown,ArrowLeft"":8,""ArrowDown,ArrowRight"":30}","true","ArrowDown,ArrowRight","false","","","original","1","24","","",""
"html-keyboard-response","143","862200","0.0-4.0-2.0-1.12","spark_pilot_2","7987","3","21","Female","","","","","","","null","<div style=""font-size:60px;"">+</div>","null","fixation","","","","","","","","","","","25","","",""
"revaluation","144","868213","0.0-4.0-2.0-0.13","spark_pilot_2","7987","3","21","Female","","false","","","","","[907.2000000476837,682.9000000953674]","./assets/img/ocean/memory/13.jpg","[""ArrowDown"",""ArrowRight""]","value training","ocean","30","{""ArrowUp,ArrowLeft"":23,""ArrowUp,ArrowRight"":10,""ArrowDown,ArrowLeft"":8,""ArrowDown,ArrowRight"":30}","true","ArrowDown,ArrowRight","false","","","original","1","26","","",""
"html-keyboard-response","145","868716","0.0-4.0-2.0-1.13","spark_pilot_2","7987","3","21","Female","","","","","","","null","<div style=""font-size:60px;"">+</div>","null","fixation","","","","","","","","","","","27","","",""
"revaluation","146","872720","0.0-4.0-2.0-0.14","spark_pilot_2","7987","3","21","Female","","false","","","","","[600]","./assets/img/ocean/catch/1.jpg","[""spaceBar""]","value training","ocean","0","{""ArrowUp,ArrowLeft"":23,""ArrowUp,ArrowRight"":10,""ArrowDown,ArrowLeft"":8,""ArrowDown,ArrowRight"":30}","true","spaceBar","true","","","original","1","28","","",""
"html-keyboard-response","147","873222","0.0-4.0-2.0-1.14","spark_pilot_2","7987","3","21","Female","","","","","","","null","<div style=""font-size:60px;"">+</div>","null","fixation","","","","","","","","","","","29","","",""
"revaluation","148","879227","0.0-4.0-2.0-0.15","spark_pilot_2","7987","3","21","Female","","false","","","","","[693.7000000476837,676.1000001430511]","./assets/img/ocean/memory/34.jpg","[""ArrowDown"",""ArrowRight""]","value training","ocean","30","{""ArrowUp,ArrowLeft"":23,""ArrowUp,ArrowRight"":10,""ArrowDown,ArrowLeft"":8,""ArrowDown,ArrowRight"":30}","true","ArrowDown,ArrowRight","false","","","original","1","30","","",""
"html-keyboard-response","149","879729","0.0-4.0-2.0-1.15","spark_pilot_2","7987","3","21","Female","","","","","","","null","<div style=""font-size:60px;"">+</div>","null","fixation","","","","","","","","","","","31","","",""
"revaluation","150","885733","0.0-4.0-2.0-0.16","spark_pilot_2","7987","3","21","Female","","false","","","","","[1123.6000001430511,530.2000000476837]","./assets/img/ocean/memory/24.jpg","[""ArrowDown"",""ArrowRight""]","value training","ocean","30","{""ArrowUp,ArrowLeft"":23,""ArrowUp,ArrowRight"":10,""ArrowDown,ArrowLeft"":8,""ArrowDown,ArrowRight"":30}","true","ArrowDown,ArrowRight","false","","","original","1","32","","",""
"html-keyboard-response","151","886235","0.0-4.0-2.0-1.16","spark_pilot_2","7987","3","21","Female","","","","","","","null","<div style=""font-size:60px;"">+</div>","null","fixation","","","","","","","","","","","33","","",""
"revaluation","152","890237","0.0-4.0-2.0-0.17","spark_pilot_2","7987","3","21","Female","","false","","","","","[688.9000000953674]","./assets/img/ocean/catch/4.jpg","[""spaceBar""]","value training","ocean","0","{""ArrowUp,ArrowLeft"":23,""ArrowUp,ArrowRight"":10,""ArrowDown,ArrowLeft"":8,""ArrowDown,ArrowRight"":30}","true","spaceBar","true","","","original","1","34","","",""
"html-keyboard-response","153","890738","0.0-4.0-2.0-1.17","spark_pilot_2","7987","3","21","Female","","","","","","","null","<div style=""font-size:60px;"">+</div>","null","fixation","","","","","","","","","","","35","","",""
"revaluation","154","894741","0.0-4.0-2.0-0.18","spark_pilot_2","7987","3","21","Female","","false","","","","","[609.5999999046326]","./assets/img/ocean/catch/5.jpg","[""spaceBar""]","value training","ocean","0","{""ArrowUp,ArrowLeft"":23,""ArrowUp,ArrowRight"":10,""ArrowDown,ArrowLeft"":8,""ArrowDown,ArrowRight"":30}","true","spaceBar","true","","","original","1","36","","",""
"html-keyboard-response","155","895249","0.0-4.0-2.0-1.18","spark_pilot_2","7987","3","21","Female","","","","","","","null","<div style=""font-size:60px;"">+</div>","null","fixation","","","","","","","","","","","37","","",""
"revaluation","156","901255","0.0-4.0-2.0-0.19","spark_pilot_2","7987","3","21","Female","","false","","","","","[1386.5,649]","./assets/img/ocean/memory/20.jpg","[""ArrowDown"",""ArrowRight""]","value training","ocean","30","{""ArrowUp,ArrowLeft"":23,""ArrowUp,ArrowRight"":10,""ArrowDown,ArrowLeft"":8,""ArrowDown,ArrowRight"":30}","true","ArrowDown,ArrowRight","false","","","original","1","38","","",""
"html-keyboard-response","157","901756","0.0-4.0-2.0-1.19","spark_pilot_2","7987","3","21","Female","","","","","","","null","<div style=""font-size:60px;"">+</div>","null","fixation","","","","","","","","","","","39","","",""
"revaluation","158","907761","0.0-4.0-2.0-0.20","spark_pilot_2","7987","3","21","Female","","false","","","","","[879.7000000476837,398.89999985694885]","./assets/img/ocean/memory/15.jpg","[""ArrowDown"",""ArrowRight""]","value training","ocean","30","{""ArrowUp,ArrowLeft"":23,""ArrowUp,ArrowRight"":10,""ArrowDown,ArrowLeft"":8,""ArrowDown,ArrowRight"":30}","true","ArrowDown,ArrowRight","false","","","original","1","40","","",""
"html-keyboard-response","159","908262","0.0-4.0-2.0-1.20","spark_pilot_2","7987","3","21","Female","","","","","","","null","<div style=""font-size:60px;"">+</div>","null","fixation","","","","","","","","","","","41","","",""
"revaluation","160","914269","0.0-4.0-2.0-0.21","spark_pilot_2","7987","3","21","Female","","false","","","","","[885.6000001430511,604.4000000953674]","./assets/img/ocean/memory/11.jpg","[""ArrowDown"",""ArrowRight""]","value training","ocean","30","{""ArrowUp,ArrowLeft"":23,""ArrowUp,ArrowRight"":10,""ArrowDown,ArrowLeft"":8,""ArrowDown,ArrowRight"":30}","true","ArrowDown,ArrowRight","false","","","original","1","42","","",""
"html-keyboard-response","161","914770","0.0-4.0-2.0-1.21","spark_pilot_2","7987","3","21","Female","","","","","","","null","<div style=""font-size:60px;"">+</div>","null","fixation","","","","","","","","","","","43","","",""
"revaluation","162","920777","0.0-4.0-2.0-0.22","spark_pilot_2","7987","3","21","Female","","false","","","","","[913.5999999046326,599.2999999523163]","./assets/img/ocean/memory/19.jpg","[""ArrowDown"",""ArrowRight""]","value training","ocean","30","{""ArrowUp,ArrowLeft"":23,""ArrowUp,ArrowRight"":10,""ArrowDown,ArrowLeft"":8,""ArrowDown,ArrowRight"":30}","true","ArrowDown,ArrowRight","false","","","original","1","44","","",""
"html-keyboard-response","163","921278","0.0-4.0-2.0-1.22","spark_pilot_2","7987","3","21","Female","","","","","","","null","<div style=""font-size:60px;"">+</div>","null","fixation","","","","","","","","","","","45","","",""
"revaluation","164","927283","0.0-4.0-2.0-0.23","spark_pilot_2","7987","3","21","Female","","false","","","","","[885.5,324.59999990463257]","./assets/img/ocean/memory/37.jpg","[""ArrowDown"",""ArrowRight""]","value training","ocean","30","{""ArrowUp,ArrowLeft"":23,""ArrowUp,ArrowRight"":10,""ArrowDown,ArrowLeft"":8,""ArrowDown,ArrowRight"":30}","true","ArrowDown,ArrowRight","false","","","original","1","46","","",""
"html-keyboard-response","165","927785","0.0-4.0-2.0-1.23","spark_pilot_2","7987","3","21","Female","","","","","","","null","<div style=""font-size:60px;"">+</div>","null","fixation","","","","","","","","","","","47","","",""
"revaluation","166","931788","0.0-4.0-2.0-0.24","spark_pilot_2","7987","3","21","Female","","false","","","","","[515.5]","./assets/img/ocean/catch/3.jpg","[""spaceBar""]","value training","ocean","0","{""ArrowUp,ArrowLeft"":23,""ArrowUp,ArrowRight"":10,""ArrowDown,ArrowLeft"":8,""ArrowDown,ArrowRight"":30}","true","spaceBar","true","","","original","1","48","","",""
"html-keyboard-response","167","932290","0.0-4.0-2.0-1.24","spark_pilot_2","7987","3","21","Female","","","","","","","null","<div style=""font-size:60px;"">+</div>","null","fixation","","","","","","","","","","","49","","",""
"revaluation","168","938295","0.0-4.0-2.0-0.25","spark_pilot_2","7987","3","21","Female","","false","","","","","[1729.7000000476837,600.2999999523163]","./assets/img/ocean/memory/8.jpg","[""ArrowDown"",""ArrowRight""]","value training","ocean","30","{""ArrowUp,ArrowLeft"":23,""ArrowUp,ArrowRight"":10,""ArrowDown,ArrowLeft"":8,""ArrowDown,ArrowRight"":30}","true","ArrowDown,ArrowRight","false","","","original","1","50","","",""
"html-keyboard-response","169","938796","0.0-4.0-2.0-1.25","spark_pilot_2","7987","3","21","Female","","","","","","","null","<div style=""font-size:60px;"">+</div>","null","fixation","","","","","","","","","","","51","","",""
"revaluation","170","944800","0.0-4.0-2.0-0.26","spark_pilot_2","7987","3","21","Female","","false","","","","","[783.7999999523163,374.39999985694885]","./assets/img/ocean/memory/3.jpg","[""ArrowDown"",""ArrowRight""]","value training","ocean","30","{""ArrowUp,ArrowLeft"":23,""ArrowUp,ArrowRight"":10,""ArrowDown,ArrowLeft"":8,""ArrowDown,ArrowRight"":30}","true","ArrowDown,ArrowRight","false","","","original","1","52","","",""
"html-keyboard-response","171","945303","0.0-4.0-2.0-1.26","spark_pilot_2","7987","3","21","Female","","","","","","","null","<div style=""font-size:60px;"">+</div>","null","fixation","","","","","","","","","","","53","","",""
"revaluation","172","951309","0.0-4.0-2.0-0.27","spark_pilot_2","7987","3","21","Female","","false","","","","","[900.9000000953674,419.5]","./assets/img/ocean/memory/10.jpg","[""ArrowDown"",""ArrowRight""]","value training","ocean","30","{""ArrowUp,ArrowLeft"":23,""ArrowUp,ArrowRight"":10,""ArrowDown,ArrowLeft"":8,""ArrowDown,ArrowRight"":30}","true","ArrowDown,ArrowRight","false","","","original","1","54","","",""
"html-keyboard-response","173","951810","0.0-4.0-2.0-1.27","spark_pilot_2","7987","3","21","Female","","","","","","","null","<div style=""font-size:60px;"">+</div>","null","fixation","","","","","","","","","","","55","","",""
"revaluation","174","957815","0.0-4.0-2.0-0.28","spark_pilot_2","7987","3","21","Female","","false","","","","","[881.7000000476837,576.5]","./assets/img/ocean/memory/24.jpg","[""ArrowDown"",""ArrowRight""]","value training","ocean","30","{""ArrowUp,ArrowLeft"":23,""ArrowUp,ArrowRight"":10,""ArrowDown,ArrowLeft"":8,""ArrowDown,ArrowRight"":30}","true","ArrowDown,ArrowRight","false","","","original","1","56","","",""
"html-keyboard-response","175","958316","0.0-4.0-2.0-1.28","spark_pilot_2","7987","3","21","Female","","","","","","","null","<div style=""font-size:60px;"">+</div>","null","fixation","","","","","","","","","","","57","","",""
"revaluation","176","964325","0.0-4.0-2.0-0.29","spark_pilot_2","7987","3","21","Female","","false","","","","","[1336,449.7000000476837]","./assets/img/ocean/memory/22.jpg","[""ArrowDown"",""ArrowRight""]","value training","ocean","30","{""ArrowUp,ArrowLeft"":23,""ArrowUp,ArrowRight"":10,""ArrowDown,ArrowLeft"":8,""ArrowDown,ArrowRight"":30}","true","ArrowDown,ArrowRight","false","","","original","1","58","","",""
"html-keyboard-response","177","964826","0.0-4.0-2.0-1.29","spark_pilot_2","7987","3","21","Female","","","","","","","null","<div style=""font-size:60px;"">+</div>","null","fixation","","","","","","","","","","","59","","",""
"revaluation","178","968829","0.0-4.0-2.0-0.30","spark_pilot_2","7987","3","21","Female","","false","","","","","[458.40000009536743]","./assets/img/ocean/catch/2.jpg","[""spaceBar""]","value training","ocean","0","{""ArrowUp,ArrowLeft"":23,""ArrowUp,ArrowRight"":10,""ArrowDown,ArrowLeft"":8,""ArrowDown,ArrowRight"":30}","true","spaceBar","true","","","original","1","60","","",""
"html-keyboard-response","179","969331","0.0-4.0-2.0-1.30","spark_pilot_2","7987","3","21","Female","","","","","","","null","<div style=""font-size:60px;"">+</div>","null","fixation","","","","","","","","","","","61","","",""
"revaluation","180","975336","0.0-4.0-2.0-0.31","spark_pilot_2","7987","3","21","Female","","false","","","","","[712.1999998092651,463.89999985694885]","./assets/img/ocean/memory/29.jpg","[""ArrowDown"",""ArrowRight""]","value training","ocean","30","{""ArrowUp,ArrowLeft"":23,""ArrowUp,ArrowRight"":10,""ArrowDown,ArrowLeft"":8,""ArrowDown,ArrowRight"":30}","true","ArrowDown,ArrowRight","false","","","original","1","62","","",""
"html-keyboard-response","181","975837","0.0-4.0-2.0-1.31","spark_pilot_2","7987","3","21","Female","","","","","","","null","<div style=""font-size:60px;"">+</div>","null","fixation","","","","","","","","","","","63","","",""
"revaluation","182","981841","0.0-4.0-2.0-0.32","spark_pilot_2","7987","3","21","Female","","false","","","","","[678.7999999523163,429.7999999523163]","./assets/img/ocean/memory/2.jpg","[""ArrowDown"",""ArrowRight""]","value training","ocean","30","{""ArrowUp,ArrowLeft"":23,""ArrowUp,ArrowRight"":10,""ArrowDown,ArrowLeft"":8,""ArrowDown,ArrowRight"":30}","true","ArrowDown,ArrowRight","false","","","original","1","64","","",""
"html-keyboard-response","183","982342","0.0-4.0-2.0-1.32","spark_pilot_2","7987","3","21","Female","","","","","","","null","<div style=""font-size:60px;"">+</div>","null","fixation","","","","","","","","","","","65","","",""
"revaluation","184","988349","0.0-4.0-2.0-0.33","spark_pilot_2","7987","3","21","Female","","false","","","","","[628.2999999523163,291.60000014305115]","./assets/img/ocean/memory/19.jpg","[""ArrowDown"",""ArrowRight""]","value training","ocean","30","{""ArrowUp,ArrowLeft"":23,""ArrowUp,ArrowRight"":10,""ArrowDown,ArrowLeft"":8,""ArrowDown,ArrowRight"":30}","true","ArrowDown,ArrowRight","false","","","original","1","66","","",""
"html-keyboard-response","185","988850","0.0-4.0-2.0-1.33","spark_pilot_2","7987","3","21","Female","","","","","","","null","<div style=""font-size:60px;"">+</div>","null","fixation","","","","","","","","","","","67","","",""
"revaluation","186","994856","0.0-4.0-2.0-0.34","spark_pilot_2","7987","3","21","Female","","false","","","","","[673.9000000953674,312.90000009536743]","./assets/img/ocean/memory/34.jpg","[""ArrowDown"",""ArrowRight""]","value training","ocean","30","{""ArrowUp,ArrowLeft"":23,""ArrowUp,ArrowRight"":10,""ArrowDown,ArrowLeft"":8,""ArrowDown,ArrowRight"":30}","true","ArrowDown,ArrowRight","false","","","original","1","68","","",""
"html-keyboard-response","187","995358","0.0-4.0-2.0-1.34","spark_pilot_2","7987","3","21","Female","","","","","","","null","<div style=""font-size:60px;"">+</div>","null","fixation","","","","","","","","","","","69","","",""
"revaluation","188","1001373","0.0-4.0-2.0-0.35","spark_pilot_2","7987","3","21","Female","","false","","","","","[694.2000000476837,300.5]","./assets/img/ocean/memory/41.jpg","[""ArrowDown"",""ArrowRight""]","value training","ocean","30","{""ArrowUp,ArrowLeft"":23,""ArrowUp,ArrowRight"":10,""ArrowDown,ArrowLeft"":8,""ArrowDown,ArrowRight"":30}","true","ArrowDown,ArrowRight","false","","","original","1","70","","",""
"html-keyboard-response","189","1001874","0.0-4.0-2.0-1.35","spark_pilot_2","7987","3","21","Female","","","","","","","null","<div style=""font-size:60px;"">+</div>","null","fixation","","","","","","","","","","","71","","",""
"revaluation","190","1007880","0.0-4.0-2.0-0.36","spark_pilot_2","7987","3","21","Female","","false","","","","","[963.4000000953674,343.89999985694885]","./assets/img/ocean/memory/20.jpg","[""ArrowDown"",""ArrowRight""]","value training","ocean","30","{""ArrowUp,ArrowLeft"":23,""ArrowUp,ArrowRight"":10,""ArrowDown,ArrowLeft"":8,""ArrowDown,ArrowRight"":30}","true","ArrowDown,ArrowRight","false","","","original","1","72","","",""
"html-keyboard-response","191","1008383","0.0-4.0-2.0-1.36","spark_pilot_2","7987","3","21","Female","","","","","","","null","<div style=""font-size:60px;"">+</div>","null","fixation","","","","","","","","","","","73","","",""
"revaluation","192","1014390","0.0-4.0-2.0-0.37","spark_pilot_2","7987","3","21","Female","","false","","","","","[851.7999999523163,362.90000009536743]","./assets/img/ocean/memory/10.jpg","[""ArrowDown"",""ArrowRight""]","value training","ocean","30","{""ArrowUp,ArrowLeft"":23,""ArrowUp,ArrowRight"":10,""ArrowDown,ArrowLeft"":8,""ArrowDown,ArrowRight"":30}","true","ArrowDown,ArrowRight","false","","","original","1","74","","",""
"html-keyboard-response","193","1014891","0.0-4.0-2.0-1.37","spark_pilot_2","7987","3","21","Female","","","","","","","null","<div style=""font-size:60px;"">+</div>","null","fixation","","","","","","","","","","","75","","",""
"revaluation","194","1020898","0.0-4.0-2.0-0.38","spark_pilot_2","7987","3","21","Female","","false","","","","","[841.0999999046326,279.2999999523163]","./assets/img/ocean/memory/8.jpg","[""ArrowDown"",""ArrowRight""]","value training","ocean","30","{""ArrowUp,ArrowLeft"":23,""ArrowUp,ArrowRight"":10,""ArrowDown,ArrowLeft"":8,""ArrowDown,ArrowRight"":30}","true","ArrowDown,ArrowRight","false","","","original","1","76","","",""
"html-keyboard-response","195","1021400","0.0-4.0-2.0-1.38","spark_pilot_2","7987","3","21","Female","","","","","","","null","<div style=""font-size:60px;"">+</div>","null","fixation","","","","","","","","","","","77","","",""
"revaluation","196","1025404","0.0-4.0-2.0-0.39","spark_pilot_2","7987","3","21","Female","","false","","","","","[540.5999999046326]","./assets/img/ocean/catch/6.jpg","[""spaceBar""]","value training","ocean","0","{""ArrowUp,ArrowLeft"":23,""ArrowUp,ArrowRight"":10,""ArrowDown,ArrowLeft"":8,""ArrowDown,ArrowRight"":30}","true","spaceBar","true","","","original","1","78","","",""
"html-keyboard-response","197","1025906","0.0-4.0-2.0-1.39","spark_pilot_2","7987","3","21","Female","","","","","","","null","<div style=""font-size:60px;"">+</div>","null","fixation","","","","","","","","","","","79","","",""
"revaluation","198","1031917","0.0-4.0-2.0-0.40","spark_pilot_2","7987","3","21","Female","","false","","","","","[866.7999999523163,369.09999990463257]","./assets/img/ocean/memory/3.jpg","[""ArrowDown"",""ArrowRight""]","value training","ocean","30","{""ArrowUp,ArrowLeft"":23,""ArrowUp,ArrowRight"":10,""ArrowDown,ArrowLeft"":8,""ArrowDown,ArrowRight"":30}","true","ArrowDown,ArrowRight","false","","","original","1","80","","",""
"html-keyboard-response","199","1032418","0.0-4.0-2.0-1.40","spark_pilot_2","7987","3","21","Female","","","","","","","null","<div style=""font-size:60px;"">+</div>","null","fixation","","","","","","","","","","","81","","",""
"revaluation","200","1038424","0.0-4.0-2.0-0.41","spark_pilot_2","7987","3","21","Female","","false","","","","","[738,304.5]","./assets/img/ocean/memory/16.jpg","[""ArrowDown"",""ArrowRight""]","value training","ocean","30","{""ArrowUp,ArrowLeft"":23,""ArrowUp,ArrowRight"":10,""ArrowDown,ArrowLeft"":8,""ArrowDown,ArrowRight"":30}","true","ArrowDown,ArrowRight","false","","","original","1","82","","",""
"html-keyboard-response","201","1038925","0.0-4.0-2.0-1.41","spark_pilot_2","7987","3","21","Female","","","","","","","null","<div style=""font-size:60px;"">+</div>","null","fixation","","","","","","","","","","","83","","",""
"revaluation","202","1044929","0.0-4.0-2.0-0.42","spark_pilot_2","7987","3","21","Female","","false","","","","","[943.5999999046326,727]","./assets/img/ocean/memory/5.jpg","[""ArrowDown"",""ArrowRight""]","value training","ocean","30","{""ArrowUp,ArrowLeft"":23,""ArrowUp,ArrowRight"":10,""ArrowDown,ArrowLeft"":8,""ArrowDown,ArrowRight"":30}","true","ArrowDown,ArrowRight","false","","","original","1","84","","",""
"html-keyboard-response","203","1045431","0.0-4.0-2.0-1.42","spark_pilot_2","7987","3","21","Female","","","","","","","null","<div style=""font-size:60px;"">+</div>","null","fixation","","","","","","","","","","","85","","",""
"revaluation","204","1051446","0.0-4.0-2.0-0.43","spark_pilot_2","7987","3","21","Female","","false","","","","","[773.0999999046326,402.2999999523163]","./assets/img/ocean/memory/12.jpg","[""ArrowDown"",""ArrowRight""]","value training","ocean","30","{""ArrowUp,ArrowLeft"":23,""ArrowUp,ArrowRight"":10,""ArrowDown,ArrowLeft"":8,""ArrowDown,ArrowRight"":30}","true","ArrowDown,ArrowRight","false","","","original","1","86","","",""
"html-keyboard-response","205","1051948","0.0-4.0-2.0-1.43","spark_pilot_2","7987","3","21","Female","","","","","","","null","<div style=""font-size:60px;"">+</div>","null","fixation","","","","","","","","","","","87","","",""
"revaluation","206","1057954","0.0-4.0-2.0-0.44","spark_pilot_2","7987","3","21","Female","","false","","","","","[929.0999999046326,367.2999999523163]","./assets/img/ocean/memory/13.jpg","[""ArrowDown"",""ArrowRight""]","value training","ocean","30","{""ArrowUp,ArrowLeft"":23,""ArrowUp,ArrowRight"":10,""ArrowDown,ArrowLeft"":8,""ArrowDown,ArrowRight"":30}","true","ArrowDown,ArrowRight","false","","","original","1","88","","",""
"html-keyboard-response","207","1058456","0.0-4.0-2.0-1.44","spark_pilot_2","7987","3","21","Female","","","","","","","null","<div style=""font-size:60px;"">+</div>","null","fixation","","","","","","","","","","","89","","",""
"revaluation","208","1062468","0.0-4.0-2.0-0.45","spark_pilot_2","7987","3","21","Female","","false","","","","","[604.5999999046326]","./assets/img/ocean/catch/7.jpg","[""spaceBar""]","value training","ocean","0","{""ArrowUp,ArrowLeft"":23,""ArrowUp,ArrowRight"":10,""ArrowDown,ArrowLeft"":8,""ArrowDown,ArrowRight"":30}","true","spaceBar","true","","","original","1","90","","",""
"html-keyboard-response","209","1062970","0.0-4.0-2.0-1.45","spark_pilot_2","7987","3","21","Female","","","","","","","null","<div style=""font-size:60px;"">+</div>","null","fixation","","","","","","","","","","","91","","",""
"revaluation","210","1068974","0.0-4.0-2.0-0.46","spark_pilot_2","7987","3","21","Female","","false","","","","","[794.6999998092651,450.09999990463257]","./assets/img/ocean/memory/37.jpg","[""ArrowDown"",""ArrowRight""]","value training","ocean","30","{""ArrowUp,ArrowLeft"":23,""ArrowUp,ArrowRight"":10,""ArrowDown,ArrowLeft"":8,""ArrowDown,ArrowRight"":30}","true","ArrowDown,ArrowRight","false","","","original","1","92","","",""
"html-keyboard-response","211","1069476","0.0-4.0-2.0-1.46","spark_pilot_2","7987","3","21","Female","","","","","","","null","<div style=""font-size:60px;"">+</div>","null","fixation","","","","","","","","","","","93","","",""
"revaluation","212","1075481","0.0-4.0-2.0-0.47","spark_pilot_2","7987","3","21","Female","","false","","","","","[1040.5,399.60000014305115]","./assets/img/ocean/memory/22.jpg","[""ArrowDown"",""ArrowRight""]","value training","ocean","30","{""ArrowUp,ArrowLeft"":23,""ArrowUp,ArrowRight"":10,""ArrowDown,ArrowLeft"":8,""ArrowDown,ArrowRight"":30}","true","ArrowDown,ArrowRight","false","","","original","1","94","","",""
"html-keyboard-response","213","1075982","0.0-4.0-2.0-1.47","spark_pilot_2","7987","3","21","Female","","","","","","","null","<div style=""font-size:60px;"">+</div>","null","fixation","","","","","","","","","","","95","","",""
"revaluation","214","1081987","0.0-4.0-2.0-0.48","spark_pilot_2","7987","3","21","Female","","false","","","","","[862.5,349.2999999523163]","./assets/img/ocean/memory/6.jpg","[""ArrowDown"",""ArrowRight""]","value training","ocean","30","{""ArrowUp,ArrowLeft"":23,""ArrowUp,ArrowRight"":10,""ArrowDown,ArrowLeft"":8,""ArrowDown,ArrowRight"":30}","true","ArrowDown,ArrowRight","false","","","original","1","96","","",""
"html-keyboard-response","215","1082488","0.0-4.0-2.0-1.48","spark_pilot_2","7987","3","21","Female","","","","","","","null","<div style=""font-size:60px;"">+</div>","null","fixation","","","","","","","","","","","97","","",""
"revaluation","216","1088493","0.0-4.0-2.0-0.49","spark_pilot_2","7987","3","21","Female","","false","","","","","[916.7000000476837,323.7999999523163]","./assets/img/ocean/memory/41.jpg","[""ArrowDown"",""ArrowRight""]","value training","ocean","30","{""ArrowUp,ArrowLeft"":23,""ArrowUp,ArrowRight"":10,""ArrowDown,ArrowLeft"":8,""ArrowDown,ArrowRight"":30}","true","ArrowDown,ArrowRight","false","","","original","1","98","","",""
"html-keyboard-response","217","1088994","0.0-4.0-2.0-1.49","spark_pilot_2","7987","3","21","Female","","","","","","","null","<div style=""font-size:60px;"">+</div>","null","fixation","","","","","","","","","","","99","","",""
"learning-instructions","218","1104435","0.0-4.0-3.0-0.0","spark_pilot_2","7987","3","21","Female","","","","","","","2540.7000000476837","<p> Now, you will travel with a friend who will choose whether you go up or down first. </p>
            <p> On these turns, you will just see the animal that they found. You will still get to choose which chest to search for treasure.</p>","","instructions","","","","","","","","","","","","","",""
"revaluation","219","1108455","0.0-4.0-4.0-0.0","spark_pilot_2","7987","3","21","Female","","true","","","","","[]","./assets/img/ocean/animals/seahorse.jpg","[]","revaluation","ocean","-5","{""ArrowUp,ArrowLeft"":23,""ArrowUp,ArrowRight"":10,""ArrowDown,ArrowLeft"":8,""ArrowDown,ArrowRight"":30}","false","ArrowUp","","","","original","1","0","","",""
"html-keyboard-response","220","1108962","0.0-4.0-4.0-1.0","spark_pilot_2","7987","3","21","Female","","","","","","","null","<div style=""font-size:60px;"">+</div>","null","fixation","","","","","","","","","","","1","","",""
"revaluation","221","1112991","0.0-4.0-4.0-0.1","spark_pilot_2","7987","3","21","Female","","false","","","","","[753.9000000953674]","./assets/img/ocean/animals/octopus.jpg","[""ArrowRight""]","revaluation","ocean","30","{""ArrowUp,ArrowLeft"":23,""ArrowUp,ArrowRight"":10,""ArrowDown,ArrowLeft"":8,""ArrowDown,ArrowRight"":30}","true","ArrowDown,ArrowRight","","","","original","1","2","","",""
"html-keyboard-response","222","1113493","0.0-4.0-4.0-1.1","spark_pilot_2","7987","3","21","Female","","","","","","","null","<div style=""font-size:60px;"">+</div>","null","fixation","","","","","","","","","","","3","","",""
"revaluation","223","1117511","0.0-4.0-4.0-0.2","spark_pilot_2","7987","3","21","Female","","false","","","","","[647.9000000953674]","./assets/img/ocean/animals/seahorse.jpg","[""ArrowRight""]","revaluation","ocean","10","{""ArrowUp,ArrowLeft"":23,""ArrowUp,ArrowRight"":10,""ArrowDown,ArrowLeft"":8,""ArrowDown,ArrowRight"":30}","false","ArrowUp,ArrowRight","","","","original","1","4","","",""
"html-keyboard-response","224","1118017","0.0-4.0-4.0-1.2","spark_pilot_2","7987","3","21","Female","","","","","","","null","<div style=""font-size:60px;"">+</div>","null","fixation","","","","","","","","","","","5","","",""
"revaluation","225","1122037","0.0-4.0-4.0-0.3","spark_pilot_2","7987","3","21","Female","","false","","","","","[996.4000000953674]","./assets/img/ocean/animals/seahorse.jpg","[""ArrowLeft""]","revaluation","ocean","23","{""ArrowUp,ArrowLeft"":23,""ArrowUp,ArrowRight"":10,""ArrowDown,ArrowLeft"":8,""ArrowDown,ArrowRight"":30}","true","ArrowUp,ArrowLeft","","","","original","1","6","","",""
"html-keyboard-response","226","1122543","0.0-4.0-4.0-1.3","spark_pilot_2","7987","3","21","Female","","","","","","","null","<div style=""font-size:60px;"">+</div>","null","fixation","","","","","","","","","","","7","","",""
"revaluation","227","1126563","0.0-4.0-4.0-0.4","spark_pilot_2","7987","3","21","Female","","false","","","","","[1261.9000000953674]","./assets/img/ocean/animals/seahorse.jpg","[""ArrowLeft""]","revaluation","ocean","23","{""ArrowUp,ArrowLeft"":23,""ArrowUp,ArrowRight"":10,""ArrowDown,ArrowLeft"":8,""ArrowDown,ArrowRight"":30}","true","ArrowUp,ArrowLeft","","","","original","1","8","","",""
"html-keyboard-response","228","1127079","0.0-4.0-4.0-1.4","spark_pilot_2","7987","3","21","Female","","","","","","","null","<div style=""font-size:60px;"">+</div>","null","fixation","","","","","","","","","","","9","","",""
"revaluation","229","1131099","0.0-4.0-4.0-0.5","spark_pilot_2","7987","3","21","Female","","false","","","","","[733.7000000476837]","./assets/img/ocean/animals/seahorse.jpg","[""ArrowLeft""]","revaluation","ocean","23","{""ArrowUp,ArrowLeft"":23,""ArrowUp,ArrowRight"":10,""ArrowDown,ArrowLeft"":8,""ArrowDown,ArrowRight"":30}","true","ArrowUp,ArrowLeft","","","","original","1","10","","",""
"html-keyboard-response","230","1131621","0.0-4.0-4.0-1.5","spark_pilot_2","7987","3","21","Female","","","","","","","null","<div style=""font-size:60px;"">+</div>","null","fixation","","","","","","","","","","","11","","",""
"revaluation","231","1135625","0.0-4.0-4.0-0.6","spark_pilot_2","7987","3","21","Female","","false","","","","","[815.7999999523163]","./assets/img/ocean/animals/octopus.jpg","[""ArrowRight""]","revaluation","ocean","30","{""ArrowUp,ArrowLeft"":23,""ArrowUp,ArrowRight"":10,""ArrowDown,ArrowLeft"":8,""ArrowDown,ArrowRight"":30}","true","ArrowDown,ArrowRight","","","","original","1","12","","",""
"html-keyboard-response","232","1136126","0.0-4.0-4.0-1.6","spark_pilot_2","7987","3","21","Female","","","","","","","null","<div style=""font-size:60px;"">+</div>","null","fixation","","","","","","","","","","","13","","",""
"revaluation","233","1140129","0.0-4.0-4.0-0.7","spark_pilot_2","7987","3","21","Female","","false","","","","","[1038.7999999523163]","./assets/img/ocean/animals/octopus.jpg","[""ArrowRight""]","revaluation","ocean","30","{""ArrowUp,ArrowLeft"":23,""ArrowUp,ArrowRight"":10,""ArrowDown,ArrowLeft"":8,""ArrowDown,ArrowRight"":30}","true","ArrowDown,ArrowRight","","","","original","1","14","","",""
"html-keyboard-response","234","1140631","0.0-4.0-4.0-1.7","spark_pilot_2","7987","3","21","Female","","","","","","","null","<div style=""font-size:60px;"">+</div>","null","fixation","","","","","","","","","","","15","","",""
"revaluation","235","1144635","0.0-4.0-4.0-0.8","spark_pilot_2","7987","3","21","Female","","false","","","","","[990]","./assets/img/ocean/animals/octopus.jpg","[""ArrowRight""]","revaluation","ocean","30","{""ArrowUp,ArrowLeft"":23,""ArrowUp,ArrowRight"":10,""ArrowDown,ArrowLeft"":8,""ArrowDown,ArrowRight"":30}","true","ArrowDown,ArrowRight","","","","original","1","16","","",""
"html-keyboard-response","236","1145137","0.0-4.0-4.0-1.8","spark_pilot_2","7987","3","21","Female","","","","","","","null","<div style=""font-size:60px;"">+</div>","null","fixation","","","","","","","","","","","17","","",""
"revaluation","237","1149141","0.0-4.0-4.0-0.9","spark_pilot_2","7987","3","21","Female","","false","","","","","[636.5]","./assets/img/ocean/animals/seahorse.jpg","[""ArrowLeft""]","revaluation","ocean","23","{""ArrowUp,ArrowLeft"":23,""ArrowUp,ArrowRight"":10,""ArrowDown,ArrowLeft"":8,""ArrowDown,ArrowRight"":30}","true","ArrowUp,ArrowLeft","","","","original","1","18","","",""
"html-keyboard-response","238","1149642","0.0-4.0-4.0-1.9","spark_pilot_2","7987","3","21","Female","","","","","","","null","<div style=""font-size:60px;"">+</div>","null","fixation","","","","","","","","","","","19","","",""
"revaluation","239","1153646","0.0-4.0-4.0-0.10","spark_pilot_2","7987","3","21","Female","","false","","","","","[755.4000000953674]","./assets/img/ocean/animals/octopus.jpg","[""ArrowRight""]","revaluation","ocean","30","{""ArrowUp,ArrowLeft"":23,""ArrowUp,ArrowRight"":10,""ArrowDown,ArrowLeft"":8,""ArrowDown,ArrowRight"":30}","true","ArrowDown,ArrowRight","","","","original","1","20","","",""
"html-keyboard-response","240","1154147","0.0-4.0-4.0-1.10","spark_pilot_2","7987","3","21","Female","","","","","","","null","<div style=""font-size:60px;"">+</div>","null","fixation","","","","","","","","","","","21","","",""
"revaluation","241","1158152","0.0-4.0-4.0-0.11","spark_pilot_2","7987","3","21","Female","","false","","","","","[697.5]","./assets/img/ocean/animals/octopus.jpg","[""ArrowRight""]","revaluation","ocean","30","{""ArrowUp,ArrowLeft"":23,""ArrowUp,ArrowRight"":10,""ArrowDown,ArrowLeft"":8,""ArrowDown,ArrowRight"":30}","true","ArrowDown,ArrowRight","","","","original","1","22","","",""
"html-keyboard-response","242","1158665","0.0-4.0-4.0-1.11","spark_pilot_2","7987","3","21","Female","","","","","","","null","<div style=""font-size:60px;"">+</div>","null","fixation","","","","","","","","","","","23","","",""
"revaluation","243","1162669","0.0-4.0-4.0-0.12","spark_pilot_2","7987","3","21","Female","","false","","","","","[788.1999998092651]","./assets/img/ocean/animals/octopus.jpg","[""ArrowRight""]","revaluation","ocean","30","{""ArrowUp,ArrowLeft"":23,""ArrowUp,ArrowRight"":10,""ArrowDown,ArrowLeft"":8,""ArrowDown,ArrowRight"":30}","true","ArrowDown,ArrowRight","","","","original","1","24","","",""
"html-keyboard-response","244","1163170","0.0-4.0-4.0-1.12","spark_pilot_2","7987","3","21","Female","","","","","","","null","<div style=""font-size:60px;"">+</div>","null","fixation","","","","","","","","","","","25","","",""
"revaluation","245","1167179","0.0-4.0-4.0-0.13","spark_pilot_2","7987","3","21","Female","","false","","","","","[826.2000000476837]","./assets/img/ocean/animals/seahorse.jpg","[""ArrowLeft""]","revaluation","ocean","23","{""ArrowUp,ArrowLeft"":23,""ArrowUp,ArrowRight"":10,""ArrowDown,ArrowLeft"":8,""ArrowDown,ArrowRight"":30}","true","ArrowUp,ArrowLeft","","","","original","1","26","","",""
"html-keyboard-response","246","1167680","0.0-4.0-4.0-1.13","spark_pilot_2","7987","3","21","Female","","","","","","","null","<div style=""font-size:60px;"">+</div>","null","fixation","","","","","","","","","","","27","","",""
"revaluation","247","1171685","0.0-4.0-4.0-0.14","spark_pilot_2","7987","3","21","Female","","false","","","","","[788.5]","./assets/img/ocean/animals/seahorse.jpg","[""ArrowLeft""]","revaluation","ocean","23","{""ArrowUp,ArrowLeft"":23,""ArrowUp,ArrowRight"":10,""ArrowDown,ArrowLeft"":8,""ArrowDown,ArrowRight"":30}","true","ArrowUp,ArrowLeft","","","","original","1","28","","",""
"html-keyboard-response","248","1172186","0.0-4.0-4.0-1.14","spark_pilot_2","7987","3","21","Female","","","","","","","null","<div style=""font-size:60px;"">+</div>","null","fixation","","","","","","","","","","","29","","",""
"revaluation","249","1176191","0.0-4.0-4.0-0.15","spark_pilot_2","7987","3","21","Female","","false","","","","","[850.8999998569489]","./assets/img/ocean/animals/seahorse.jpg","[""ArrowLeft""]","revaluation","ocean","23","{""ArrowUp,ArrowLeft"":23,""ArrowUp,ArrowRight"":10,""ArrowDown,ArrowLeft"":8,""ArrowDown,ArrowRight"":30}","true","ArrowUp,ArrowLeft","","","","original","1","30","","",""
"html-keyboard-response","250","1176692","0.0-4.0-4.0-1.15","spark_pilot_2","7987","3","21","Female","","","","","","","null","<div style=""font-size:60px;"">+</div>","null","fixation","","","","","","","","","","","31","","",""
"revaluation","251","1180696","0.0-4.0-4.0-0.16","spark_pilot_2","7987","3","21","Female","","false","","","","","[752.3000001907349]","./assets/img/ocean/animals/octopus.jpg","[""ArrowRight""]","revaluation","ocean","30","{""ArrowUp,ArrowLeft"":23,""ArrowUp,ArrowRight"":10,""ArrowDown,ArrowLeft"":8,""ArrowDown,ArrowRight"":30}","true","ArrowDown,ArrowRight","","","","original","1","32","","",""
"html-keyboard-response","252","1181198","0.0-4.0-4.0-1.16","spark_pilot_2","7987","3","21","Female","","","","","","","null","<div style=""font-size:60px;"">+</div>","null","fixation","","","","","","","","","","","33","","",""
"revaluation","253","1185202","0.0-4.0-4.0-0.17","spark_pilot_2","7987","3","21","Female","","false","","","","","[702.9000000953674]","./assets/img/ocean/animals/octopus.jpg","[""ArrowRight""]","revaluation","ocean","30","{""ArrowUp,ArrowLeft"":23,""ArrowUp,ArrowRight"":10,""ArrowDown,ArrowLeft"":8,""ArrowDown,ArrowRight"":30}","true","ArrowDown,ArrowRight","","","","original","1","34","","",""
"html-keyboard-response","254","1185705","0.0-4.0-4.0-1.17","spark_pilot_2","7987","3","21","Female","","","","","","","null","<div style=""font-size:60px;"">+</div>","null","fixation","","","","","","","","","","","35","","",""
"learning-instructions","255","1198560","0.0-4.0-5.0-0.0","spark_pilot_2","7987","3","21","Female","","","","","","","1505.5","<p> Time to play the dot game! </p>
            <p> For one minute, click the red dots on the following screen as they appear. </p>
            <p><b> Don't look away, as you will earn bonus for clicking dots</b>. </p>","","instructions","","","","","","","","","","","","","",""
"revaluation","256","1258562","0.0-4.0-6.0-0.0","spark_pilot_2","7987","3","21","Female","","","","","","","[80,79,108,80,84,75,88]","","","rest","","70","","","","","0","60000","","","","","",""
"learning-instructions","257","1266436","0.0-4.0-7.0-0.0","spark_pilot_2","7987","3","21","Female","","","","","","","1761","<p> You have almost finished this part of the game! </p>
            <p> We are going to ask you to make a few more choices. </p>","","instructions","","","","","","","","","","","","","",""
"learning-instructions","258","1286149","0.0-4.0-7.0-0.1","spark_pilot_2","7987","3","21","Female","","","","","","","5743.599999904633","<p> First, you need to decide whether to go up or down. When you see each picture, use the arrow keys to make your choice. </p>
            <p><b>You will not see which animal you found, but try to get to the one that will give you the most treasure.</b></p>","","instructions","","","","","","","","","","","","","",""
"revaluation","259","1287728","0.0-4.0-8.0-0.0","spark_pilot_2","7987","3","21","Female","","false","","","","","[1577.7000000476837]","./assets/img/ocean/test/0.jpg","[""ArrowDown""]","first stage test","ocean","0","{""ArrowUp,ArrowLeft"":23,""ArrowUp,ArrowRight"":10,""ArrowDown,ArrowLeft"":8,""ArrowDown,ArrowRight"":30}","true","ArrowDown","false","","","original","1","","","",""
"html-keyboard-response","260","1288231","0.0-4.0-8.0-1.0","spark_pilot_2","7987","3","21","Female","","","","","","","null","<div style=""font-size:60px;"">+</div>","null","fixation","","","","","","","","","","","","","",""
"revaluation","261","1289752","0.0-4.0-8.0-0.1","spark_pilot_2","7987","3","21","Female","","false","","","","","[1512]","./assets/img/ocean/test/2.jpg","[""ArrowDown""]","first stage test","ocean","0","{""ArrowUp,ArrowLeft"":23,""ArrowUp,ArrowRight"":10,""ArrowDown,ArrowLeft"":8,""ArrowDown,ArrowRight"":30}","true","ArrowDown","false","","","original","1","","","",""
"html-keyboard-response","262","1290263","0.0-4.0-8.0-1.1","spark_pilot_2","7987","3","21","Female","","","","","","","null","<div style=""font-size:60px;"">+</div>","null","fixation","","","","","","","","","","","","","",""
"revaluation","263","1291064","0.0-4.0-8.0-0.2","spark_pilot_2","7987","3","21","Female","","false","","","","","[798.8999998569489]","./assets/img/ocean/test/1.jpg","[""ArrowDown""]","first stage test","ocean","0","{""ArrowUp,ArrowLeft"":23,""ArrowUp,ArrowRight"":10,""ArrowDown,ArrowLeft"":8,""ArrowDown,ArrowRight"":30}","true","ArrowDown","false","","","original","1","","","",""
"html-keyboard-response","264","1291578","0.0-4.0-8.0-1.2","spark_pilot_2","7987","3","21","Female","","","","","","","null","<div style=""font-size:60px;"">+</div>","null","fixation","","","","","","","","","","","","","",""
"revaluation","265","1292336","0.0-4.0-8.0-0.3","spark_pilot_2","7987","3","21","Female","","false","","","","","[755.7000000476837]","./assets/img/ocean/test/3.jpg","[""ArrowDown""]","first stage test","ocean","0","{""ArrowUp,ArrowLeft"":23,""ArrowUp,ArrowRight"":10,""ArrowDown,ArrowLeft"":8,""ArrowDown,ArrowRight"":30}","true","ArrowDown","false","","","original","1","","","",""
"html-keyboard-response","266","1292851","0.0-4.0-8.0-1.3","spark_pilot_2","7987","3","21","Female","","","","","","","null","<div style=""font-size:60px;"">+</div>","null","fixation","","","","","","","","","","","","","",""
"learning-instructions","267","1306336","0.0-4.0-9.0-0.0","spark_pilot_2","7987","3","21","Female","","","","","","","2141.100000143051","<p> Now you will see the animals again and can search their chests for treasure. </p>
            <p> This time, you will not see how much treasure you earned, but you will earn more bonus money for making better choices. </p>","","instructions","","","","","","","","","","","","","",""
"revaluation","268","1308376","0.0-4.0-10.0-0.0","spark_pilot_2","7987","3","21","Female","","false","","","","","[2038.2999999523163]","./assets/img/ocean/animals/seahorse.jpg","[""ArrowRight""]","second stage test","ocean","0","{""ArrowUp,ArrowLeft"":23,""ArrowUp,ArrowRight"":10,""ArrowDown,ArrowLeft"":8,""ArrowDown,ArrowRight"":30}","false","ArrowUp,ArrowRight","","","","original","1","","","",""
"html-keyboard-response","269","1308880","0.0-4.0-10.0-1.0","spark_pilot_2","7987","3","21","Female","","","","","","","null","<div style=""font-size:60px;"">+</div>","null","fixation","","","","","","","","","","","","","",""
"revaluation","270","1309824","0.0-4.0-10.0-0.1","spark_pilot_2","7987","3","21","Female","","false","","","","","[942.2000000476837]","./assets/img/ocean/animals/seahorse.jpg","[""ArrowLeft""]","second stage test","ocean","0","{""ArrowUp,ArrowLeft"":23,""ArrowUp,ArrowRight"":10,""ArrowDown,ArrowLeft"":8,""ArrowDown,ArrowRight"":30}","true","ArrowUp,ArrowLeft","","","","original","1","","","",""
"html-keyboard-response","271","1310334","0.0-4.0-10.0-1.1","spark_pilot_2","7987","3","21","Female","","","","","","","null","<div style=""font-size:60px;"">+</div>","null","fixation","","","","","","","","","","","","","",""
"revaluation","272","1311128","0.0-4.0-10.0-0.2","spark_pilot_2","7987","3","21","Female","","false","","","","","[790.5]","./assets/img/ocean/animals/seahorse.jpg","[""ArrowLeft""]","second stage test","ocean","0","{""ArrowUp,ArrowLeft"":23,""ArrowUp,ArrowRight"":10,""ArrowDown,ArrowLeft"":8,""ArrowDown,ArrowRight"":30}","true","ArrowUp,ArrowLeft","","","","original","1","","","",""
"html-keyboard-response","273","1311634","0.0-4.0-10.0-1.2","spark_pilot_2","7987","3","21","Female","","","","","","","null","<div style=""font-size:60px;"">+</div>","null","fixation","","","","","","","","","","","","","",""
"revaluation","274","1312456","0.0-4.0-10.0-0.3","spark_pilot_2","7987","3","21","Female","","false","","","","","[820]","./assets/img/ocean/animals/seahorse.jpg","[""ArrowLeft""]","second stage test","ocean","0","{""ArrowUp,ArrowLeft"":23,""ArrowUp,ArrowRight"":10,""ArrowDown,ArrowLeft"":8,""ArrowDown,ArrowRight"":30}","true","ArrowUp,ArrowLeft","","","","original","1","","","",""
"html-keyboard-response","275","1312959","0.0-4.0-10.0-1.3","spark_pilot_2","7987","3","21","Female","","","","","","","null","<div style=""font-size:60px;"">+</div>","null","fixation","","","","","","","","","","","","","",""
"revaluation","276","1313896","0.0-4.0-10.0-0.4","spark_pilot_2","7987","3","21","Female","","false","","","","","[935]","./assets/img/ocean/animals/octopus.jpg","[""ArrowRight""]","second stage test","ocean","0","{""ArrowUp,ArrowLeft"":23,""ArrowUp,ArrowRight"":10,""ArrowDown,ArrowLeft"":8,""ArrowDown,ArrowRight"":30}","true","ArrowDown,ArrowRight","","","","original","1","","","",""
"html-keyboard-response","277","1314412","0.0-4.0-10.0-1.4","spark_pilot_2","7987","3","21","Female","","","","","","","null","<div style=""font-size:60px;"">+</div>","null","fixation","","","","","","","","","","","","","",""
"revaluation","278","1315184","0.0-4.0-10.0-0.5","spark_pilot_2","7987","3","21","Female","","false","","","","","[770.4000000953674]","./assets/img/ocean/animals/octopus.jpg","[""ArrowRight""]","second stage test","ocean","0","{""ArrowUp,ArrowLeft"":23,""ArrowUp,ArrowRight"":10,""ArrowDown,ArrowLeft"":8,""ArrowDown,ArrowRight"":30}","true","ArrowDown,ArrowRight","","","","original","1","","","",""
"html-keyboard-response","279","1315689","0.0-4.0-10.0-1.5","spark_pilot_2","7987","3","21","Female","","","","","","","null","<div style=""font-size:60px;"">+</div>","null","fixation","","","","","","","","","","","","","",""
"revaluation","280","1316336","0.0-4.0-10.0-0.6","spark_pilot_2","7987","3","21","Female","","false","","","","","[644.5]","./assets/img/ocean/animals/octopus.jpg","[""ArrowRight""]","second stage test","ocean","0","{""ArrowUp,ArrowLeft"":23,""ArrowUp,ArrowRight"":10,""ArrowDown,ArrowLeft"":8,""ArrowDown,ArrowRight"":30}","true","ArrowDown,ArrowRight","","","","original","1","","","",""
"html-keyboard-response","281","1316849","0.0-4.0-10.0-1.6","spark_pilot_2","7987","3","21","Female","","","","","","","null","<div style=""font-size:60px;"">+</div>","null","fixation","","","","","","","","","","","","","",""
"revaluation","282","1317408","0.0-4.0-10.0-0.7","spark_pilot_2","7987","3","21","Female","","false","","","","","[554.8000001907349]","./assets/img/ocean/animals/octopus.jpg","[""ArrowRight""]","second stage test","ocean","0","{""ArrowUp,ArrowLeft"":23,""ArrowUp,ArrowRight"":10,""ArrowDown,ArrowLeft"":8,""ArrowDown,ArrowRight"":30}","true","ArrowDown,ArrowRight","","","","original","1","","","",""
"html-keyboard-response","283","1317909","0.0-4.0-10.0-1.7","spark_pilot_2","7987","3","21","Female","","","","","","","null","<div style=""font-size:60px;"">+</div>","null","fixation","","","","","","","","","","","","","",""
"learning-instructions","284","1335211","0.0-4.0-0.1-0.2","spark_pilot_2","7987","3","21","Female","","","","","","","14531","<p> This time you are searching for treasure in the <b>canyon</b>.</p>","","instructions","","","","","","","","","","","","","",""
"learning-instructions","285","1354139","0.0-4.0-0.1-0.3","spark_pilot_2","7987","3","21","Female","","","","","","","1678.8000001907349","<p><b>New</b> animals with <b>new</b> treasure chests live here. You need to explore to discover where the animal with the best treasure chest is.</p>
                    <p> Like before, once you figure out which animal has the chest with the most treasure, you should try to get to that animal and select that chest! </p>","","instructions","","","","","","","","","","","","","",""
"learning-instructions","286","1370747","0.0-4.0-1.1-0.1","spark_pilot_2","7987","3","21","Female","","","","","","","1877","<p> Remember, when you see a picture of the place, use the up and down keys to <b>find an animal</b>.</p>
            <p> When you encounter an animal, you should use the left and right keys to <b>select a treasure chest</b>.</p>
            <p> Don't forget to look out for the robber! </p>","","instructions","","","","","","","","","","","","","",""
"revaluation","287","1376774","0.0-4.0-2.1-0.50","spark_pilot_2","7987","3","21","Female","","false","","","","","[1190.2000000476837,651.5]","./assets/img/canyon/memory/5.jpg","[""ArrowUp"",""ArrowRight""]","value training","canyon","10","{""ArrowUp,ArrowLeft"":26,""ArrowUp,ArrowRight"":10,""ArrowDown,ArrowLeft"":5,""ArrowDown,ArrowRight"":17}","false","ArrowUp,ArrowRight","false","","","revaluation","2","0","","",""
"html-keyboard-response","288","1377277","0.0-4.0-2.1-1.50","spark_pilot_2","7987","3","21","Female","","","","","","","null","<div style=""font-size:60px;"">+</div>","null","fixation","","","","","","","","","","","1","","",""
"revaluation","289","1383307","0.0-4.0-2.1-0.51","spark_pilot_2","7987","3","21","Female","","false","","","","","[772.2000000476837,556.7000000476837]","./assets/img/canyon/memory/29.jpg","[""ArrowUp"",""ArrowLeft""]","value training","canyon","26","{""ArrowUp,ArrowLeft"":26,""ArrowUp,ArrowRight"":10,""ArrowDown,ArrowLeft"":5,""ArrowDown,ArrowRight"":17}","true","ArrowUp,ArrowLeft","false","","","revaluation","2","2","","",""
"html-keyboard-response","290","1383819","0.0-4.0-2.1-1.51","spark_pilot_2","7987","3","21","Female","","","","","","","null","<div style=""font-size:60px;"">+</div>","null","fixation","","","","","","","","","","","3","","",""
"revaluation","291","1387858","0.0-4.0-2.1-0.52","spark_pilot_2","7987","3","21","Female","","false","","","","","[990.0999999046326]","./assets/img/canyon/catch/2.jpg","[""ArrowDown""]","value training","canyon","-10","{""ArrowUp,ArrowLeft"":26,""ArrowUp,ArrowRight"":10,""ArrowDown,ArrowLeft"":5,""ArrowDown,ArrowRight"":17}","false","ArrowDown","true","","","revaluation","2","4","","",""
"html-keyboard-response","292","1388359","0.0-4.0-2.1-1.52","spark_pilot_2","7987","3","21","Female","","","","","","","null","<div style=""font-size:60px;"">+</div>","null","fixation","","","","","","","","","","","5","","",""
"revaluation","293","1392379","0.0-4.0-2.1-0.53","spark_pilot_2","7987","3","21","Female","","false","","","","","[682]","./assets/img/canyon/catch/4.jpg","[""spaceBar""]","value training","canyon","0","{""ArrowUp,ArrowLeft"":26,""ArrowUp,ArrowRight"":10,""ArrowDown,ArrowLeft"":5,""ArrowDown,ArrowRight"":17}","true","spaceBar","true","","","revaluation","2","6","","",""
"html-keyboard-response","294","1392899","0.0-4.0-2.1-1.53","spark_pilot_2","7987","3","21","Female","","","","","","","null","<div style=""font-size:60px;"">+</div>","null","fixation","","","","","","","","","","","7","","",""
"revaluation","295","1398935","0.0-4.0-2.1-0.54","spark_pilot_2","7987","3","21","Female","","false","","","","","[958.0999999046326,1082.5]","./assets/img/canyon/memory/15.jpg","[""ArrowDown"",""ArrowRight""]","value training","canyon","17","{""ArrowUp,ArrowLeft"":26,""ArrowUp,ArrowRight"":10,""ArrowDown,ArrowLeft"":5,""ArrowDown,ArrowRight"":17}","false","ArrowDown,ArrowRight","false","","","revaluation","2","8","","",""
"html-keyboard-response","296","1399436","0.0-4.0-2.1-1.54","spark_pilot_2","7987","3","21","Female","","","","","","","null","<div style=""font-size:60px;"">+</div>","null","fixation","","","","","","","","","","","9","","",""
"revaluation","297","1405441","0.0-4.0-2.1-0.55","spark_pilot_2","7987","3","21","Female","","false","","","","","[761.7999999523163,567.7000000476837]","./assets/img/canyon/memory/13.jpg","[""ArrowDown"",""ArrowLeft""]","value training","canyon","5","{""ArrowUp,ArrowLeft"":26,""ArrowUp,ArrowRight"":10,""ArrowDown,ArrowLeft"":5,""ArrowDown,ArrowRight"":17}","false","ArrowDown,ArrowLeft","false","","","revaluation","2","10","","",""
"html-keyboard-response","298","1405943","0.0-4.0-2.1-1.55","spark_pilot_2","7987","3","21","Female","","","","","","","null","<div style=""font-size:60px;"">+</div>","null","fixation","","","","","","","","","","","11","","",""
"revaluation","299","1411947","0.0-4.0-2.1-0.56","spark_pilot_2","7987","3","21","Female","","false","","","","","[943.8999998569489,654.2999999523163]","./assets/img/canyon/memory/3.jpg","[""ArrowUp"",""ArrowLeft""]","value training","canyon","26","{""ArrowUp,ArrowLeft"":26,""ArrowUp,ArrowRight"":10,""ArrowDown,ArrowLeft"":5,""ArrowDown,ArrowRight"":17}","true","ArrowUp,ArrowLeft","false","","","revaluation","2","12","","",""
"html-keyboard-response","300","1412448","0.0-4.0-2.1-1.56","spark_pilot_2","7987","3","21","Female","","","","","","","null","<div style=""font-size:60px;"">+</div>","null","fixation","","","","","","","","","","","13","","",""
"revaluation","301","1418467","0.0-4.0-2.1-0.57","spark_pilot_2","7987","3","21","Female","","false","","","","","[725.8000001907349,452.59999990463257]","./assets/img/canyon/memory/19.jpg","[""ArrowUp"",""ArrowLeft""]","value training","canyon","26","{""ArrowUp,ArrowLeft"":26,""ArrowUp,ArrowRight"":10,""ArrowDown,ArrowLeft"":5,""ArrowDown,ArrowRight"":17}","true","ArrowUp,ArrowLeft","false","","","revaluation","2","14","","",""
"html-keyboard-response","302","1418968","0.0-4.0-2.1-1.57","spark_pilot_2","7987","3","21","Female","","","","","","","null","<div style=""font-size:60px;"">+</div>","null","fixation","","","","","","","","","","","15","","",""
"revaluation","303","1424981","0.0-4.0-2.1-0.58","spark_pilot_2","7987","3","21","Female","","false","","","","","[926.4000000953674,412.69999980926514]","./assets/img/canyon/memory/11.jpg","[""ArrowUp"",""ArrowLeft""]","value training","canyon","26","{""ArrowUp,ArrowLeft"":26,""ArrowUp,ArrowRight"":10,""ArrowDown,ArrowLeft"":5,""ArrowDown,ArrowRight"":17}","true","ArrowUp,ArrowLeft","false","","","revaluation","2","16","","",""
"html-keyboard-response","304","1425484","0.0-4.0-2.1-1.58","spark_pilot_2","7987","3","21","Female","","","","","","","null","<div style=""font-size:60px;"">+</div>","null","fixation","","","","","","","","","","","17","","",""
"revaluation","305","1431491","0.0-4.0-2.1-0.59","spark_pilot_2","7987","3","21","Female","","false","","","","","[691,712.6999998092651]","./assets/img/canyon/memory/41.jpg","[""ArrowUp"",""ArrowLeft""]","value training","canyon","26","{""ArrowUp,ArrowLeft"":26,""ArrowUp,ArrowRight"":10,""ArrowDown,ArrowLeft"":5,""ArrowDown,ArrowRight"":17}","true","ArrowUp,ArrowLeft","false","","","revaluation","2","18","","",""
"html-keyboard-response","306","1431992","0.0-4.0-2.1-1.59","spark_pilot_2","7987","3","21","Female","","","","","","","null","<div style=""font-size:60px;"">+</div>","null","fixation","","","","","","","","","","","19","","",""
