"trial_type","trial_index","time_elapsed","internal_node_id","task_version","subject_id","assigned_condition","age","gender","success","timeout","failed_images","failed_audio","failed_video","browser_interaction","rt","stimulus","response","task_part","environment","score","rewardMap","correct","fullState","isCatch","numberMissed","duration","condition","order","trial_num","key_press","ground_truth","bonus"
"pavlovia","0","1289","0.0-0.0","spark_pilot_2","7476","1","20","Female","","","","","","","","","","","","","","","","","","","","","","","",""
"preload","1","15023","0.0-1.0","spark_pilot_2","7476","1","20","Female","true","false","[]","[]","[]","[{""event"":""fullscreenenter"",""trial"":2,""time"":20468}]","","","","","","","","","","","","","","","","","",""
"fullscreen","2","21452","0.0-2.0","spark_pilot_2","7476","1","20","Female","true","","","","","","","","","","","","","","","","","","","","","","",""
"audio-button-response","3","22664","0.0-3.0-0.0-0.0","spark_pilot_2","7476","1","20","Female","","","","","","","1184","./assets/audio/audiotest/turtle.mp3","2","audio_test","","","","","","","","","","","","","",""
"learning-instructions","4","32395","0.0-3.0-1.0-0.0","spark_pilot_2","7476","1","20","Female","","","","","","","2728.699999809265","<p> Welcome! Please remember to stay in fullscreen mode and don't click away from the experiment. </p>","","instructions","","","","","","","","","","","","","",""
"learning-instructions","5","42133","0.0-3.0-1.0-0.1","spark_pilot_2","7476","1","20","Female","","","","","","","1320.0999999046326","<p> Today you will be playing a game to earn treasure. </p>
            <p> At the end of the experiment, you will earn a bonus based on how much treasure you find. </p>
            <img src='./assets/img/instructions/treasure.jpg' class='instructions-image'>","","instructions","","","","","","","","","","","","","",""
"learning-instructions","6","51374","0.0-3.0-1.0-0.2","spark_pilot_2","7476","1","20","Female","","","","","","","971.9000000953674","<p> Animals have hidden treasure in treasure chests. </p>
            <p> You need to first find an animal and then choose which of their treasure chests to search. </p>
            <img src='./assets/img/space/animals/cat.jpg' class='instructions-image'>","","instructions","","","","","","","","","","","","","",""
"learning-instructions","7","135680","0.0-3.0-1.0-0.3","spark_pilot_2","7476","1","20","Female","","","","","","","71125.90000009537","<p> In each round, you will search for treasure in a different place. In the real game, there will be two rounds. </p>
            <p> You will begin with a separate, practice round where you will search for treasure in outer space. </p>
            <img src='./assets/img/space/0.jpg' class='instructions-image'>","","instructions","","","","","","","","","","","","","",""
"learning-instructions","8","147966","0.0-3.0-1.0-0.4","spark_pilot_2","7476","1","20","Female","","","","","","","814.3000001907349","<p> On every turn, you will see a picture of the place that you are in, but the specific image may be different each time. </p>
            <p> For example, both of these images mean you are in outer space. </p>
            <img src='./assets/img/instructions/outerspace.jpg' class='instructions-image'>","","instructions","","","","","","","","","","","","","",""
"learning-instructions","9","156514","0.0-3.0-1.0-0.5","spark_pilot_2","7476","1","20","Female","","","","","","","717.5","<p> You need to decide which direction to travel in. </p>
            <p> You can choose between going <b>up or down</b> by using the arrow keys. </p>
            <img src='./assets/img/instructions/updown.jpg' class='instructions-image'>","","instructions","","","","","","","","","","","","","",""
"learning-instructions","10","166178","0.0-3.0-1.0-0.6","spark_pilot_2","7476","1","20","Female","","","","","","","848.5999999046326","<p> You will have <b>2 seconds</b> to make your choice. </p>
            <p> If you do not make a choice within 2 seconds, you will not find an animal or earn treasure. </p>
            <img src='./assets/img/instructions/2seconds.jpg' class='instructions-image'>","","instructions","","","","","","","","","","","","","",""
"learning-instructions","11","174252","0.0-3.0-1.0-0.7","spark_pilot_2","7476","1","20","Female","","","","","","","1030.9000000953674","<p> Let’s try practicing that now! </p>
            <p> When you see a picture of the place you are in, press the <b>up</b> key to travel up. </p>
            <img src='./assets/img/instructions/pressUp.jpg' class='instructions-image'>","","instructions","","","","","","","","","","","","","",""
"revaluation","12","178289","0.0-3.0-2.0-0.0","spark_pilot_2","7476","1","20","Female","","false","","","","","[974.0999999046326]","./assets/img/space/0.jpg","[""ArrowUp""]","first stage practice","space","0","null","null","ArrowUp","false","","","","","","","",""
"html-keyboard-response","13","178793","0.0-3.0-2.0-1.0","spark_pilot_2","7476","1","20","Female","","","","","","","null","<div style=""font-size:60px;"">+</div>","null","fixation","","","","","","","","","","","","","",""
"revaluation","14","182809","0.0-3.0-2.0-0.1","spark_pilot_2","7476","1","20","Female","","false","","","","","[1314.1999998092651]","./assets/img/space/1.jpg","[""ArrowUp""]","first stage practice","space","0","null","null","ArrowUp","false","","","","","","","",""
"html-keyboard-response","15","183312","0.0-3.0-2.0-1.1","spark_pilot_2","7476","1","20","Female","","","","","","","null","<div style=""font-size:60px;"">+</div>","null","fixation","","","","","","","","","","","","","",""
"revaluation","16","187327","0.0-3.0-2.0-0.2","spark_pilot_2","7476","1","20","Female","","false","","","","","[468.09999990463257]","./assets/img/space/2.jpg","[""ArrowUp""]","first stage practice","space","0","null","null","ArrowUp","false","","","","","","","",""
"html-keyboard-response","17","187831","0.0-3.0-2.0-1.2","spark_pilot_2","7476","1","20","Female","","","","","","","null","<div style=""font-size:60px;"">+</div>","null","fixation","","","","","","","","","","","","","",""
"learning-instructions","18","193822","0.0-3.0-3.0-0.0","spark_pilot_2","7476","1","20","Female","","","","","","","1278.2999997138977","<p> Great job! Now try pressing the <b>down</b> key to travel down. </p>
            <img src='./assets/img/instructions/pressDown.jpg' class='instructions-image'>","","instructions","","","","","","","","","","","","","",""
"revaluation","19","197842","0.0-3.0-4.0-0.0","spark_pilot_2","7476","1","20","Female","","false","","","","","[597.5]","./assets/img/space/3.jpg","[""ArrowDown""]","first stage practice","space","0","null","null","ArrowDown","false","","","","","","","",""
"html-keyboard-response","20","198345","0.0-3.0-4.0-1.0","spark_pilot_2","7476","1","20","Female","","","","","","","null","<div style=""font-size:60px;"">+</div>","null","fixation","","","","","","","","","","","","","",""
"revaluation","21","202362","0.0-3.0-4.0-0.1","spark_pilot_2","7476","1","20","Female","","false","","","","","[528.6000003814697]","./assets/img/space/4.jpg","[""ArrowDown""]","first stage practice","space","0","null","null","ArrowDown","false","","","","","","","",""
"html-keyboard-response","22","202865","0.0-3.0-4.0-1.1","spark_pilot_2","7476","1","20","Female","","","","","","","null","<div style=""font-size:60px;"">+</div>","null","fixation","","","","","","","","","","","","","",""
"revaluation","23","206884","0.0-3.0-4.0-0.2","spark_pilot_2","7476","1","20","Female","","false","","","","","[828.6999998092651]","./assets/img/space/5.jpg","[""ArrowDown""]","first stage practice","space","0","null","null","ArrowDown","false","","","","","","","",""
"html-keyboard-response","24","207392","0.0-3.0-4.0-1.2","spark_pilot_2","7476","1","20","Female","","","","","","","null","<div style=""font-size:60px;"">+</div>","null","fixation","","","","","","","","","","","","","",""
"learning-instructions","25","220427","0.0-3.0-5.0-0.0","spark_pilot_2","7476","1","20","Female","","","","","","","3163.9000000953674","<p> The animals don’t move, so the animal in the upper part of a place will stay in the upper part of a place, and the animal in the lower part of a place will stay in the lower part of a place. </p>","","instructions","","","","","","","","","","","","","",""
"learning-instructions","26","230445","0.0-3.0-5.0-0.1","spark_pilot_2","7476","1","20","Female","","","","","","","877.3999996185303","<p> Each animal has two treasure chests for you to choose from. </p>
            <p> The amount of treasure in each chest can range from <b> 0 to 40 pieces.</b></p>","","instructions","","","","","","","","","","","","","",""
"learning-instructions","27","242273","0.0-3.0-5.0-0.2","spark_pilot_2","7476","1","20","Female","","","","","","","636.5999999046326","<p> You should decide which chest to search for treasure by using the <b>left</b> and <b>right</b> arrow keys. </p>
            <p><b> Pay attention to which animal is on the screen, as the animals have different treasure chests. </b></p>
            <img src='./assets/img/instructions/leftright.jpg' class='instructions-image'>","","instructions","","","","","","","","","","","","","",""
"learning-instructions","28","249266","0.0-3.0-5.0-0.3","spark_pilot_2","7476","1","20","Female","","","","","","","626.8000001907349","<p> Let’s try practicing that now. </p>
            <p> When you see an animal, choose which chest to search for treasure. </p>
            <img src='./assets/img/instructions/chooseChest.jpg' class='instructions-image'>","","instructions","","","","","","","","","","","","","",""
"revaluation","29","253282","0.0-3.0-6.0-0.0","spark_pilot_2","7476","1","20","Female","","false","","","","","[699]","./assets/img/space/animals/cat.jpg","[""ArrowLeft""]","second stage practice","space","3","{""ArrowUp,ArrowLeft"":3,""ArrowUp,ArrowRight"":36,""ArrowDown,ArrowLeft"":15,""ArrowDown,ArrowRight"":23}","false","ArrowUp,ArrowLeft","","","","","","","","",""
"html-keyboard-response","30","253788","0.0-3.0-6.0-1.0","spark_pilot_2","7476","1","20","Female","","","","","","","null","<div style=""font-size:60px;"">+</div>","null","fixation","","","","","","","","","","","","","",""
"revaluation","31","257807","0.0-3.0-6.0-0.1","spark_pilot_2","7476","1","20","Female","","false","","","","","[440]","./assets/img/space/animals/cat.jpg","[""ArrowRight""]","second stage practice","space","36","{""ArrowUp,ArrowLeft"":3,""ArrowUp,ArrowRight"":36,""ArrowDown,ArrowLeft"":15,""ArrowDown,ArrowRight"":23}","true","ArrowUp,ArrowRight","","","","","","","","",""
"html-keyboard-response","32","258314","0.0-3.0-6.0-1.1","spark_pilot_2","7476","1","20","Female","","","","","","","null","<div style=""font-size:60px;"">+</div>","null","fixation","","","","","","","","","","","","","",""
"revaluation","33","262332","0.0-3.0-6.0-0.2","spark_pilot_2","7476","1","20","Female","","false","","","","","[1005.5]","./assets/img/space/animals/rabbit.jpg","[""ArrowRight""]","second stage practice","space","23","{""ArrowUp,ArrowLeft"":3,""ArrowUp,ArrowRight"":36,""ArrowDown,ArrowLeft"":15,""ArrowDown,ArrowRight"":23}","true","ArrowDown,ArrowRight","","","","","","","","",""
"html-keyboard-response","34","262835","0.0-3.0-6.0-1.2","spark_pilot_2","7476","1","20","Female","","","","","","","null","<div style=""font-size:60px;"">+</div>","null","fixation","","","","","","","","","","","","","",""
"revaluation","35","266852","0.0-3.0-6.0-0.3","spark_pilot_2","7476","1","20","Female","","false","","","","","[389.59999990463257]","./assets/img/space/animals/rabbit.jpg","[""ArrowLeft""]","second stage practice","space","15","{""ArrowUp,ArrowLeft"":3,""ArrowUp,ArrowRight"":36,""ArrowDown,ArrowLeft"":15,""ArrowDown,ArrowRight"":23}","false","ArrowDown,ArrowLeft","","","","","","","","",""
"html-keyboard-response","36","267358","0.0-3.0-6.0-1.3","spark_pilot_2","7476","1","20","Female","","","","","","","null","<div style=""font-size:60px;"">+</div>","null","fixation","","","","","","","","","","","","","",""
"learning-instructions","37","285461","0.0-3.0-7.0-0.0","spark_pilot_2","7476","1","20","Female","","","","","","","1276","<p> Great job. Now let’s try putting it together. </p>
            <p> On each turn, you will first see a picture to remind you of the place you are in, and you need to choose whether to go up or down. </p>
            <p> Then you will see an animal and choose which of its chests to search for treasure. </p>","","instructions","","","","","","","","","","","","","",""
"learning-instructions","38","294251","0.0-3.0-7.0-0.1","spark_pilot_2","7476","1","20","Female","","","","","","","524.4000000953674","<p> When you choose whether to go up or down, try to go to the animal with the chest with the most treasure. </p>
            <p> Try practicing that now! </p>","","instructions","","","","","","","","","","","","","",""
"revaluation","39","300276","0.0-3.0-8.0-0.0","spark_pilot_2","7476","1","20","Female","","false","","","","","[799.3000001907349,912.5]","./assets/img/space/6.jpg","[""ArrowUp"",""ArrowRight""]","full practice","space","36","{""ArrowUp,ArrowLeft"":3,""ArrowUp,ArrowRight"":36,""ArrowDown,ArrowLeft"":15,""ArrowDown,ArrowRight"":23}","true","ArrowUp,ArrowRight","false","","","","","","","",""
"html-keyboard-response","40","300782","0.0-3.0-8.0-1.0","spark_pilot_2","7476","1","20","Female","","","","","","","null","<div style=""font-size:60px;"">+</div>","null","fixation","","","","","","","","","","","","","",""
"revaluation","41","306804","0.0-3.0-8.0-0.1","spark_pilot_2","7476","1","20","Female","","false","","","","","[412.69999980926514,462.8999996185303]","./assets/img/space/7.jpg","[""ArrowUp"",""ArrowRight""]","full practice","space","36","{""ArrowUp,ArrowLeft"":3,""ArrowUp,ArrowRight"":36,""ArrowDown,ArrowLeft"":15,""ArrowDown,ArrowRight"":23}","true","ArrowUp,ArrowRight","false","","","","","","","",""
"html-keyboard-response","42","307310","0.0-3.0-8.0-1.1","spark_pilot_2","7476","1","20","Female","","","","","","","null","<div style=""font-size:60px;"">+</div>","null","fixation","","","","","","","","","","","","","",""
"revaluation","43","313332","0.0-3.0-8.0-0.2","spark_pilot_2","7476","1","20","Female","","false","","","","","[635.7999997138977,413]","./assets/img/space/8.jpg","[""ArrowUp"",""ArrowRight""]","full practice","space","36","{""ArrowUp,ArrowLeft"":3,""ArrowUp,ArrowRight"":36,""ArrowDown,ArrowLeft"":15,""ArrowDown,ArrowRight"":23}","true","ArrowUp,ArrowRight","false","","","","","","","",""
"html-keyboard-response","44","313848","0.0-3.0-8.0-1.2","spark_pilot_2","7476","1","20","Female","","","","","","","null","<div style=""font-size:60px;"">+</div>","null","fixation","","","","","","","","","","","","","",""
"revaluation","45","319877","0.0-3.0-8.0-0.3","spark_pilot_2","7476","1","20","Female","","false","","","","","[747.5,361.2000002861023]","./assets/img/space/9.jpg","[""ArrowUp"",""ArrowRight""]","full practice","space","36","{""ArrowUp,ArrowLeft"":3,""ArrowUp,ArrowRight"":36,""ArrowDown,ArrowLeft"":15,""ArrowDown,ArrowRight"":23}","true","ArrowUp,ArrowRight","false","","","","","","","",""
"html-keyboard-response","46","320380","0.0-3.0-8.0-1.3","spark_pilot_2","7476","1","20","Female","","","","","","","null","<div style=""font-size:60px;"">+</div>","null","fixation","","","","","","","","","","","","","",""
"revaluation","47","326407","0.0-3.0-8.0-0.4","spark_pilot_2","7476","1","20","Female","","false","","","","","[483.69999980926514,621.0999999046326]","./assets/img/space/10.jpg","[""ArrowUp"",""ArrowRight""]","full practice","space","36","{""ArrowUp,ArrowLeft"":3,""ArrowUp,ArrowRight"":36,""ArrowDown,ArrowLeft"":15,""ArrowDown,ArrowRight"":23}","true","ArrowUp,ArrowRight","false","","","","","","","",""
"html-keyboard-response","48","326916","0.0-3.0-8.0-1.4","spark_pilot_2","7476","1","20","Female","","","","","","","null","<div style=""font-size:60px;"">+</div>","null","fixation","","","","","","","","","","","","","",""
"learning-instructions","49","340084","0.0-3.0-9.0-0.0","spark_pilot_2","7476","1","20","Female","","","","","","","1436.5","<p> One last thing: sometimes, you will see a robber. The robber can be anywhere in the picture. </p>
            <p> If you do not stop them, you will lose treasure. </p>
            <img src='./assets/img/instructions/robber.jpg' class='instructions-image'>","","instructions","","","","","","","","","","","","","",""
"learning-instructions","50","349268","0.0-3.0-9.0-0.1","spark_pilot_2","7476","1","20","Female","","","","","","","2013.0999999046326","<p> If you see the robber, you should <b>press the space bar</b> rather than using the arrow keys. </p>
            <p> Try practicing that now! </p>","","instructions","","","","","","","","","","","","","",""
"revaluation","51","353285","0.0-3.0-10.0-0.0","spark_pilot_2","7476","1","20","Female","","false","","","","","[910.4000000953674]","./assets/img/space/catch/0.jpg","[""spaceBar""]","catch practice","space","0","{""ArrowUp,ArrowLeft"":3,""ArrowUp,ArrowRight"":36,""ArrowDown,ArrowLeft"":15,""ArrowDown,ArrowRight"":23}","true","spaceBar","true","","","","","","","",""
"html-keyboard-response","52","353789","0.0-3.0-10.0-1.0","spark_pilot_2","7476","1","20","Female","","","","","","","null","<div style=""font-size:60px;"">+</div>","null","fixation","","","","","","","","","","","","","",""
"revaluation","53","357807","0.0-3.0-10.0-0.1","spark_pilot_2","7476","1","20","Female","","false","","","","","[708.8000001907349]","./assets/img/space/catch/1.jpg","[""spaceBar""]","catch practice","space","0","{""ArrowUp,ArrowLeft"":3,""ArrowUp,ArrowRight"":36,""ArrowDown,ArrowLeft"":15,""ArrowDown,ArrowRight"":23}","true","spaceBar","true","","","","","","","",""
"html-keyboard-response","54","358309","0.0-3.0-10.0-1.1","spark_pilot_2","7476","1","20","Female","","","","","","","null","<div style=""font-size:60px;"">+</div>","null","fixation","","","","","","","","","","","","","",""
"revaluation","55","362330","0.0-3.0-10.0-0.2","spark_pilot_2","7476","1","20","Female","","false","","","","","[643.5]","./assets/img/space/catch/2.jpg","[""spaceBar""]","catch practice","space","0","{""ArrowUp,ArrowLeft"":3,""ArrowUp,ArrowRight"":36,""ArrowDown,ArrowLeft"":15,""ArrowDown,ArrowRight"":23}","true","spaceBar","true","","","","","","","",""
"html-keyboard-response","56","362839","0.0-3.0-10.0-1.2","spark_pilot_2","7476","1","20","Female","","","","","","","null","<div style=""font-size:60px;"">+</div>","null","fixation","","","","","","","","","","","","","",""
"learning-instructions","57","379087","0.0-3.0-11.0-0.0","spark_pilot_2","7476","1","20","Female","","","","","","","1564.7999997138977","<p> After you explore a place to find treasure, it will be time to play a different game. </p>
            <p> During this game, red dots will appear on the screen and fall down slowly. </p>
            <p><b> You must click on them before they reach the bottom. </b></p>
            <img src='./assets/img/instructions/dotGame.jpg' class='instructions-image'>","","instructions","","","","","","","","","","","","","",""
"learning-instructions","58","385373","0.0-3.0-11.0-0.1","spark_pilot_2","7476","1","20","Female","","","","","","","609.3000001907349","<p> For every dot you click, you will earn additional treasure. </p>
            <p> Let’s try practicing that now. </p>","","instructions","","","","","","","","","","","","","",""
"revaluation","59","400385","0.0-3.0-12.0-0.0","spark_pilot_2","7476","1","20","Female","","","","","","","[101]","","","rest practice","","10","","","","","0","15000","","","","","",""
"learning-instructions","60","431152","0.0-3.0-13.0-0.0-0.0","spark_pilot_2","7476","1","20","Female","","","","","","","25506.900000095367","<p> Now, you will practice a shortened version of the game to get a sense of how it all fits together. </p>","","instructions","","","","","","","","","","","","","",""
"learning-instructions","61","438647","0.0-3.0-13.0-0.0-0.1","spark_pilot_2","7476","1","20","Female","","","","","","","4288.900000095367","<p>This time you are searching for treasure in outer space.</p>","","instructions","","","","","","","","","","","","","",""
"learning-instructions","62","459061","0.0-3.0-13.0-1.0-0.0","spark_pilot_2","7476","1","20","Female","","","","","","","4553","<p> Remember, when you see a picture of the place, use the up and down keys to <b>find an animal</b>.</p>
            <p> When you encounter an animal, you should use the left and right keys to <b>select a treasure chest</b>.</p>
            <p> Don't forget to look out for the robber! </p>","","instructions","","","","","","","","","","","","","",""
"revaluation","63","465089","0.0-3.0-13.0-2.0-0.0","spark_pilot_2","7476","1","20","Female","","false","","","","","[1268,818.7000002861023]","./assets/img/space/11.jpg","[""ArrowUp"",""ArrowRight""]","practice block","space","36","{""ArrowUp,ArrowLeft"":3,""ArrowUp,ArrowRight"":36,""ArrowDown,ArrowLeft"":15,""ArrowDown,ArrowRight"":23}","true","ArrowUp,ArrowRight","false","","","","","","","",""
"html-keyboard-response","64","465595","0.0-3.0-13.0-2.0-1.0","spark_pilot_2","7476","1","20","Female","","","","","","","null","<div style=""font-size:60px;"">+</div>","null","fixation","","","","","","","","","","","","","",""
"revaluation","65","471621","0.0-3.0-13.0-2.0-0.1","spark_pilot_2","7476","1","20","Female","","false","","","","","[726,734.2999997138977]","./assets/img/space/12.jpg","[""ArrowUp"",""ArrowRight""]","practice block","space","36","{""ArrowUp,ArrowLeft"":3,""ArrowUp,ArrowRight"":36,""ArrowDown,ArrowLeft"":15,""ArrowDown,ArrowRight"":23}","true","ArrowUp,ArrowRight","false","","","","","","","",""
"html-keyboard-response","66","472129","0.0-3.0-13.0-2.0-1.1","spark_pilot_2","7476","1","20","Female","","","","","","","null","<div style=""font-size:60px;"">+</div>","null","fixation","","","","","","","","","","","","","",""
"revaluation","67","478156","0.0-3.0-13.0-2.0-0.2","spark_pilot_2","7476","1","20","Female","","false","","","","","[714.5,709.5]","./assets/img/space/13.jpg","[""ArrowUp"",""ArrowRight""]","practice block","space","36","{""ArrowUp,ArrowLeft"":3,""ArrowUp,ArrowRight"":36,""ArrowDown,ArrowLeft"":15,""ArrowDown,ArrowRight"":23}","true","ArrowUp,ArrowRight","false","","","","","","","",""
"html-keyboard-response","68","478661","0.0-3.0-13.0-2.0-1.2","spark_pilot_2","7476","1","20","Female","","","","","","","null","<div style=""font-size:60px;"">+</div>","null","fixation","","","","","","","","","","","","","",""
"revaluation","69","484689","0.0-3.0-13.0-2.0-0.3","spark_pilot_2","7476","1","20","Female","","false","","","","","[596.5,572.7000002861023]","./assets/img/space/14.jpg","[""ArrowUp"",""ArrowRight""]","practice block","space","36","{""ArrowUp,ArrowLeft"":3,""ArrowUp,ArrowRight"":36,""ArrowDown,ArrowLeft"":15,""ArrowDown,ArrowRight"":23}","true","ArrowUp,ArrowRight","false","","","","","","","",""
"html-keyboard-response","70","485195","0.0-3.0-13.0-2.0-1.3","spark_pilot_2","7476","1","20","Female","","","","","","","null","<div style=""font-size:60px;"">+</div>","null","fixation","","","","","","","","","","","","","",""
"revaluation","71","491221","0.0-3.0-13.0-2.0-0.4","spark_pilot_2","7476","1","20","Female","","false","","","","","[968.5,628.5]","./assets/img/space/11.jpg","[""ArrowUp"",""ArrowRight""]","practice block","space","36","{""ArrowUp,ArrowLeft"":3,""ArrowUp,ArrowRight"":36,""ArrowDown,ArrowLeft"":15,""ArrowDown,ArrowRight"":23}","true","ArrowUp,ArrowRight","false","","","","","","","",""
"html-keyboard-response","72","491727","0.0-3.0-13.0-2.0-1.4","spark_pilot_2","7476","1","20","Female","","","","","","","null","<div style=""font-size:60px;"">+</div>","null","fixation","","","","","","","","","","","","","",""
"revaluation","73","497751","0.0-3.0-13.0-2.0-0.5","spark_pilot_2","7476","1","20","Female","","false","","","","","[830.5999999046326,468.5]","./assets/img/space/12.jpg","[""ArrowUp"",""ArrowRight""]","practice block","space","36","{""ArrowUp,ArrowLeft"":3,""ArrowUp,ArrowRight"":36,""ArrowDown,ArrowLeft"":15,""ArrowDown,ArrowRight"":23}","true","ArrowUp,ArrowRight","false","","","","","","","",""
"html-keyboard-response","74","498257","0.0-3.0-13.0-2.0-1.5","spark_pilot_2","7476","1","20","Female","","","","","","","null","<div style=""font-size:60px;"">+</div>","null","fixation","","","","","","","","","","","","","",""
"revaluation","75","504282","0.0-3.0-13.0-2.0-0.6","spark_pilot_2","7476","1","20","Female","","false","","","","","[686.9000000953674,537]","./assets/img/space/13.jpg","[""ArrowUp"",""ArrowRight""]","practice block","space","36","{""ArrowUp,ArrowLeft"":3,""ArrowUp,ArrowRight"":36,""ArrowDown,ArrowLeft"":15,""ArrowDown,ArrowRight"":23}","true","ArrowUp,ArrowRight","false","","","","","","","",""
"html-keyboard-response","76","504787","0.0-3.0-13.0-2.0-1.6","spark_pilot_2","7476","1","20","Female","","","","","","","null","<div style=""font-size:60px;"">+</div>","null","fixation","","","","","","","","","","","","","",""
"revaluation","77","510809","0.0-3.0-13.0-2.0-0.7","spark_pilot_2","7476","1","20","Female","","false","","","","","[967.6999998092651,448.2999997138977]","./assets/img/space/14.jpg","[""ArrowUp"",""ArrowRight""]","practice block","space","36","{""ArrowUp,ArrowLeft"":3,""ArrowUp,ArrowRight"":36,""ArrowDown,ArrowLeft"":15,""ArrowDown,ArrowRight"":23}","true","ArrowUp,ArrowRight","false","","","","","","","",""
"html-keyboard-response","78","511316","0.0-3.0-13.0-2.0-1.7","spark_pilot_2","7476","1","20","Female","","","","","","","null","<div style=""font-size:60px;"">+</div>","null","fixation","","","","","","","","","","","","","",""
"revaluation","79","515332","0.0-3.0-13.0-2.0-0.8","spark_pilot_2","7476","1","20","Female","","false","","","","","[783]","./assets/img/space/catch/3.jpg","[""spaceBar""]","practice block","space","0","{""ArrowUp,ArrowLeft"":3,""ArrowUp,ArrowRight"":36,""ArrowDown,ArrowLeft"":15,""ArrowDown,ArrowRight"":23}","true","spaceBar","true","","","","","","","",""
"html-keyboard-response","80","515844","0.0-3.0-13.0-2.0-1.8","spark_pilot_2","7476","1","20","Female","","","","","","","null","<div style=""font-size:60px;"">+</div>","null","fixation","","","","","","","","","","","","","",""
"learning-instructions","81","531156","0.0-3.0-13.0-3.0-0.0","spark_pilot_2","7476","1","20","Female","","","","","","","1120.7000002861023","<p> Now, you will travel with a friend who will choose whether you go up or down first. </p>
            <p> On these turns, you will just see the animal that they found. You will still get to choose which chest to search for treasure.</p>","","instructions","","","","","","","","","","","","","",""
"revaluation","82","535171","0.0-3.0-13.0-4.0-0.0","spark_pilot_2","7476","1","20","Female","","false","","","","","[683.1000003814697]","./assets/img/space/animals/cat.jpg","[""ArrowRight""]","practice block","space","36","{""ArrowUp,ArrowLeft"":3,""ArrowUp,ArrowRight"":36,""ArrowDown,ArrowLeft"":15,""ArrowDown,ArrowRight"":23}","true","ArrowUp,ArrowRight","","","","","","","","",""
"html-keyboard-response","83","535675","0.0-3.0-13.0-4.0-1.0","spark_pilot_2","7476","1","20","Female","","","","","","","null","<div style=""font-size:60px;"">+</div>","null","fixation","","","","","","","","","","","","","",""
"revaluation","84","539692","0.0-3.0-13.0-4.0-0.1","spark_pilot_2","7476","1","20","Female","","false","","","","","[538.5]","./assets/img/space/animals/cat.jpg","[""ArrowRight""]","practice block","space","36","{""ArrowUp,ArrowLeft"":3,""ArrowUp,ArrowRight"":36,""ArrowDown,ArrowLeft"":15,""ArrowDown,ArrowRight"":23}","true","ArrowUp,ArrowRight","","","","","","","","",""
"html-keyboard-response","85","540199","0.0-3.0-13.0-4.0-1.1","spark_pilot_2","7476","1","20","Female","","","","","","","null","<div style=""font-size:60px;"">+</div>","null","fixation","","","","","","","","","","","","","",""
"revaluation","86","544223","0.0-3.0-13.0-4.0-0.2","spark_pilot_2","7476","1","20","Female","","false","","","","","[576.2000002861023]","./assets/img/space/animals/rabbit.jpg","[""ArrowRight""]","practice block","space","23","{""ArrowUp,ArrowLeft"":3,""ArrowUp,ArrowRight"":36,""ArrowDown,ArrowLeft"":15,""ArrowDown,ArrowRight"":23}","true","ArrowDown,ArrowRight","","","","","","","","",""
"html-keyboard-response","87","544735","0.0-3.0-13.0-4.0-1.2","spark_pilot_2","7476","1","20","Female","","","","","","","null","<div style=""font-size:60px;"">+</div>","null","fixation","","","","","","","","","","","","","",""
"revaluation","88","548756","0.0-3.0-13.0-4.0-0.3","spark_pilot_2","7476","1","20","Female","","false","","","","","[348.19999980926514]","./assets/img/space/animals/rabbit.jpg","[""ArrowRight""]","practice block","space","23","{""ArrowUp,ArrowLeft"":3,""ArrowUp,ArrowRight"":36,""ArrowDown,ArrowLeft"":15,""ArrowDown,ArrowRight"":23}","true","ArrowDown,ArrowRight","","","","","","","","",""
"html-keyboard-response","89","549259","0.0-3.0-13.0-4.0-1.3","spark_pilot_2","7476","1","20","Female","","","","","","","null","<div style=""font-size:60px;"">+</div>","null","fixation","","","","","","","","","","","","","",""
"learning-instructions","90","557471","0.0-3.0-13.0-5.0-0.0","spark_pilot_2","7476","1","20","Female","","","","","","","827.0999999046326","<p> Time to play the dot game! </p>
            <p> For 15 seconds, click the red dots on the following screen as they appear. </p>","","instructions","","","","","","","","","","","","","",""
"revaluation","91","572475","0.0-3.0-13.0-6.0-0.0","spark_pilot_2","7476","1","20","Female","","","","","","","[79]","","","rest practice","","10","","","","","0","15000","","","","","",""
"learning-instructions","92","580236","0.0-3.0-13.0-7.0-0.0","spark_pilot_2","7476","1","20","Female","","","","","","","1629.2999997138977","<p> You have almost finished this part of the game! </p>
            <p> We are going to ask you to make a few more choices. </p>","","instructions","","","","","","","","","","","","","",""
"learning-instructions","93","596426","0.0-3.0-13.0-7.0-0.1","spark_pilot_2","7476","1","20","Female","","","","","","","923","<p> First, you need to decide whether to go up or down. When you see each picture, use the arrow keys to make your choice. </p>
            <p><b>You will not see which animal you found, but try to get to the one that will give you the most treasure.</b></p>","","instructions","","","","","","","","","","","","","",""
"revaluation","94","597384","0.0-3.0-13.0-8.0","spark_pilot_2","7476","1","20","Female","","false","","","","","[955.3000001907349]","./assets/img/space/15.jpg","[""ArrowUp""]","practice block","space","0","{""ArrowUp,ArrowLeft"":3,""ArrowUp,ArrowRight"":36,""ArrowDown,ArrowLeft"":15,""ArrowDown,ArrowRight"":23}","true","ArrowUp","false","","","","","","","",""
"html-keyboard-response","95","597892","0.0-3.0-13.0-9.0","spark_pilot_2","7476","1","20","Female","","","","","","","null","<div style=""font-size:60px;"">+</div>","null","fixation","","","","","","","","","","","","","",""
"learning-instructions","96","611465","0.0-3.0-13.0-10.0-0.0","spark_pilot_2","7476","1","20","Female","","","","","","","1060.3999996185303","<p> Now you will see the animals again and can search their chests for treasure. </p>
            <p> This time, you will not see how much treasure you earned, but you will earn more bonus money for making better choices. </p>","","instructions","","","","","","","","","","","","","",""
"revaluation","97","612227","0.0-3.0-13.0-11.0-0.0","spark_pilot_2","7476","1","20","Female","","false","","","","","[758.8000001907349]","./assets/img/space/animals/cat.jpg","[""ArrowRight""]","practice block","space","0","{""ArrowUp,ArrowLeft"":3,""ArrowUp,ArrowRight"":36,""ArrowDown,ArrowLeft"":15,""ArrowDown,ArrowRight"":23}","true","ArrowUp,ArrowRight","","","","","","","","",""
"html-keyboard-response","98","612734","0.0-3.0-13.0-11.0-1.0","spark_pilot_2","7476","1","20","Female","","","","","","","null","<div style=""font-size:60px;"">+</div>","null","fixation","","","","","","","","","","","","","",""
"revaluation","99","613486","0.0-3.0-13.0-11.0-0.1","spark_pilot_2","7476","1","20","Female","","false","","","","","[748.5]","./assets/img/space/animals/rabbit.jpg","[""ArrowRight""]","practice block","space","0","{""ArrowUp,ArrowLeft"":3,""ArrowUp,ArrowRight"":36,""ArrowDown,ArrowLeft"":15,""ArrowDown,ArrowRight"":23}","true","ArrowDown,ArrowRight","","","","","","","","",""
"html-keyboard-response","100","613990","0.0-3.0-13.0-11.0-1.1","spark_pilot_2","7476","1","20","Female","","","","","","","null","<div style=""font-size:60px;"">+</div>","null","fixation","","","","","","","","","","","","","",""
"learning-instructions","101","619285","0.0-3.0-14.0-0.0","spark_pilot_2","7476","1","20","Female","","","","","","","710.3000001907349","<p> Before you start, we're going to ask you a few questions about how the game works. </p>","","instructions","","","","","","","","","","","","","",""
"comp-q","102","625915","0.0-3.0-15.0-0.0-0.0","spark_pilot_2","7476","1","20","Female","","","","","","","1035","<p> <b> True or False? </b> </p>
            <p> There can be 50 pieces of treasure in a given animal's chest. </p>","1","comp_question","","","","true","","","","","","","","","",""
"comp-q","103","633923","0.0-3.0-15.0-0.0-1.0","spark_pilot_2","7476","1","20","Female","","","","","","","1347.6999998092651","<p> <b> That's right! </b> The amount of treasure in each chest can range from 0 to 40 pieces. </p>","0","comp_answer","","","","","","","","","","","","","",""
"comp-q","104","642047","0.0-3.0-15.0-0.1-0.1","spark_pilot_2","7476","1","20","Female","","","","","","","954.5999999046326","<p> <b> True or False? </b> </p><p> In this game, all animals have the same amount of treasure in their left and right chests. </p>","1","comp_question","","","","true","","","","","","","","","",""
"comp-q","105","649281","0.0-3.0-15.0-0.1-1.1","spark_pilot_2","7476","1","20","Female","","","","","","","2001.8000001907349","<p> <b> That's right! </b> Animals have different amounts of treasure in their treasure chests. </p>","0","comp_answer","","","","","","","","","","","","","",""
"comp-q","106","656316","0.0-3.0-15.0-0.2-0.2","spark_pilot_2","7476","1","20","Female","","","","","","","1186.6999998092651","<p> <b> True or False? </b> </p><p> The same animal will always be there if you go up in the same place. </p>","0","comp_question","","","","true","","","","","","","","","",""
"comp-q","107","663764","0.0-3.0-15.0-0.2-1.2","spark_pilot_2","7476","1","20","Female","","","","","","","997.0999999046326","<p> <b> That's right! </b> One animal lives in the upper part and one lives in the lower part of every place. </p>","0","comp_answer","","","","","","","","","","","","","",""
"comp-q","108","671961","0.0-3.0-15.0-0.3-0.3","spark_pilot_2","7476","1","20","Female","","","","","","","2666.199999809265","<p> <b> True or False? </b> </p><p> If you see a different picture, it means you are in a new place. </p>","1","comp_question","","","","true","","","","","","","","","",""
"comp-q","109","685852","0.0-3.0-15.0-0.3-1.3","spark_pilot_2","7476","1","20","Female","","","","","","","1436.7999997138977","<p> <b> That's right! </b> Lots of different images may show the same place. For example,  you may see three different images that all remind you that you are in outer space. </p>","0","comp_answer","","","","","","","","","","","","","",""
"learning-instructions","110","697893","0.0-3.0-16.0-0.0","spark_pilot_2","7476","1","20","Female","","","","","","","1109.6999998092651","<p> Good job. Remember to do your best because the amount of treasure you earn will be converted into bonus money. </p>
            <p> It’s time to start the real game! </p>","","instructions","","","","","","","","","","","","","",""
"learning-instructions","111","701736","0.0-4.0-0.0-0.0","spark_pilot_2","7476","1","20","Female","","","","","","","1128.7999997138977","<p> This time you are searching for treasure in the <b>ocean</b>.</p>","","instructions","","","","","","","","","","","","","",""
"learning-instructions","112","721477","0.0-4.0-0.0-0.1","spark_pilot_2","7476","1","20","Female","","","","","","","1056.8000001907349","<p><b>New</b> animals with <b>new</b> treasure chests live here. You need to explore to discover where the animal with the best treasure chest is.</p>
                    <p> Like before, once you figure out which animal has the chest with the most treasure, you should try to get to that animal and select that chest! </p>","","instructions","","","","","","","","","","","","","",""
"learning-instructions","113","736949","0.0-4.0-1.0-0.0","spark_pilot_2","7476","1","20","Female","","","","","","","742.5","<p> Remember, when you see a picture of the place, use the up and down keys to <b>find an animal</b>.</p>
            <p> When you encounter an animal, you should use the left and right keys to <b>select a treasure chest</b>.</p>
            <p> Don't forget to look out for the robber! </p>","","instructions","","","","","","","","","","","","","",""
"revaluation","114","742980","0.0-4.0-2.0-0.0","spark_pilot_2","7476","1","20","Female","","false","","","","","[1051.8000001907349,734.5]","./assets/img/ocean/memory/13.jpg","[""ArrowUp"",""ArrowRight""]","value training","ocean","10","{""ArrowUp,ArrowLeft"":26,""ArrowUp,ArrowRight"":10,""ArrowDown,ArrowLeft"":5,""ArrowDown,ArrowRight"":17}","false","ArrowUp,ArrowRight","false","","","original","1","0","","",""
"html-keyboard-response","115","743493","0.0-4.0-2.0-1.0","spark_pilot_2","7476","1","20","Female","","","","","","","null","<div style=""font-size:60px;"">+</div>","null","fixation","","","","","","","","","","","1","","",""
"revaluation","116","749524","0.0-4.0-2.0-0.1","spark_pilot_2","7476","1","20","Female","","false","","","","","[826.8000001907349,531.7000002861023]","./assets/img/ocean/memory/24.jpg","[""ArrowUp"",""ArrowLeft""]","value training","ocean","26","{""ArrowUp,ArrowLeft"":26,""ArrowUp,ArrowRight"":10,""ArrowDown,ArrowLeft"":5,""ArrowDown,ArrowRight"":17}","true","ArrowUp,ArrowLeft","false","","","original","1","2","","",""
"html-keyboard-response","117","750036","0.0-4.0-2.0-1.1","spark_pilot_2","7476","1","20","Female","","","","","","","null","<div style=""font-size:60px;"">+</div>","null","fixation","","","","","","","","","","","3","","",""
"revaluation","118","754050","0.0-4.0-2.0-0.2","spark_pilot_2","7476","1","20","Female","","false","","","","","[524.4000000953674]","./assets/img/ocean/catch/4.jpg","[""ArrowDown""]","value training","ocean","-10","{""ArrowUp,ArrowLeft"":26,""ArrowUp,ArrowRight"":10,""ArrowDown,ArrowLeft"":5,""ArrowDown,ArrowRight"":17}","false","ArrowDown","true","","","original","1","4","","",""
"html-keyboard-response","119","754554","0.0-4.0-2.0-1.2","spark_pilot_2","7476","1","20","Female","","","","","","","null","<div style=""font-size:60px;"">+</div>","null","fixation","","","","","","","","","","","5","","",""
"revaluation","120","760580","0.0-4.0-2.0-0.3","spark_pilot_2","7476","1","20","Female","","false","","","","","[710.2000002861023,456.30000019073486]","./assets/img/ocean/memory/9.jpg","[""ArrowDown"",""ArrowLeft""]","value training","ocean","5","{""ArrowUp,ArrowLeft"":26,""ArrowUp,ArrowRight"":10,""ArrowDown,ArrowLeft"":5,""ArrowDown,ArrowRight"":17}","false","ArrowDown,ArrowLeft","false","","","original","1","6","","",""
"html-keyboard-response","121","761094","0.0-4.0-2.0-1.3","spark_pilot_2","7476","1","20","Female","","","","","","","null","<div style=""font-size:60px;"">+</div>","null","fixation","","","","","","","","","","","7","","",""
"revaluation","122","767125","0.0-4.0-2.0-0.4","spark_pilot_2","7476","1","20","Female","","false","","","","","[771,548.6999998092651]","./assets/img/ocean/memory/20.jpg","[""ArrowDown"",""ArrowRight""]","value training","ocean","17","{""ArrowUp,ArrowLeft"":26,""ArrowUp,ArrowRight"":10,""ArrowDown,ArrowLeft"":5,""ArrowDown,ArrowRight"":17}","false","ArrowDown,ArrowRight","false","","","original","1","8","","",""
"html-keyboard-response","123","767636","0.0-4.0-2.0-1.4","spark_pilot_2","7476","1","20","Female","","","","","","","null","<div style=""font-size:60px;"">+</div>","null","fixation","","","","","","","","","","","9","","",""
"revaluation","124","773669","0.0-4.0-2.0-0.5","spark_pilot_2","7476","1","20","Female","","false","","","","","[1394.6999998092651,429.80000019073486]","./assets/img/ocean/memory/30.jpg","[""ArrowUp"",""ArrowLeft""]","value training","ocean","26","{""ArrowUp,ArrowLeft"":26,""ArrowUp,ArrowRight"":10,""ArrowDown,ArrowLeft"":5,""ArrowDown,ArrowRight"":17}","true","ArrowUp,ArrowLeft","false","","","original","1","10","","",""
"html-keyboard-response","125","774181","0.0-4.0-2.0-1.5","spark_pilot_2","7476","1","20","Female","","","","","","","null","<div style=""font-size:60px;"">+</div>","null","fixation","","","","","","","","","","","11","","",""
"revaluation","126","780202","0.0-4.0-2.0-0.6","spark_pilot_2","7476","1","20","Female","","false","","","","","[761.1999998092651,552.3000001907349]","./assets/img/ocean/memory/13.jpg","[""ArrowUp"",""ArrowLeft""]","value training","ocean","26","{""ArrowUp,ArrowLeft"":26,""ArrowUp,ArrowRight"":10,""ArrowDown,ArrowLeft"":5,""ArrowDown,ArrowRight"":17}","true","ArrowUp,ArrowLeft","false","","","original","1","12","","",""
"html-keyboard-response","127","780709","0.0-4.0-2.0-1.6","spark_pilot_2","7476","1","20","Female","","","","","","","null","<div style=""font-size:60px;"">+</div>","null","fixation","","","","","","","","","","","13","","",""
"revaluation","128","784725","0.0-4.0-2.0-0.7","spark_pilot_2","7476","1","20","Female","","false","","","","","[495.5]","./assets/img/ocean/catch/5.jpg","[""ArrowUp""]","value training","ocean","-10","{""ArrowUp,ArrowLeft"":26,""ArrowUp,ArrowRight"":10,""ArrowDown,ArrowLeft"":5,""ArrowDown,ArrowRight"":17}","false","ArrowUp","true","","","original","1","14","","",""
"html-keyboard-response","129","785237","0.0-4.0-2.0-1.7","spark_pilot_2","7476","1","20","Female","","","","","","","null","<div style=""font-size:60px;"">+</div>","null","fixation","","","","","","","","","","","15","","",""
"revaluation","130","791259","0.0-4.0-2.0-0.8","spark_pilot_2","7476","1","20","Female","","false","","","","","[684.8000001907349,528.4000000953674]","./assets/img/ocean/memory/23.jpg","[""ArrowUp"",""ArrowLeft""]","value training","ocean","26","{""ArrowUp,ArrowLeft"":26,""ArrowUp,ArrowRight"":10,""ArrowDown,ArrowLeft"":5,""ArrowDown,ArrowRight"":17}","true","ArrowUp,ArrowLeft","false","","","original","1","16","","",""
"html-keyboard-response","131","791765","0.0-4.0-2.0-1.8","spark_pilot_2","7476","1","20","Female","","","","","","","null","<div style=""font-size:60px;"">+</div>","null","fixation","","","","","","","","","","","17","","",""
"revaluation","132","797787","0.0-4.0-2.0-0.9","spark_pilot_2","7476","1","20","Female","","false","","","","","[691.8000001907349,409.6000003814697]","./assets/img/ocean/memory/10.jpg","[""ArrowUp"",""ArrowLeft""]","value training","ocean","26","{""ArrowUp,ArrowLeft"":26,""ArrowUp,ArrowRight"":10,""ArrowDown,ArrowLeft"":5,""ArrowDown,ArrowRight"":17}","true","ArrowUp,ArrowLeft","false","","","original","1","18","","",""
"html-keyboard-response","133","798293","0.0-4.0-2.0-1.9","spark_pilot_2","7476","1","20","Female","","","","","","","null","<div style=""font-size:60px;"">+</div>","null","fixation","","","","","","","","","","","19","","",""
"revaluation","134","804315","0.0-4.0-2.0-0.10","spark_pilot_2","7476","1","20","Female","","false","","","","","[669.6000003814697,399.40000009536743]","./assets/img/ocean/memory/35.jpg","[""ArrowUp"",""ArrowLeft""]","value training","ocean","26","{""ArrowUp,ArrowLeft"":26,""ArrowUp,ArrowRight"":10,""ArrowDown,ArrowLeft"":5,""ArrowDown,ArrowRight"":17}","true","ArrowUp,ArrowLeft","false","","","original","1","20","","",""
"html-keyboard-response","135","804822","0.0-4.0-2.0-1.10","spark_pilot_2","7476","1","20","Female","","","","","","","null","<div style=""font-size:60px;"">+</div>","null","fixation","","","","","","","","","","","21","","",""
"revaluation","136","810844","0.0-4.0-2.0-0.11","spark_pilot_2","7476","1","20","Female","","false","","","","","[792.5,379.19999980926514]","./assets/img/ocean/memory/20.jpg","[""ArrowUp"",""ArrowLeft""]","value training","ocean","26","{""ArrowUp,ArrowLeft"":26,""ArrowUp,ArrowRight"":10,""ArrowDown,ArrowLeft"":5,""ArrowDown,ArrowRight"":17}","true","ArrowUp,ArrowLeft","false","","","original","1","22","","",""
"html-keyboard-response","137","811350","0.0-4.0-2.0-1.11","spark_pilot_2","7476","1","20","Female","","","","","","","null","<div style=""font-size:60px;"">+</div>","null","fixation","","","","","","","","","","","23","","",""
"revaluation","138","817371","0.0-4.0-2.0-0.12","spark_pilot_2","7476","1","20","Female","","false","","","","","[682.4000000953674,504.40000009536743]","./assets/img/ocean/memory/3.jpg","[""ArrowUp"",""ArrowLeft""]","value training","ocean","26","{""ArrowUp,ArrowLeft"":26,""ArrowUp,ArrowRight"":10,""ArrowDown,ArrowLeft"":5,""ArrowDown,ArrowRight"":17}","true","ArrowUp,ArrowLeft","false","","","original","1","24","","",""
"html-keyboard-response","139","817878","0.0-4.0-2.0-1.12","spark_pilot_2","7476","1","20","Female","","","","","","","null","<div style=""font-size:60px;"">+</div>","null","fixation","","","","","","","","","","","25","","",""
"revaluation","140","821894","0.0-4.0-2.0-0.13","spark_pilot_2","7476","1","20","Female","","false","","","","","[698.4000000953674]","./assets/img/ocean/catch/3.jpg","[""spaceBar""]","value training","ocean","0","{""ArrowUp,ArrowLeft"":26,""ArrowUp,ArrowRight"":10,""ArrowDown,ArrowLeft"":5,""ArrowDown,ArrowRight"":17}","true","spaceBar","true","","","original","1","26","","",""
"html-keyboard-response","141","822406","0.0-4.0-2.0-1.13","spark_pilot_2","7476","1","20","Female","","","","","","","null","<div style=""font-size:60px;"">+</div>","null","fixation","","","","","","","","","","","27","","",""
"revaluation","142","828428","0.0-4.0-2.0-0.14","spark_pilot_2","7476","1","20","Female","","false","","","","","[644.1000003814697,575.7000002861023]","./assets/img/ocean/memory/37.jpg","[""ArrowUp"",""ArrowLeft""]","value training","ocean","26","{""ArrowUp,ArrowLeft"":26,""ArrowUp,ArrowRight"":10,""ArrowDown,ArrowLeft"":5,""ArrowDown,ArrowRight"":17}","true","ArrowUp,ArrowLeft","false","","","original","1","28","","",""
"html-keyboard-response","143","828934","0.0-4.0-2.0-1.14","spark_pilot_2","7476","1","20","Female","","","","","","","null","<div style=""font-size:60px;"">+</div>","null","fixation","","","","","","","","","","","29","","",""
"revaluation","144","834956","0.0-4.0-2.0-0.15","spark_pilot_2","7476","1","20","Female","","false","","","","","[1132.2000002861023,474.2000002861023]","./assets/img/ocean/memory/29.jpg","[""ArrowUp"",""ArrowLeft""]","value training","ocean","26","{""ArrowUp,ArrowLeft"":26,""ArrowUp,ArrowRight"":10,""ArrowDown,ArrowLeft"":5,""ArrowDown,ArrowRight"":17}","true","ArrowUp,ArrowLeft","false","","","original","1","30","","",""
"html-keyboard-response","145","835463","0.0-4.0-2.0-1.15","spark_pilot_2","7476","1","20","Female","","","","","","","null","<div style=""font-size:60px;"">+</div>","null","fixation","","","","","","","","","","","31","","",""
"revaluation","146","841484","0.0-4.0-2.0-0.16","spark_pilot_2","7476","1","20","Female","","false","","","","","[763.9000000953674,571.4000000953674]","./assets/img/ocean/memory/24.jpg","[""ArrowUp"",""ArrowLeft""]","value training","ocean","26","{""ArrowUp,ArrowLeft"":26,""ArrowUp,ArrowRight"":10,""ArrowDown,ArrowLeft"":5,""ArrowDown,ArrowRight"":17}","true","ArrowUp,ArrowLeft","false","","","original","1","32","","",""
"html-keyboard-response","147","841991","0.0-4.0-2.0-1.16","spark_pilot_2","7476","1","20","Female","","","","","","","null","<div style=""font-size:60px;"">+</div>","null","fixation","","","","","","","","","","","33","","",""
"revaluation","148","848012","0.0-4.0-2.0-0.17","spark_pilot_2","7476","1","20","Female","","false","","","","","[747.5999999046326,387.7000002861023]","./assets/img/ocean/memory/8.jpg","[""ArrowUp"",""ArrowLeft""]","value training","ocean","26","{""ArrowUp,ArrowLeft"":26,""ArrowUp,ArrowRight"":10,""ArrowDown,ArrowLeft"":5,""ArrowDown,ArrowRight"":17}","true","ArrowUp,ArrowLeft","false","","","original","1","34","","",""
"html-keyboard-response","149","848518","0.0-4.0-2.0-1.17","spark_pilot_2","7476","1","20","Female","","","","","","","null","<div style=""font-size:60px;"">+</div>","null","fixation","","","","","","","","","","","35","","",""
"revaluation","150","854541","0.0-4.0-2.0-0.18","spark_pilot_2","7476","1","20","Female","","false","","","","","[576.5999999046326,378.09999990463257]","./assets/img/ocean/memory/10.jpg","[""ArrowUp"",""ArrowRight""]","value training","ocean","10","{""ArrowUp,ArrowLeft"":26,""ArrowUp,ArrowRight"":10,""ArrowDown,ArrowLeft"":5,""ArrowDown,ArrowRight"":17}","false","ArrowUp,ArrowRight","false","","","original","1","36","","",""
"html-keyboard-response","151","855047","0.0-4.0-2.0-1.18","spark_pilot_2","7476","1","20","Female","","","","","","","null","<div style=""font-size:60px;"">+</div>","null","fixation","","","","","","","","","","","37","","",""
"revaluation","152","861069","0.0-4.0-2.0-0.19","spark_pilot_2","7476","1","20","Female","","false","","","","","[670.1999998092651,372.90000009536743]","./assets/img/ocean/memory/17.jpg","[""ArrowUp"",""ArrowLeft""]","value training","ocean","26","{""ArrowUp,ArrowLeft"":26,""ArrowUp,ArrowRight"":10,""ArrowDown,ArrowLeft"":5,""ArrowDown,ArrowRight"":17}","true","ArrowUp,ArrowLeft","false","","","original","1","38","","",""
"html-keyboard-response","153","861575","0.0-4.0-2.0-1.19","spark_pilot_2","7476","1","20","Female","","","","","","","null","<div style=""font-size:60px;"">+</div>","null","fixation","","","","","","","","","","","39","","",""
"revaluation","154","865592","0.0-4.0-2.0-0.20","spark_pilot_2","7476","1","20","Female","","false","","","","","[913.0999999046326]","./assets/img/ocean/catch/6.jpg","[""spaceBar""]","value training","ocean","0","{""ArrowUp,ArrowLeft"":26,""ArrowUp,ArrowRight"":10,""ArrowDown,ArrowLeft"":5,""ArrowDown,ArrowRight"":17}","true","spaceBar","true","","","original","1","40","","",""
"html-keyboard-response","155","866104","0.0-4.0-2.0-1.20","spark_pilot_2","7476","1","20","Female","","","","","","","null","<div style=""font-size:60px;"">+</div>","null","fixation","","","","","","","","","","","41","","",""
"revaluation","156","872125","0.0-4.0-2.0-0.21","spark_pilot_2","7476","1","20","Female","","false","","","","","[504.6000003814697,367.40000009536743]","./assets/img/ocean/memory/7.jpg","[""ArrowUp"",""ArrowLeft""]","value training","ocean","26","{""ArrowUp,ArrowLeft"":26,""ArrowUp,ArrowRight"":10,""ArrowDown,ArrowLeft"":5,""ArrowDown,ArrowRight"":17}","true","ArrowUp,ArrowLeft","false","","","original","1","42","","",""
"html-keyboard-response","157","872632","0.0-4.0-2.0-1.21","spark_pilot_2","7476","1","20","Female","","","","","","","null","<div style=""font-size:60px;"">+</div>","null","fixation","","","","","","","","","","","43","","",""
"revaluation","158","878653","0.0-4.0-2.0-0.22","spark_pilot_2","7476","1","20","Female","","false","","","","","[517.2999997138977,623.7000002861023]","./assets/img/ocean/memory/12.jpg","[""ArrowUp"",""ArrowLeft""]","value training","ocean","26","{""ArrowUp,ArrowLeft"":26,""ArrowUp,ArrowRight"":10,""ArrowDown,ArrowLeft"":5,""ArrowDown,ArrowRight"":17}","true","ArrowUp,ArrowLeft","false","","","original","1","44","","",""
"html-keyboard-response","159","879160","0.0-4.0-2.0-1.22","spark_pilot_2","7476","1","20","Female","","","","","","","null","<div style=""font-size:60px;"">+</div>","null","fixation","","","","","","","","","","","45","","",""
"revaluation","160","885182","0.0-4.0-2.0-0.23","spark_pilot_2","7476","1","20","Female","","false","","","","","[834.0999999046326,422.90000009536743]","./assets/img/ocean/memory/15.jpg","[""ArrowUp"",""ArrowLeft""]","value training","ocean","26","{""ArrowUp,ArrowLeft"":26,""ArrowUp,ArrowRight"":10,""ArrowDown,ArrowLeft"":5,""ArrowDown,ArrowRight"":17}","true","ArrowUp,ArrowLeft","false","","","original","1","46","","",""
"html-keyboard-response","161","885688","0.0-4.0-2.0-1.23","spark_pilot_2","7476","1","20","Female","","","","","","","null","<div style=""font-size:60px;"">+</div>","null","fixation","","","","","","","","","","","47","","",""
"revaluation","162","891710","0.0-4.0-2.0-0.24","spark_pilot_2","7476","1","20","Female","","false","","","","","[800.0999999046326,406.8999996185303]","./assets/img/ocean/memory/19.jpg","[""ArrowUp"",""ArrowLeft""]","value training","ocean","26","{""ArrowUp,ArrowLeft"":26,""ArrowUp,ArrowRight"":10,""ArrowDown,ArrowLeft"":5,""ArrowDown,ArrowRight"":17}","true","ArrowUp,ArrowLeft","false","","","original","1","48","","",""
"html-keyboard-response","163","892216","0.0-4.0-2.0-1.24","spark_pilot_2","7476","1","20","Female","","","","","","","null","<div style=""font-size:60px;"">+</div>","null","fixation","","","","","","","","","","","49","","",""
"revaluation","164","898238","0.0-4.0-2.0-0.25","spark_pilot_2","7476","1","20","Female","","false","","","","","[663.7000002861023,397.80000019073486]","./assets/img/ocean/memory/9.jpg","[""ArrowUp"",""ArrowLeft""]","value training","ocean","26","{""ArrowUp,ArrowLeft"":26,""ArrowUp,ArrowRight"":10,""ArrowDown,ArrowLeft"":5,""ArrowDown,ArrowRight"":17}","true","ArrowUp,ArrowLeft","false","","","original","1","50","","",""
"html-keyboard-response","165","898744","0.0-4.0-2.0-1.25","spark_pilot_2","7476","1","20","Female","","","","","","","null","<div style=""font-size:60px;"">+</div>","null","fixation","","","","","","","","","","","51","","",""
"revaluation","166","904766","0.0-4.0-2.0-0.26","spark_pilot_2","7476","1","20","Female","","false","","","","","[599.9000000953674,472]","./assets/img/ocean/memory/19.jpg","[""ArrowUp"",""ArrowLeft""]","value training","ocean","26","{""ArrowUp,ArrowLeft"":26,""ArrowUp,ArrowRight"":10,""ArrowDown,ArrowLeft"":5,""ArrowDown,ArrowRight"":17}","true","ArrowUp,ArrowLeft","false","","","original","1","52","","",""
"html-keyboard-response","167","905273","0.0-4.0-2.0-1.26","spark_pilot_2","7476","1","20","Female","","","","","","","null","<div style=""font-size:60px;"">+</div>","null","fixation","","","","","","","","","","","53","","",""
"revaluation","168","911294","0.0-4.0-2.0-0.27","spark_pilot_2","7476","1","20","Female","","false","","","","","[530,378.2000002861023]","./assets/img/ocean/memory/29.jpg","[""ArrowUp"",""ArrowLeft""]","value training","ocean","26","{""ArrowUp,ArrowLeft"":26,""ArrowUp,ArrowRight"":10,""ArrowDown,ArrowLeft"":5,""ArrowDown,ArrowRight"":17}","true","ArrowUp,ArrowLeft","false","","","original","1","54","","",""
"html-keyboard-response","169","911802","0.0-4.0-2.0-1.27","spark_pilot_2","7476","1","20","Female","","","","","","","null","<div style=""font-size:60px;"">+</div>","null","fixation","","","","","","","","","","","55","","",""
"revaluation","170","917823","0.0-4.0-2.0-0.28","spark_pilot_2","7476","1","20","Female","","false","","","","","[566,398.7000002861023]","./assets/img/ocean/memory/32.jpg","[""ArrowUp"",""ArrowLeft""]","value training","ocean","26","{""ArrowUp,ArrowLeft"":26,""ArrowUp,ArrowRight"":10,""ArrowDown,ArrowLeft"":5,""ArrowDown,ArrowRight"":17}","true","ArrowUp,ArrowLeft","false","","","original","1","56","","",""
"html-keyboard-response","171","918329","0.0-4.0-2.0-1.28","spark_pilot_2","7476","1","20","Female","","","","","","","null","<div style=""font-size:60px;"">+</div>","null","fixation","","","","","","","","","","","57","","",""
"revaluation","172","924351","0.0-4.0-2.0-0.29","spark_pilot_2","7476","1","20","Female","","false","","","","","[474.80000019073486,337.1000003814697]","./assets/img/ocean/memory/12.jpg","[""ArrowUp"",""ArrowLeft""]","value training","ocean","26","{""ArrowUp,ArrowLeft"":26,""ArrowUp,ArrowRight"":10,""ArrowDown,ArrowLeft"":5,""ArrowDown,ArrowRight"":17}","true","ArrowUp,ArrowLeft","false","","","original","1","58","","",""
"html-keyboard-response","173","924857","0.0-4.0-2.0-1.29","spark_pilot_2","7476","1","20","Female","","","","","","","null","<div style=""font-size:60px;"">+</div>","null","fixation","","","","","","","","","","","59","","",""
"revaluation","174","930879","0.0-4.0-2.0-0.30","spark_pilot_2","7476","1","20","Female","","false","","","","","[586.1000003814697,423.19999980926514]","./assets/img/ocean/memory/3.jpg","[""ArrowUp"",""ArrowLeft""]","value training","ocean","26","{""ArrowUp,ArrowLeft"":26,""ArrowUp,ArrowRight"":10,""ArrowDown,ArrowLeft"":5,""ArrowDown,ArrowRight"":17}","true","ArrowUp,ArrowLeft","false","","","original","1","60","","",""
"html-keyboard-response","175","931385","0.0-4.0-2.0-1.30","spark_pilot_2","7476","1","20","Female","","","","","","","null","<div style=""font-size:60px;"">+</div>","null","fixation","","","","","","","","","","","61","","",""
"revaluation","176","935402","0.0-4.0-2.0-0.31","spark_pilot_2","7476","1","20","Female","","false","","","","","[560.5999999046326]","./assets/img/ocean/catch/2.jpg","[""spaceBar""]","value training","ocean","0","{""ArrowUp,ArrowLeft"":26,""ArrowUp,ArrowRight"":10,""ArrowDown,ArrowLeft"":5,""ArrowDown,ArrowRight"":17}","true","spaceBar","true","","","original","1","62","","",""
"html-keyboard-response","177","935914","0.0-4.0-2.0-1.31","spark_pilot_2","7476","1","20","Female","","","","","","","null","<div style=""font-size:60px;"">+</div>","null","fixation","","","","","","","","","","","63","","",""
"revaluation","178","941935","0.0-4.0-2.0-0.32","spark_pilot_2","7476","1","20","Female","","false","","","","","[573.4000000953674,378.2000002861023]","./assets/img/ocean/memory/34.jpg","[""ArrowUp"",""ArrowLeft""]","value training","ocean","26","{""ArrowUp,ArrowLeft"":26,""ArrowUp,ArrowRight"":10,""ArrowDown,ArrowLeft"":5,""ArrowDown,ArrowRight"":17}","true","ArrowUp,ArrowLeft","false","","","original","1","64","","",""
"html-keyboard-response","179","942442","0.0-4.0-2.0-1.32","spark_pilot_2","7476","1","20","Female","","","","","","","null","<div style=""font-size:60px;"">+</div>","null","fixation","","","","","","","","","","","65","","",""
"revaluation","180","948464","0.0-4.0-2.0-0.33","spark_pilot_2","7476","1","20","Female","","false","","","","","[517.4000000953674,363]","./assets/img/ocean/memory/40.jpg","[""ArrowUp"",""ArrowLeft""]","value training","ocean","26","{""ArrowUp,ArrowLeft"":26,""ArrowUp,ArrowRight"":10,""ArrowDown,ArrowLeft"":5,""ArrowDown,ArrowRight"":17}","true","ArrowUp,ArrowLeft","false","","","original","1","66","","",""
"html-keyboard-response","181","948970","0.0-4.0-2.0-1.33","spark_pilot_2","7476","1","20","Female","","","","","","","null","<div style=""font-size:60px;"">+</div>","null","fixation","","","","","","","","","","","67","","",""
"revaluation","182","954992","0.0-4.0-2.0-0.34","spark_pilot_2","7476","1","20","Female","","false","","","","","[581.3000001907349,536.7000002861023]","./assets/img/ocean/memory/40.jpg","[""ArrowUp"",""ArrowLeft""]","value training","ocean","26","{""ArrowUp,ArrowLeft"":26,""ArrowUp,ArrowRight"":10,""ArrowDown,ArrowLeft"":5,""ArrowDown,ArrowRight"":17}","true","ArrowUp,ArrowLeft","false","","","original","1","68","","",""
"html-keyboard-response","183","955498","0.0-4.0-2.0-1.34","spark_pilot_2","7476","1","20","Female","","","","","","","null","<div style=""font-size:60px;"">+</div>","null","fixation","","","","","","","","","","","69","","",""
"revaluation","184","959514","0.0-4.0-2.0-0.35","spark_pilot_2","7476","1","20","Female","","false","","","","","[1137]","./assets/img/ocean/catch/0.jpg","[""spaceBar""]","value training","ocean","0","{""ArrowUp,ArrowLeft"":26,""ArrowUp,ArrowRight"":10,""ArrowDown,ArrowLeft"":5,""ArrowDown,ArrowRight"":17}","true","spaceBar","true","","","original","1","70","","",""
"html-keyboard-response","185","960026","0.0-4.0-2.0-1.35","spark_pilot_2","7476","1","20","Female","","","","","","","null","<div style=""font-size:60px;"">+</div>","null","fixation","","","","","","","","","","","71","","",""
"revaluation","186","966048","0.0-4.0-2.0-0.36","spark_pilot_2","7476","1","20","Female","","false","","","","","[649.5,483.40000009536743]","./assets/img/ocean/memory/30.jpg","[""ArrowUp"",""ArrowLeft""]","value training","ocean","26","{""ArrowUp,ArrowLeft"":26,""ArrowUp,ArrowRight"":10,""ArrowDown,ArrowLeft"":5,""ArrowDown,ArrowRight"":17}","true","ArrowUp,ArrowLeft","false","","","original","1","72","","",""
"html-keyboard-response","187","966555","0.0-4.0-2.0-1.36","spark_pilot_2","7476","1","20","Female","","","","","","","null","<div style=""font-size:60px;"">+</div>","null","fixation","","","","","","","","","","","73","","",""
"revaluation","188","972576","0.0-4.0-2.0-0.37","spark_pilot_2","7476","1","20","Female","","false","","","","","[425.1000003814697,363.40000009536743]","./assets/img/ocean/memory/1.jpg","[""ArrowUp"",""ArrowLeft""]","value training","ocean","26","{""ArrowUp,ArrowLeft"":26,""ArrowUp,ArrowRight"":10,""ArrowDown,ArrowLeft"":5,""ArrowDown,ArrowRight"":17}","true","ArrowUp,ArrowLeft","false","","","original","1","74","","",""
"html-keyboard-response","189","973083","0.0-4.0-2.0-1.37","spark_pilot_2","7476","1","20","Female","","","","","","","null","<div style=""font-size:60px;"">+</div>","null","fixation","","","","","","","","","","","75","","",""
"revaluation","190","979104","0.0-4.0-2.0-0.38","spark_pilot_2","7476","1","20","Female","","false","","","","","[568.3000001907349,383.40000009536743]","./assets/img/ocean/memory/37.jpg","[""ArrowUp"",""ArrowLeft""]","value training","ocean","26","{""ArrowUp,ArrowLeft"":26,""ArrowUp,ArrowRight"":10,""ArrowDown,ArrowLeft"":5,""ArrowDown,ArrowRight"":17}","true","ArrowUp,ArrowLeft","false","","","original","1","76","","",""
"html-keyboard-response","191","979611","0.0-4.0-2.0-1.38","spark_pilot_2","7476","1","20","Female","","","","","","","null","<div style=""font-size:60px;"">+</div>","null","fixation","","","","","","","","","","","77","","",""
"revaluation","192","985633","0.0-4.0-2.0-0.39","spark_pilot_2","7476","1","20","Female","","false","","","","","[685.4000000953674,364.30000019073486]","./assets/img/ocean/memory/17.jpg","[""ArrowUp"",""ArrowLeft""]","value training","ocean","26","{""ArrowUp,ArrowLeft"":26,""ArrowUp,ArrowRight"":10,""ArrowDown,ArrowLeft"":5,""ArrowDown,ArrowRight"":17}","true","ArrowUp,ArrowLeft","false","","","original","1","78","","",""
"html-keyboard-response","193","986139","0.0-4.0-2.0-1.39","spark_pilot_2","7476","1","20","Female","","","","","","","null","<div style=""font-size:60px;"">+</div>","null","fixation","","","","","","","","","","","79","","",""
"revaluation","194","992161","0.0-4.0-2.0-0.40","spark_pilot_2","7476","1","20","Female","","false","","","","","[775.1000003814697,340.09999990463257]","./assets/img/ocean/memory/35.jpg","[""ArrowUp"",""ArrowLeft""]","value training","ocean","26","{""ArrowUp,ArrowLeft"":26,""ArrowUp,ArrowRight"":10,""ArrowDown,ArrowLeft"":5,""ArrowDown,ArrowRight"":17}","true","ArrowUp,ArrowLeft","false","","","original","1","80","","",""
"html-keyboard-response","195","992667","0.0-4.0-2.0-1.40","spark_pilot_2","7476","1","20","Female","","","","","","","null","<div style=""font-size:60px;"">+</div>","null","fixation","","","","","","","","","","","81","","",""
"revaluation","196","996684","0.0-4.0-2.0-0.41","spark_pilot_2","7476","1","20","Female","","false","","","","","[1217.6999998092651]","./assets/img/ocean/catch/1.jpg","[""spaceBar""]","value training","ocean","0","{""ArrowUp,ArrowLeft"":26,""ArrowUp,ArrowRight"":10,""ArrowDown,ArrowLeft"":5,""ArrowDown,ArrowRight"":17}","true","spaceBar","true","","","original","1","82","","",""
"html-keyboard-response","197","997195","0.0-4.0-2.0-1.41","spark_pilot_2","7476","1","20","Female","","","","","","","null","<div style=""font-size:60px;"">+</div>","null","fixation","","","","","","","","","","","83","","",""
"revaluation","198","1003219","0.0-4.0-2.0-0.42","spark_pilot_2","7476","1","20","Female","","false","","","","","[596.1999998092651,348.90000009536743]","./assets/img/ocean/memory/8.jpg","[""ArrowUp"",""ArrowLeft""]","value training","ocean","26","{""ArrowUp,ArrowLeft"":26,""ArrowUp,ArrowRight"":10,""ArrowDown,ArrowLeft"":5,""ArrowDown,ArrowRight"":17}","true","ArrowUp,ArrowLeft","false","","","original","1","84","","",""
"html-keyboard-response","199","1003724","0.0-4.0-2.0-1.42","spark_pilot_2","7476","1","20","Female","","","","","","","null","<div style=""font-size:60px;"">+</div>","null","fixation","","","","","","","","","","","85","","",""
"revaluation","200","1009745","0.0-4.0-2.0-0.43","spark_pilot_2","7476","1","20","Female","","false","","","","","[599.6000003814697,322.2000002861023]","./assets/img/ocean/memory/15.jpg","[""ArrowUp"",""ArrowLeft""]","value training","ocean","26","{""ArrowUp,ArrowLeft"":26,""ArrowUp,ArrowRight"":10,""ArrowDown,ArrowLeft"":5,""ArrowDown,ArrowRight"":17}","true","ArrowUp,ArrowLeft","false","","","original","1","86","","",""
"html-keyboard-response","201","1010252","0.0-4.0-2.0-1.43","spark_pilot_2","7476","1","20","Female","","","","","","","null","<div style=""font-size:60px;"">+</div>","null","fixation","","","","","","","","","","","87","","",""
"revaluation","202","1016274","0.0-4.0-2.0-0.44","spark_pilot_2","7476","1","20","Female","","false","","","","","[495.7000002861023,438.19999980926514]","./assets/img/ocean/memory/23.jpg","[""ArrowUp"",""ArrowLeft""]","value training","ocean","26","{""ArrowUp,ArrowLeft"":26,""ArrowUp,ArrowRight"":10,""ArrowDown,ArrowLeft"":5,""ArrowDown,ArrowRight"":17}","true","ArrowUp,ArrowLeft","false","","","original","1","88","","",""
"html-keyboard-response","203","1016780","0.0-4.0-2.0-1.44","spark_pilot_2","7476","1","20","Female","","","","","","","null","<div style=""font-size:60px;"">+</div>","null","fixation","","","","","","","","","","","89","","",""
"revaluation","204","1022802","0.0-4.0-2.0-0.45","spark_pilot_2","7476","1","20","Female","","false","","","","","[566.1999998092651,436.40000009536743]","./assets/img/ocean/memory/34.jpg","[""ArrowUp"",""ArrowLeft""]","value training","ocean","26","{""ArrowUp,ArrowLeft"":26,""ArrowUp,ArrowRight"":10,""ArrowDown,ArrowLeft"":5,""ArrowDown,ArrowRight"":17}","true","ArrowUp,ArrowLeft","false","","","original","1","90","","",""
"html-keyboard-response","205","1023308","0.0-4.0-2.0-1.45","spark_pilot_2","7476","1","20","Female","","","","","","","null","<div style=""font-size:60px;"">+</div>","null","fixation","","","","","","","","","","","91","","",""
"revaluation","206","1029330","0.0-4.0-2.0-0.46","spark_pilot_2","7476","1","20","Female","","false","","","","","[542.6999998092651,393.30000019073486]","./assets/img/ocean/memory/7.jpg","[""ArrowUp"",""ArrowLeft""]","value training","ocean","26","{""ArrowUp,ArrowLeft"":26,""ArrowUp,ArrowRight"":10,""ArrowDown,ArrowLeft"":5,""ArrowDown,ArrowRight"":17}","true","ArrowUp,ArrowLeft","false","","","original","1","92","","",""
"html-keyboard-response","207","1029836","0.0-4.0-2.0-1.46","spark_pilot_2","7476","1","20","Female","","","","","","","null","<div style=""font-size:60px;"">+</div>","null","fixation","","","","","","","","","","","93","","",""
"revaluation","208","1035860","0.0-4.0-2.0-0.47","spark_pilot_2","7476","1","20","Female","","false","","","","","[421.40000009536743,364.69999980926514]","./assets/img/ocean/memory/1.jpg","[""ArrowUp"",""ArrowLeft""]","value training","ocean","26","{""ArrowUp,ArrowLeft"":26,""ArrowUp,ArrowRight"":10,""ArrowDown,ArrowLeft"":5,""ArrowDown,ArrowRight"":17}","true","ArrowUp,ArrowLeft","false","","","original","1","94","","",""
"html-keyboard-response","209","1036364","0.0-4.0-2.0-1.47","spark_pilot_2","7476","1","20","Female","","","","","","","null","<div style=""font-size:60px;"">+</div>","null","fixation","","","","","","","","","","","95","","",""
"revaluation","210","1042386","0.0-4.0-2.0-0.48","spark_pilot_2","7476","1","20","Female","","false","","","","","[565.6999998092651,331.19999980926514]","./assets/img/ocean/memory/32.jpg","[""ArrowUp"",""ArrowLeft""]","value training","ocean","26","{""ArrowUp,ArrowLeft"":26,""ArrowUp,ArrowRight"":10,""ArrowDown,ArrowLeft"":5,""ArrowDown,ArrowRight"":17}","true","ArrowUp,ArrowLeft","false","","","original","1","96","","",""
"html-keyboard-response","211","1042893","0.0-4.0-2.0-1.48","spark_pilot_2","7476","1","20","Female","","","","","","","null","<div style=""font-size:60px;"">+</div>","null","fixation","","","","","","","","","","","97","","",""
"revaluation","212","1046909","0.0-4.0-2.0-0.49","spark_pilot_2","7476","1","20","Female","","false","","","","","[1021.5]","./assets/img/ocean/catch/7.jpg","[""spaceBar""]","value training","ocean","0","{""ArrowUp,ArrowLeft"":26,""ArrowUp,ArrowRight"":10,""ArrowDown,ArrowLeft"":5,""ArrowDown,ArrowRight"":17}","true","spaceBar","true","","","original","1","98","","",""
"html-keyboard-response","213","1047421","0.0-4.0-2.0-1.49","spark_pilot_2","7476","1","20","Female","","","","","","","null","<div style=""font-size:60px;"">+</div>","null","fixation","","","","","","","","","","","99","","",""
"learning-instructions","214","1061468","0.0-4.0-3.0-0.0","spark_pilot_2","7476","1","20","Female","","","","","","","1096.5","<p> Now, you will travel with a friend who will choose whether you go up or down first. </p>
            <p> On these turns, you will just see the animal that they found. You will still get to choose which chest to search for treasure.</p>","","instructions","","","","","","","","","","","","","",""
"revaluation","215","1065487","0.0-4.0-4.0-0.0","spark_pilot_2","7476","1","20","Female","","false","","","","","[799.5]","./assets/img/ocean/animals/octopus.jpg","[""ArrowLeft""]","revaluation","ocean","26","{""ArrowUp,ArrowLeft"":26,""ArrowUp,ArrowRight"":10,""ArrowDown,ArrowLeft"":5,""ArrowDown,ArrowRight"":17}","true","ArrowUp,ArrowLeft","","","","original","1","0","","",""
"html-keyboard-response","216","1065997","0.0-4.0-4.0-1.0","spark_pilot_2","7476","1","20","Female","","","","","","","null","<div style=""font-size:60px;"">+</div>","null","fixation","","","","","","","","","","","1","","",""
"revaluation","217","1070011","0.0-4.0-4.0-0.1","spark_pilot_2","7476","1","20","Female","","false","","","","","[628.4000000953674]","./assets/img/ocean/animals/octopus.jpg","[""ArrowLeft""]","revaluation","ocean","26","{""ArrowUp,ArrowLeft"":26,""ArrowUp,ArrowRight"":10,""ArrowDown,ArrowLeft"":5,""ArrowDown,ArrowRight"":17}","true","ArrowUp,ArrowLeft","","","","original","1","2","","",""
"html-keyboard-response","218","1070519","0.0-4.0-4.0-1.1","spark_pilot_2","7476","1","20","Female","","","","","","","null","<div style=""font-size:60px;"">+</div>","null","fixation","","","","","","","","","","","3","","",""
"revaluation","219","1074539","0.0-4.0-4.0-0.2","spark_pilot_2","7476","1","20","Female","","false","","","","","[624.5]","./assets/img/ocean/animals/seahorse.jpg","[""ArrowLeft""]","revaluation","ocean","5","{""ArrowUp,ArrowLeft"":26,""ArrowUp,ArrowRight"":10,""ArrowDown,ArrowLeft"":5,""ArrowDown,ArrowRight"":17}","false","ArrowDown,ArrowLeft","","","","original","1","4","","",""
"html-keyboard-response","220","1075043","0.0-4.0-4.0-1.2","spark_pilot_2","7476","1","20","Female","","","","","","","null","<div style=""font-size:60px;"">+</div>","null","fixation","","","","","","","","","","","5","","",""
"revaluation","221","1079059","0.0-4.0-4.0-0.3","spark_pilot_2","7476","1","20","Female","","false","","","","","[571.1999998092651]","./assets/img/ocean/animals/seahorse.jpg","[""ArrowRight""]","revaluation","ocean","17","{""ArrowUp,ArrowLeft"":26,""ArrowUp,ArrowRight"":10,""ArrowDown,ArrowLeft"":5,""ArrowDown,ArrowRight"":17}","true","ArrowDown,ArrowRight","","","","original","1","6","","",""
"html-keyboard-response","222","1079563","0.0-4.0-4.0-1.3","spark_pilot_2","7476","1","20","Female","","","","","","","null","<div style=""font-size:60px;"">+</div>","null","fixation","","","","","","","","","","","7","","",""
"revaluation","223","1083582","0.0-4.0-4.0-0.4","spark_pilot_2","7476","1","20","Female","","false","","","","","[595.7000002861023]","./assets/img/ocean/animals/octopus.jpg","[""ArrowLeft""]","revaluation","ocean","26","{""ArrowUp,ArrowLeft"":26,""ArrowUp,ArrowRight"":10,""ArrowDown,ArrowLeft"":5,""ArrowDown,ArrowRight"":17}","true","ArrowUp,ArrowLeft","","","","original","1","8","","",""
"html-keyboard-response","224","1084094","0.0-4.0-4.0-1.4","spark_pilot_2","7476","1","20","Female","","","","","","","null","<div style=""font-size:60px;"">+</div>","null","fixation","","","","","","","","","","","9","","",""
"revaluation","225","1088108","0.0-4.0-4.0-0.5","spark_pilot_2","7476","1","20","Female","","false","","","","","[533.0999999046326]","./assets/img/ocean/animals/octopus.jpg","[""ArrowLeft""]","revaluation","ocean","26","{""ArrowUp,ArrowLeft"":26,""ArrowUp,ArrowRight"":10,""ArrowDown,ArrowLeft"":5,""ArrowDown,ArrowRight"":17}","true","ArrowUp,ArrowLeft","","","","original","1","10","","",""
"html-keyboard-response","226","1088612","0.0-4.0-4.0-1.5","spark_pilot_2","7476","1","20","Female","","","","","","","null","<div style=""font-size:60px;"">+</div>","null","fixation","","","","","","","","","","","11","","",""
"revaluation","227","1092792","0.0-4.0-4.0-0.6","spark_pilot_2","7476","1","20","Female","","false","","","","","[597.8000001907349]","./assets/img/ocean/animals/octopus.jpg","[""ArrowLeft""]","revaluation","ocean","26","{""ArrowUp,ArrowLeft"":26,""ArrowUp,ArrowRight"":10,""ArrowDown,ArrowLeft"":5,""ArrowDown,ArrowRight"":17}","true","ArrowUp,ArrowLeft","","","","original","1","12","","",""
"html-keyboard-response","228","1093444","0.0-4.0-4.0-1.6","spark_pilot_2","7476","1","20","Female","","","","","","","null","<div style=""font-size:60px;"">+</div>","null","fixation","","","","","","","","","","","13","","",""
"revaluation","229","1097472","0.0-4.0-4.0-0.7","spark_pilot_2","7476","1","20","Female","","false","","","","","[896.8000001907349]","./assets/img/ocean/animals/octopus.jpg","[""ArrowLeft""]","revaluation","ocean","26","{""ArrowUp,ArrowLeft"":26,""ArrowUp,ArrowRight"":10,""ArrowDown,ArrowLeft"":5,""ArrowDown,ArrowRight"":17}","true","ArrowUp,ArrowLeft","","","","original","1","14","","",""
"html-keyboard-response","230","1097982","0.0-4.0-4.0-1.7","spark_pilot_2","7476","1","20","Female","","","","","","","null","<div style=""font-size:60px;"">+</div>","null","fixation","","","","","","","","","","","15","","",""
"revaluation","231","1101998","0.0-4.0-4.0-0.8","spark_pilot_2","7476","1","20","Female","","false","","","","","[680.9000000953674]","./assets/img/ocean/animals/seahorse.jpg","[""ArrowRight""]","revaluation","ocean","17","{""ArrowUp,ArrowLeft"":26,""ArrowUp,ArrowRight"":10,""ArrowDown,ArrowLeft"":5,""ArrowDown,ArrowRight"":17}","true","ArrowDown,ArrowRight","","","","original","1","16","","",""
"html-keyboard-response","232","1102510","0.0-4.0-4.0-1.8","spark_pilot_2","7476","1","20","Female","","","","","","","null","<div style=""font-size:60px;"">+</div>","null","fixation","","","","","","","","","","","17","","",""
"revaluation","233","1106527","0.0-4.0-4.0-0.9","spark_pilot_2","7476","1","20","Female","","false","","","","","[702.9000000953674]","./assets/img/ocean/animals/seahorse.jpg","[""ArrowRight""]","revaluation","ocean","17","{""ArrowUp,ArrowLeft"":26,""ArrowUp,ArrowRight"":10,""ArrowDown,ArrowLeft"":5,""ArrowDown,ArrowRight"":17}","true","ArrowDown,ArrowRight","","","","original","1","18","","",""
"html-keyboard-response","234","1107038","0.0-4.0-4.0-1.9","spark_pilot_2","7476","1","20","Female","","","","","","","null","<div style=""font-size:60px;"">+</div>","null","fixation","","","","","","","","","","","19","","",""
"revaluation","235","1111055","0.0-4.0-4.0-0.10","spark_pilot_2","7476","1","20","Female","","false","","","","","[566.5]","./assets/img/ocean/animals/octopus.jpg","[""ArrowLeft""]","revaluation","ocean","26","{""ArrowUp,ArrowLeft"":26,""ArrowUp,ArrowRight"":10,""ArrowDown,ArrowLeft"":5,""ArrowDown,ArrowRight"":17}","true","ArrowUp,ArrowLeft","","","","original","1","20","","",""
"html-keyboard-response","236","1111566","0.0-4.0-4.0-1.10","spark_pilot_2","7476","1","20","Female","","","","","","","null","<div style=""font-size:60px;"">+</div>","null","fixation","","","","","","","","","","","21","","",""
"revaluation","237","1115583","0.0-4.0-4.0-0.11","spark_pilot_2","7476","1","20","Female","","false","","","","","[552.4000000953674]","./assets/img/ocean/animals/octopus.jpg","[""ArrowLeft""]","revaluation","ocean","26","{""ArrowUp,ArrowLeft"":26,""ArrowUp,ArrowRight"":10,""ArrowDown,ArrowLeft"":5,""ArrowDown,ArrowRight"":17}","true","ArrowUp,ArrowLeft","","","","original","1","22","","",""
"html-keyboard-response","238","1116095","0.0-4.0-4.0-1.11","spark_pilot_2","7476","1","20","Female","","","","","","","null","<div style=""font-size:60px;"">+</div>","null","fixation","","","","","","","","","","","23","","",""
"revaluation","239","1120111","0.0-4.0-4.0-0.12","spark_pilot_2","7476","1","20","Female","","false","","","","","[626.3000001907349]","./assets/img/ocean/animals/seahorse.jpg","[""ArrowRight""]","revaluation","ocean","17","{""ArrowUp,ArrowLeft"":26,""ArrowUp,ArrowRight"":10,""ArrowDown,ArrowLeft"":5,""ArrowDown,ArrowRight"":17}","true","ArrowDown,ArrowRight","","","","original","1","24","","",""
"html-keyboard-response","240","1120622","0.0-4.0-4.0-1.12","spark_pilot_2","7476","1","20","Female","","","","","","","null","<div style=""font-size:60px;"">+</div>","null","fixation","","","","","","","","","","","25","","",""
"revaluation","241","1124639","0.0-4.0-4.0-0.13","spark_pilot_2","7476","1","20","Female","","false","","","","","[557.5]","./assets/img/ocean/animals/seahorse.jpg","[""ArrowRight""]","revaluation","ocean","17","{""ArrowUp,ArrowLeft"":26,""ArrowUp,ArrowRight"":10,""ArrowDown,ArrowLeft"":5,""ArrowDown,ArrowRight"":17}","true","ArrowDown,ArrowRight","","","","original","1","26","","",""
"html-keyboard-response","242","1125151","0.0-4.0-4.0-1.13","spark_pilot_2","7476","1","20","Female","","","","","","","null","<div style=""font-size:60px;"">+</div>","null","fixation","","","","","","","","","","","27","","",""
"revaluation","243","1129167","0.0-4.0-4.0-0.14","spark_pilot_2","7476","1","20","Female","","false","","","","","[654.3000001907349]","./assets/img/ocean/animals/seahorse.jpg","[""ArrowRight""]","revaluation","ocean","17","{""ArrowUp,ArrowLeft"":26,""ArrowUp,ArrowRight"":10,""ArrowDown,ArrowLeft"":5,""ArrowDown,ArrowRight"":17}","true","ArrowDown,ArrowRight","","","","original","1","28","","",""
"html-keyboard-response","244","1129671","0.0-4.0-4.0-1.14","spark_pilot_2","7476","1","20","Female","","","","","","","null","<div style=""font-size:60px;"">+</div>","null","fixation","","","","","","","","","","","29","","",""
"revaluation","245","1133684","0.0-4.0-4.0-0.15","spark_pilot_2","7476","1","20","Female","","false","","","","","[515.9000000953674]","./assets/img/ocean/animals/octopus.jpg","[""ArrowLeft""]","revaluation","ocean","26","{""ArrowUp,ArrowLeft"":26,""ArrowUp,ArrowRight"":10,""ArrowDown,ArrowLeft"":5,""ArrowDown,ArrowRight"":17}","true","ArrowUp,ArrowLeft","","","","original","1","30","","",""
"html-keyboard-response","246","1134191","0.0-4.0-4.0-1.15","spark_pilot_2","7476","1","20","Female","","","","","","","null","<div style=""font-size:60px;"">+</div>","null","fixation","","","","","","","","","","","31","","",""
"revaluation","247","1138207","0.0-4.0-4.0-0.16","spark_pilot_2","7476","1","20","Female","","false","","","","","[521.2000002861023]","./assets/img/ocean/animals/seahorse.jpg","[""ArrowRight""]","revaluation","ocean","17","{""ArrowUp,ArrowLeft"":26,""ArrowUp,ArrowRight"":10,""ArrowDown,ArrowLeft"":5,""ArrowDown,ArrowRight"":17}","true","ArrowDown,ArrowRight","","","","original","1","32","","",""
"html-keyboard-response","248","1138709","0.0-4.0-4.0-1.16","spark_pilot_2","7476","1","20","Female","","","","","","","null","<div style=""font-size:60px;"">+</div>","null","fixation","","","","","","","","","","","33","","",""
"revaluation","249","1142725","0.0-4.0-4.0-0.17","spark_pilot_2","7476","1","20","Female","","false","","","","","[640.7000002861023]","./assets/img/ocean/animals/seahorse.jpg","[""ArrowRight""]","revaluation","ocean","17","{""ArrowUp,ArrowLeft"":26,""ArrowUp,ArrowRight"":10,""ArrowDown,ArrowLeft"":5,""ArrowDown,ArrowRight"":17}","true","ArrowDown,ArrowRight","","","","original","1","34","","",""
"html-keyboard-response","250","1143237","0.0-4.0-4.0-1.17","spark_pilot_2","7476","1","20","Female","","","","","","","null","<div style=""font-size:60px;"">+</div>","null","fixation","","","","","","","","","","","35","","",""
"learning-instructions","251","1156458","0.0-4.0-5.0-0.0","spark_pilot_2","7476","1","20","Female","","","","","","","650.1999998092651","<p> Time to play the dot game! </p>
            <p> For one minute, click the red dots on the following screen as they appear. </p>
            <p><b> Don't look away, as you will earn bonus for clicking dots</b>. </p>","","instructions","","","","","","","","","","","","","",""
"revaluation","252","1216463","0.0-4.0-6.0-0.0","spark_pilot_2","7476","1","20","Female","","","","","","","[132,112,81,97,79,91,71]","","","rest","","70","","","","","0","60000","","","","","",""
"learning-instructions","253","1223502","0.0-4.0-7.0-0.0","spark_pilot_2","7476","1","20","Female","","","","","","","880.8000001907349","<p> You have almost finished this part of the game! </p>
            <p> We are going to ask you to make a few more choices. </p>","","instructions","","","","","","","","","","","","","",""
"learning-instructions","254","1238094","0.0-4.0-7.0-0.1","spark_pilot_2","7476","1","20","Female","","","","","","","619.2000002861023","<p> First, you need to decide whether to go up or down. When you see each picture, use the arrow keys to make your choice. </p>
            <p><b>You will not see which animal you found, but try to get to the one that will give you the most treasure.</b></p>","","instructions","","","","","","","","","","","","","",""
"revaluation","255","1238990","0.0-4.0-8.0-0.0","spark_pilot_2","7476","1","20","Female","","false","","","","","[893.3000001907349]","./assets/img/ocean/test/3.jpg","[""ArrowUp""]","first stage test","ocean","0","{""ArrowUp,ArrowLeft"":26,""ArrowUp,ArrowRight"":10,""ArrowDown,ArrowLeft"":5,""ArrowDown,ArrowRight"":17}","true","ArrowUp","false","","","original","1","","","",""
"html-keyboard-response","256","1239496","0.0-4.0-8.0-1.0","spark_pilot_2","7476","1","20","Female","","","","","","","null","<div style=""font-size:60px;"">+</div>","null","fixation","","","","","","","","","","","","","",""
"revaluation","257","1239943","0.0-4.0-8.0-0.1","spark_pilot_2","7476","1","20","Female","","false","","","","","[443.69999980926514]","./assets/img/ocean/test/1.jpg","[""ArrowUp""]","first stage test","ocean","0","{""ArrowUp,ArrowLeft"":26,""ArrowUp,ArrowRight"":10,""ArrowDown,ArrowLeft"":5,""ArrowDown,ArrowRight"":17}","true","ArrowUp","false","","","original","1","","","",""
"html-keyboard-response","258","1240449","0.0-4.0-8.0-1.1","spark_pilot_2","7476","1","20","Female","","","","","","","null","<div style=""font-size:60px;"">+</div>","null","fixation","","","","","","","","","","","","","",""
"revaluation","259","1240796","0.0-4.0-8.0-0.2","spark_pilot_2","7476","1","20","Female","","false","","","","","[343.40000009536743]","./assets/img/ocean/test/0.jpg","[""ArrowUp""]","first stage test","ocean","0","{""ArrowUp,ArrowLeft"":26,""ArrowUp,ArrowRight"":10,""ArrowDown,ArrowLeft"":5,""ArrowDown,ArrowRight"":17}","true","ArrowUp","false","","","original","1","","","",""
"html-keyboard-response","260","1241307","0.0-4.0-8.0-1.2","spark_pilot_2","7476","1","20","Female","","","","","","","null","<div style=""font-size:60px;"">+</div>","null","fixation","","","","","","","","","","","","","",""
"revaluation","261","1241643","0.0-4.0-8.0-0.3","spark_pilot_2","7476","1","20","Female","","false","","","","","[332.5]","./assets/img/ocean/test/2.jpg","[""ArrowUp""]","first stage test","ocean","0","{""ArrowUp,ArrowLeft"":26,""ArrowUp,ArrowRight"":10,""ArrowDown,ArrowLeft"":5,""ArrowDown,ArrowRight"":17}","true","ArrowUp","false","","","original","1","","","",""
"html-keyboard-response","262","1242146","0.0-4.0-8.0-1.3","spark_pilot_2","7476","1","20","Female","","","","","","","null","<div style=""font-size:60px;"">+</div>","null","fixation","","","","","","","","","","","","","",""
"learning-instructions","263","1254191","0.0-4.0-9.0-0.0","spark_pilot_2","7476","1","20","Female","","","","","","","700.4000000953674","<p> Now you will see the animals again and can search their chests for treasure. </p>
            <p> This time, you will not see how much treasure you earned, but you will earn more bonus money for making better choices. </p>","","instructions","","","","","","","","","","","","","",""
"revaluation","264","1255052","0.0-4.0-10.0-0.0","spark_pilot_2","7476","1","20","Female","","false","","","","","[857.5]","./assets/img/ocean/animals/octopus.jpg","[""ArrowLeft""]","second stage test","ocean","0","{""ArrowUp,ArrowLeft"":26,""ArrowUp,ArrowRight"":10,""ArrowDown,ArrowLeft"":5,""ArrowDown,ArrowRight"":17}","true","ArrowUp,ArrowLeft","","","","original","1","","","",""
"html-keyboard-response","265","1255561","0.0-4.0-10.0-1.0","spark_pilot_2","7476","1","20","Female","","","","","","","null","<div style=""font-size:60px;"">+</div>","null","fixation","","","","","","","","","","","","","",""
"revaluation","266","1256041","0.0-4.0-10.0-0.1","spark_pilot_2","7476","1","20","Female","","false","","","","","[476.5]","./assets/img/ocean/animals/octopus.jpg","[""ArrowLeft""]","second stage test","ocean","0","{""ArrowUp,ArrowLeft"":26,""ArrowUp,ArrowRight"":10,""ArrowDown,ArrowLeft"":5,""ArrowDown,ArrowRight"":17}","true","ArrowUp,ArrowLeft","","","","original","1","","","",""
"html-keyboard-response","267","1256544","0.0-4.0-10.0-1.1","spark_pilot_2","7476","1","20","Female","","","","","","","null","<div style=""font-size:60px;"">+</div>","null","fixation","","","","","","","","","","","","","",""
"revaluation","268","1256967","0.0-4.0-10.0-0.2","spark_pilot_2","7476","1","20","Female","","false","","","","","[420.69999980926514]","./assets/img/ocean/animals/octopus.jpg","[""ArrowLeft""]","second stage test","ocean","0","{""ArrowUp,ArrowLeft"":26,""ArrowUp,ArrowRight"":10,""ArrowDown,ArrowLeft"":5,""ArrowDown,ArrowRight"":17}","true","ArrowUp,ArrowLeft","","","","original","1","","","",""
"html-keyboard-response","269","1257474","0.0-4.0-10.0-1.2","spark_pilot_2","7476","1","20","Female","","","","","","","null","<div style=""font-size:60px;"">+</div>","null","fixation","","","","","","","","","","","","","",""
"revaluation","270","1257839","0.0-4.0-10.0-0.3","spark_pilot_2","7476","1","20","Female","","false","","","","","[361.7999997138977]","./assets/img/ocean/animals/octopus.jpg","[""ArrowLeft""]","second stage test","ocean","0","{""ArrowUp,ArrowLeft"":26,""ArrowUp,ArrowRight"":10,""ArrowDown,ArrowLeft"":5,""ArrowDown,ArrowRight"":17}","true","ArrowUp,ArrowLeft","","","","original","1","","","",""
"html-keyboard-response","271","1258344","0.0-4.0-10.0-1.3","spark_pilot_2","7476","1","20","Female","","","","","","","null","<div style=""font-size:60px;"">+</div>","null","fixation","","","","","","","","","","","","","",""
"revaluation","272","1258881","0.0-4.0-10.0-0.4","spark_pilot_2","7476","1","20","Female","","false","","","","","[533.4000000953674]","./assets/img/ocean/animals/seahorse.jpg","[""ArrowRight""]","second stage test","ocean","0","{""ArrowUp,ArrowLeft"":26,""ArrowUp,ArrowRight"":10,""ArrowDown,ArrowLeft"":5,""ArrowDown,ArrowRight"":17}","true","ArrowDown,ArrowRight","","","","original","1","","","",""
"html-keyboard-response","273","1259389","0.0-4.0-10.0-1.4","spark_pilot_2","7476","1","20","Female","","","","","","","null","<div style=""font-size:60px;"">+</div>","null","fixation","","","","","","","","","","","","","",""
"revaluation","274","1259790","0.0-4.0-10.0-0.5","spark_pilot_2","7476","1","20","Female","","false","","","","","[398.09999990463257]","./assets/img/ocean/animals/seahorse.jpg","[""ArrowRight""]","second stage test","ocean","0","{""ArrowUp,ArrowLeft"":26,""ArrowUp,ArrowRight"":10,""ArrowDown,ArrowLeft"":5,""ArrowDown,ArrowRight"":17}","true","ArrowDown,ArrowRight","","","","original","1","","","",""
"html-keyboard-response","275","1260299","0.0-4.0-10.0-1.5","spark_pilot_2","7476","1","20","Female","","","","","","","null","<div style=""font-size:60px;"">+</div>","null","fixation","","","","","","","","","","","","","",""
"revaluation","276","1260750","0.0-4.0-10.0-0.6","spark_pilot_2","7476","1","20","Female","","false","","","","","[447.7999997138977]","./assets/img/ocean/animals/seahorse.jpg","[""ArrowRight""]","second stage test","ocean","0","{""ArrowUp,ArrowLeft"":26,""ArrowUp,ArrowRight"":10,""ArrowDown,ArrowLeft"":5,""ArrowDown,ArrowRight"":17}","true","ArrowDown,ArrowRight","","","","original","1","","","",""
"html-keyboard-response","277","1261257","0.0-4.0-10.0-1.6","spark_pilot_2","7476","1","20","Female","","","","","","","null","<div style=""font-size:60px;"">+</div>","null","fixation","","","","","","","","","","","","","",""
"revaluation","278","1261612","0.0-4.0-10.0-0.7","spark_pilot_2","7476","1","20","Female","","false","","","","","[352.40000009536743]","./assets/img/ocean/animals/seahorse.jpg","[""ArrowRight""]","second stage test","ocean","0","{""ArrowUp,ArrowLeft"":26,""ArrowUp,ArrowRight"":10,""ArrowDown,ArrowLeft"":5,""ArrowDown,ArrowRight"":17}","true","ArrowDown,ArrowRight","","","","original","1","","","",""
"html-keyboard-response","279","1262114","0.0-4.0-10.0-1.7","spark_pilot_2","7476","1","20","Female","","","","","","","null","<div style=""font-size:60px;"">+</div>","null","fixation","","","","","","","","","","","","","",""
"learning-instructions","280","1265557","0.0-4.0-0.1-0.2","spark_pilot_2","7476","1","20","Female","","","","","","","669.2999997138977","<p> This time you are searching for treasure in the <b>canyon</b>.</p>","","instructions","","","","","","","","","","","","","",""
"learning-instructions","281","1283833","0.0-4.0-0.1-0.3","spark_pilot_2","7476","1","20","Female","","","","","","","1025.0999999046326","<p><b>New</b> animals with <b>new</b> treasure chests live here. You need to explore to discover where the animal with the best treasure chest is.</p>
                    <p> Like before, once you figure out which animal has the chest with the most treasure, you should try to get to that animal and select that chest! </p>","","instructions","","","","","","","","","","","","","",""
"learning-instructions","282","1299338","0.0-4.0-1.1-0.1","spark_pilot_2","7476","1","20","Female","","","","","","","775.1999998092651","<p> Remember, when you see a picture of the place, use the up and down keys to <b>find an animal</b>.</p>
            <p> When you encounter an animal, you should use the left and right keys to <b>select a treasure chest</b>.</p>
            <p> Don't forget to look out for the robber! </p>","","instructions","","","","","","","","","","","","","",""
"revaluation","283","1305365","0.0-4.0-2.1-0.50","spark_pilot_2","7476","1","20","Female","","false","","","","","[1179.5,985.9000000953674]","./assets/img/canyon/memory/13.jpg","[""ArrowUp"",""ArrowLeft""]","value training","canyon","23","{""ArrowUp,ArrowLeft"":23,""ArrowUp,ArrowRight"":10,""ArrowDown,ArrowLeft"":8,""ArrowDown,ArrowRight"":30}","false","ArrowUp,ArrowLeft","false","","","revaluation","2","0","","",""
"html-keyboard-response","284","1305874","0.0-4.0-2.1-1.50","spark_pilot_2","7476","1","20","Female","","","","","","","null","<div style=""font-size:60px;"">+</div>","null","fixation","","","","","","","","","","","1","","",""
"revaluation","285","1311901","0.0-4.0-2.1-0.51","spark_pilot_2","7476","1","20","Female","","false","","","","","[769.3000001907349,417]","./assets/img/canyon/memory/17.jpg","[""ArrowUp"",""ArrowRight""]","value training","canyon","10","{""ArrowUp,ArrowLeft"":23,""ArrowUp,ArrowRight"":10,""ArrowDown,ArrowLeft"":8,""ArrowDown,ArrowRight"":30}","false","ArrowUp,ArrowRight","false","","","revaluation","2","2","","",""
"html-keyboard-response","286","1312414","0.0-4.0-2.1-1.51","spark_pilot_2","7476","1","20","Female","","","","","","","null","<div style=""font-size:60px;"">+</div>","null","fixation","","","","","","","","","","","3","","",""
"revaluation","287","1318434","0.0-4.0-2.1-0.52","spark_pilot_2","7476","1","20","Female","","false","","","","","[684.5999999046326,570.0999999046326]","./assets/img/canyon/memory/29.jpg","[""ArrowDown"",""ArrowLeft""]","value training","canyon","8","{""ArrowUp,ArrowLeft"":23,""ArrowUp,ArrowRight"":10,""ArrowDown,ArrowLeft"":8,""ArrowDown,ArrowRight"":30}","false","ArrowDown,ArrowLeft","false","","","revaluation","2","4","","",""
"html-keyboard-response","288","1318938","0.0-4.0-2.1-1.52","spark_pilot_2","7476","1","20","Female","","","","","","","null","<div style=""font-size:60px;"">+</div>","null","fixation","","","","","","","","","","","5","","",""
"revaluation","289","1324962","0.0-4.0-2.1-0.53","spark_pilot_2","7476","1","20","Female","","false","","","","","[718,514.2999997138977]","./assets/img/canyon/memory/35.jpg","[""ArrowDown"",""ArrowRight""]","value training","canyon","30","{""ArrowUp,ArrowLeft"":23,""ArrowUp,ArrowRight"":10,""ArrowDown,ArrowLeft"":8,""ArrowDown,ArrowRight"":30}","true","ArrowDown,ArrowRight","false","","","revaluation","2","6","","",""
"html-keyboard-response","290","1325469","0.0-4.0-2.1-1.53","spark_pilot_2","7476","1","20","Female","","","","","","","null","<div style=""font-size:60px;"">+</div>","null","fixation","","","","","","","","","","","7","","",""
"revaluation","291","1331491","0.0-4.0-2.1-0.54","spark_pilot_2","7476","1","20","Female","","false","","","","","[662.3000001907349,503.90000009536743]","./assets/img/canyon/memory/10.jpg","[""ArrowDown"",""ArrowRight""]","value training","canyon","30","{""ArrowUp,ArrowLeft"":23,""ArrowUp,ArrowRight"":10,""ArrowDown,ArrowLeft"":8,""ArrowDown,ArrowRight"":30}","true","ArrowDown,ArrowRight","false","","","revaluation","2","8","","",""
"html-keyboard-response","292","1331997","0.0-4.0-2.1-1.54","spark_pilot_2","7476","1","20","Female","","","","","","","null","<div style=""font-size:60px;"">+</div>","null","fixation","","","","","","","","","","","9","","",""
"revaluation","293","1338019","0.0-4.0-2.1-0.55","spark_pilot_2","7476","1","20","Female","","false","","","","","[775.3000001907349,757.5]","./assets/img/canyon/memory/20.jpg","[""ArrowDown"",""ArrowRight""]","value training","canyon","30","{""ArrowUp,ArrowLeft"":23,""ArrowUp,ArrowRight"":10,""ArrowDown,ArrowLeft"":8,""ArrowDown,ArrowRight"":30}","true","ArrowDown,ArrowRight","false","","","revaluation","2","10","","",""
"html-keyboard-response","294","1338526","0.0-4.0-2.1-1.55","spark_pilot_2","7476","1","20","Female","","","","","","","null","<div style=""font-size:60px;"">+</div>","null","fixation","","","","","","","","","","","11","","",""
"revaluation","295","1342542","0.0-4.0-2.1-0.56","spark_pilot_2","7476","1","20","Female","","false","","","","","[943.1999998092651]","./assets/img/canyon/catch/3.jpg","[""spaceBar""]","value training","canyon","0","{""ArrowUp,ArrowLeft"":23,""ArrowUp,ArrowRight"":10,""ArrowDown,ArrowLeft"":8,""ArrowDown,ArrowRight"":30}","true","spaceBar","true","","","revaluation","2","12","","",""
"html-keyboard-response","296","1343054","0.0-4.0-2.1-1.56","spark_pilot_2","7476","1","20","Female","","","","","","","null","<div style=""font-size:60px;"">+</div>","null","fixation","","","","","","","","","","","13","","",""
"revaluation","297","1349076","0.0-4.0-2.1-0.57","spark_pilot_2","7476","1","20","Female","","false","","","","","[698.4000000953674,398.6000003814697]","./assets/img/canyon/memory/17.jpg","[""ArrowDown"",""ArrowRight""]","value training","canyon","30","{""ArrowUp,ArrowLeft"":23,""ArrowUp,ArrowRight"":10,""ArrowDown,ArrowLeft"":8,""ArrowDown,ArrowRight"":30}","true","ArrowDown,ArrowRight","false","","","revaluation","2","14","","",""
"html-keyboard-response","298","1349582","0.0-4.0-2.1-1.57","spark_pilot_2","7476","1","20","Female","","","","","","","null","<div style=""font-size:60px;"">+</div>","null","fixation","","","","","","","","","","","15","","",""
"revaluation","299","1355604","0.0-4.0-2.1-0.58","spark_pilot_2","7476","1","20","Female","","false","","","","","[400.09999990463257,374.09999990463257]","./assets/img/canyon/memory/19.jpg","[""ArrowDown"",""ArrowRight""]","value training","canyon","30","{""ArrowUp,ArrowLeft"":23,""ArrowUp,ArrowRight"":10,""ArrowDown,ArrowLeft"":8,""ArrowDown,ArrowRight"":30}","true","ArrowDown,ArrowRight","false","","","revaluation","2","16","","",""
"html-keyboard-response","300","1356110","0.0-4.0-2.1-1.58","spark_pilot_2","7476","1","20","Female","","","","","","","null","<div style=""font-size:60px;"">+</div>","null","fixation","","","","","","","","","","","17","","",""
"revaluation","301","1362143","0.0-4.0-2.1-0.59","spark_pilot_2","7476","1","20","Female","","false","","","","","[481.09999990463257,535.5999999046326]","./assets/img/canyon/memory/8.jpg","[""ArrowDown"",""ArrowRight""]","value training","canyon","30","{""ArrowUp,ArrowLeft"":23,""ArrowUp,ArrowRight"":10,""ArrowDown,ArrowLeft"":8,""ArrowDown,ArrowRight"":30}","true","ArrowDown,ArrowRight","false","","","revaluation","2","18","","",""
"html-keyboard-response","302","1362654","0.0-4.0-2.1-1.59","spark_pilot_2","7476","1","20","Female","","","","","","","null","<div style=""font-size:60px;"">+</div>","null","fixation","","","","","","","","","","","19","","",""
"revaluation","303","1368676","0.0-4.0-2.1-0.60","spark_pilot_2","7476","1","20","Female","","false","","","","","[462,562.2000002861023]","./assets/img/canyon/memory/40.jpg","[""ArrowDown"",""ArrowRight""]","value training","canyon","30","{""ArrowUp,ArrowLeft"":23,""ArrowUp,ArrowRight"":10,""ArrowDown,ArrowLeft"":8,""ArrowDown,ArrowRight"":30}","true","ArrowDown,ArrowRight","false","","","revaluation","2","20","","",""
"html-keyboard-response","304","1369183","0.0-4.0-2.1-1.60","spark_pilot_2","7476","1","20","Female","","","","","","","null","<div style=""font-size:60px;"">+</div>","null","fixation","","","","","","","","","","","21","","",""
"revaluation","305","1375204","0.0-4.0-2.1-0.61","spark_pilot_2","7476","1","20","Female","","false","","","","","[708.6000003814697,764.5999999046326]","./assets/img/canyon/memory/32.jpg","[""ArrowDown"",""ArrowRight""]","value training","canyon","30","{""ArrowUp,ArrowLeft"":23,""ArrowUp,ArrowRight"":10,""ArrowDown,ArrowLeft"":8,""ArrowDown,ArrowRight"":30}","true","ArrowDown,ArrowRight","false","","","revaluation","2","22","","",""
"html-keyboard-response","306","1375712","0.0-4.0-2.1-1.61","spark_pilot_2","7476","1","20","Female","","","","","","","null","<div style=""font-size:60px;"">+</div>","null","fixation","","","","","","","","","","","23","","",""
