"trial_type","trial_index","time_elapsed","internal_node_id","task_version","subject_id","assigned_condition","age","gender","success","timeout","failed_images","failed_audio","failed_video","browser_interaction","rt","stimulus","response","task_part","environment","score","rewardMap","correct","fullState","isCatch","numberMissed","duration","condition","order","trial_num","key_press","ground_truth","bonus"
"pavlovia","0","1076","0.0-0.0","spark_pilot_2","7386","3","15","Female","","","","","","","","","","","","","","","","","","","","","","","",""
"preload","1","12328","0.0-1.0","spark_pilot_2","7386","3","15","Female","true","false","[]","[]","[]","[{""event"":""fullscreenenter"",""trial"":2,""time"":25058},{""event"":""blur"",""trial"":637,""time"":2096760},{""event"":""focus"",""trial"":639,""time"":2112857}]","","","","","","","","","","","","","","","","","",""
"fullscreen","2","26005","0.0-2.0","spark_pilot_2","7386","3","15","Female","true","","","","","","","","","","","","","","","","","","","","","","",""
"audio-button-response","3","27922","0.0-3.0-0.0-0.0","spark_pilot_2","7386","3","15","Female","","","","","","","1909","./assets/audio/audiotest/turtle.mp3","2","audio_test","","","","","","","","","","","","","",""
"learning-instructions","4","38676","0.0-3.0-1.0-0.0","spark_pilot_2","7386","3","15","Female","","","","","","","3784","<p> Welcome! Please remember to stay in fullscreen mode and don't click away from the experiment. </p>","","instructions","","","","","","","","","","","","","",""
"learning-instructions","5","50546","0.0-3.0-1.0-0.1","spark_pilot_2","7386","3","15","Female","","","","","","","3462.10000000149","<p> Today you will be playing a game to earn treasure. </p>
            <p> At the end of the experiment, you will earn a bonus based on how much treasure you find. </p>
            <img src='./assets/img/instructions/treasure.jpg' class='instructions-image'>","","instructions","","","","","","","","","","","","","",""
"learning-instructions","6","65424","0.0-3.0-1.0-0.2","spark_pilot_2","7386","3","15","Female","","","","","","","6620.30000000447","<p> Animals have hidden treasure in treasure chests. </p>
            <p> You need to first find an animal and then choose which of their treasure chests to search. </p>
            <img src='./assets/img/space/animals/cat.jpg' class='instructions-image'>","","instructions","","","","","","","","","","","","","",""
"learning-instructions","7","79990","0.0-3.0-1.0-0.3","spark_pilot_2","7386","3","15","Female","","","","","","","1426","<p> In each round, you will search for treasure in a different place. In the real game, there will be two rounds. </p>
            <p> You will begin with a separate, practice round where you will search for treasure in outer space. </p>
            <img src='./assets/img/space/0.jpg' class='instructions-image'>","","instructions","","","","","","","","","","","","","",""
"learning-instructions","8","93606","0.0-3.0-1.0-0.4","spark_pilot_2","7386","3","15","Female","","","","","","","2203.7999999970198","<p> On every turn, you will see a picture of the place that you are in, but the specific image may be different each time. </p>
            <p> For example, both of these images mean you are in outer space. </p>
            <img src='./assets/img/instructions/outerspace.jpg' class='instructions-image'>","","instructions","","","","","","","","","","","","","",""
"learning-instructions","9","104992","0.0-3.0-1.0-0.5","spark_pilot_2","7386","3","15","Female","","","","","","","3568.3000000044703","<p> You need to decide which direction to travel in. </p>
            <p> You can choose between going <b>up or down</b> by using the arrow keys. </p>
            <img src='./assets/img/instructions/updown.jpg' class='instructions-image'>","","instructions","","","","","","","","","","","","","",""
"learning-instructions","10","116382","0.0-3.0-1.0-0.6","spark_pilot_2","7386","3","15","Female","","","","","","","2578","<p> You will have <b>2 seconds</b> to make your choice. </p>
            <p> If you do not make a choice within 2 seconds, you will not find an animal or earn treasure. </p>
            <img src='./assets/img/instructions/2seconds.jpg' class='instructions-image'>","","instructions","","","","","","","","","","","","","",""
"learning-instructions","11","125227","0.0-3.0-1.0-0.7","spark_pilot_2","7386","3","15","Female","","","","","","","1822.1000000014901","<p> Let’s try practicing that now! </p>
            <p> When you see a picture of the place you are in, press the <b>up</b> key to travel up. </p>
            <img src='./assets/img/instructions/pressUp.jpg' class='instructions-image'>","","instructions","","","","","","","","","","","","","",""
"revaluation","12","129244","0.0-3.0-2.0-0.0","spark_pilot_2","7386","3","15","Female","","false","","","","","[1521.7000000029802]","./assets/img/space/0.jpg","[""ArrowUp""]","first stage practice","space","0","null","null","ArrowUp","false","","","","","","","",""
"html-keyboard-response","13","129745","0.0-3.0-2.0-1.0","spark_pilot_2","7386","3","15","Female","","","","","","","null","<div style=""font-size:60px;"">+</div>","null","fixation","","","","","","","","","","","","","",""
"revaluation","14","133765","0.0-3.0-2.0-0.1","spark_pilot_2","7386","3","15","Female","","false","","","","","[1328.5]","./assets/img/space/1.jpg","[""ArrowUp""]","first stage practice","space","0","null","null","ArrowUp","false","","","","","","","",""
"html-keyboard-response","15","134273","0.0-3.0-2.0-1.1","spark_pilot_2","7386","3","15","Female","","","","","","","null","<div style=""font-size:60px;"">+</div>","null","fixation","","","","","","","","","","","","","",""
"revaluation","16","138279","0.0-3.0-2.0-0.2","spark_pilot_2","7386","3","15","Female","","false","","","","","[800.6999999955297]","./assets/img/space/2.jpg","[""ArrowUp""]","first stage practice","space","0","null","null","ArrowUp","false","","","","","","","",""
"html-keyboard-response","17","138781","0.0-3.0-2.0-1.2","spark_pilot_2","7386","3","15","Female","","","","","","","null","<div style=""font-size:60px;"">+</div>","null","fixation","","","","","","","","","","","","","",""
"learning-instructions","18","144551","0.0-3.0-3.0-0.0","spark_pilot_2","7386","3","15","Female","","","","","","","1078.2999999970198","<p> Great job! Now try pressing the <b>down</b> key to travel down. </p>
            <img src='./assets/img/instructions/pressDown.jpg' class='instructions-image'>","","instructions","","","","","","","","","","","","","",""
"revaluation","19","148563","0.0-3.0-4.0-0.0","spark_pilot_2","7386","3","15","Female","","false","","","","","[1331.1000000014901]","./assets/img/space/3.jpg","[""ArrowDown""]","first stage practice","space","0","null","null","ArrowDown","false","","","","","","","",""
"html-keyboard-response","20","149075","0.0-3.0-4.0-1.0","spark_pilot_2","7386","3","15","Female","","","","","","","null","<div style=""font-size:60px;"">+</div>","null","fixation","","","","","","","","","","","","","",""
"revaluation","21","153091","0.0-3.0-4.0-0.1","spark_pilot_2","7386","3","15","Female","","false","","","","","[827.7999999970198]","./assets/img/space/4.jpg","[""ArrowDown""]","first stage practice","space","0","null","null","ArrowDown","false","","","","","","","",""
"html-keyboard-response","22","153594","0.0-3.0-4.0-1.1","spark_pilot_2","7386","3","15","Female","","","","","","","null","<div style=""font-size:60px;"">+</div>","null","fixation","","","","","","","","","","","","","",""
"revaluation","23","157601","0.0-3.0-4.0-0.2","spark_pilot_2","7386","3","15","Female","","false","","","","","[805.1000000014901]","./assets/img/space/5.jpg","[""ArrowDown""]","first stage practice","space","0","null","null","ArrowDown","false","","","","","","","",""
"html-keyboard-response","24","158109","0.0-3.0-4.0-1.2","spark_pilot_2","7386","3","15","Female","","","","","","","null","<div style=""font-size:60px;"">+</div>","null","fixation","","","","","","","","","","","","","",""
"learning-instructions","25","169628","0.0-3.0-5.0-0.0","spark_pilot_2","7386","3","15","Female","","","","","","","1665.5","<p> The animals don’t move, so the animal in the upper part of a place will stay in the upper part of a place, and the animal in the lower part of a place will stay in the lower part of a place. </p>","","instructions","","","","","","","","","","","","","",""
"learning-instructions","26","182227","0.0-3.0-5.0-0.1","spark_pilot_2","7386","3","15","Female","","","","","","","3474.2999999970198","<p> Each animal has two treasure chests for you to choose from. </p>
            <p> The amount of treasure in each chest can range from <b> 0 to 40 pieces.</b></p>","","instructions","","","","","","","","","","","","","",""
"learning-instructions","27","195044","0.0-3.0-5.0-0.2","spark_pilot_2","7386","3","15","Female","","","","","","","1641.2000000029802","<p> You should decide which chest to search for treasure by using the <b>left</b> and <b>right</b> arrow keys. </p>
            <p><b> Pay attention to which animal is on the screen, as the animals have different treasure chests. </b></p>
            <img src='./assets/img/instructions/leftright.jpg' class='instructions-image'>","","instructions","","","","","","","","","","","","","",""
"learning-instructions","28","203316","0.0-3.0-5.0-0.3","spark_pilot_2","7386","3","15","Female","","","","","","","1911.8999999985099","<p> Let’s try practicing that now. </p>
            <p> When you see an animal, choose which chest to search for treasure. </p>
            <img src='./assets/img/instructions/chooseChest.jpg' class='instructions-image'>","","instructions","","","","","","","","","","","","","",""
"revaluation","29","207339","0.0-3.0-6.0-0.0","spark_pilot_2","7386","3","15","Female","","false","","","","","[948.3000000044703]","./assets/img/space/animals/cat.jpg","[""ArrowRight""]","second stage practice","space","36","{""ArrowUp,ArrowLeft"":3,""ArrowUp,ArrowRight"":36,""ArrowDown,ArrowLeft"":15,""ArrowDown,ArrowRight"":23}","true","ArrowUp,ArrowRight","","","","","","","","",""
"html-keyboard-response","30","207855","0.0-3.0-6.0-1.0","spark_pilot_2","7386","3","15","Female","","","","","","","null","<div style=""font-size:60px;"">+</div>","null","fixation","","","","","","","","","","","","","",""
"revaluation","31","211877","0.0-3.0-6.0-0.1","spark_pilot_2","7386","3","15","Female","","false","","","","","[575.3999999985099]","./assets/img/space/animals/cat.jpg","[""ArrowRight""]","second stage practice","space","36","{""ArrowUp,ArrowLeft"":3,""ArrowUp,ArrowRight"":36,""ArrowDown,ArrowLeft"":15,""ArrowDown,ArrowRight"":23}","true","ArrowUp,ArrowRight","","","","","","","","",""
"html-keyboard-response","32","212389","0.0-3.0-6.0-1.1","spark_pilot_2","7386","3","15","Female","","","","","","","null","<div style=""font-size:60px;"">+</div>","null","fixation","","","","","","","","","","","","","",""
"revaluation","33","216403","0.0-3.0-6.0-0.2","spark_pilot_2","7386","3","15","Female","","false","","","","","[1147.5]","./assets/img/space/animals/rabbit.jpg","[""ArrowLeft""]","second stage practice","space","15","{""ArrowUp,ArrowLeft"":3,""ArrowUp,ArrowRight"":36,""ArrowDown,ArrowLeft"":15,""ArrowDown,ArrowRight"":23}","false","ArrowDown,ArrowLeft","","","","","","","","",""
"html-keyboard-response","34","216907","0.0-3.0-6.0-1.2","spark_pilot_2","7386","3","15","Female","","","","","","","null","<div style=""font-size:60px;"">+</div>","null","fixation","","","","","","","","","","","","","",""
"revaluation","35","220912","0.0-3.0-6.0-0.3","spark_pilot_2","7386","3","15","Female","","false","","","","","[452.3999999985099]","./assets/img/space/animals/rabbit.jpg","[""ArrowRight""]","second stage practice","space","23","{""ArrowUp,ArrowLeft"":3,""ArrowUp,ArrowRight"":36,""ArrowDown,ArrowLeft"":15,""ArrowDown,ArrowRight"":23}","true","ArrowDown,ArrowRight","","","","","","","","",""
"html-keyboard-response","36","221414","0.0-3.0-6.0-1.3","spark_pilot_2","7386","3","15","Female","","","","","","","null","<div style=""font-size:60px;"">+</div>","null","fixation","","","","","","","","","","","","","",""
"learning-instructions","37","241061","0.0-3.0-7.0-0.0","spark_pilot_2","7386","3","15","Female","","","","","","","2827.1999999955297","<p> Great job. Now let’s try putting it together. </p>
            <p> On each turn, you will first see a picture to remind you of the place you are in, and you need to choose whether to go up or down. </p>
            <p> Then you will see an animal and choose which of its chests to search for treasure. </p>","","instructions","","","","","","","","","","","","","",""
"learning-instructions","38","250308","0.0-3.0-7.0-0.1","spark_pilot_2","7386","3","15","Female","","","","","","","994.6000000014901","<p> When you choose whether to go up or down, try to go to the animal with the chest with the most treasure. </p>
            <p> Try practicing that now! </p>","","instructions","","","","","","","","","","","","","",""
"revaluation","39","256325","0.0-3.0-8.0-0.0","spark_pilot_2","7386","3","15","Female","","false","","","","","[740.8000000044703,629.2999999970198]","./assets/img/space/6.jpg","[""ArrowUp"",""ArrowRight""]","full practice","space","36","{""ArrowUp,ArrowLeft"":3,""ArrowUp,ArrowRight"":36,""ArrowDown,ArrowLeft"":15,""ArrowDown,ArrowRight"":23}","true","ArrowUp,ArrowRight","false","","","","","","","",""
"html-keyboard-response","40","256827","0.0-3.0-8.0-1.0","spark_pilot_2","7386","3","15","Female","","","","","","","null","<div style=""font-size:60px;"">+</div>","null","fixation","","","","","","","","","","","","","",""
"revaluation","41","262857","0.0-3.0-8.0-0.1","spark_pilot_2","7386","3","15","Female","","false","","","","","[908.6000000014901,730.3999999985099]","./assets/img/space/7.jpg","[""ArrowUp"",""ArrowRight""]","full practice","space","36","{""ArrowUp,ArrowLeft"":3,""ArrowUp,ArrowRight"":36,""ArrowDown,ArrowLeft"":15,""ArrowDown,ArrowRight"":23}","true","ArrowUp,ArrowRight","false","","","","","","","",""
"html-keyboard-response","42","263372","0.0-3.0-8.0-1.1","spark_pilot_2","7386","3","15","Female","","","","","","","null","<div style=""font-size:60px;"">+</div>","null","fixation","","","","","","","","","","","","","",""
"revaluation","43","269390","0.0-3.0-8.0-0.2","spark_pilot_2","7386","3","15","Female","","false","","","","","[755.5,480]","./assets/img/space/8.jpg","[""ArrowUp"",""ArrowLeft""]","full practice","space","3","{""ArrowUp,ArrowLeft"":3,""ArrowUp,ArrowRight"":36,""ArrowDown,ArrowLeft"":15,""ArrowDown,ArrowRight"":23}","false","ArrowUp,ArrowLeft","false","","","","","","","",""
"html-keyboard-response","44","269907","0.0-3.0-8.0-1.2","spark_pilot_2","7386","3","15","Female","","","","","","","null","<div style=""font-size:60px;"">+</div>","null","fixation","","","","","","","","","","","","","",""
"revaluation","45","275939","0.0-3.0-8.0-0.3","spark_pilot_2","7386","3","15","Female","","false","","","","","[771.7999999970198,462.6000000014901]","./assets/img/space/9.jpg","[""ArrowUp"",""ArrowRight""]","full practice","space","36","{""ArrowUp,ArrowLeft"":3,""ArrowUp,ArrowRight"":36,""ArrowDown,ArrowLeft"":15,""ArrowDown,ArrowRight"":23}","true","ArrowUp,ArrowRight","false","","","","","","","",""
"html-keyboard-response","46","276456","0.0-3.0-8.0-1.3","spark_pilot_2","7386","3","15","Female","","","","","","","null","<div style=""font-size:60px;"">+</div>","null","fixation","","","","","","","","","","","","","",""
"revaluation","47","282462","0.0-3.0-8.0-0.4","spark_pilot_2","7386","3","15","Female","","false","","","","","[535.3000000044703,463.29999999701977]","./assets/img/space/10.jpg","[""ArrowUp"",""ArrowRight""]","full practice","space","36","{""ArrowUp,ArrowLeft"":3,""ArrowUp,ArrowRight"":36,""ArrowDown,ArrowLeft"":15,""ArrowDown,ArrowRight"":23}","true","ArrowUp,ArrowRight","false","","","","","","","",""
"html-keyboard-response","48","282964","0.0-3.0-8.0-1.4","spark_pilot_2","7386","3","15","Female","","","","","","","null","<div style=""font-size:60px;"">+</div>","null","fixation","","","","","","","","","","","","","",""
"learning-instructions","49","295449","0.0-3.0-9.0-0.0","spark_pilot_2","7386","3","15","Female","","","","","","","2183.89999999851","<p> One last thing: sometimes, you will see a robber. The robber can be anywhere in the picture. </p>
            <p> If you do not stop them, you will lose treasure. </p>
            <img src='./assets/img/instructions/robber.jpg' class='instructions-image'>","","instructions","","","","","","","","","","","","","",""
"learning-instructions","50","303524","0.0-3.0-9.0-0.1","spark_pilot_2","7386","3","15","Female","","","","","","","909.6000000014901","<p> If you see the robber, you should <b>press the space bar</b> rather than using the arrow keys. </p>
            <p> Try practicing that now! </p>","","instructions","","","","","","","","","","","","","",""
"revaluation","51","307539","0.0-3.0-10.0-0.0","spark_pilot_2","7386","3","15","Female","","false","","","","","[1141.6999999955297]","./assets/img/space/catch/0.jpg","[""spaceBar""]","catch practice","space","0","{""ArrowUp,ArrowLeft"":3,""ArrowUp,ArrowRight"":36,""ArrowDown,ArrowLeft"":15,""ArrowDown,ArrowRight"":23}","true","spaceBar","true","","","","","","","",""
"html-keyboard-response","52","308040","0.0-3.0-10.0-1.0","spark_pilot_2","7386","3","15","Female","","","","","","","null","<div style=""font-size:60px;"">+</div>","null","fixation","","","","","","","","","","","","","",""
"revaluation","53","312070","0.0-3.0-10.0-0.1","spark_pilot_2","7386","3","15","Female","","false","","","","","[545.7000000029802]","./assets/img/space/catch/1.jpg","[""spaceBar""]","catch practice","space","0","{""ArrowUp,ArrowLeft"":3,""ArrowUp,ArrowRight"":36,""ArrowDown,ArrowLeft"":15,""ArrowDown,ArrowRight"":23}","true","spaceBar","true","","","","","","","",""
"html-keyboard-response","54","312573","0.0-3.0-10.0-1.1","spark_pilot_2","7386","3","15","Female","","","","","","","null","<div style=""font-size:60px;"">+</div>","null","fixation","","","","","","","","","","","","","",""
"revaluation","55","316585","0.0-3.0-10.0-0.2","spark_pilot_2","7386","3","15","Female","","false","","","","","[467.6000000014901]","./assets/img/space/catch/2.jpg","[""spaceBar""]","catch practice","space","0","{""ArrowUp,ArrowLeft"":3,""ArrowUp,ArrowRight"":36,""ArrowDown,ArrowLeft"":15,""ArrowDown,ArrowRight"":23}","true","spaceBar","true","","","","","","","",""
"html-keyboard-response","56","317090","0.0-3.0-10.0-1.2","spark_pilot_2","7386","3","15","Female","","","","","","","null","<div style=""font-size:60px;"">+</div>","null","fixation","","","","","","","","","","","","","",""
"learning-instructions","57","332914","0.0-3.0-11.0-0.0","spark_pilot_2","7386","3","15","Female","","","","","","","2238.7000000029802","<p> After you explore a place to find treasure, it will be time to play a different game. </p>
            <p> During this game, red dots will appear on the screen and fall down slowly. </p>
            <p><b> You must click on them before they reach the bottom. </b></p>
            <img src='./assets/img/instructions/dotGame.jpg' class='instructions-image'>","","instructions","","","","","","","","","","","","","",""
"learning-instructions","58","342604","0.0-3.0-11.0-0.1","spark_pilot_2","7386","3","15","Female","","","","","","","4031.39999999851","<p> For every dot you click, you will earn additional treasure. </p>
            <p> Let’s try practicing that now. </p>","","instructions","","","","","","","","","","","","","",""
"revaluation","59","357609","0.0-3.0-12.0-0.0","spark_pilot_2","7386","3","15","Female","","","","","","","[115]","","","rest practice","","10","","","","","0","15000","","","","","",""
"learning-instructions","60","365816","0.0-3.0-13.0-0.0-0.0","spark_pilot_2","7386","3","15","Female","","","","","","","2953.2999999970198","<p> Now, you will practice a shortened version of the game to get a sense of how it all fits together. </p>","","instructions","","","","","","","","","","","","","",""
"learning-instructions","61","372118","0.0-3.0-13.0-0.0-0.1","spark_pilot_2","7386","3","15","Female","","","","","","","3123.7999999970198","<p>This time you are searching for treasure in outer space.</p>","","instructions","","","","","","","","","","","","","",""
"learning-instructions","62","387939","0.0-3.0-13.0-1.0-0.0","spark_pilot_2","7386","3","15","Female","","","","","","","1063.8000000044703","<p> Remember, when you see a picture of the place, use the up and down keys to <b>find an animal</b>.</p>
            <p> When you encounter an animal, you should use the left and right keys to <b>select a treasure chest</b>.</p>
            <p> Don't forget to look out for the robber! </p>","","instructions","","","","","","","","","","","","","",""
"revaluation","63","393962","0.0-3.0-13.0-2.0-0.0","spark_pilot_2","7386","3","15","Female","","false","","","","","[871.1000000014901,471.6000000014901]","./assets/img/space/11.jpg","[""ArrowUp"",""ArrowRight""]","practice block","space","36","{""ArrowUp,ArrowLeft"":3,""ArrowUp,ArrowRight"":36,""ArrowDown,ArrowLeft"":15,""ArrowDown,ArrowRight"":23}","true","ArrowUp,ArrowRight","false","","","","","","","",""
"html-keyboard-response","64","394475","0.0-3.0-13.0-2.0-1.0","spark_pilot_2","7386","3","15","Female","","","","","","","null","<div style=""font-size:60px;"">+</div>","null","fixation","","","","","","","","","","","","","",""
"revaluation","65","400504","0.0-3.0-13.0-2.0-0.1","spark_pilot_2","7386","3","15","Female","","false","","","","","[989,491.29999999701977]","./assets/img/space/12.jpg","[""ArrowUp"",""ArrowRight""]","practice block","space","36","{""ArrowUp,ArrowLeft"":3,""ArrowUp,ArrowRight"":36,""ArrowDown,ArrowLeft"":15,""ArrowDown,ArrowRight"":23}","true","ArrowUp,ArrowRight","false","","","","","","","",""
"html-keyboard-response","66","401009","0.0-3.0-13.0-2.0-1.1","spark_pilot_2","7386","3","15","Female","","","","","","","null","<div style=""font-size:60px;"">+</div>","null","fixation","","","","","","","","","","","","","",""
"revaluation","67","407037","0.0-3.0-13.0-2.0-0.2","spark_pilot_2","7386","3","15","Female","","false","","","","","[854.1999999955297,445.09999999403954]","./assets/img/space/13.jpg","[""ArrowUp"",""ArrowRight""]","practice block","space","36","{""ArrowUp,ArrowLeft"":3,""ArrowUp,ArrowRight"":36,""ArrowDown,ArrowLeft"":15,""ArrowDown,ArrowRight"":23}","true","ArrowUp,ArrowRight","false","","","","","","","",""
"html-keyboard-response","68","407540","0.0-3.0-13.0-2.0-1.2","spark_pilot_2","7386","3","15","Female","","","","","","","null","<div style=""font-size:60px;"">+</div>","null","fixation","","","","","","","","","","","","","",""
"revaluation","69","413564","0.0-3.0-13.0-2.0-0.3","spark_pilot_2","7386","3","15","Female","","false","","","","","[701.3000000044703,427.5]","./assets/img/space/14.jpg","[""ArrowUp"",""ArrowRight""]","practice block","space","36","{""ArrowUp,ArrowLeft"":3,""ArrowUp,ArrowRight"":36,""ArrowDown,ArrowLeft"":15,""ArrowDown,ArrowRight"":23}","true","ArrowUp,ArrowRight","false","","","","","","","",""
"html-keyboard-response","70","414074","0.0-3.0-13.0-2.0-1.3","spark_pilot_2","7386","3","15","Female","","","","","","","null","<div style=""font-size:60px;"">+</div>","null","fixation","","","","","","","","","","","","","",""
"revaluation","71","420082","0.0-3.0-13.0-2.0-0.4","spark_pilot_2","7386","3","15","Female","","false","","","","","[797.7000000029802,419.1000000014901]","./assets/img/space/11.jpg","[""ArrowUp"",""ArrowRight""]","practice block","space","36","{""ArrowUp,ArrowLeft"":3,""ArrowUp,ArrowRight"":36,""ArrowDown,ArrowLeft"":15,""ArrowDown,ArrowRight"":23}","true","ArrowUp,ArrowRight","false","","","","","","","",""
"html-keyboard-response","72","420584","0.0-3.0-13.0-2.0-1.4","spark_pilot_2","7386","3","15","Female","","","","","","","null","<div style=""font-size:60px;"">+</div>","null","fixation","","","","","","","","","","","","","",""
"revaluation","73","426591","0.0-3.0-13.0-2.0-0.5","spark_pilot_2","7386","3","15","Female","","false","","","","","[1127.3000000044703,438]","./assets/img/space/12.jpg","[""ArrowUp"",""ArrowRight""]","practice block","space","36","{""ArrowUp,ArrowLeft"":3,""ArrowUp,ArrowRight"":36,""ArrowDown,ArrowLeft"":15,""ArrowDown,ArrowRight"":23}","true","ArrowUp,ArrowRight","false","","","","","","","",""
"html-keyboard-response","74","427093","0.0-3.0-13.0-2.0-1.5","spark_pilot_2","7386","3","15","Female","","","","","","","null","<div style=""font-size:60px;"">+</div>","null","fixation","","","","","","","","","","","","","",""
"revaluation","75","433104","0.0-3.0-13.0-2.0-0.6","spark_pilot_2","7386","3","15","Female","","false","","","","","[962.7000000029802,348.79999999701977]","./assets/img/space/13.jpg","[""ArrowUp"",""ArrowRight""]","practice block","space","36","{""ArrowUp,ArrowLeft"":3,""ArrowUp,ArrowRight"":36,""ArrowDown,ArrowLeft"":15,""ArrowDown,ArrowRight"":23}","true","ArrowUp,ArrowRight","false","","","","","","","",""
"html-keyboard-response","76","433607","0.0-3.0-13.0-2.0-1.6","spark_pilot_2","7386","3","15","Female","","","","","","","null","<div style=""font-size:60px;"">+</div>","null","fixation","","","","","","","","","","","","","",""
"revaluation","77","439613","0.0-3.0-13.0-2.0-0.7","spark_pilot_2","7386","3","15","Female","","false","","","","","[697.4000000059605,311.8999999985099]","./assets/img/space/14.jpg","[""ArrowUp"",""ArrowRight""]","practice block","space","36","{""ArrowUp,ArrowLeft"":3,""ArrowUp,ArrowRight"":36,""ArrowDown,ArrowLeft"":15,""ArrowDown,ArrowRight"":23}","true","ArrowUp,ArrowRight","false","","","","","","","",""
"html-keyboard-response","78","440115","0.0-3.0-13.0-2.0-1.7","spark_pilot_2","7386","3","15","Female","","","","","","","null","<div style=""font-size:60px;"">+</div>","null","fixation","","","","","","","","","","","","","",""
"revaluation","79","444118","0.0-3.0-13.0-2.0-0.8","spark_pilot_2","7386","3","15","Female","","false","","","","","[599]","./assets/img/space/catch/3.jpg","[""spaceBar""]","practice block","space","0","{""ArrowUp,ArrowLeft"":3,""ArrowUp,ArrowRight"":36,""ArrowDown,ArrowLeft"":15,""ArrowDown,ArrowRight"":23}","true","spaceBar","true","","","","","","","",""
"html-keyboard-response","80","444620","0.0-3.0-13.0-2.0-1.8","spark_pilot_2","7386","3","15","Female","","","","","","","null","<div style=""font-size:60px;"">+</div>","null","fixation","","","","","","","","","","","","","",""
"learning-instructions","81","460050","0.0-3.0-13.0-3.0-0.0","spark_pilot_2","7386","3","15","Female","","","","","","","2445.60000000149","<p> Now, you will travel with a friend who will choose whether you go up or down first. </p>
            <p> On these turns, you will just see the animal that they found. You will still get to choose which chest to search for treasure.</p>","","instructions","","","","","","","","","","","","","",""
"revaluation","82","464066","0.0-3.0-13.0-4.0-0.0","spark_pilot_2","7386","3","15","Female","","false","","","","","[1486.7999999970198]","./assets/img/space/animals/cat.jpg","[""ArrowRight""]","practice block","space","36","{""ArrowUp,ArrowLeft"":3,""ArrowUp,ArrowRight"":36,""ArrowDown,ArrowLeft"":15,""ArrowDown,ArrowRight"":23}","true","ArrowUp,ArrowRight","","","","","","","","",""
"html-keyboard-response","83","464580","0.0-3.0-13.0-4.0-1.0","spark_pilot_2","7386","3","15","Female","","","","","","","null","<div style=""font-size:60px;"">+</div>","null","fixation","","","","","","","","","","","","","",""
"revaluation","84","468598","0.0-3.0-13.0-4.0-0.1","spark_pilot_2","7386","3","15","Female","","false","","","","","[595.7000000029802]","./assets/img/space/animals/cat.jpg","[""ArrowRight""]","practice block","space","36","{""ArrowUp,ArrowLeft"":3,""ArrowUp,ArrowRight"":36,""ArrowDown,ArrowLeft"":15,""ArrowDown,ArrowRight"":23}","true","ArrowUp,ArrowRight","","","","","","","","",""
"html-keyboard-response","85","469106","0.0-3.0-13.0-4.0-1.1","spark_pilot_2","7386","3","15","Female","","","","","","","null","<div style=""font-size:60px;"">+</div>","null","fixation","","","","","","","","","","","","","",""
"revaluation","86","473132","0.0-3.0-13.0-4.0-0.2","spark_pilot_2","7386","3","15","Female","","false","","","","","[557]","./assets/img/space/animals/rabbit.jpg","[""ArrowRight""]","practice block","space","23","{""ArrowUp,ArrowLeft"":3,""ArrowUp,ArrowRight"":36,""ArrowDown,ArrowLeft"":15,""ArrowDown,ArrowRight"":23}","true","ArrowDown,ArrowRight","","","","","","","","",""
"html-keyboard-response","87","473642","0.0-3.0-13.0-4.0-1.2","spark_pilot_2","7386","3","15","Female","","","","","","","null","<div style=""font-size:60px;"">+</div>","null","fixation","","","","","","","","","","","","","",""
"revaluation","88","477649","0.0-3.0-13.0-4.0-0.3","spark_pilot_2","7386","3","15","Female","","false","","","","","[462.3999999985099]","./assets/img/space/animals/rabbit.jpg","[""ArrowRight""]","practice block","space","23","{""ArrowUp,ArrowLeft"":3,""ArrowUp,ArrowRight"":36,""ArrowDown,ArrowLeft"":15,""ArrowDown,ArrowRight"":23}","true","ArrowDown,ArrowRight","","","","","","","","",""
"html-keyboard-response","89","478158","0.0-3.0-13.0-4.0-1.3","spark_pilot_2","7386","3","15","Female","","","","","","","null","<div style=""font-size:60px;"">+</div>","null","fixation","","","","","","","","","","","","","",""
"learning-instructions","90","486256","0.0-3.0-13.0-5.0-0.0","spark_pilot_2","7386","3","15","Female","","","","","","","733.1000000014901","<p> Time to play the dot game! </p>
            <p> For 15 seconds, click the red dots on the following screen as they appear. </p>","","instructions","","","","","","","","","","","","","",""
"revaluation","91","501258","0.0-3.0-13.0-6.0-0.0","spark_pilot_2","7386","3","15","Female","","","","","","","[68]","","","rest practice","","10","","","","","0","15000","","","","","",""
"learning-instructions","92","510172","0.0-3.0-13.0-7.0-0.0","spark_pilot_2","7386","3","15","Female","","","","","","","2797.2000000029802","<p> You have almost finished this part of the game! </p>
            <p> We are going to ask you to make a few more choices. </p>","","instructions","","","","","","","","","","","","","",""
"learning-instructions","93","526030","0.0-3.0-13.0-7.0-0.1","spark_pilot_2","7386","3","15","Female","","","","","","","1866","<p> First, you need to decide whether to go up or down. When you see each picture, use the arrow keys to make your choice. </p>
            <p><b>You will not see which animal you found, but try to get to the one that will give you the most treasure.</b></p>","","instructions","","","","","","","","","","","","","",""
"revaluation","94","526651","0.0-3.0-13.0-8.0","spark_pilot_2","7386","3","15","Female","","false","","","","","[619.3999999985099]","./assets/img/space/15.jpg","[""ArrowUp""]","practice block","space","0","{""ArrowUp,ArrowLeft"":3,""ArrowUp,ArrowRight"":36,""ArrowDown,ArrowLeft"":15,""ArrowDown,ArrowRight"":23}","true","ArrowUp","false","","","","","","","",""
"html-keyboard-response","95","527154","0.0-3.0-13.0-9.0","spark_pilot_2","7386","3","15","Female","","","","","","","null","<div style=""font-size:60px;"">+</div>","null","fixation","","","","","","","","","","","","","",""
"learning-instructions","96","540668","0.0-3.0-13.0-10.0-0.0","spark_pilot_2","7386","3","15","Female","","","","","","","2133.39999999851","<p> Now you will see the animals again and can search their chests for treasure. </p>
            <p> This time, you will not see how much treasure you earned, but you will earn more bonus money for making better choices. </p>","","instructions","","","","","","","","","","","","","",""
"revaluation","97","541564","0.0-3.0-13.0-11.0-0.0","spark_pilot_2","7386","3","15","Female","","false","","","","","[893.5]","./assets/img/space/animals/cat.jpg","[""ArrowRight""]","practice block","space","0","{""ArrowUp,ArrowLeft"":3,""ArrowUp,ArrowRight"":36,""ArrowDown,ArrowLeft"":15,""ArrowDown,ArrowRight"":23}","true","ArrowUp,ArrowRight","","","","","","","","",""
"html-keyboard-response","98","542072","0.0-3.0-13.0-11.0-1.0","spark_pilot_2","7386","3","15","Female","","","","","","","null","<div style=""font-size:60px;"">+</div>","null","fixation","","","","","","","","","","","","","",""
"revaluation","99","542635","0.0-3.0-13.0-11.0-0.1","spark_pilot_2","7386","3","15","Female","","false","","","","","[560]","./assets/img/space/animals/rabbit.jpg","[""ArrowRight""]","practice block","space","0","{""ArrowUp,ArrowLeft"":3,""ArrowUp,ArrowRight"":36,""ArrowDown,ArrowLeft"":15,""ArrowDown,ArrowRight"":23}","true","ArrowDown,ArrowRight","","","","","","","","",""
"html-keyboard-response","100","543143","0.0-3.0-13.0-11.0-1.1","spark_pilot_2","7386","3","15","Female","","","","","","","null","<div style=""font-size:60px;"">+</div>","null","fixation","","","","","","","","","","","","","",""
"learning-instructions","101","550396","0.0-3.0-14.0-0.0","spark_pilot_2","7386","3","15","Female","","","","","","","2680.7000000029802","<p> Before you start, we're going to ask you a few questions about how the game works. </p>","","instructions","","","","","","","","","","","","","",""
"comp-q","102","557539","0.0-3.0-15.0-0.0-0.0","spark_pilot_2","7386","3","15","Female","","","","","","","1563.5999999940395","<p> <b> True or False? </b> </p>
            <p> There can be 50 pieces of treasure in a given animal's chest. </p>","1","comp_question","","","","true","","","","","","","","","",""
"comp-q","103","565260","0.0-3.0-15.0-0.0-1.0","spark_pilot_2","7386","3","15","Female","","","","","","","1075.9000000059605","<p> <b> That's right! </b> The amount of treasure in each chest can range from 0 to 40 pieces. </p>","0","comp_answer","","","","","","","","","","","","","",""
"comp-q","104","573303","0.0-3.0-15.0-0.1-0.1","spark_pilot_2","7386","3","15","Female","","","","","","","938.2000000029802","<p> <b> True or False? </b> </p><p> In this game, all animals have the same amount of treasure in their left and right chests. </p>","1","comp_question","","","","true","","","","","","","","","",""
"comp-q","105","582356","0.0-3.0-15.0-0.1-1.1","spark_pilot_2","7386","3","15","Female","","","","","","","3831.7000000029802","<p> <b> That's right! </b> Animals have different amounts of treasure in their treasure chests. </p>","0","comp_answer","","","","","","","","","","","","","",""
"comp-q","106","588981","0.0-3.0-15.0-0.2-0.2","spark_pilot_2","7386","3","15","Female","","","","","","","797.7000000029802","<p> <b> True or False? </b> </p><p> The same animal will always be there if you go up in the same place. </p>","0","comp_question","","","","true","","","","","","","","","",""
"comp-q","107","599494","0.0-3.0-15.0-0.2-1.2","spark_pilot_2","7386","3","15","Female","","","","","","","4079.3000000044703","<p> <b> That's right! </b> One animal lives in the upper part and one lives in the lower part of every place. </p>","0","comp_answer","","","","","","","","","","","","","",""
"comp-q","108","606062","0.0-3.0-15.0-0.3-0.3","spark_pilot_2","7386","3","15","Female","","","","","","","1047.7999999970198","<p> <b> True or False? </b> </p><p> If you see a different picture, it means you are in a new place. </p>","0","comp_question","","","","false","","","","","","","","","",""
"comp-q","109","622034","0.0-3.0-15.0-0.3-1.3","spark_pilot_2","7386","3","15","Female","","","","","","","4889.29999999702","<p> <b>Incorrect.</b> Lots of different images may show the same place. For example,  you may see three different images that all remind you that you are in outer space. </p>","0","comp_answer","","","","","","","","","","","","","",""
"comp-q","110","628454","0.0-3.0-15.0-0.4-0.4","spark_pilot_2","7386","3","15","Female","","","","","","","919.3999999985099","<p> <b> True or False? </b> </p><p> If you see a different picture, it means you are in a new place. </p>","1","comp_question","","","","true","","","","","","","","","",""
"comp-q","111","641828","0.0-3.0-15.0-0.4-1.4","spark_pilot_2","7386","3","15","Female","","","","","","","2162.7999999970198","<p> <b> That's right! </b> Lots of different images may show the same place. For example,  you may see three different images that all remind you that you are in outer space. </p>","0","comp_answer","","","","","","","","","","","","","",""
"learning-instructions","112","653542","0.0-3.0-16.0-0.0","spark_pilot_2","7386","3","15","Female","","","","","","","1857.2000000029802","<p> Good job. Remember to do your best because the amount of treasure you earn will be converted into bonus money. </p>
            <p> It’s time to start the real game! </p>","","instructions","","","","","","","","","","","","","",""
"learning-instructions","113","659006","0.0-4.0-0.0-0.0","spark_pilot_2","7386","3","15","Female","","","","","","","2761.39999999851","<p> This time you are searching for treasure in the <b>ocean</b>.</p>","","instructions","","","","","","","","","","","","","",""
"learning-instructions","114","677992","0.0-4.0-0.0-0.1","spark_pilot_2","7386","3","15","Female","","","","","","","1709.0999999940395","<p><b>New</b> animals with <b>new</b> treasure chests live here. You need to explore to discover where the animal with the best treasure chest is.</p>
                    <p> Like before, once you figure out which animal has the chest with the most treasure, you should try to get to that animal and select that chest! </p>","","instructions","","","","","","","","","","","","","",""
"learning-instructions","115","694942","0.0-4.0-1.0-0.0","spark_pilot_2","7386","3","15","Female","","","","","","","2217.2000000029802","<p> Remember, when you see a picture of the place, use the up and down keys to <b>find an animal</b>.</p>
            <p> When you encounter an animal, you should use the left and right keys to <b>select a treasure chest</b>.</p>
            <p> Don't forget to look out for the robber! </p>","","instructions","","","","","","","","","","","","","",""
"revaluation","116","700948","0.0-4.0-2.0-0.0","spark_pilot_2","7386","3","15","Female","","false","","","","","[747.5,800.7999999970198]","./assets/img/ocean/memory/21.jpg","[""ArrowUp"",""ArrowRight""]","value training","ocean","10","{""ArrowUp,ArrowLeft"":23,""ArrowUp,ArrowRight"":10,""ArrowDown,ArrowLeft"":8,""ArrowDown,ArrowRight"":30}","false","ArrowUp,ArrowRight","false","","","original","1","0","","",""
"html-keyboard-response","117","701471","0.0-4.0-2.0-1.0","spark_pilot_2","7386","3","15","Female","","","","","","","null","<div style=""font-size:60px;"">+</div>","null","fixation","","","","","","","","","","","1","","",""
"revaluation","118","707502","0.0-4.0-2.0-0.1","spark_pilot_2","7386","3","15","Female","","false","","","","","[695.6000000014901,344.5]","./assets/img/ocean/memory/33.jpg","[""ArrowUp"",""ArrowLeft""]","value training","ocean","23","{""ArrowUp,ArrowLeft"":23,""ArrowUp,ArrowRight"":10,""ArrowDown,ArrowLeft"":8,""ArrowDown,ArrowRight"":30}","false","ArrowUp,ArrowLeft","false","","","original","1","2","","",""
"html-keyboard-response","119","708008","0.0-4.0-2.0-1.1","spark_pilot_2","7386","3","15","Female","","","","","","","null","<div style=""font-size:60px;"">+</div>","null","fixation","","","","","","","","","","","3","","",""
"revaluation","120","712036","0.0-4.0-2.0-0.2","spark_pilot_2","7386","3","15","Female","","false","","","","","[631.6999999955297]","./assets/img/ocean/catch/7.jpg","[""ArrowDown""]","value training","ocean","-10","{""ArrowUp,ArrowLeft"":23,""ArrowUp,ArrowRight"":10,""ArrowDown,ArrowLeft"":8,""ArrowDown,ArrowRight"":30}","false","ArrowDown","true","","","original","1","4","","",""
"html-keyboard-response","121","712540","0.0-4.0-2.0-1.2","spark_pilot_2","7386","3","15","Female","","","","","","","null","<div style=""font-size:60px;"">+</div>","null","fixation","","","","","","","","","","","5","","",""
"revaluation","122","718577","0.0-4.0-2.0-0.3","spark_pilot_2","7386","3","15","Female","","false","","","","","[924,320.70000000298023]","./assets/img/ocean/memory/29.jpg","[""ArrowDown"",""ArrowLeft""]","value training","ocean","8","{""ArrowUp,ArrowLeft"":23,""ArrowUp,ArrowRight"":10,""ArrowDown,ArrowLeft"":8,""ArrowDown,ArrowRight"":30}","false","ArrowDown,ArrowLeft","false","","","original","1","6","","",""
"html-keyboard-response","123","719091","0.0-4.0-2.0-1.3","spark_pilot_2","7386","3","15","Female","","","","","","","null","<div style=""font-size:60px;"">+</div>","null","fixation","","","","","","","","","","","7","","",""
"revaluation","124","725109","0.0-4.0-2.0-0.4","spark_pilot_2","7386","3","15","Female","","false","","","","","[678,577]","./assets/img/ocean/memory/24.jpg","[""ArrowUp"",""ArrowRight""]","value training","ocean","10","{""ArrowUp,ArrowLeft"":23,""ArrowUp,ArrowRight"":10,""ArrowDown,ArrowLeft"":8,""ArrowDown,ArrowRight"":30}","false","ArrowUp,ArrowRight","false","","","original","1","8","","",""
"html-keyboard-response","125","725610","0.0-4.0-2.0-1.4","spark_pilot_2","7386","3","15","Female","","","","","","","null","<div style=""font-size:60px;"">+</div>","null","fixation","","","","","","","","","","","9","","",""
"revaluation","126","731625","0.0-4.0-2.0-0.5","spark_pilot_2","7386","3","15","Female","","false","","","","","[116.89999999850988,162.5]","./assets/img/ocean/memory/40.jpg","[""ArrowUp"",""ArrowLeft""]","value training","ocean","23","{""ArrowUp,ArrowLeft"":23,""ArrowUp,ArrowRight"":10,""ArrowDown,ArrowLeft"":8,""ArrowDown,ArrowRight"":30}","false","ArrowUp,ArrowLeft","false","","","original","1","10","","",""
"html-keyboard-response","127","732126","0.0-4.0-2.0-1.5","spark_pilot_2","7386","3","15","Female","","","","","","","null","<div style=""font-size:60px;"">+</div>","null","fixation","","","","","","","","","","","11","","",""
"revaluation","128","738134","0.0-4.0-2.0-0.6","spark_pilot_2","7386","3","15","Female","","false","","","","","[576.7999999970198,408.5]","./assets/img/ocean/memory/16.jpg","[""ArrowUp"",""ArrowLeft""]","value training","ocean","23","{""ArrowUp,ArrowLeft"":23,""ArrowUp,ArrowRight"":10,""ArrowDown,ArrowLeft"":8,""ArrowDown,ArrowRight"":30}","false","ArrowUp,ArrowLeft","false","","","original","1","12","","",""
"html-keyboard-response","129","738637","0.0-4.0-2.0-1.6","spark_pilot_2","7386","3","15","Female","","","","","","","null","<div style=""font-size:60px;"">+</div>","null","fixation","","","","","","","","","","","13","","",""
"revaluation","130","744644","0.0-4.0-2.0-0.7","spark_pilot_2","7386","3","15","Female","","false","","","","","[131,281.1000000014901]","./assets/img/ocean/memory/1.jpg","[""ArrowUp"",""ArrowLeft""]","value training","ocean","23","{""ArrowUp,ArrowLeft"":23,""ArrowUp,ArrowRight"":10,""ArrowDown,ArrowLeft"":8,""ArrowDown,ArrowRight"":30}","false","ArrowUp,ArrowLeft","false","","","original","1","14","","",""
"html-keyboard-response","131","745146","0.0-4.0-2.0-1.7","spark_pilot_2","7386","3","15","Female","","","","","","","null","<div style=""font-size:60px;"">+</div>","null","fixation","","","","","","","","","","","15","","",""
"revaluation","132","751153","0.0-4.0-2.0-0.8","spark_pilot_2","7386","3","15","Female","","false","","","","","[637.5,428.6000000014901]","./assets/img/ocean/memory/33.jpg","[""ArrowUp"",""ArrowLeft""]","value training","ocean","23","{""ArrowUp,ArrowLeft"":23,""ArrowUp,ArrowRight"":10,""ArrowDown,ArrowLeft"":8,""ArrowDown,ArrowRight"":30}","false","ArrowUp,ArrowLeft","false","","","original","1","16","","",""
"html-keyboard-response","133","751656","0.0-4.0-2.0-1.8","spark_pilot_2","7386","3","15","Female","","","","","","","null","<div style=""font-size:60px;"">+</div>","null","fixation","","","","","","","","","","","17","","",""
"revaluation","134","757661","0.0-4.0-2.0-0.9","spark_pilot_2","7386","3","15","Female","","false","","","","","[682.4000000059605,489.1000000014901]","./assets/img/ocean/memory/0.jpg","[""ArrowUp"",""ArrowLeft""]","value training","ocean","23","{""ArrowUp,ArrowLeft"":23,""ArrowUp,ArrowRight"":10,""ArrowDown,ArrowLeft"":8,""ArrowDown,ArrowRight"":30}","false","ArrowUp,ArrowLeft","false","","","original","1","18","","",""
"html-keyboard-response","135","758163","0.0-4.0-2.0-1.9","spark_pilot_2","7386","3","15","Female","","","","","","","null","<div style=""font-size:60px;"">+</div>","null","fixation","","","","","","","","","","","19","","",""
"revaluation","136","764169","0.0-4.0-2.0-0.10","spark_pilot_2","7386","3","15","Female","","false","","","","","[844,619.3000000044703]","./assets/img/ocean/memory/6.jpg","[""ArrowUp"",""ArrowLeft""]","value training","ocean","23","{""ArrowUp,ArrowLeft"":23,""ArrowUp,ArrowRight"":10,""ArrowDown,ArrowLeft"":8,""ArrowDown,ArrowRight"":30}","false","ArrowUp,ArrowLeft","false","","","original","1","20","","",""
"html-keyboard-response","137","764671","0.0-4.0-2.0-1.10","spark_pilot_2","7386","3","15","Female","","","","","","","null","<div style=""font-size:60px;"">+</div>","null","fixation","","","","","","","","","","","21","","",""
"revaluation","138","770681","0.0-4.0-2.0-0.11","spark_pilot_2","7386","3","15","Female","","false","","","","","[750.9000000059605,460.29999999701977]","./assets/img/ocean/memory/31.jpg","[""ArrowUp"",""ArrowLeft""]","value training","ocean","23","{""ArrowUp,ArrowLeft"":23,""ArrowUp,ArrowRight"":10,""ArrowDown,ArrowLeft"":8,""ArrowDown,ArrowRight"":30}","false","ArrowUp,ArrowLeft","false","","","original","1","22","","",""
"html-keyboard-response","139","771182","0.0-4.0-2.0-1.11","spark_pilot_2","7386","3","15","Female","","","","","","","null","<div style=""font-size:60px;"">+</div>","null","fixation","","","","","","","","","","","23","","",""
"revaluation","140","777186","0.0-4.0-2.0-0.12","spark_pilot_2","7386","3","15","Female","","false","","","","","[603.3999999985099,386.70000000298023]","./assets/img/ocean/memory/39.jpg","[""ArrowUp"",""ArrowLeft""]","value training","ocean","23","{""ArrowUp,ArrowLeft"":23,""ArrowUp,ArrowRight"":10,""ArrowDown,ArrowLeft"":8,""ArrowDown,ArrowRight"":30}","false","ArrowUp,ArrowLeft","false","","","original","1","24","","",""
"html-keyboard-response","141","777687","0.0-4.0-2.0-1.12","spark_pilot_2","7386","3","15","Female","","","","","","","null","<div style=""font-size:60px;"">+</div>","null","fixation","","","","","","","","","","","25","","",""
"revaluation","142","783694","0.0-4.0-2.0-0.13","spark_pilot_2","7386","3","15","Female","","false","","","","","[513.0999999940395,375.20000000298023]","./assets/img/ocean/memory/1.jpg","[""ArrowUp"",""ArrowLeft""]","value training","ocean","23","{""ArrowUp,ArrowLeft"":23,""ArrowUp,ArrowRight"":10,""ArrowDown,ArrowLeft"":8,""ArrowDown,ArrowRight"":30}","false","ArrowUp,ArrowLeft","false","","","original","1","26","","",""
"html-keyboard-response","143","784197","0.0-4.0-2.0-1.13","spark_pilot_2","7386","3","15","Female","","","","","","","null","<div style=""font-size:60px;"">+</div>","null","fixation","","","","","","","","","","","27","","",""
"revaluation","144","790205","0.0-4.0-2.0-0.14","spark_pilot_2","7386","3","15","Female","","false","","","","","[833.7000000029802,353.40000000596046]","./assets/img/ocean/memory/28.jpg","[""ArrowUp"",""ArrowLeft""]","value training","ocean","23","{""ArrowUp,ArrowLeft"":23,""ArrowUp,ArrowRight"":10,""ArrowDown,ArrowLeft"":8,""ArrowDown,ArrowRight"":30}","false","ArrowUp,ArrowLeft","false","","","original","1","28","","",""
"html-keyboard-response","145","790707","0.0-4.0-2.0-1.14","spark_pilot_2","7386","3","15","Female","","","","","","","null","<div style=""font-size:60px;"">+</div>","null","fixation","","","","","","","","","","","29","","",""
"revaluation","146","796715","0.0-4.0-2.0-0.15","spark_pilot_2","7386","3","15","Female","","false","","","","","[557.6000000014901,428]","./assets/img/ocean/memory/27.jpg","[""ArrowUp"",""ArrowLeft""]","value training","ocean","23","{""ArrowUp,ArrowLeft"":23,""ArrowUp,ArrowRight"":10,""ArrowDown,ArrowLeft"":8,""ArrowDown,ArrowRight"":30}","false","ArrowUp,ArrowLeft","false","","","original","1","30","","",""
"html-keyboard-response","147","797218","0.0-4.0-2.0-1.15","spark_pilot_2","7386","3","15","Female","","","","","","","null","<div style=""font-size:60px;"">+</div>","null","fixation","","","","","","","","","","","31","","",""
"revaluation","148","801223","0.0-4.0-2.0-0.16","spark_pilot_2","7386","3","15","Female","","false","","","","","[389.5]","./assets/img/ocean/catch/3.jpg","[""ArrowUp""]","value training","ocean","-10","{""ArrowUp,ArrowLeft"":23,""ArrowUp,ArrowRight"":10,""ArrowDown,ArrowLeft"":8,""ArrowDown,ArrowRight"":30}","false","ArrowUp","true","","","original","1","32","","",""
"html-keyboard-response","149","801725","0.0-4.0-2.0-1.16","spark_pilot_2","7386","3","15","Female","","","","","","","null","<div style=""font-size:60px;"">+</div>","null","fixation","","","","","","","","","","","33","","",""
"revaluation","150","807731","0.0-4.0-2.0-0.17","spark_pilot_2","7386","3","15","Female","","false","","","","","[1027.1999999955297,360.79999999701977]","./assets/img/ocean/memory/31.jpg","[""ArrowDown"",""ArrowRight""]","value training","ocean","30","{""ArrowUp,ArrowLeft"":23,""ArrowUp,ArrowRight"":10,""ArrowDown,ArrowLeft"":8,""ArrowDown,ArrowRight"":30}","true","ArrowDown,ArrowRight","false","","","original","1","34","","",""
"html-keyboard-response","151","808232","0.0-4.0-2.0-1.17","spark_pilot_2","7386","3","15","Female","","","","","","","null","<div style=""font-size:60px;"">+</div>","null","fixation","","","","","","","","","","","35","","",""
"revaluation","152","812238","0.0-4.0-2.0-0.18","spark_pilot_2","7386","3","15","Female","","false","","","","","[326.30000000447035]","./assets/img/ocean/catch/5.jpg","[""ArrowDown""]","value training","ocean","-10","{""ArrowUp,ArrowLeft"":23,""ArrowUp,ArrowRight"":10,""ArrowDown,ArrowLeft"":8,""ArrowDown,ArrowRight"":30}","false","ArrowDown","true","","","original","1","36","","",""
"html-keyboard-response","153","812739","0.0-4.0-2.0-1.18","spark_pilot_2","7386","3","15","Female","","","","","","","null","<div style=""font-size:60px;"">+</div>","null","fixation","","","","","","","","","","","37","","",""
"revaluation","154","818745","0.0-4.0-2.0-0.19","spark_pilot_2","7386","3","15","Female","","false","","","","","[948.8000000044703,467.3999999985099]","./assets/img/ocean/memory/22.jpg","[""ArrowDown"",""ArrowRight""]","value training","ocean","30","{""ArrowUp,ArrowLeft"":23,""ArrowUp,ArrowRight"":10,""ArrowDown,ArrowLeft"":8,""ArrowDown,ArrowRight"":30}","true","ArrowDown,ArrowRight","false","","","original","1","38","","",""
"html-keyboard-response","155","819246","0.0-4.0-2.0-1.19","spark_pilot_2","7386","3","15","Female","","","","","","","null","<div style=""font-size:60px;"">+</div>","null","fixation","","","","","","","","","","","39","","",""
"revaluation","156","825253","0.0-4.0-2.0-0.20","spark_pilot_2","7386","3","15","Female","","false","","","","","[681.3000000044703,968.2000000029802]","./assets/img/ocean/memory/39.jpg","[""ArrowDown"",""ArrowRight""]","value training","ocean","30","{""ArrowUp,ArrowLeft"":23,""ArrowUp,ArrowRight"":10,""ArrowDown,ArrowLeft"":8,""ArrowDown,ArrowRight"":30}","true","ArrowDown,ArrowRight","false","","","original","1","40","","",""
"html-keyboard-response","157","825754","0.0-4.0-2.0-1.20","spark_pilot_2","7386","3","15","Female","","","","","","","null","<div style=""font-size:60px;"">+</div>","null","fixation","","","","","","","","","","","41","","",""
"revaluation","158","831760","0.0-4.0-2.0-0.21","spark_pilot_2","7386","3","15","Female","","false","","","","","[869.5,348.5]","./assets/img/ocean/memory/10.jpg","[""ArrowDown"",""ArrowRight""]","value training","ocean","30","{""ArrowUp,ArrowLeft"":23,""ArrowUp,ArrowRight"":10,""ArrowDown,ArrowLeft"":8,""ArrowDown,ArrowRight"":30}","true","ArrowDown,ArrowRight","false","","","original","1","42","","",""
"html-keyboard-response","159","832263","0.0-4.0-2.0-1.21","spark_pilot_2","7386","3","15","Female","","","","","","","null","<div style=""font-size:60px;"">+</div>","null","fixation","","","","","","","","","","","43","","",""
"revaluation","160","838270","0.0-4.0-2.0-0.22","spark_pilot_2","7386","3","15","Female","","false","","","","","[752.5,311.1000000014901]","./assets/img/ocean/memory/15.jpg","[""ArrowDown"",""ArrowRight""]","value training","ocean","30","{""ArrowUp,ArrowLeft"":23,""ArrowUp,ArrowRight"":10,""ArrowDown,ArrowLeft"":8,""ArrowDown,ArrowRight"":30}","true","ArrowDown,ArrowRight","false","","","original","1","44","","",""
"html-keyboard-response","161","838771","0.0-4.0-2.0-1.22","spark_pilot_2","7386","3","15","Female","","","","","","","null","<div style=""font-size:60px;"">+</div>","null","fixation","","","","","","","","","","","45","","",""
"revaluation","162","844778","0.0-4.0-2.0-0.23","spark_pilot_2","7386","3","15","Female","","false","","","","","[804.5,275]","./assets/img/ocean/memory/17.jpg","[""ArrowDown"",""ArrowRight""]","value training","ocean","30","{""ArrowUp,ArrowLeft"":23,""ArrowUp,ArrowRight"":10,""ArrowDown,ArrowLeft"":8,""ArrowDown,ArrowRight"":30}","true","ArrowDown,ArrowRight","false","","","original","1","46","","",""
"html-keyboard-response","163","845279","0.0-4.0-2.0-1.23","spark_pilot_2","7386","3","15","Female","","","","","","","null","<div style=""font-size:60px;"">+</div>","null","fixation","","","","","","","","","","","47","","",""
"revaluation","164","851287","0.0-4.0-2.0-0.24","spark_pilot_2","7386","3","15","Female","","false","","","","","[647.7999999970198,422.5]","./assets/img/ocean/memory/28.jpg","[""ArrowDown"",""ArrowRight""]","value training","ocean","30","{""ArrowUp,ArrowLeft"":23,""ArrowUp,ArrowRight"":10,""ArrowDown,ArrowLeft"":8,""ArrowDown,ArrowRight"":30}","true","ArrowDown,ArrowRight","false","","","original","1","48","","",""
"html-keyboard-response","165","851790","0.0-4.0-2.0-1.24","spark_pilot_2","7386","3","15","Female","","","","","","","null","<div style=""font-size:60px;"">+</div>","null","fixation","","","","","","","","","","","49","","",""
"revaluation","166","857796","0.0-4.0-2.0-0.25","spark_pilot_2","7386","3","15","Female","","false","","","","","[1337.6000000014901,568.6000000014901]","./assets/img/ocean/memory/17.jpg","[""ArrowDown"",""ArrowRight""]","value training","ocean","30","{""ArrowUp,ArrowLeft"":23,""ArrowUp,ArrowRight"":10,""ArrowDown,ArrowLeft"":8,""ArrowDown,ArrowRight"":30}","true","ArrowDown,ArrowRight","false","","","original","1","50","","",""
"html-keyboard-response","167","858298","0.0-4.0-2.0-1.25","spark_pilot_2","7386","3","15","Female","","","","","","","null","<div style=""font-size:60px;"">+</div>","null","fixation","","","","","","","","","","","51","","",""
"revaluation","168","864304","0.0-4.0-2.0-0.26","spark_pilot_2","7386","3","15","Female","","false","","","","","[517.7000000029802,436.6000000014901]","./assets/img/ocean/memory/5.jpg","[""ArrowDown"",""ArrowRight""]","value training","ocean","30","{""ArrowUp,ArrowLeft"":23,""ArrowUp,ArrowRight"":10,""ArrowDown,ArrowLeft"":8,""ArrowDown,ArrowRight"":30}","true","ArrowDown,ArrowRight","false","","","original","1","52","","",""
"html-keyboard-response","169","864807","0.0-4.0-2.0-1.26","spark_pilot_2","7386","3","15","Female","","","","","","","null","<div style=""font-size:60px;"">+</div>","null","fixation","","","","","","","","","","","53","","",""
"revaluation","170","868813","0.0-4.0-2.0-0.27","spark_pilot_2","7386","3","15","Female","","false","","","","","[815.8999999985099]","./assets/img/ocean/catch/6.jpg","[""spaceBar""]","value training","ocean","0","{""ArrowUp,ArrowLeft"":23,""ArrowUp,ArrowRight"":10,""ArrowDown,ArrowLeft"":8,""ArrowDown,ArrowRight"":30}","true","spaceBar","true","","","original","1","54","","",""
"html-keyboard-response","171","869314","0.0-4.0-2.0-1.27","spark_pilot_2","7386","3","15","Female","","","","","","","null","<div style=""font-size:60px;"">+</div>","null","fixation","","","","","","","","","","","55","","",""
"revaluation","172","875321","0.0-4.0-2.0-0.28","spark_pilot_2","7386","3","15","Female","","false","","","","","[532.8999999985099,324]","./assets/img/ocean/memory/22.jpg","[""ArrowDown"",""ArrowRight""]","value training","ocean","30","{""ArrowUp,ArrowLeft"":23,""ArrowUp,ArrowRight"":10,""ArrowDown,ArrowLeft"":8,""ArrowDown,ArrowRight"":30}","true","ArrowDown,ArrowRight","false","","","original","1","56","","",""
"html-keyboard-response","173","875823","0.0-4.0-2.0-1.28","spark_pilot_2","7386","3","15","Female","","","","","","","null","<div style=""font-size:60px;"">+</div>","null","fixation","","","","","","","","","","","57","","",""
"revaluation","174","881839","0.0-4.0-2.0-0.29","spark_pilot_2","7386","3","15","Female","","false","","","","","[675.8000000044703,409.80000000447035]","./assets/img/ocean/memory/6.jpg","[""ArrowDown"",""ArrowRight""]","value training","ocean","30","{""ArrowUp,ArrowLeft"":23,""ArrowUp,ArrowRight"":10,""ArrowDown,ArrowLeft"":8,""ArrowDown,ArrowRight"":30}","true","ArrowDown,ArrowRight","false","","","original","1","58","","",""
"html-keyboard-response","175","882341","0.0-4.0-2.0-1.29","spark_pilot_2","7386","3","15","Female","","","","","","","null","<div style=""font-size:60px;"">+</div>","null","fixation","","","","","","","","","","","59","","",""
"revaluation","176","888349","0.0-4.0-2.0-0.30","spark_pilot_2","7386","3","15","Female","","false","","","","","[865.6000000014901,464.8999999985099]","./assets/img/ocean/memory/24.jpg","[""ArrowDown"",""ArrowRight""]","value training","ocean","30","{""ArrowUp,ArrowLeft"":23,""ArrowUp,ArrowRight"":10,""ArrowDown,ArrowLeft"":8,""ArrowDown,ArrowRight"":30}","true","ArrowDown,ArrowRight","false","","","original","1","60","","",""
"html-keyboard-response","177","888851","0.0-4.0-2.0-1.30","spark_pilot_2","7386","3","15","Female","","","","","","","null","<div style=""font-size:60px;"">+</div>","null","fixation","","","","","","","","","","","61","","",""
"revaluation","178","894857","0.0-4.0-2.0-0.31","spark_pilot_2","7386","3","15","Female","","false","","","","","[686.1000000014901,340.79999999701977]","./assets/img/ocean/memory/15.jpg","[""ArrowDown"",""ArrowRight""]","value training","ocean","30","{""ArrowUp,ArrowLeft"":23,""ArrowUp,ArrowRight"":10,""ArrowDown,ArrowLeft"":8,""ArrowDown,ArrowRight"":30}","true","ArrowDown,ArrowRight","false","","","original","1","62","","",""
"html-keyboard-response","179","895359","0.0-4.0-2.0-1.31","spark_pilot_2","7386","3","15","Female","","","","","","","null","<div style=""font-size:60px;"">+</div>","null","fixation","","","","","","","","","","","63","","",""
"revaluation","180","901374","0.0-4.0-2.0-0.32","spark_pilot_2","7386","3","15","Female","","false","","","","","[753.2000000029802,438.8999999985099]","./assets/img/ocean/memory/29.jpg","[""ArrowDown"",""ArrowRight""]","value training","ocean","30","{""ArrowUp,ArrowLeft"":23,""ArrowUp,ArrowRight"":10,""ArrowDown,ArrowLeft"":8,""ArrowDown,ArrowRight"":30}","true","ArrowDown,ArrowRight","false","","","original","1","64","","",""
"html-keyboard-response","181","901875","0.0-4.0-2.0-1.32","spark_pilot_2","7386","3","15","Female","","","","","","","null","<div style=""font-size:60px;"">+</div>","null","fixation","","","","","","","","","","","65","","",""
"revaluation","182","907886","0.0-4.0-2.0-0.33","spark_pilot_2","7386","3","15","Female","","false","","","","","[422.5,459.70000000298023]","./assets/img/ocean/memory/27.jpg","[""ArrowDown"",""ArrowRight""]","value training","ocean","30","{""ArrowUp,ArrowLeft"":23,""ArrowUp,ArrowRight"":10,""ArrowDown,ArrowLeft"":8,""ArrowDown,ArrowRight"":30}","true","ArrowDown,ArrowRight","false","","","original","1","66","","",""
"html-keyboard-response","183","908388","0.0-4.0-2.0-1.33","spark_pilot_2","7386","3","15","Female","","","","","","","null","<div style=""font-size:60px;"">+</div>","null","fixation","","","","","","","","","","","67","","",""
"revaluation","184","914395","0.0-4.0-2.0-0.34","spark_pilot_2","7386","3","15","Female","","false","","","","","[731.5,346.30000000447035]","./assets/img/ocean/memory/32.jpg","[""ArrowDown"",""ArrowRight""]","value training","ocean","30","{""ArrowUp,ArrowLeft"":23,""ArrowUp,ArrowRight"":10,""ArrowDown,ArrowLeft"":8,""ArrowDown,ArrowRight"":30}","true","ArrowDown,ArrowRight","false","","","original","1","68","","",""
"html-keyboard-response","185","914896","0.0-4.0-2.0-1.34","spark_pilot_2","7386","3","15","Female","","","","","","","null","<div style=""font-size:60px;"">+</div>","null","fixation","","","","","","","","","","","69","","",""
"revaluation","186","920902","0.0-4.0-2.0-0.35","spark_pilot_2","7386","3","15","Female","","false","","","","","[575.7999999970198,374.3999999985099]","./assets/img/ocean/memory/12.jpg","[""ArrowDown"",""ArrowRight""]","value training","ocean","30","{""ArrowUp,ArrowLeft"":23,""ArrowUp,ArrowRight"":10,""ArrowDown,ArrowLeft"":8,""ArrowDown,ArrowRight"":30}","true","ArrowDown,ArrowRight","false","","","original","1","70","","",""
"html-keyboard-response","187","921404","0.0-4.0-2.0-1.35","spark_pilot_2","7386","3","15","Female","","","","","","","null","<div style=""font-size:60px;"">+</div>","null","fixation","","","","","","","","","","","71","","",""
"revaluation","188","927410","0.0-4.0-2.0-0.36","spark_pilot_2","7386","3","15","Female","","false","","","","","[970.3000000044703,674]","./assets/img/ocean/memory/21.jpg","[""ArrowDown"",""ArrowRight""]","value training","ocean","30","{""ArrowUp,ArrowLeft"":23,""ArrowUp,ArrowRight"":10,""ArrowDown,ArrowLeft"":8,""ArrowDown,ArrowRight"":30}","true","ArrowDown,ArrowRight","false","","","original","1","72","","",""
"html-keyboard-response","189","927912","0.0-4.0-2.0-1.36","spark_pilot_2","7386","3","15","Female","","","","","","","null","<div style=""font-size:60px;"">+</div>","null","fixation","","","","","","","","","","","73","","",""
"revaluation","190","931917","0.0-4.0-2.0-0.37","spark_pilot_2","7386","3","15","Female","","false","","","","","[706.1999999955297]","./assets/img/ocean/catch/0.jpg","[""spaceBar""]","value training","ocean","0","{""ArrowUp,ArrowLeft"":23,""ArrowUp,ArrowRight"":10,""ArrowDown,ArrowLeft"":8,""ArrowDown,ArrowRight"":30}","true","spaceBar","true","","","original","1","74","","",""
"html-keyboard-response","191","932418","0.0-4.0-2.0-1.37","spark_pilot_2","7386","3","15","Female","","","","","","","null","<div style=""font-size:60px;"">+</div>","null","fixation","","","","","","","","","","","75","","",""
"revaluation","192","938426","0.0-4.0-2.0-0.38","spark_pilot_2","7386","3","15","Female","","false","","","","","[492.5,579.3999999985099]","./assets/img/ocean/memory/11.jpg","[""ArrowDown"",""ArrowRight""]","value training","ocean","30","{""ArrowUp,ArrowLeft"":23,""ArrowUp,ArrowRight"":10,""ArrowDown,ArrowLeft"":8,""ArrowDown,ArrowRight"":30}","true","ArrowDown,ArrowRight","false","","","original","1","76","","",""
"html-keyboard-response","193","938927","0.0-4.0-2.0-1.38","spark_pilot_2","7386","3","15","Female","","","","","","","null","<div style=""font-size:60px;"">+</div>","null","fixation","","","","","","","","","","","77","","",""
"revaluation","194","944934","0.0-4.0-2.0-0.39","spark_pilot_2","7386","3","15","Female","","false","","","","","[655.9000000059605,327]","./assets/img/ocean/memory/16.jpg","[""ArrowDown"",""ArrowRight""]","value training","ocean","30","{""ArrowUp,ArrowLeft"":23,""ArrowUp,ArrowRight"":10,""ArrowDown,ArrowLeft"":8,""ArrowDown,ArrowRight"":30}","true","ArrowDown,ArrowRight","false","","","original","1","78","","",""
"html-keyboard-response","195","945435","0.0-4.0-2.0-1.39","spark_pilot_2","7386","3","15","Female","","","","","","","null","<div style=""font-size:60px;"">+</div>","null","fixation","","","","","","","","","","","79","","",""
"revaluation","196","951442","0.0-4.0-2.0-0.40","spark_pilot_2","7386","3","15","Female","","false","","","","","[371.79999999701977,307]","./assets/img/ocean/memory/11.jpg","[""ArrowDown"",""ArrowRight""]","value training","ocean","30","{""ArrowUp,ArrowLeft"":23,""ArrowUp,ArrowRight"":10,""ArrowDown,ArrowLeft"":8,""ArrowDown,ArrowRight"":30}","true","ArrowDown,ArrowRight","false","","","original","1","80","","",""
"html-keyboard-response","197","951944","0.0-4.0-2.0-1.40","spark_pilot_2","7386","3","15","Female","","","","","","","null","<div style=""font-size:60px;"">+</div>","null","fixation","","","","","","","","","","","81","","",""
"revaluation","198","955950","0.0-4.0-2.0-0.41","spark_pilot_2","7386","3","15","Female","","false","","","","","[448.30000000447035]","./assets/img/ocean/catch/4.jpg","[""ArrowDown""]","value training","ocean","-10","{""ArrowUp,ArrowLeft"":23,""ArrowUp,ArrowRight"":10,""ArrowDown,ArrowLeft"":8,""ArrowDown,ArrowRight"":30}","false","ArrowDown","true","","","original","1","82","","",""
"html-keyboard-response","199","956451","0.0-4.0-2.0-1.41","spark_pilot_2","7386","3","15","Female","","","","","","","null","<div style=""font-size:60px;"">+</div>","null","fixation","","","","","","","","","","","83","","",""
"revaluation","200","962468","0.0-4.0-2.0-0.42","spark_pilot_2","7386","3","15","Female","","false","","","","","[1067.8000000044703,546.1000000014901]","./assets/img/ocean/memory/0.jpg","[""ArrowDown"",""ArrowRight""]","value training","ocean","30","{""ArrowUp,ArrowLeft"":23,""ArrowUp,ArrowRight"":10,""ArrowDown,ArrowLeft"":8,""ArrowDown,ArrowRight"":30}","true","ArrowDown,ArrowRight","false","","","original","1","84","","",""
"html-keyboard-response","201","962970","0.0-4.0-2.0-1.42","spark_pilot_2","7386","3","15","Female","","","","","","","null","<div style=""font-size:60px;"">+</div>","null","fixation","","","","","","","","","","","85","","",""
"revaluation","202","968976","0.0-4.0-2.0-0.43","spark_pilot_2","7386","3","15","Female","","false","","","","","[615.1000000014901,421.5]","./assets/img/ocean/memory/32.jpg","[""ArrowDown"",""ArrowRight""]","value training","ocean","30","{""ArrowUp,ArrowLeft"":23,""ArrowUp,ArrowRight"":10,""ArrowDown,ArrowLeft"":8,""ArrowDown,ArrowRight"":30}","true","ArrowDown,ArrowRight","false","","","original","1","86","","",""
"html-keyboard-response","203","969477","0.0-4.0-2.0-1.43","spark_pilot_2","7386","3","15","Female","","","","","","","null","<div style=""font-size:60px;"">+</div>","null","fixation","","","","","","","","","","","87","","",""
"revaluation","204","975484","0.0-4.0-2.0-0.44","spark_pilot_2","7386","3","15","Female","","false","","","","","[505.20000000298023,312.20000000298023]","./assets/img/ocean/memory/5.jpg","[""ArrowDown"",""ArrowRight""]","value training","ocean","30","{""ArrowUp,ArrowLeft"":23,""ArrowUp,ArrowRight"":10,""ArrowDown,ArrowLeft"":8,""ArrowDown,ArrowRight"":30}","true","ArrowDown,ArrowRight","false","","","original","1","88","","",""
"html-keyboard-response","205","975987","0.0-4.0-2.0-1.44","spark_pilot_2","7386","3","15","Female","","","","","","","null","<div style=""font-size:60px;"">+</div>","null","fixation","","","","","","","","","","","89","","",""
"revaluation","206","979993","0.0-4.0-2.0-0.45","spark_pilot_2","7386","3","15","Female","","false","","","","","[588.6999999955297]","./assets/img/ocean/catch/2.jpg","[""spaceBar""]","value training","ocean","0","{""ArrowUp,ArrowLeft"":23,""ArrowUp,ArrowRight"":10,""ArrowDown,ArrowLeft"":8,""ArrowDown,ArrowRight"":30}","true","spaceBar","true","","","original","1","90","","",""
"html-keyboard-response","207","980496","0.0-4.0-2.0-1.45","spark_pilot_2","7386","3","15","Female","","","","","","","null","<div style=""font-size:60px;"">+</div>","null","fixation","","","","","","","","","","","91","","",""
"revaluation","208","986503","0.0-4.0-2.0-0.46","spark_pilot_2","7386","3","15","Female","","false","","","","","[583.1000000014901,606.2000000029802]","./assets/img/ocean/memory/12.jpg","[""ArrowDown"",""ArrowRight""]","value training","ocean","30","{""ArrowUp,ArrowLeft"":23,""ArrowUp,ArrowRight"":10,""ArrowDown,ArrowLeft"":8,""ArrowDown,ArrowRight"":30}","true","ArrowDown,ArrowRight","false","","","original","1","92","","",""
"html-keyboard-response","209","987005","0.0-4.0-2.0-1.46","spark_pilot_2","7386","3","15","Female","","","","","","","null","<div style=""font-size:60px;"">+</div>","null","fixation","","","","","","","","","","","93","","",""
"revaluation","210","993012","0.0-4.0-2.0-0.47","spark_pilot_2","7386","3","15","Female","","false","","","","","[690.8000000044703,649.8000000044703]","./assets/img/ocean/memory/40.jpg","[""ArrowDown"",""ArrowRight""]","value training","ocean","30","{""ArrowUp,ArrowLeft"":23,""ArrowUp,ArrowRight"":10,""ArrowDown,ArrowLeft"":8,""ArrowDown,ArrowRight"":30}","true","ArrowDown,ArrowRight","false","","","original","1","94","","",""
"html-keyboard-response","211","993514","0.0-4.0-2.0-1.47","spark_pilot_2","7386","3","15","Female","","","","","","","null","<div style=""font-size:60px;"">+</div>","null","fixation","","","","","","","","","","","95","","",""
"revaluation","212","997520","0.0-4.0-2.0-0.48","spark_pilot_2","7386","3","15","Female","","false","","","","","[805.4000000059605]","./assets/img/ocean/catch/1.jpg","[""spaceBar""]","value training","ocean","0","{""ArrowUp,ArrowLeft"":23,""ArrowUp,ArrowRight"":10,""ArrowDown,ArrowLeft"":8,""ArrowDown,ArrowRight"":30}","true","spaceBar","true","","","original","1","96","","",""
"html-keyboard-response","213","998022","0.0-4.0-2.0-1.48","spark_pilot_2","7386","3","15","Female","","","","","","","null","<div style=""font-size:60px;"">+</div>","null","fixation","","","","","","","","","","","97","","",""
"revaluation","214","1004029","0.0-4.0-2.0-0.49","spark_pilot_2","7386","3","15","Female","","false","","","","","[658.2000000029802,647.9000000059605]","./assets/img/ocean/memory/10.jpg","[""ArrowDown"",""ArrowRight""]","value training","ocean","30","{""ArrowUp,ArrowLeft"":23,""ArrowUp,ArrowRight"":10,""ArrowDown,ArrowLeft"":8,""ArrowDown,ArrowRight"":30}","true","ArrowDown,ArrowRight","false","","","original","1","98","","",""
"html-keyboard-response","215","1004531","0.0-4.0-2.0-1.49","spark_pilot_2","7386","3","15","Female","","","","","","","null","<div style=""font-size:60px;"">+</div>","null","fixation","","","","","","","","","","","99","","",""
"learning-instructions","216","1019364","0.0-4.0-3.0-0.0","spark_pilot_2","7386","3","15","Female","","","","","","","1884.6000000014901","<p> Now, you will travel with a friend who will choose whether you go up or down first. </p>
            <p> On these turns, you will just see the animal that they found. You will still get to choose which chest to search for treasure.</p>","","instructions","","","","","","","","","","","","","",""
"revaluation","217","1023382","0.0-4.0-4.0-0.0","spark_pilot_2","7386","3","15","Female","","false","","","","","[773.1999999955297]","./assets/img/ocean/animals/seahorse.jpg","[""ArrowRight""]","revaluation","ocean","30","{""ArrowUp,ArrowLeft"":23,""ArrowUp,ArrowRight"":10,""ArrowDown,ArrowLeft"":8,""ArrowDown,ArrowRight"":30}","true","ArrowDown,ArrowRight","","","","original","1","0","","",""
"html-keyboard-response","218","1023895","0.0-4.0-4.0-1.0","spark_pilot_2","7386","3","15","Female","","","","","","","null","<div style=""font-size:60px;"">+</div>","null","fixation","","","","","","","","","","","1","","",""
"revaluation","219","1027921","0.0-4.0-4.0-0.1","spark_pilot_2","7386","3","15","Female","","false","","","","","[632.2999999970198]","./assets/img/ocean/animals/seahorse.jpg","[""ArrowRight""]","revaluation","ocean","30","{""ArrowUp,ArrowLeft"":23,""ArrowUp,ArrowRight"":10,""ArrowDown,ArrowLeft"":8,""ArrowDown,ArrowRight"":30}","true","ArrowDown,ArrowRight","","","","original","1","2","","",""
"html-keyboard-response","220","1028426","0.0-4.0-4.0-1.1","spark_pilot_2","7386","3","15","Female","","","","","","","null","<div style=""font-size:60px;"">+</div>","null","fixation","","","","","","","","","","","3","","",""
"revaluation","221","1032440","0.0-4.0-4.0-0.2","spark_pilot_2","7386","3","15","Female","","false","","","","","[542.6000000014901]","./assets/img/ocean/animals/octopus.jpg","[""ArrowLeft""]","revaluation","ocean","23","{""ArrowUp,ArrowLeft"":23,""ArrowUp,ArrowRight"":10,""ArrowDown,ArrowLeft"":8,""ArrowDown,ArrowRight"":30}","true","ArrowUp,ArrowLeft","","","","original","1","4","","",""
"html-keyboard-response","222","1032942","0.0-4.0-4.0-1.2","spark_pilot_2","7386","3","15","Female","","","","","","","null","<div style=""font-size:60px;"">+</div>","null","fixation","","","","","","","","","","","5","","",""
"revaluation","223","1036966","0.0-4.0-4.0-0.3","spark_pilot_2","7386","3","15","Female","","false","","","","","[848.7000000029802]","./assets/img/ocean/animals/seahorse.jpg","[""ArrowRight""]","revaluation","ocean","30","{""ArrowUp,ArrowLeft"":23,""ArrowUp,ArrowRight"":10,""ArrowDown,ArrowLeft"":8,""ArrowDown,ArrowRight"":30}","true","ArrowDown,ArrowRight","","","","original","1","6","","",""
"html-keyboard-response","224","1037473","0.0-4.0-4.0-1.3","spark_pilot_2","7386","3","15","Female","","","","","","","null","<div style=""font-size:60px;"">+</div>","null","fixation","","","","","","","","","","","7","","",""
"revaluation","225","1041497","0.0-4.0-4.0-0.4","spark_pilot_2","7386","3","15","Female","","false","","","","","[589.3999999985099]","./assets/img/ocean/animals/octopus.jpg","[""ArrowLeft""]","revaluation","ocean","23","{""ArrowUp,ArrowLeft"":23,""ArrowUp,ArrowRight"":10,""ArrowDown,ArrowLeft"":8,""ArrowDown,ArrowRight"":30}","true","ArrowUp,ArrowLeft","","","","original","1","8","","",""
"html-keyboard-response","226","1042009","0.0-4.0-4.0-1.4","spark_pilot_2","7386","3","15","Female","","","","","","","null","<div style=""font-size:60px;"">+</div>","null","fixation","","","","","","","","","","","9","","",""
"revaluation","227","1046033","0.0-4.0-4.0-0.5","spark_pilot_2","7386","3","15","Female","","false","","","","","[494.59999999403954]","./assets/img/ocean/animals/seahorse.jpg","[""ArrowRight""]","revaluation","ocean","30","{""ArrowUp,ArrowLeft"":23,""ArrowUp,ArrowRight"":10,""ArrowDown,ArrowLeft"":8,""ArrowDown,ArrowRight"":30}","true","ArrowDown,ArrowRight","","","","original","1","10","","",""
"html-keyboard-response","228","1046542","0.0-4.0-4.0-1.5","spark_pilot_2","7386","3","15","Female","","","","","","","null","<div style=""font-size:60px;"">+</div>","null","fixation","","","","","","","","","","","11","","",""
"revaluation","229","1050548","0.0-4.0-4.0-0.6","spark_pilot_2","7386","3","15","Female","","false","","","","","[632.4000000059605]","./assets/img/ocean/animals/octopus.jpg","[""ArrowLeft""]","revaluation","ocean","23","{""ArrowUp,ArrowLeft"":23,""ArrowUp,ArrowRight"":10,""ArrowDown,ArrowLeft"":8,""ArrowDown,ArrowRight"":30}","true","ArrowUp,ArrowLeft","","","","original","1","12","","",""
"html-keyboard-response","230","1051049","0.0-4.0-4.0-1.6","spark_pilot_2","7386","3","15","Female","","","","","","","null","<div style=""font-size:60px;"">+</div>","null","fixation","","","","","","","","","","","13","","",""
"revaluation","231","1055056","0.0-4.0-4.0-0.7","spark_pilot_2","7386","3","15","Female","","false","","","","","[604.5]","./assets/img/ocean/animals/octopus.jpg","[""ArrowLeft""]","revaluation","ocean","23","{""ArrowUp,ArrowLeft"":23,""ArrowUp,ArrowRight"":10,""ArrowDown,ArrowLeft"":8,""ArrowDown,ArrowRight"":30}","true","ArrowUp,ArrowLeft","","","","original","1","14","","",""
"html-keyboard-response","232","1055558","0.0-4.0-4.0-1.7","spark_pilot_2","7386","3","15","Female","","","","","","","null","<div style=""font-size:60px;"">+</div>","null","fixation","","","","","","","","","","","15","","",""
"revaluation","233","1059564","0.0-4.0-4.0-0.8","spark_pilot_2","7386","3","15","Female","","false","","","","","[801.5]","./assets/img/ocean/animals/octopus.jpg","[""ArrowLeft""]","revaluation","ocean","23","{""ArrowUp,ArrowLeft"":23,""ArrowUp,ArrowRight"":10,""ArrowDown,ArrowLeft"":8,""ArrowDown,ArrowRight"":30}","true","ArrowUp,ArrowLeft","","","","original","1","16","","",""
"html-keyboard-response","234","1060065","0.0-4.0-4.0-1.8","spark_pilot_2","7386","3","15","Female","","","","","","","null","<div style=""font-size:60px;"">+</div>","null","fixation","","","","","","","","","","","17","","",""
"revaluation","235","1064072","0.0-4.0-4.0-0.9","spark_pilot_2","7386","3","15","Female","","false","","","","","[781.2000000029802]","./assets/img/ocean/animals/seahorse.jpg","[""ArrowRight""]","revaluation","ocean","30","{""ArrowUp,ArrowLeft"":23,""ArrowUp,ArrowRight"":10,""ArrowDown,ArrowLeft"":8,""ArrowDown,ArrowRight"":30}","true","ArrowDown,ArrowRight","","","","original","1","18","","",""
"html-keyboard-response","236","1064574","0.0-4.0-4.0-1.9","spark_pilot_2","7386","3","15","Female","","","","","","","null","<div style=""font-size:60px;"">+</div>","null","fixation","","","","","","","","","","","19","","",""
"revaluation","237","1068582","0.0-4.0-4.0-0.10","spark_pilot_2","7386","3","15","Female","","false","","","","","[648]","./assets/img/ocean/animals/seahorse.jpg","[""ArrowRight""]","revaluation","ocean","30","{""ArrowUp,ArrowLeft"":23,""ArrowUp,ArrowRight"":10,""ArrowDown,ArrowLeft"":8,""ArrowDown,ArrowRight"":30}","true","ArrowDown,ArrowRight","","","","original","1","20","","",""
"html-keyboard-response","238","1069083","0.0-4.0-4.0-1.10","spark_pilot_2","7386","3","15","Female","","","","","","","null","<div style=""font-size:60px;"">+</div>","null","fixation","","","","","","","","","","","21","","",""
"revaluation","239","1073088","0.0-4.0-4.0-0.11","spark_pilot_2","7386","3","15","Female","","false","","","","","[1044.5]","./assets/img/ocean/animals/octopus.jpg","[""ArrowLeft""]","revaluation","ocean","23","{""ArrowUp,ArrowLeft"":23,""ArrowUp,ArrowRight"":10,""ArrowDown,ArrowLeft"":8,""ArrowDown,ArrowRight"":30}","true","ArrowUp,ArrowLeft","","","","original","1","22","","",""
"html-keyboard-response","240","1073591","0.0-4.0-4.0-1.11","spark_pilot_2","7386","3","15","Female","","","","","","","null","<div style=""font-size:60px;"">+</div>","null","fixation","","","","","","","","","","","23","","",""
"revaluation","241","1077597","0.0-4.0-4.0-0.12","spark_pilot_2","7386","3","15","Female","","false","","","","","[679.3999999985099]","./assets/img/ocean/animals/seahorse.jpg","[""ArrowRight""]","revaluation","ocean","30","{""ArrowUp,ArrowLeft"":23,""ArrowUp,ArrowRight"":10,""ArrowDown,ArrowLeft"":8,""ArrowDown,ArrowRight"":30}","true","ArrowDown,ArrowRight","","","","original","1","24","","",""
"html-keyboard-response","242","1078099","0.0-4.0-4.0-1.12","spark_pilot_2","7386","3","15","Female","","","","","","","null","<div style=""font-size:60px;"">+</div>","null","fixation","","","","","","","","","","","25","","",""
"revaluation","243","1082104","0.0-4.0-4.0-0.13","spark_pilot_2","7386","3","15","Female","","false","","","","","[509]","./assets/img/ocean/animals/seahorse.jpg","[""ArrowRight""]","revaluation","ocean","30","{""ArrowUp,ArrowLeft"":23,""ArrowUp,ArrowRight"":10,""ArrowDown,ArrowLeft"":8,""ArrowDown,ArrowRight"":30}","true","ArrowDown,ArrowRight","","","","original","1","26","","",""
"html-keyboard-response","244","1082606","0.0-4.0-4.0-1.13","spark_pilot_2","7386","3","15","Female","","","","","","","null","<div style=""font-size:60px;"">+</div>","null","fixation","","","","","","","","","","","27","","",""
"revaluation","245","1086611","0.0-4.0-4.0-0.14","spark_pilot_2","7386","3","15","Female","","false","","","","","[569.7999999970198]","./assets/img/ocean/animals/seahorse.jpg","[""ArrowRight""]","revaluation","ocean","30","{""ArrowUp,ArrowLeft"":23,""ArrowUp,ArrowRight"":10,""ArrowDown,ArrowLeft"":8,""ArrowDown,ArrowRight"":30}","true","ArrowDown,ArrowRight","","","","original","1","28","","",""
"html-keyboard-response","246","1087113","0.0-4.0-4.0-1.14","spark_pilot_2","7386","3","15","Female","","","","","","","null","<div style=""font-size:60px;"">+</div>","null","fixation","","","","","","","","","","","29","","",""
"revaluation","247","1091119","0.0-4.0-4.0-0.15","spark_pilot_2","7386","3","15","Female","","false","","","","","[541.3999999985099]","./assets/img/ocean/animals/octopus.jpg","[""ArrowLeft""]","revaluation","ocean","23","{""ArrowUp,ArrowLeft"":23,""ArrowUp,ArrowRight"":10,""ArrowDown,ArrowLeft"":8,""ArrowDown,ArrowRight"":30}","true","ArrowUp,ArrowLeft","","","","original","1","30","","",""
"html-keyboard-response","248","1091621","0.0-4.0-4.0-1.15","spark_pilot_2","7386","3","15","Female","","","","","","","null","<div style=""font-size:60px;"">+</div>","null","fixation","","","","","","","","","","","31","","",""
"revaluation","249","1095640","0.0-4.0-4.0-0.16","spark_pilot_2","7386","3","15","Female","","false","","","","","[721.6999999955297]","./assets/img/ocean/animals/octopus.jpg","[""ArrowLeft""]","revaluation","ocean","23","{""ArrowUp,ArrowLeft"":23,""ArrowUp,ArrowRight"":10,""ArrowDown,ArrowLeft"":8,""ArrowDown,ArrowRight"":30}","true","ArrowUp,ArrowLeft","","","","original","1","32","","",""
"html-keyboard-response","250","1096142","0.0-4.0-4.0-1.16","spark_pilot_2","7386","3","15","Female","","","","","","","null","<div style=""font-size:60px;"">+</div>","null","fixation","","","","","","","","","","","33","","",""
"revaluation","251","1100148","0.0-4.0-4.0-0.17","spark_pilot_2","7386","3","15","Female","","false","","","","","[514.5]","./assets/img/ocean/animals/octopus.jpg","[""ArrowLeft""]","revaluation","ocean","23","{""ArrowUp,ArrowLeft"":23,""ArrowUp,ArrowRight"":10,""ArrowDown,ArrowLeft"":8,""ArrowDown,ArrowRight"":30}","true","ArrowUp,ArrowLeft","","","","original","1","34","","",""
"html-keyboard-response","252","1100650","0.0-4.0-4.0-1.17","spark_pilot_2","7386","3","15","Female","","","","","","","null","<div style=""font-size:60px;"">+</div>","null","fixation","","","","","","","","","","","35","","",""
"learning-instructions","253","1113214","0.0-4.0-5.0-0.0","spark_pilot_2","7386","3","15","Female","","","","","","","1166.2999999970198","<p> Time to play the dot game! </p>
            <p> For one minute, click the red dots on the following screen as they appear. </p>
            <p><b> Don't look away, as you will earn bonus for clicking dots</b>. </p>","","instructions","","","","","","","","","","","","","",""
"revaluation","254","1173215","0.0-4.0-6.0-0.0","spark_pilot_2","7386","3","15","Female","","","","","","","[79,73,83,59,104,125]","","","rest","","60","","","","","0","60000","","","","","",""
"learning-instructions","255","1181286","0.0-4.0-7.0-0.0","spark_pilot_2","7386","3","15","Female","","","","","","","1911.7000000029802","<p> You have almost finished this part of the game! </p>
            <p> We are going to ask you to make a few more choices. </p>","","instructions","","","","","","","","","","","","","",""
"learning-instructions","256","1197242","0.0-4.0-7.0-0.1","spark_pilot_2","7386","3","15","Female","","","","","","","1989.1999999955297","<p> First, you need to decide whether to go up or down. When you see each picture, use the arrow keys to make your choice. </p>
            <p><b>You will not see which animal you found, but try to get to the one that will give you the most treasure.</b></p>","","instructions","","","","","","","","","","","","","",""
"revaluation","257","1198435","0.0-4.0-8.0-0.0","spark_pilot_2","7386","3","15","Female","","false","","","","","[1191]","./assets/img/ocean/test/0.jpg","[""ArrowUp""]","first stage test","ocean","0","{""ArrowUp,ArrowLeft"":23,""ArrowUp,ArrowRight"":10,""ArrowDown,ArrowLeft"":8,""ArrowDown,ArrowRight"":30}","false","ArrowUp","false","","","original","1","","","",""
"html-keyboard-response","258","1198936","0.0-4.0-8.0-1.0","spark_pilot_2","7386","3","15","Female","","","","","","","null","<div style=""font-size:60px;"">+</div>","null","fixation","","","","","","","","","","","","","",""
"revaluation","259","1199875","0.0-4.0-8.0-0.1","spark_pilot_2","7386","3","15","Female","","false","","","","","[935]","./assets/img/ocean/test/2.jpg","[""ArrowUp""]","first stage test","ocean","0","{""ArrowUp,ArrowLeft"":23,""ArrowUp,ArrowRight"":10,""ArrowDown,ArrowLeft"":8,""ArrowDown,ArrowRight"":30}","false","ArrowUp","false","","","original","1","","","",""
"html-keyboard-response","260","1200377","0.0-4.0-8.0-1.1","spark_pilot_2","7386","3","15","Female","","","","","","","null","<div style=""font-size:60px;"">+</div>","null","fixation","","","","","","","","","","","","","",""
"revaluation","261","1201187","0.0-4.0-8.0-0.2","spark_pilot_2","7386","3","15","Female","","false","","","","","[808]","./assets/img/ocean/test/3.jpg","[""ArrowUp""]","first stage test","ocean","0","{""ArrowUp,ArrowLeft"":23,""ArrowUp,ArrowRight"":10,""ArrowDown,ArrowLeft"":8,""ArrowDown,ArrowRight"":30}","false","ArrowUp","false","","","original","1","","","",""
"html-keyboard-response","262","1201693","0.0-4.0-8.0-1.2","spark_pilot_2","7386","3","15","Female","","","","","","","null","<div style=""font-size:60px;"">+</div>","null","fixation","","","","","","","","","","","","","",""
"revaluation","263","1201696","0.0-4.0-8.0-0.3","spark_pilot_2","7386","3","15","Female","","false","","","","","[0.10000000149011612]","./assets/img/ocean/test/1.jpg","[""ArrowUp""]","first stage test","ocean","0","{""ArrowUp,ArrowLeft"":23,""ArrowUp,ArrowRight"":10,""ArrowDown,ArrowLeft"":8,""ArrowDown,ArrowRight"":30}","false","ArrowUp","false","","","original","1","","","",""
"html-keyboard-response","264","1202211","0.0-4.0-8.0-1.3","spark_pilot_2","7386","3","15","Female","","","","","","","null","<div style=""font-size:60px;"">+</div>","null","fixation","","","","","","","","","","","","","",""
"learning-instructions","265","1215310","0.0-4.0-9.0-0.0","spark_pilot_2","7386","3","15","Female","","","","","","","1765.7000000029802","<p> Now you will see the animals again and can search their chests for treasure. </p>
            <p> This time, you will not see how much treasure you earned, but you will earn more bonus money for making better choices. </p>","","instructions","","","","","","","","","","","","","",""
"revaluation","266","1215674","0.0-4.0-10.0-0.0","spark_pilot_2","7386","3","15","Female","","false","","","","","[362.5]","./assets/img/ocean/animals/octopus.jpg","[""ArrowLeft""]","second stage test","ocean","0","{""ArrowUp,ArrowLeft"":23,""ArrowUp,ArrowRight"":10,""ArrowDown,ArrowLeft"":8,""ArrowDown,ArrowRight"":30}","true","ArrowUp,ArrowLeft","","","","original","1","","","",""
"html-keyboard-response","267","1216177","0.0-4.0-10.0-1.0","spark_pilot_2","7386","3","15","Female","","","","","","","null","<div style=""font-size:60px;"">+</div>","null","fixation","","","","","","","","","","","","","",""
"revaluation","268","1216483","0.0-4.0-10.0-0.1","spark_pilot_2","7386","3","15","Female","","false","","","","","[301.80000000447035]","./assets/img/ocean/animals/octopus.jpg","[""ArrowLeft""]","second stage test","ocean","0","{""ArrowUp,ArrowLeft"":23,""ArrowUp,ArrowRight"":10,""ArrowDown,ArrowLeft"":8,""ArrowDown,ArrowRight"":30}","true","ArrowUp,ArrowLeft","","","","original","1","","","",""
"html-keyboard-response","269","1216994","0.0-4.0-10.0-1.1","spark_pilot_2","7386","3","15","Female","","","","","","","null","<div style=""font-size:60px;"">+</div>","null","fixation","","","","","","","","","","","","","",""
"revaluation","270","1217299","0.0-4.0-10.0-0.2","spark_pilot_2","7386","3","15","Female","","false","","","","","[301]","./assets/img/ocean/animals/octopus.jpg","[""ArrowLeft""]","second stage test","ocean","0","{""ArrowUp,ArrowLeft"":23,""ArrowUp,ArrowRight"":10,""ArrowDown,ArrowLeft"":8,""ArrowDown,ArrowRight"":30}","true","ArrowUp,ArrowLeft","","","","original","1","","","",""
"html-keyboard-response","271","1217810","0.0-4.0-10.0-1.2","spark_pilot_2","7386","3","15","Female","","","","","","","null","<div style=""font-size:60px;"">+</div>","null","fixation","","","","","","","","","","","","","",""
"revaluation","272","1218115","0.0-4.0-10.0-0.3","spark_pilot_2","7386","3","15","Female","","false","","","","","[301]","./assets/img/ocean/animals/octopus.jpg","[""ArrowLeft""]","second stage test","ocean","0","{""ArrowUp,ArrowLeft"":23,""ArrowUp,ArrowRight"":10,""ArrowDown,ArrowLeft"":8,""ArrowDown,ArrowRight"":30}","true","ArrowUp,ArrowLeft","","","","original","1","","","",""
"html-keyboard-response","273","1218627","0.0-4.0-10.0-1.3","spark_pilot_2","7386","3","15","Female","","","","","","","null","<div style=""font-size:60px;"">+</div>","null","fixation","","","","","","","","","","","","","",""
"revaluation","274","1218876","0.0-4.0-10.0-0.4","spark_pilot_2","7386","3","15","Female","","false","","","","","[245.10000000149012]","./assets/img/ocean/animals/seahorse.jpg","[""ArrowLeft""]","second stage test","ocean","0","{""ArrowUp,ArrowLeft"":23,""ArrowUp,ArrowRight"":10,""ArrowDown,ArrowLeft"":8,""ArrowDown,ArrowRight"":30}","false","ArrowDown,ArrowLeft","","","","original","1","","","",""
"html-keyboard-response","275","1219377","0.0-4.0-10.0-1.4","spark_pilot_2","7386","3","15","Female","","","","","","","null","<div style=""font-size:60px;"">+</div>","null","fixation","","","","","","","","","","","","","",""
"revaluation","276","1219555","0.0-4.0-10.0-0.5","spark_pilot_2","7386","3","15","Female","","false","","","","","[173.60000000149012]","./assets/img/ocean/animals/seahorse.jpg","[""ArrowRight""]","second stage test","ocean","0","{""ArrowUp,ArrowLeft"":23,""ArrowUp,ArrowRight"":10,""ArrowDown,ArrowLeft"":8,""ArrowDown,ArrowRight"":30}","true","ArrowDown,ArrowRight","","","","original","1","","","",""
"html-keyboard-response","277","1220060","0.0-4.0-10.0-1.5","spark_pilot_2","7386","3","15","Female","","","","","","","null","<div style=""font-size:60px;"">+</div>","null","fixation","","","","","","","","","","","","","",""
"revaluation","278","1220283","0.0-4.0-10.0-0.6","spark_pilot_2","7386","3","15","Female","","false","","","","","[219.30000000447035]","./assets/img/ocean/animals/seahorse.jpg","[""ArrowRight""]","second stage test","ocean","0","{""ArrowUp,ArrowLeft"":23,""ArrowUp,ArrowRight"":10,""ArrowDown,ArrowLeft"":8,""ArrowDown,ArrowRight"":30}","true","ArrowDown,ArrowRight","","","","original","1","","","",""
"html-keyboard-response","279","1220791","0.0-4.0-10.0-1.6","spark_pilot_2","7386","3","15","Female","","","","","","","null","<div style=""font-size:60px;"">+</div>","null","fixation","","","","","","","","","","","","","",""
"revaluation","280","1221139","0.0-4.0-10.0-0.7","spark_pilot_2","7386","3","15","Female","","false","","","","","[343.70000000298023]","./assets/img/ocean/animals/seahorse.jpg","[""ArrowRight""]","second stage test","ocean","0","{""ArrowUp,ArrowLeft"":23,""ArrowUp,ArrowRight"":10,""ArrowDown,ArrowLeft"":8,""ArrowDown,ArrowRight"":30}","true","ArrowDown,ArrowRight","","","","original","1","","","",""
"html-keyboard-response","281","1221643","0.0-4.0-10.0-1.7","spark_pilot_2","7386","3","15","Female","","","","","","","null","<div style=""font-size:60px;"">+</div>","null","fixation","","","","","","","","","","","","","",""
"learning-instructions","282","1226016","0.0-4.0-0.1-0.2","spark_pilot_2","7386","3","15","Female","","","","","","","1573.1000000014901","<p> This time you are searching for treasure in the <b>canyon</b>.</p>","","instructions","","","","","","","","","","","","","",""
"learning-instructions","283","1244350","0.0-4.0-0.1-0.3","spark_pilot_2","7386","3","15","Female","","","","","","","1087.2999999970198","<p><b>New</b> animals with <b>new</b> treasure chests live here. You need to explore to discover where the animal with the best treasure chest is.</p>
                    <p> Like before, once you figure out which animal has the chest with the most treasure, you should try to get to that animal and select that chest! </p>","","instructions","","","","","","","","","","","","","",""
"learning-instructions","284","1259628","0.0-4.0-1.1-0.1","spark_pilot_2","7386","3","15","Female","","","","","","","544.6000000014901","<p> Remember, when you see a picture of the place, use the up and down keys to <b>find an animal</b>.</p>
            <p> When you encounter an animal, you should use the left and right keys to <b>select a treasure chest</b>.</p>
            <p> Don't forget to look out for the robber! </p>","","instructions","","","","","","","","","","","","","",""
"revaluation","285","1263650","0.0-4.0-2.1-0.50","spark_pilot_2","7386","3","15","Female","","false","","","","","[653.1000000014901]","./assets/img/canyon/catch/5.jpg","[""spaceBar""]","value training","canyon","0","{""ArrowUp,ArrowLeft"":26,""ArrowUp,ArrowRight"":10,""ArrowDown,ArrowLeft"":5,""ArrowDown,ArrowRight"":17}","true","spaceBar","true","","","revaluation","2","0","","",""
"html-keyboard-response","286","1264159","0.0-4.0-2.1-1.50","spark_pilot_2","7386","3","15","Female","","","","","","","null","<div style=""font-size:60px;"">+</div>","null","fixation","","","","","","","","","","","1","","",""
"revaluation","287","1270184","0.0-4.0-2.1-0.51","spark_pilot_2","7386","3","15","Female","","false","","","","","[448.20000000298023,539.5]","./assets/img/canyon/memory/32.jpg","[""ArrowUp"",""ArrowRight""]","value training","canyon","10","{""ArrowUp,ArrowLeft"":26,""ArrowUp,ArrowRight"":10,""ArrowDown,ArrowLeft"":5,""ArrowDown,ArrowRight"":17}","false","ArrowUp,ArrowRight","false","","","revaluation","2","2","","",""
"html-keyboard-response","288","1270691","0.0-4.0-2.1-1.51","spark_pilot_2","7386","3","15","Female","","","","","","","null","<div style=""font-size:60px;"">+</div>","null","fixation","","","","","","","","","","","3","","",""
"revaluation","289","1276719","0.0-4.0-2.1-0.52","spark_pilot_2","7386","3","15","Female","","false","","","","","[483.6000000014901,333.19999999552965]","./assets/img/canyon/memory/27.jpg","[""ArrowUp"",""ArrowLeft""]","value training","canyon","26","{""ArrowUp,ArrowLeft"":26,""ArrowUp,ArrowRight"":10,""ArrowDown,ArrowLeft"":5,""ArrowDown,ArrowRight"":17}","true","ArrowUp,ArrowLeft","false","","","revaluation","2","4","","",""
"html-keyboard-response","290","1277224","0.0-4.0-2.1-1.52","spark_pilot_2","7386","3","15","Female","","","","","","","null","<div style=""font-size:60px;"">+</div>","null","fixation","","","","","","","","","","","5","","",""
"revaluation","291","1281243","0.0-4.0-2.1-0.53","spark_pilot_2","7386","3","15","Female","","false","","","","","[652.7000000029802]","./assets/img/canyon/catch/1.jpg","[""ArrowUp""]","value training","canyon","-10","{""ArrowUp,ArrowLeft"":26,""ArrowUp,ArrowRight"":10,""ArrowDown,ArrowLeft"":5,""ArrowDown,ArrowRight"":17}","false","ArrowUp","true","","","revaluation","2","6","","",""
"html-keyboard-response","292","1281746","0.0-4.0-2.1-1.53","spark_pilot_2","7386","3","15","Female","","","","","","","null","<div style=""font-size:60px;"">+</div>","null","fixation","","","","","","","","","","","7","","",""
"revaluation","293","1287764","0.0-4.0-2.1-0.54","spark_pilot_2","7386","3","15","Female","","false","","","","","[948.9000000059605,472.8999999985099]","./assets/img/canyon/memory/27.jpg","[""ArrowDown"",""ArrowRight""]","value training","canyon","17","{""ArrowUp,ArrowLeft"":26,""ArrowUp,ArrowRight"":10,""ArrowDown,ArrowLeft"":5,""ArrowDown,ArrowRight"":17}","false","ArrowDown,ArrowRight","false","","","revaluation","2","8","","",""
"html-keyboard-response","294","1288274","0.0-4.0-2.1-1.54","spark_pilot_2","7386","3","15","Female","","","","","","","null","<div style=""font-size:60px;"">+</div>","null","fixation","","","","","","","","","","","9","","",""
"revaluation","295","1292280","0.0-4.0-2.1-0.55","spark_pilot_2","7386","3","15","Female","","false","","","","","[732.8000000044703]","./assets/img/canyon/catch/2.jpg","[""spaceBar""]","value training","canyon","0","{""ArrowUp,ArrowLeft"":26,""ArrowUp,ArrowRight"":10,""ArrowDown,ArrowLeft"":5,""ArrowDown,ArrowRight"":17}","true","spaceBar","true","","","revaluation","2","10","","",""
"html-keyboard-response","296","1292782","0.0-4.0-2.1-1.55","spark_pilot_2","7386","3","15","Female","","","","","","","null","<div style=""font-size:60px;"">+</div>","null","fixation","","","","","","","","","","","11","","",""
"revaluation","297","1298789","0.0-4.0-2.1-0.56","spark_pilot_2","7386","3","15","Female","","false","","","","","[425.6000000014901,287.6000000014901]","./assets/img/canyon/memory/40.jpg","[""ArrowDown"",""ArrowLeft""]","value training","canyon","5","{""ArrowUp,ArrowLeft"":26,""ArrowUp,ArrowRight"":10,""ArrowDown,ArrowLeft"":5,""ArrowDown,ArrowRight"":17}","false","ArrowDown,ArrowLeft","false","","","revaluation","2","12","","",""
"html-keyboard-response","298","1299290","0.0-4.0-2.1-1.56","spark_pilot_2","7386","3","15","Female","","","","","","","null","<div style=""font-size:60px;"">+</div>","null","fixation","","","","","","","","","","","13","","",""
"revaluation","299","1305298","0.0-4.0-2.1-0.57","spark_pilot_2","7386","3","15","Female","","false","","","","","[499.3999999985099,322.6000000014901]","./assets/img/canyon/memory/31.jpg","[""ArrowUp"",""ArrowLeft""]","value training","canyon","26","{""ArrowUp,ArrowLeft"":26,""ArrowUp,ArrowRight"":10,""ArrowDown,ArrowLeft"":5,""ArrowDown,ArrowRight"":17}","true","ArrowUp,ArrowLeft","false","","","revaluation","2","14","","",""
"html-keyboard-response","300","1305799","0.0-4.0-2.1-1.57","spark_pilot_2","7386","3","15","Female","","","","","","","null","<div style=""font-size:60px;"">+</div>","null","fixation","","","","","","","","","","","15","","",""
"revaluation","301","1311806","0.0-4.0-2.1-0.58","spark_pilot_2","7386","3","15","Female","","false","","","","","[878.6999999955297,493.79999999701977]","./assets/img/canyon/memory/22.jpg","[""ArrowUp"",""ArrowLeft""]","value training","canyon","26","{""ArrowUp,ArrowLeft"":26,""ArrowUp,ArrowRight"":10,""ArrowDown,ArrowLeft"":5,""ArrowDown,ArrowRight"":17}","true","ArrowUp,ArrowLeft","false","","","revaluation","2","16","","",""
"html-keyboard-response","302","1312307","0.0-4.0-2.1-1.58","spark_pilot_2","7386","3","15","Female","","","","","","","null","<div style=""font-size:60px;"">+</div>","null","fixation","","","","","","","","","","","17","","",""
"revaluation","303","1318313","0.0-4.0-2.1-0.59","spark_pilot_2","7386","3","15","Female","","false","","","","","[1171.1999999955297,291.1000000014901]","./assets/img/canyon/memory/5.jpg","[""ArrowUp"",""ArrowLeft""]","value training","canyon","26","{""ArrowUp,ArrowLeft"":26,""ArrowUp,ArrowRight"":10,""ArrowDown,ArrowLeft"":5,""ArrowDown,ArrowRight"":17}","true","ArrowUp,ArrowLeft","false","","","revaluation","2","18","","",""
"html-keyboard-response","304","1318814","0.0-4.0-2.1-1.59","spark_pilot_2","7386","3","15","Female","","","","","","","null","<div style=""font-size:60px;"">+</div>","null","fixation","","","","","","","","","","","19","","",""
"revaluation","305","1324821","0.0-4.0-2.1-0.60","spark_pilot_2","7386","3","15","Female","","false","","","","","[688.8999999985099,279.5]","./assets/img/canyon/memory/5.jpg","[""ArrowUp"",""ArrowLeft""]","value training","canyon","26","{""ArrowUp,ArrowLeft"":26,""ArrowUp,ArrowRight"":10,""ArrowDown,ArrowLeft"":5,""ArrowDown,ArrowRight"":17}","true","ArrowUp,ArrowLeft","false","","","revaluation","2","20","","",""
"html-keyboard-response","306","1325322","0.0-4.0-2.1-1.60","spark_pilot_2","7386","3","15","Female","","","","","","","null","<div style=""font-size:60px;"">+</div>","null","fixation","","","","","","","","","","","21","","",""
