"trial_type","trial_index","time_elapsed","internal_node_id","task_version","subject_id","assigned_condition","age","gender","success","timeout","failed_images","failed_audio","failed_video","browser_interaction","rt","stimulus","response","task_part","environment","score","rewardMap","correct","fullState","isCatch","numberMissed","duration","condition","order","trial_num","key_press","ground_truth","bonus"
"pavlovia","0","2250","0.0-0.0","spark_pilot_2","7119","7","8","Female","","","","","","","","","","","","","","","","","","","","","","","",""
"preload","1","43786","0.0-1.0","spark_pilot_2","7119","7","8","Female","true","false","[]","[]","[]","[{""event"":""fullscreenenter"",""trial"":2,""time"":54253}]","","","","","","","","","","","","","","","","","",""
"fullscreen","2","55246","0.0-2.0","spark_pilot_2","7119","7","8","Female","true","","","","","","","","","","","","","","","","","","","","","","",""
"audio-button-response","3","60478","0.0-3.0-0.0-0.0","spark_pilot_2","7119","7","8","Female","","","","","","","5184","./assets/audio/audiotest/turtle.mp3","2","audio_test","","","","","","","","","","","","","",""
"learning-instructions","4","69214","0.0-3.0-1.0-0.0","spark_pilot_2","7119","7","8","Female","","","","","","","1663.8999999985099","<p> Welcome! Please remember to stay in fullscreen mode and don't click away from the experiment. </p>","","instructions","","","","","","","","","","","","","",""
"learning-instructions","5","80118","0.0-3.0-1.0-0.1","spark_pilot_2","7119","7","8","Female","","","","","","","2398.400000002235","<p> Today you will be playing a game to earn treasure. </p>
            <p> At the end of the experiment, you will earn a bonus based on how much treasure you find. </p>
            <img src='./assets/img/instructions/treasure.jpg' class='instructions-image'>","","instructions","","","","","","","","","","","","","",""
"learning-instructions","6","89278","0.0-3.0-1.0-0.2","spark_pilot_2","7119","7","8","Female","","","","","","","805.6000000014901","<p> Animals have hidden treasure in treasure chests. </p>
            <p> You need to first find an animal and then choose which of their treasure chests to search. </p>
            <img src='./assets/img/space/animals/cat.jpg' class='instructions-image'>","","instructions","","","","","","","","","","","","","",""
"learning-instructions","7","104155","0.0-3.0-1.0-0.3","spark_pilot_2","7119","7","8","Female","","","","","","","1623.1000000014901","<p> In each round, you will search for treasure in a different place. In the real game, there will be two rounds. </p>
            <p> You will begin with a separate, practice round where you will search for treasure in outer space. </p>
            <img src='./assets/img/space/0.jpg' class='instructions-image'>","","instructions","","","","","","","","","","","","","",""
"learning-instructions","8","116711","0.0-3.0-1.0-0.4","spark_pilot_2","7119","7","8","Female","","","","","","","1062.0999999977648","<p> On every turn, you will see a picture of the place that you are in, but the specific image may be different each time. </p>
            <p> For example, both of these images mean you are in outer space. </p>
            <img src='./assets/img/instructions/outerspace.jpg' class='instructions-image'>","","instructions","","","","","","","","","","","","","",""
"learning-instructions","9","126693","0.0-3.0-1.0-0.5","spark_pilot_2","7119","7","8","Female","","","","","","","2049","<p> You need to decide which direction to travel in. </p>
            <p> You can choose between going <b>up or down</b> by using the arrow keys. </p>
            <img src='./assets/img/instructions/updown.jpg' class='instructions-image'>","","instructions","","","","","","","","","","","","","",""
"learning-instructions","10","136482","0.0-3.0-1.0-0.6","spark_pilot_2","7119","7","8","Female","","","","","","","864","<p> You will have <b>2 seconds</b> to make your choice. </p>
            <p> If you do not make a choice within 2 seconds, you will not find an animal or earn treasure. </p>
            <img src='./assets/img/instructions/2seconds.jpg' class='instructions-image'>","","instructions","","","","","","","","","","","","","",""
"learning-instructions","11","147054","0.0-3.0-1.0-0.7","spark_pilot_2","7119","7","8","Female","","","","","","","3438.800000000745","<p> Let’s try practicing that now! </p>
            <p> When you see a picture of the place you are in, press the <b>up</b> key to travel up. </p>
            <img src='./assets/img/instructions/pressUp.jpg' class='instructions-image'>","","instructions","","","","","","","","","","","","","",""
"revaluation","12","151143","0.0-3.0-2.0-0.0","spark_pilot_2","7119","7","8","Female","","false","","","","","[1270]","./assets/img/space/0.jpg","[""ArrowUp""]","first stage practice","space","0","null","null","ArrowUp","false","","","","","","","",""
"html-keyboard-response","13","151654","0.0-3.0-2.0-1.0","spark_pilot_2","7119","7","8","Female","","","","","","","null","<div style=""font-size:60px;"">+</div>","null","fixation","","","","","","","","","","","","","",""
"revaluation","14","155697","0.0-3.0-2.0-0.1","spark_pilot_2","7119","7","8","Female","","false","","","","","[1285]","./assets/img/space/1.jpg","[""ArrowUp""]","first stage practice","space","0","null","null","ArrowUp","false","","","","","","","",""
"html-keyboard-response","15","156205","0.0-3.0-2.0-1.1","spark_pilot_2","7119","7","8","Female","","","","","","","null","<div style=""font-size:60px;"">+</div>","null","fixation","","","","","","","","","","","","","",""
"revaluation","16","160242","0.0-3.0-2.0-0.2","spark_pilot_2","7119","7","8","Female","","false","","","","","[801.3000000007451]","./assets/img/space/2.jpg","[""ArrowUp""]","first stage practice","space","0","null","null","ArrowUp","false","","","","","","","",""
"html-keyboard-response","17","160749","0.0-3.0-2.0-1.2","spark_pilot_2","7119","7","8","Female","","","","","","","null","<div style=""font-size:60px;"">+</div>","null","fixation","","","","","","","","","","","","","",""
"learning-instructions","18","167883","0.0-3.0-3.0-0.0","spark_pilot_2","7119","7","8","Female","","","","","","","2389.199999999255","<p> Great job! Now try pressing the <b>down</b> key to travel down. </p>
            <img src='./assets/img/instructions/pressDown.jpg' class='instructions-image'>","","instructions","","","","","","","","","","","","","",""
"revaluation","19","171902","0.0-3.0-4.0-0.0","spark_pilot_2","7119","7","8","Female","","false","","","","","[824.3000000007451]","./assets/img/space/3.jpg","[""ArrowDown""]","first stage practice","space","0","null","null","ArrowDown","false","","","","","","","",""
"html-keyboard-response","20","172405","0.0-3.0-4.0-1.0","spark_pilot_2","7119","7","8","Female","","","","","","","null","<div style=""font-size:60px;"">+</div>","null","fixation","","","","","","","","","","","","","",""
"revaluation","21","176447","0.0-3.0-4.0-0.1","spark_pilot_2","7119","7","8","Female","","false","","","","","[392.30000000074506]","./assets/img/space/4.jpg","[""ArrowDown""]","first stage practice","space","0","null","null","ArrowDown","false","","","","","","","",""
"html-keyboard-response","22","176957","0.0-3.0-4.0-1.1","spark_pilot_2","7119","7","8","Female","","","","","","","null","<div style=""font-size:60px;"">+</div>","null","fixation","","","","","","","","","","","","","",""
"revaluation","23","180992","0.0-3.0-4.0-0.2","spark_pilot_2","7119","7","8","Female","","false","","","","","[749.5]","./assets/img/space/5.jpg","[""ArrowDown""]","first stage practice","space","0","null","null","ArrowDown","false","","","","","","","",""
"html-keyboard-response","24","181502","0.0-3.0-4.0-1.2","spark_pilot_2","7119","7","8","Female","","","","","","","null","<div style=""font-size:60px;"">+</div>","null","fixation","","","","","","","","","","","","","",""
"learning-instructions","25","193643","0.0-3.0-5.0-0.0","spark_pilot_2","7119","7","8","Female","","","","","","","2186.10000000149","<p> The animals don’t move, so the animal in the upper part of a place will stay in the upper part of a place, and the animal in the lower part of a place will stay in the lower part of a place. </p>","","instructions","","","","","","","","","","","","","",""
"learning-instructions","26","205343","0.0-3.0-5.0-0.1","spark_pilot_2","7119","7","8","Female","","","","","","","2484.89999999851","<p> Each animal has two treasure chests for you to choose from. </p>
            <p> The amount of treasure in each chest can range from <b> 0 to 40 pieces.</b></p>","","instructions","","","","","","","","","","","","","",""
"learning-instructions","27","217780","0.0-3.0-5.0-0.2","spark_pilot_2","7119","7","8","Female","","","","","","","1168.699999999255","<p> You should decide which chest to search for treasure by using the <b>left</b> and <b>right</b> arrow keys. </p>
            <p><b> Pay attention to which animal is on the screen, as the animals have different treasure chests. </b></p>
            <img src='./assets/img/instructions/leftright.jpg' class='instructions-image'>","","instructions","","","","","","","","","","","","","",""
"learning-instructions","28","225059","0.0-3.0-5.0-0.3","spark_pilot_2","7119","7","8","Female","","","","","","","854.1000000014901","<p> Let’s try practicing that now. </p>
            <p> When you see an animal, choose which chest to search for treasure. </p>
            <img src='./assets/img/instructions/chooseChest.jpg' class='instructions-image'>","","instructions","","","","","","","","","","","","","",""
"revaluation","29","229089","0.0-3.0-6.0-0.0","spark_pilot_2","7119","7","8","Female","","false","","","","","[1094.699999999255]","./assets/img/space/animals/cat.jpg","[""ArrowRight""]","second stage practice","space","36","{""ArrowUp,ArrowLeft"":3,""ArrowUp,ArrowRight"":36,""ArrowDown,ArrowLeft"":15,""ArrowDown,ArrowRight"":23}","true","ArrowUp,ArrowRight","","","","","","","","",""
"html-keyboard-response","30","229598","0.0-3.0-6.0-1.0","spark_pilot_2","7119","7","8","Female","","","","","","","null","<div style=""font-size:60px;"">+</div>","null","fixation","","","","","","","","","","","","","",""
"revaluation","31","233631","0.0-3.0-6.0-0.1","spark_pilot_2","7119","7","8","Female","","false","","","","","[811.6999999992549]","./assets/img/space/animals/rabbit.jpg","[""ArrowLeft""]","second stage practice","space","15","{""ArrowUp,ArrowLeft"":3,""ArrowUp,ArrowRight"":36,""ArrowDown,ArrowLeft"":15,""ArrowDown,ArrowRight"":23}","false","ArrowDown,ArrowLeft","","","","","","","","",""
"html-keyboard-response","32","234142","0.0-3.0-6.0-1.1","spark_pilot_2","7119","7","8","Female","","","","","","","null","<div style=""font-size:60px;"">+</div>","null","fixation","","","","","","","","","","","","","",""
"revaluation","33","238186","0.0-3.0-6.0-0.2","spark_pilot_2","7119","7","8","Female","","false","","","","","[386]","./assets/img/space/animals/rabbit.jpg","[""ArrowRight""]","second stage practice","space","23","{""ArrowUp,ArrowLeft"":3,""ArrowUp,ArrowRight"":36,""ArrowDown,ArrowLeft"":15,""ArrowDown,ArrowRight"":23}","true","ArrowDown,ArrowRight","","","","","","","","",""
"html-keyboard-response","34","238693","0.0-3.0-6.0-1.2","spark_pilot_2","7119","7","8","Female","","","","","","","null","<div style=""font-size:60px;"">+</div>","null","fixation","","","","","","","","","","","","","",""
"revaluation","35","242727","0.0-3.0-6.0-0.3","spark_pilot_2","7119","7","8","Female","","false","","","","","[684.5999999977648]","./assets/img/space/animals/cat.jpg","[""ArrowRight""]","second stage practice","space","36","{""ArrowUp,ArrowLeft"":3,""ArrowUp,ArrowRight"":36,""ArrowDown,ArrowLeft"":15,""ArrowDown,ArrowRight"":23}","true","ArrowUp,ArrowRight","","","","","","","","",""
"html-keyboard-response","36","243237","0.0-3.0-6.0-1.3","spark_pilot_2","7119","7","8","Female","","","","","","","null","<div style=""font-size:60px;"">+</div>","null","fixation","","","","","","","","","","","","","",""
"learning-instructions","37","261997","0.0-3.0-7.0-0.0","spark_pilot_2","7119","7","8","Female","","","","","","","1826.199999999255","<p> Great job. Now let’s try putting it together. </p>
            <p> On each turn, you will first see a picture to remind you of the place you are in, and you need to choose whether to go up or down. </p>
            <p> Then you will see an animal and choose which of its chests to search for treasure. </p>","","instructions","","","","","","","","","","","","","",""
"learning-instructions","38","271227","0.0-3.0-7.0-0.1","spark_pilot_2","7119","7","8","Female","","","","","","","901.3000000007451","<p> When you choose whether to go up or down, try to go to the animal with the chest with the most treasure. </p>
            <p> Try practicing that now! </p>","","instructions","","","","","","","","","","","","","",""
"revaluation","39","277263","0.0-3.0-8.0-0.0","spark_pilot_2","7119","7","8","Female","","false","","","","","[935.5,974.2999999970198]","./assets/img/space/6.jpg","[""ArrowUp"",""ArrowRight""]","full practice","space","36","{""ArrowUp,ArrowLeft"":3,""ArrowUp,ArrowRight"":36,""ArrowDown,ArrowLeft"":15,""ArrowDown,ArrowRight"":23}","true","ArrowUp,ArrowRight","false","","","","","","","",""
"html-keyboard-response","40","277773","0.0-3.0-8.0-1.0","spark_pilot_2","7119","7","8","Female","","","","","","","null","<div style=""font-size:60px;"">+</div>","null","fixation","","","","","","","","","","","","","",""
"revaluation","41","283815","0.0-3.0-8.0-0.1","spark_pilot_2","7119","7","8","Female","","false","","","","","[440.30000000074506,287.80000000074506]","./assets/img/space/7.jpg","[""ArrowDown"",""ArrowRight""]","full practice","space","23","{""ArrowUp,ArrowLeft"":3,""ArrowUp,ArrowRight"":36,""ArrowDown,ArrowLeft"":15,""ArrowDown,ArrowRight"":23}","false","ArrowDown,ArrowRight","false","","","","","","","",""
"html-keyboard-response","42","284325","0.0-3.0-8.0-1.1","spark_pilot_2","7119","7","8","Female","","","","","","","null","<div style=""font-size:60px;"">+</div>","null","fixation","","","","","","","","","","","","","",""
"revaluation","43","290375","0.0-3.0-8.0-0.2","spark_pilot_2","7119","7","8","Female","","false","","","","","[554.1000000014901,746.8000000007451]","./assets/img/space/8.jpg","[""ArrowUp"",""ArrowRight""]","full practice","space","36","{""ArrowUp,ArrowLeft"":3,""ArrowUp,ArrowRight"":36,""ArrowDown,ArrowLeft"":15,""ArrowDown,ArrowRight"":23}","true","ArrowUp,ArrowRight","false","","","","","","","",""
"html-keyboard-response","44","290885","0.0-3.0-8.0-1.2","spark_pilot_2","7119","7","8","Female","","","","","","","null","<div style=""font-size:60px;"">+</div>","null","fixation","","","","","","","","","","","","","",""
"revaluation","45","296926","0.0-3.0-8.0-0.3","spark_pilot_2","7119","7","8","Female","","false","","","","","[387.5999999977648,395]","./assets/img/space/9.jpg","[""ArrowUp"",""ArrowRight""]","full practice","space","36","{""ArrowUp,ArrowLeft"":3,""ArrowUp,ArrowRight"":36,""ArrowDown,ArrowLeft"":15,""ArrowDown,ArrowRight"":23}","true","ArrowUp,ArrowRight","false","","","","","","","",""
"html-keyboard-response","46","297437","0.0-3.0-8.0-1.3","spark_pilot_2","7119","7","8","Female","","","","","","","null","<div style=""font-size:60px;"">+</div>","null","fixation","","","","","","","","","","","","","",""
"revaluation","47","303479","0.0-3.0-8.0-0.4","spark_pilot_2","7119","7","8","Female","","false","","","","","[697.6999999992549,452.0999999977648]","./assets/img/space/10.jpg","[""ArrowUp"",""ArrowRight""]","full practice","space","36","{""ArrowUp,ArrowLeft"":3,""ArrowUp,ArrowRight"":36,""ArrowDown,ArrowLeft"":15,""ArrowDown,ArrowRight"":23}","true","ArrowUp,ArrowRight","false","","","","","","","",""
"html-keyboard-response","48","303989","0.0-3.0-8.0-1.4","spark_pilot_2","7119","7","8","Female","","","","","","","null","<div style=""font-size:60px;"">+</div>","null","fixation","","","","","","","","","","","","","",""
"learning-instructions","49","317309","0.0-3.0-9.0-0.0","spark_pilot_2","7119","7","8","Female","","","","","","","2786","<p> One last thing: sometimes, you will see a robber. The robber can be anywhere in the picture. </p>
            <p> If you do not stop them, you will lose treasure. </p>
            <img src='./assets/img/instructions/robber.jpg' class='instructions-image'>","","instructions","","","","","","","","","","","","","",""
"learning-instructions","50","326804","0.0-3.0-9.0-0.1","spark_pilot_2","7119","7","8","Female","","","","","","","2242.800000000745","<p> If you see the robber, you should <b>press the space bar</b> rather than using the arrow keys. </p>
            <p> Try practicing that now! </p>","","instructions","","","","","","","","","","","","","",""
"revaluation","51","330830","0.0-3.0-10.0-0.0","spark_pilot_2","7119","7","8","Female","","false","","","","","[1376.800000000745]","./assets/img/space/catch/0.jpg","[""spaceBar""]","catch practice","space","0","{""ArrowUp,ArrowLeft"":3,""ArrowUp,ArrowRight"":36,""ArrowDown,ArrowLeft"":15,""ArrowDown,ArrowRight"":23}","true","spaceBar","true","","","","","","","",""
"html-keyboard-response","52","331341","0.0-3.0-10.0-1.0","spark_pilot_2","7119","7","8","Female","","","","","","","null","<div style=""font-size:60px;"">+</div>","null","fixation","","","","","","","","","","","","","",""
"revaluation","53","335374","0.0-3.0-10.0-0.1","spark_pilot_2","7119","7","8","Female","","false","","","","","[666.8999999985099]","./assets/img/space/catch/1.jpg","[""spaceBar""]","catch practice","space","0","{""ArrowUp,ArrowLeft"":3,""ArrowUp,ArrowRight"":36,""ArrowDown,ArrowLeft"":15,""ArrowDown,ArrowRight"":23}","true","spaceBar","true","","","","","","","",""
"html-keyboard-response","54","335885","0.0-3.0-10.0-1.1","spark_pilot_2","7119","7","8","Female","","","","","","","null","<div style=""font-size:60px;"">+</div>","null","fixation","","","","","","","","","","","","","",""
"revaluation","55","339915","0.0-3.0-10.0-0.2","spark_pilot_2","7119","7","8","Female","","false","","","","","[441.80000000074506]","./assets/img/space/catch/2.jpg","[""spaceBar""]","catch practice","space","0","{""ArrowUp,ArrowLeft"":3,""ArrowUp,ArrowRight"":36,""ArrowDown,ArrowLeft"":15,""ArrowDown,ArrowRight"":23}","true","spaceBar","true","","","","","","","",""
"html-keyboard-response","56","340430","0.0-3.0-10.0-1.2","spark_pilot_2","7119","7","8","Female","","","","","","","null","<div style=""font-size:60px;"">+</div>","null","fixation","","","","","","","","","","","","","",""
"learning-instructions","57","355261","0.0-3.0-11.0-0.0","spark_pilot_2","7119","7","8","Female","","","","","","","1141.1000000014901","<p> After you explore a place to find treasure, it will be time to play a different game. </p>
            <p> During this game, red dots will appear on the screen and fall down slowly. </p>
            <p><b> You must click on them before they reach the bottom. </b></p>
            <img src='./assets/img/instructions/dotGame.jpg' class='instructions-image'>","","instructions","","","","","","","","","","","","","",""
"learning-instructions","58","361610","0.0-3.0-11.0-0.1","spark_pilot_2","7119","7","8","Female","","","","","","","621.9000000022352","<p> For every dot you click, you will earn additional treasure. </p>
            <p> Let’s try practicing that now. </p>","","instructions","","","","","","","","","","","","","",""
"revaluation","59","376646","0.0-3.0-12.0-0.0","spark_pilot_2","7119","7","8","Female","","","","","","","[100,103]","","","rest practice","","20","","","","","0","15000","","","","","",""
"learning-instructions","60","383720","0.0-3.0-13.0-0.0-0.0","spark_pilot_2","7119","7","8","Female","","","","","","","1720.1000000014901","<p> Now, you will practice a shortened version of the game to get a sense of how it all fits together. </p>","","instructions","","","","","","","","","","","","","",""
"learning-instructions","61","388571","0.0-3.0-13.0-0.0-0.1","spark_pilot_2","7119","7","8","Female","","","","","","","1600.800000000745","<p>This time you are searching for treasure in outer space.</p>","","instructions","","","","","","","","","","","","","",""
"learning-instructions","62","405681","0.0-3.0-13.0-1.0-0.0","spark_pilot_2","7119","7","8","Female","","","","","","","2217.39999999851","<p> Remember, when you see a picture of the place, use the up and down keys to <b>find an animal</b>.</p>
            <p> When you encounter an animal, you should use the left and right keys to <b>select a treasure chest</b>.</p>
            <p> Don't forget to look out for the robber! </p>","","instructions","","","","","","","","","","","","","",""
"revaluation","63","409710","0.0-3.0-13.0-2.0-0.0","spark_pilot_2","7119","7","8","Female","","true","","","","","[]","./assets/img/space/11.jpg","[]","practice block","space","-5","{""ArrowUp,ArrowLeft"":3,""ArrowUp,ArrowRight"":36,""ArrowDown,ArrowLeft"":15,""ArrowDown,ArrowRight"":23}","false","","false","","","","","","","",""
"html-keyboard-response","64","410221","0.0-3.0-13.0-2.0-1.0","spark_pilot_2","7119","7","8","Female","","","","","","","null","<div style=""font-size:60px;"">+</div>","null","fixation","","","","","","","","","","","","","",""
"revaluation","65","416263","0.0-3.0-13.0-2.0-0.1","spark_pilot_2","7119","7","8","Female","","false","","","","","[564.6999999992549,477.8999999985099]","./assets/img/space/12.jpg","[""ArrowUp"",""ArrowRight""]","practice block","space","36","{""ArrowUp,ArrowLeft"":3,""ArrowUp,ArrowRight"":36,""ArrowDown,ArrowLeft"":15,""ArrowDown,ArrowRight"":23}","true","ArrowUp,ArrowRight","false","","","","","","","",""
"html-keyboard-response","66","416773","0.0-3.0-13.0-2.0-1.1","spark_pilot_2","7119","7","8","Female","","","","","","","null","<div style=""font-size:60px;"">+</div>","null","fixation","","","","","","","","","","","","","",""
"revaluation","67","422805","0.0-3.0-13.0-2.0-0.2","spark_pilot_2","7119","7","8","Female","","false","","","","","[561.6999999992549,669.1000000014901]","./assets/img/space/13.jpg","[""ArrowUp"",""ArrowRight""]","practice block","space","36","{""ArrowUp,ArrowLeft"":3,""ArrowUp,ArrowRight"":36,""ArrowDown,ArrowLeft"":15,""ArrowDown,ArrowRight"":23}","true","ArrowUp,ArrowRight","false","","","","","","","",""
"html-keyboard-response","68","423309","0.0-3.0-13.0-2.0-1.2","spark_pilot_2","7119","7","8","Female","","","","","","","null","<div style=""font-size:60px;"">+</div>","null","fixation","","","","","","","","","","","","","",""
"revaluation","69","429350","0.0-3.0-13.0-2.0-0.3","spark_pilot_2","7119","7","8","Female","","false","","","","","[578.1000000014901,362.5]","./assets/img/space/14.jpg","[""ArrowUp"",""ArrowRight""]","practice block","space","36","{""ArrowUp,ArrowLeft"":3,""ArrowUp,ArrowRight"":36,""ArrowDown,ArrowLeft"":15,""ArrowDown,ArrowRight"":23}","true","ArrowUp,ArrowRight","false","","","","","","","",""
"html-keyboard-response","70","429861","0.0-3.0-13.0-2.0-1.3","spark_pilot_2","7119","7","8","Female","","","","","","","null","<div style=""font-size:60px;"">+</div>","null","fixation","","","","","","","","","","","","","",""
"revaluation","71","435910","0.0-3.0-13.0-2.0-0.4","spark_pilot_2","7119","7","8","Female","","false","","","","","[474.5,787.8000000007451]","./assets/img/space/11.jpg","[""ArrowUp"",""ArrowRight""]","practice block","space","36","{""ArrowUp,ArrowLeft"":3,""ArrowUp,ArrowRight"":36,""ArrowDown,ArrowLeft"":15,""ArrowDown,ArrowRight"":23}","true","ArrowUp,ArrowRight","false","","","","","","","",""
"html-keyboard-response","72","436421","0.0-3.0-13.0-2.0-1.4","spark_pilot_2","7119","7","8","Female","","","","","","","null","<div style=""font-size:60px;"">+</div>","null","fixation","","","","","","","","","","","","","",""
"revaluation","73","442470","0.0-3.0-13.0-2.0-0.5","spark_pilot_2","7119","7","8","Female","","false","","","","","[807.5,566.6999999992549]","./assets/img/space/12.jpg","[""ArrowUp"",""ArrowRight""]","practice block","space","36","{""ArrowUp,ArrowLeft"":3,""ArrowUp,ArrowRight"":36,""ArrowDown,ArrowLeft"":15,""ArrowDown,ArrowRight"":23}","true","ArrowUp,ArrowRight","false","","","","","","","",""
"html-keyboard-response","74","442981","0.0-3.0-13.0-2.0-1.5","spark_pilot_2","7119","7","8","Female","","","","","","","null","<div style=""font-size:60px;"">+</div>","null","fixation","","","","","","","","","","","","","",""
"revaluation","75","449031","0.0-3.0-13.0-2.0-0.6","spark_pilot_2","7119","7","8","Female","","false","","","","","[575.4000000022352,362.3999999985099]","./assets/img/space/13.jpg","[""ArrowUp"",""ArrowRight""]","practice block","space","36","{""ArrowUp,ArrowLeft"":3,""ArrowUp,ArrowRight"":36,""ArrowDown,ArrowLeft"":15,""ArrowDown,ArrowRight"":23}","true","ArrowUp,ArrowRight","false","","","","","","","",""
"html-keyboard-response","76","449541","0.0-3.0-13.0-2.0-1.6","spark_pilot_2","7119","7","8","Female","","","","","","","null","<div style=""font-size:60px;"">+</div>","null","fixation","","","","","","","","","","","","","",""
"revaluation","77","455583","0.0-3.0-13.0-2.0-0.7","spark_pilot_2","7119","7","8","Female","","false","","","","","[555.1999999992549,625.5]","./assets/img/space/14.jpg","[""ArrowUp"",""ArrowRight""]","practice block","space","36","{""ArrowUp,ArrowLeft"":3,""ArrowUp,ArrowRight"":36,""ArrowDown,ArrowLeft"":15,""ArrowDown,ArrowRight"":23}","true","ArrowUp,ArrowRight","false","","","","","","","",""
"html-keyboard-response","78","456093","0.0-3.0-13.0-2.0-1.7","spark_pilot_2","7119","7","8","Female","","","","","","","null","<div style=""font-size:60px;"">+</div>","null","fixation","","","","","","","","","","","","","",""
"revaluation","79","460135","0.0-3.0-13.0-2.0-0.8","spark_pilot_2","7119","7","8","Female","","false","","","","","[387.1000000014901]","./assets/img/space/catch/3.jpg","[""ArrowUp""]","practice block","space","-10","{""ArrowUp,ArrowLeft"":3,""ArrowUp,ArrowRight"":36,""ArrowDown,ArrowLeft"":15,""ArrowDown,ArrowRight"":23}","false","ArrowUp","true","","","","","","","",""
"html-keyboard-response","80","460645","0.0-3.0-13.0-2.0-1.8","spark_pilot_2","7119","7","8","Female","","","","","","","null","<div style=""font-size:60px;"">+</div>","null","fixation","","","","","","","","","","","","","",""
"learning-instructions","81","475393","0.0-3.0-13.0-3.0-0.0","spark_pilot_2","7119","7","8","Female","","","","","","","1699.9000000022352","<p> Now, you will travel with a friend who will choose whether you go up or down first. </p>
            <p> On these turns, you will just see the animal that they found. You will still get to choose which chest to search for treasure.</p>","","instructions","","","","","","","","","","","","","",""
"revaluation","82","479423","0.0-3.0-13.0-4.0-0.0","spark_pilot_2","7119","7","8","Female","","false","","","","","[1454.4000000022352]","./assets/img/space/animals/rabbit.jpg","[""ArrowRight""]","practice block","space","23","{""ArrowUp,ArrowLeft"":3,""ArrowUp,ArrowRight"":36,""ArrowDown,ArrowLeft"":15,""ArrowDown,ArrowRight"":23}","true","ArrowDown,ArrowRight","","","","","","","","",""
"html-keyboard-response","83","479934","0.0-3.0-13.0-4.0-1.0","spark_pilot_2","7119","7","8","Female","","","","","","","null","<div style=""font-size:60px;"">+</div>","null","fixation","","","","","","","","","","","","","",""
"revaluation","84","483966","0.0-3.0-13.0-4.0-0.1","spark_pilot_2","7119","7","8","Female","","false","","","","","[498.3999999985099]","./assets/img/space/animals/rabbit.jpg","[""ArrowRight""]","practice block","space","23","{""ArrowUp,ArrowLeft"":3,""ArrowUp,ArrowRight"":36,""ArrowDown,ArrowLeft"":15,""ArrowDown,ArrowRight"":23}","true","ArrowDown,ArrowRight","","","","","","","","",""
"html-keyboard-response","85","484477","0.0-3.0-13.0-4.0-1.1","spark_pilot_2","7119","7","8","Female","","","","","","","null","<div style=""font-size:60px;"">+</div>","null","fixation","","","","","","","","","","","","","",""
"revaluation","86","488511","0.0-3.0-13.0-4.0-0.2","spark_pilot_2","7119","7","8","Female","","false","","","","","[300.1000000014901]","./assets/img/space/animals/cat.jpg","[""ArrowRight""]","practice block","space","36","{""ArrowUp,ArrowLeft"":3,""ArrowUp,ArrowRight"":36,""ArrowDown,ArrowLeft"":15,""ArrowDown,ArrowRight"":23}","true","ArrowUp,ArrowRight","","","","","","","","",""
"html-keyboard-response","87","489021","0.0-3.0-13.0-4.0-1.2","spark_pilot_2","7119","7","8","Female","","","","","","","null","<div style=""font-size:60px;"">+</div>","null","fixation","","","","","","","","","","","","","",""
"revaluation","88","493055","0.0-3.0-13.0-4.0-0.3","spark_pilot_2","7119","7","8","Female","","false","","","","","[380.9000000022352]","./assets/img/space/animals/cat.jpg","[""ArrowRight""]","practice block","space","36","{""ArrowUp,ArrowLeft"":3,""ArrowUp,ArrowRight"":36,""ArrowDown,ArrowLeft"":15,""ArrowDown,ArrowRight"":23}","true","ArrowUp,ArrowRight","","","","","","","","",""
"html-keyboard-response","89","493565","0.0-3.0-13.0-4.0-1.3","spark_pilot_2","7119","7","8","Female","","","","","","","null","<div style=""font-size:60px;"">+</div>","null","fixation","","","","","","","","","","","","","",""
"learning-instructions","90","502769","0.0-3.0-13.0-5.0-0.0","spark_pilot_2","7119","7","8","Female","","","","","","","1747.7000000029802","<p> Time to play the dot game! </p>
            <p> For 15 seconds, click the red dots on the following screen as they appear. </p>","","instructions","","","","","","","","","","","","","",""
"revaluation","91","517788","0.0-3.0-13.0-6.0-0.0","spark_pilot_2","7119","7","8","Female","","","","","","","[86]","","","rest practice","","10","","","","","0","15000","","","","","",""
"learning-instructions","92","525603","0.0-3.0-13.0-7.0-0.0","spark_pilot_2","7119","7","8","Female","","","","","","","1626.4000000022352","<p> You have almost finished this part of the game! </p>
            <p> We are going to ask you to make a few more choices. </p>","","instructions","","","","","","","","","","","","","",""
"learning-instructions","93","540865","0.0-3.0-13.0-7.0-0.1","spark_pilot_2","7119","7","8","Female","","","","","","","1101.4000000022352","<p> First, you need to decide whether to go up or down. When you see each picture, use the arrow keys to make your choice. </p>
            <p><b>You will not see which animal you found, but try to get to the one that will give you the most treasure.</b></p>","","instructions","","","","","","","","","","","","","",""
"revaluation","94","542568","0.0-3.0-13.0-8.0","spark_pilot_2","7119","7","8","Female","","false","","","","","[1685.9000000022352]","./assets/img/space/15.jpg","[""ArrowUp""]","practice block","space","0","{""ArrowUp,ArrowLeft"":3,""ArrowUp,ArrowRight"":36,""ArrowDown,ArrowLeft"":15,""ArrowDown,ArrowRight"":23}","true","ArrowUp","false","","","","","","","",""
"html-keyboard-response","95","543080","0.0-3.0-13.0-9.0","spark_pilot_2","7119","7","8","Female","","","","","","","null","<div style=""font-size:60px;"">+</div>","null","fixation","","","","","","","","","","","","","",""
"learning-instructions","96","555530","0.0-3.0-13.0-10.0-0.0","spark_pilot_2","7119","7","8","Female","","","","","","","929.7000000029802","<p> Now you will see the animals again and can search their chests for treasure. </p>
            <p> This time, you will not see how much treasure you earned, but you will earn more bonus money for making better choices. </p>","","instructions","","","","","","","","","","","","","",""
"revaluation","97","556436","0.0-3.0-13.0-11.0-0.0","spark_pilot_2","7119","7","8","Female","","false","","","","","[893.0999999977648]","./assets/img/space/animals/cat.jpg","[""ArrowRight""]","practice block","space","0","{""ArrowUp,ArrowLeft"":3,""ArrowUp,ArrowRight"":36,""ArrowDown,ArrowLeft"":15,""ArrowDown,ArrowRight"":23}","true","ArrowUp,ArrowRight","","","","","","","","",""
"html-keyboard-response","98","556941","0.0-3.0-13.0-11.0-1.0","spark_pilot_2","7119","7","8","Female","","","","","","","null","<div style=""font-size:60px;"">+</div>","null","fixation","","","","","","","","","","","","","",""
"revaluation","99","557756","0.0-3.0-13.0-11.0-0.1","spark_pilot_2","7119","7","8","Female","","false","","","","","[797.8999999985099]","./assets/img/space/animals/rabbit.jpg","[""ArrowRight""]","practice block","space","0","{""ArrowUp,ArrowLeft"":3,""ArrowUp,ArrowRight"":36,""ArrowDown,ArrowLeft"":15,""ArrowDown,ArrowRight"":23}","true","ArrowDown,ArrowRight","","","","","","","","",""
"html-keyboard-response","100","558278","0.0-3.0-13.0-11.0-1.1","spark_pilot_2","7119","7","8","Female","","","","","","","null","<div style=""font-size:60px;"">+</div>","null","fixation","","","","","","","","","","","","","",""
"learning-instructions","101","563838","0.0-3.0-14.0-0.0","spark_pilot_2","7119","7","8","Female","","","","","","","918.5","<p> Before you start, we're going to ask you a few questions about how the game works. </p>","","instructions","","","","","","","","","","","","","",""
"comp-q","102","571040","0.0-3.0-15.0-0.0-0.0","spark_pilot_2","7119","7","8","Female","","","","","","","1521.800000000745","<p> <b> True or False? </b> </p>
            <p> There can be 50 pieces of treasure in a given animal's chest. </p>","1","comp_question","","","","true","","","","","","","","","",""
"comp-q","103","579021","0.0-3.0-15.0-0.0-1.0","spark_pilot_2","7119","7","8","Female","","","","","","","1252.0999999977648","<p> <b> That's right! </b> The amount of treasure in each chest can range from 0 to 40 pieces. </p>","0","comp_answer","","","","","","","","","","","","","",""
"comp-q","104","587379","0.0-3.0-15.0-0.1-0.1","spark_pilot_2","7119","7","8","Female","","","","","","","1173.699999999255","<p> <b> True or False? </b> </p><p> In this game, all animals have the same amount of treasure in their left and right chests. </p>","1","comp_question","","","","true","","","","","","","","","",""
"comp-q","105","594289","0.0-3.0-15.0-0.1-1.1","spark_pilot_2","7119","7","8","Female","","","","","","","1598.199999999255","<p> <b> That's right! </b> Animals have different amounts of treasure in their treasure chests. </p>","0","comp_answer","","","","","","","","","","","","","",""
"comp-q","106","601632","0.0-3.0-15.0-0.2-0.2","spark_pilot_2","7119","7","8","Female","","","","","","","1440.8999999985099","<p> <b> True or False? </b> </p><p> The same animal will always be there if you go up in the same place. </p>","1","comp_question","","","","false","","","","","","","","","",""
"comp-q","107","609216","0.0-3.0-15.0-0.2-1.2","spark_pilot_2","7119","7","8","Female","","","","","","","1197.1000000014901","<p> <b>Incorrect.</b> One animal lives in the upper part and one lives in the lower part of every place. </p>","0","comp_answer","","","","","","","","","","","","","",""
"comp-q","108","616249","0.0-3.0-15.0-0.3-0.3","spark_pilot_2","7119","7","8","Female","","","","","","","1200.300000000745","<p> <b> True or False? </b> </p><p> The same animal will always be there if you go up in the same place. </p>","0","comp_question","","","","true","","","","","","","","","",""
"comp-q","109","624819","0.0-3.0-15.0-0.3-1.3","spark_pilot_2","7119","7","8","Female","","","","","","","1780.3999999985099","<p> <b> That's right! </b> One animal lives in the upper part and one lives in the lower part of every place. </p>","0","comp_answer","","","","","","","","","","","","","",""
"comp-q","110","631596","0.0-3.0-15.0-0.4-0.4","spark_pilot_2","7119","7","8","Female","","","","","","","1198","<p> <b> True or False? </b> </p><p> If you see a different picture, it means you are in a new place. </p>","1","comp_question","","","","true","","","","","","","","","",""
"comp-q","111","643722","0.0-3.0-15.0-0.4-1.4","spark_pilot_2","7119","7","8","Female","","","","","","","790.8000000007451","<p> <b> That's right! </b> Lots of different images may show the same place. For example,  you may see three different images that all remind you that you are in outer space. </p>","0","comp_answer","","","","","","","","","","","","","",""
"learning-instructions","112","656404","0.0-3.0-16.0-0.0","spark_pilot_2","7119","7","8","Female","","","","","","","2732.5","<p> Good job. Remember to do your best because the amount of treasure you earn will be converted into bonus money. </p>
            <p> It’s time to start the real game! </p>","","instructions","","","","","","","","","","","","","",""
"learning-instructions","113","660374","0.0-4.0-0.0-0.0","spark_pilot_2","7119","7","8","Female","","","","","","","1165.699999999255","<p> This time you are searching for treasure in the <b>canyon</b>.</p>","","instructions","","","","","","","","","","","","","",""
"learning-instructions","114","679041","0.0-4.0-0.0-0.1","spark_pilot_2","7119","7","8","Female","","","","","","","1219.1000000014901","<p><b>New</b> animals with <b>new</b> treasure chests live here. You need to explore to discover where the animal with the best treasure chest is.</p>
                    <p> Like before, once you figure out which animal has the chest with the most treasure, you should try to get to that animal and select that chest! </p>","","instructions","","","","","","","","","","","","","",""
"learning-instructions","115","695921","0.0-4.0-1.0-0.0","spark_pilot_2","7119","7","8","Female","","","","","","","2141.199999999255","<p> Remember, when you see a picture of the place, use the up and down keys to <b>find an animal</b>.</p>
            <p> When you encounter an animal, you should use the left and right keys to <b>select a treasure chest</b>.</p>
            <p> Don't forget to look out for the robber! </p>","","instructions","","","","","","","","","","","","","",""
"revaluation","116","701968","0.0-4.0-2.0-0.0","spark_pilot_2","7119","7","8","Female","","false","","","","","[1046.199999999255,511.19999999925494]","./assets/img/canyon/memory/8.jpg","[""ArrowUp"",""ArrowRight""]","value training","canyon","10","{""ArrowUp,ArrowLeft"":23,""ArrowUp,ArrowRight"":10,""ArrowDown,ArrowLeft"":8,""ArrowDown,ArrowRight"":30}","false","ArrowUp,ArrowRight","false","","","original","1","0","","",""
"html-keyboard-response","117","702493","0.0-4.0-2.0-1.0","spark_pilot_2","7119","7","8","Female","","","","","","","null","<div style=""font-size:60px;"">+</div>","null","fixation","","","","","","","","","","","1","","",""
"revaluation","118","708535","0.0-4.0-2.0-0.1","spark_pilot_2","7119","7","8","Female","","false","","","","","[512.2000000029802,1232.8999999985099]","./assets/img/canyon/memory/11.jpg","[""ArrowUp"",""ArrowLeft""]","value training","canyon","23","{""ArrowUp,ArrowLeft"":23,""ArrowUp,ArrowRight"":10,""ArrowDown,ArrowLeft"":8,""ArrowDown,ArrowRight"":30}","false","ArrowUp,ArrowLeft","false","","","original","1","2","","",""
"html-keyboard-response","119","709045","0.0-4.0-2.0-1.1","spark_pilot_2","7119","7","8","Female","","","","","","","null","<div style=""font-size:60px;"">+</div>","null","fixation","","","","","","","","","","","3","","",""
"revaluation","120","715087","0.0-4.0-2.0-0.2","spark_pilot_2","7119","7","8","Female","","false","","","","","[1619.199999999255,949.6000000014901]","./assets/img/canyon/memory/39.jpg","[""ArrowDown"",""ArrowLeft""]","value training","canyon","8","{""ArrowUp,ArrowLeft"":23,""ArrowUp,ArrowRight"":10,""ArrowDown,ArrowLeft"":8,""ArrowDown,ArrowRight"":30}","false","ArrowDown,ArrowLeft","false","","","original","1","4","","",""
"html-keyboard-response","121","715597","0.0-4.0-2.0-1.2","spark_pilot_2","7119","7","8","Female","","","","","","","null","<div style=""font-size:60px;"">+</div>","null","fixation","","","","","","","","","","","5","","",""
"revaluation","122","721639","0.0-4.0-2.0-0.3","spark_pilot_2","7119","7","8","Female","","false","","","","","[599.0999999977648,497.8999999985099]","./assets/img/canyon/memory/8.jpg","[""ArrowUp"",""ArrowRight""]","value training","canyon","10","{""ArrowUp,ArrowLeft"":23,""ArrowUp,ArrowRight"":10,""ArrowDown,ArrowLeft"":8,""ArrowDown,ArrowRight"":30}","false","ArrowUp,ArrowRight","false","","","original","1","6","","",""
"html-keyboard-response","123","722149","0.0-4.0-2.0-1.3","spark_pilot_2","7119","7","8","Female","","","","","","","null","<div style=""font-size:60px;"">+</div>","null","fixation","","","","","","","","","","","7","","",""
"revaluation","124","728190","0.0-4.0-2.0-0.4","spark_pilot_2","7119","7","8","Female","","false","","","","","[441.0999999977648,511.5]","./assets/img/canyon/memory/37.jpg","[""ArrowUp"",""ArrowLeft""]","value training","canyon","23","{""ArrowUp,ArrowLeft"":23,""ArrowUp,ArrowRight"":10,""ArrowDown,ArrowLeft"":8,""ArrowDown,ArrowRight"":30}","false","ArrowUp,ArrowLeft","false","","","original","1","8","","",""
"html-keyboard-response","125","728701","0.0-4.0-2.0-1.4","spark_pilot_2","7119","7","8","Female","","","","","","","null","<div style=""font-size:60px;"">+</div>","null","fixation","","","","","","","","","","","9","","",""
"revaluation","126","732734","0.0-4.0-2.0-0.5","spark_pilot_2","7119","7","8","Female","","false","","","","","[422.30000000074506]","./assets/img/canyon/catch/2.jpg","[""ArrowUp""]","value training","canyon","-10","{""ArrowUp,ArrowLeft"":23,""ArrowUp,ArrowRight"":10,""ArrowDown,ArrowLeft"":8,""ArrowDown,ArrowRight"":30}","false","ArrowUp","true","","","original","1","10","","",""
"html-keyboard-response","127","733245","0.0-4.0-2.0-1.5","spark_pilot_2","7119","7","8","Female","","","","","","","null","<div style=""font-size:60px;"">+</div>","null","fixation","","","","","","","","","","","11","","",""
"revaluation","128","737278","0.0-4.0-2.0-0.6","spark_pilot_2","7119","7","8","Female","","false","","","","","[1188.7000000029802]","./assets/img/canyon/catch/1.jpg","[""ArrowUp""]","value training","canyon","-10","{""ArrowUp,ArrowLeft"":23,""ArrowUp,ArrowRight"":10,""ArrowDown,ArrowLeft"":8,""ArrowDown,ArrowRight"":30}","false","ArrowUp","true","","","original","1","12","","",""
"html-keyboard-response","129","737789","0.0-4.0-2.0-1.6","spark_pilot_2","7119","7","8","Female","","","","","","","null","<div style=""font-size:60px;"">+</div>","null","fixation","","","","","","","","","","","13","","",""
"revaluation","130","743830","0.0-4.0-2.0-0.7","spark_pilot_2","7119","7","8","Female","","false","","","","","[1196.6000000014901,914.5]","./assets/img/canyon/memory/22.jpg","[""ArrowUp"",""ArrowRight""]","value training","canyon","10","{""ArrowUp,ArrowLeft"":23,""ArrowUp,ArrowRight"":10,""ArrowDown,ArrowLeft"":8,""ArrowDown,ArrowRight"":30}","false","ArrowUp,ArrowRight","false","","","original","1","14","","",""
"html-keyboard-response","131","744342","0.0-4.0-2.0-1.7","spark_pilot_2","7119","7","8","Female","","","","","","","null","<div style=""font-size:60px;"">+</div>","null","fixation","","","","","","","","","","","15","","",""
"revaluation","132","750382","0.0-4.0-2.0-0.8","spark_pilot_2","7119","7","8","Female","","false","","","","","[840,515.4000000022352]","./assets/img/canyon/memory/22.jpg","[""ArrowUp"",""ArrowRight""]","value training","canyon","10","{""ArrowUp,ArrowLeft"":23,""ArrowUp,ArrowRight"":10,""ArrowDown,ArrowLeft"":8,""ArrowDown,ArrowRight"":30}","false","ArrowUp,ArrowRight","false","","","original","1","16","","",""
"html-keyboard-response","133","750893","0.0-4.0-2.0-1.8","spark_pilot_2","7119","7","8","Female","","","","","","","null","<div style=""font-size:60px;"">+</div>","null","fixation","","","","","","","","","","","17","","",""
"revaluation","134","756935","0.0-4.0-2.0-0.9","spark_pilot_2","7119","7","8","Female","","false","","","","","[883.1999999992549,601.5]","./assets/img/canyon/memory/40.jpg","[""ArrowUp"",""ArrowRight""]","value training","canyon","10","{""ArrowUp,ArrowLeft"":23,""ArrowUp,ArrowRight"":10,""ArrowDown,ArrowLeft"":8,""ArrowDown,ArrowRight"":30}","false","ArrowUp,ArrowRight","false","","","original","1","18","","",""
"html-keyboard-response","135","757445","0.0-4.0-2.0-1.9","spark_pilot_2","7119","7","8","Female","","","","","","","null","<div style=""font-size:60px;"">+</div>","null","fixation","","","","","","","","","","","19","","",""
"revaluation","136","763487","0.0-4.0-2.0-0.10","spark_pilot_2","7119","7","8","Female","","false","","","","","[649.3999999985099,469.30000000074506]","./assets/img/canyon/memory/39.jpg","[""ArrowUp"",""ArrowRight""]","value training","canyon","10","{""ArrowUp,ArrowLeft"":23,""ArrowUp,ArrowRight"":10,""ArrowDown,ArrowLeft"":8,""ArrowDown,ArrowRight"":30}","false","ArrowUp,ArrowRight","false","","","original","1","20","","",""
"html-keyboard-response","137","763997","0.0-4.0-2.0-1.10","spark_pilot_2","7119","7","8","Female","","","","","","","null","<div style=""font-size:60px;"">+</div>","null","fixation","","","","","","","","","","","21","","",""
"revaluation","138","770046","0.0-4.0-2.0-0.11","spark_pilot_2","7119","7","8","Female","","false","","","","","[574.6999999992549,540.5]","./assets/img/canyon/memory/2.jpg","[""ArrowUp"",""ArrowLeft""]","value training","canyon","23","{""ArrowUp,ArrowLeft"":23,""ArrowUp,ArrowRight"":10,""ArrowDown,ArrowLeft"":8,""ArrowDown,ArrowRight"":30}","false","ArrowUp,ArrowLeft","false","","","original","1","22","","",""
"html-keyboard-response","139","770557","0.0-4.0-2.0-1.11","spark_pilot_2","7119","7","8","Female","","","","","","","null","<div style=""font-size:60px;"">+</div>","null","fixation","","","","","","","","","","","23","","",""
"revaluation","140","774599","0.0-4.0-2.0-0.12","spark_pilot_2","7119","7","8","Female","","false","","","","","[818.1000000014901]","./assets/img/canyon/catch/4.jpg","[""spaceBar""]","value training","canyon","0","{""ArrowUp,ArrowLeft"":23,""ArrowUp,ArrowRight"":10,""ArrowDown,ArrowLeft"":8,""ArrowDown,ArrowRight"":30}","true","spaceBar","true","","","original","1","24","","",""
"html-keyboard-response","141","775109","0.0-4.0-2.0-1.12","spark_pilot_2","7119","7","8","Female","","","","","","","null","<div style=""font-size:60px;"">+</div>","null","fixation","","","","","","","","","","","25","","",""
"revaluation","142","781151","0.0-4.0-2.0-0.13","spark_pilot_2","7119","7","8","Female","","false","","","","","[414.80000000074506,768.8000000007451]","./assets/img/canyon/memory/36.jpg","[""ArrowUp"",""ArrowLeft""]","value training","canyon","23","{""ArrowUp,ArrowLeft"":23,""ArrowUp,ArrowRight"":10,""ArrowDown,ArrowLeft"":8,""ArrowDown,ArrowRight"":30}","false","ArrowUp,ArrowLeft","false","","","original","1","26","","",""
"html-keyboard-response","143","781661","0.0-4.0-2.0-1.13","spark_pilot_2","7119","7","8","Female","","","","","","","null","<div style=""font-size:60px;"">+</div>","null","fixation","","","","","","","","","","","27","","",""
"revaluation","144","787710","0.0-4.0-2.0-0.14","spark_pilot_2","7119","7","8","Female","","false","","","","","[511.29999999701977,455]","./assets/img/canyon/memory/37.jpg","[""ArrowUp"",""ArrowLeft""]","value training","canyon","23","{""ArrowUp,ArrowLeft"":23,""ArrowUp,ArrowRight"":10,""ArrowDown,ArrowLeft"":8,""ArrowDown,ArrowRight"":30}","false","ArrowUp,ArrowLeft","false","","","original","1","28","","",""
"html-keyboard-response","145","788221","0.0-4.0-2.0-1.14","spark_pilot_2","7119","7","8","Female","","","","","","","null","<div style=""font-size:60px;"">+</div>","null","fixation","","","","","","","","","","","29","","",""
"revaluation","146","794263","0.0-4.0-2.0-0.15","spark_pilot_2","7119","7","8","Female","","false","","","","","[634,503.9000000022352]","./assets/img/canyon/memory/28.jpg","[""ArrowUp"",""ArrowLeft""]","value training","canyon","23","{""ArrowUp,ArrowLeft"":23,""ArrowUp,ArrowRight"":10,""ArrowDown,ArrowLeft"":8,""ArrowDown,ArrowRight"":30}","false","ArrowUp,ArrowLeft","false","","","original","1","30","","",""
"html-keyboard-response","147","794773","0.0-4.0-2.0-1.15","spark_pilot_2","7119","7","8","Female","","","","","","","null","<div style=""font-size:60px;"">+</div>","null","fixation","","","","","","","","","","","31","","",""
"revaluation","148","800822","0.0-4.0-2.0-0.16","spark_pilot_2","7119","7","8","Female","","false","","","","","[1010.0999999977648,917.0999999977648]","./assets/img/canyon/memory/27.jpg","[""ArrowUp"",""ArrowLeft""]","value training","canyon","23","{""ArrowUp,ArrowLeft"":23,""ArrowUp,ArrowRight"":10,""ArrowDown,ArrowLeft"":8,""ArrowDown,ArrowRight"":30}","false","ArrowUp,ArrowLeft","false","","","original","1","32","","",""
"html-keyboard-response","149","801333","0.0-4.0-2.0-1.16","spark_pilot_2","7119","7","8","Female","","","","","","","null","<div style=""font-size:60px;"">+</div>","null","fixation","","","","","","","","","","","33","","",""
"revaluation","150","807382","0.0-4.0-2.0-0.17","spark_pilot_2","7119","7","8","Female","","false","","","","","[1086.6000000014901,738.6999999992549]","./assets/img/canyon/memory/1.jpg","[""ArrowUp"",""ArrowLeft""]","value training","canyon","23","{""ArrowUp,ArrowLeft"":23,""ArrowUp,ArrowRight"":10,""ArrowDown,ArrowLeft"":8,""ArrowDown,ArrowRight"":30}","false","ArrowUp,ArrowLeft","false","","","original","1","34","","",""
"html-keyboard-response","151","807894","0.0-4.0-2.0-1.17","spark_pilot_2","7119","7","8","Female","","","","","","","null","<div style=""font-size:60px;"">+</div>","null","fixation","","","","","","","","","","","35","","",""
"revaluation","152","813943","0.0-4.0-2.0-0.18","spark_pilot_2","7119","7","8","Female","","false","","","","","[1095.5,530.8000000007451]","./assets/img/canyon/memory/34.jpg","[""ArrowUp"",""ArrowLeft""]","value training","canyon","23","{""ArrowUp,ArrowLeft"":23,""ArrowUp,ArrowRight"":10,""ArrowDown,ArrowLeft"":8,""ArrowDown,ArrowRight"":30}","false","ArrowUp,ArrowLeft","false","","","original","1","36","","",""
"html-keyboard-response","153","814453","0.0-4.0-2.0-1.18","spark_pilot_2","7119","7","8","Female","","","","","","","null","<div style=""font-size:60px;"">+</div>","null","fixation","","","","","","","","","","","37","","",""
"revaluation","154","818487","0.0-4.0-2.0-0.19","spark_pilot_2","7119","7","8","Female","","false","","","","","[1116.5999999977648]","./assets/img/canyon/catch/0.jpg","[""spaceBar""]","value training","canyon","0","{""ArrowUp,ArrowLeft"":23,""ArrowUp,ArrowRight"":10,""ArrowDown,ArrowLeft"":8,""ArrowDown,ArrowRight"":30}","true","spaceBar","true","","","original","1","38","","",""
"html-keyboard-response","155","819000","0.0-4.0-2.0-1.19","spark_pilot_2","7119","7","8","Female","","","","","","","null","<div style=""font-size:60px;"">+</div>","null","fixation","","","","","","","","","","","39","","",""
"revaluation","156","825047","0.0-4.0-2.0-0.20","spark_pilot_2","7119","7","8","Female","","false","","","","","[573.1000000014901,443]","./assets/img/canyon/memory/29.jpg","[""ArrowUp"",""ArrowLeft""]","value training","canyon","23","{""ArrowUp,ArrowLeft"":23,""ArrowUp,ArrowRight"":10,""ArrowDown,ArrowLeft"":8,""ArrowDown,ArrowRight"":30}","false","ArrowUp,ArrowLeft","false","","","original","1","40","","",""
"html-keyboard-response","157","825557","0.0-4.0-2.0-1.20","spark_pilot_2","7119","7","8","Female","","","","","","","null","<div style=""font-size:60px;"">+</div>","null","fixation","","","","","","","","","","","41","","",""
"revaluation","158","831606","0.0-4.0-2.0-0.21","spark_pilot_2","7119","7","8","Female","","false","","","","","[522,433.5999999977648]","./assets/img/canyon/memory/20.jpg","[""ArrowUp"",""ArrowLeft""]","value training","canyon","23","{""ArrowUp,ArrowLeft"":23,""ArrowUp,ArrowRight"":10,""ArrowDown,ArrowLeft"":8,""ArrowDown,ArrowRight"":30}","false","ArrowUp,ArrowLeft","false","","","original","1","42","","",""
"html-keyboard-response","159","832117","0.0-4.0-2.0-1.21","spark_pilot_2","7119","7","8","Female","","","","","","","null","<div style=""font-size:60px;"">+</div>","null","fixation","","","","","","","","","","","43","","",""
"revaluation","160","838160","0.0-4.0-2.0-0.22","spark_pilot_2","7119","7","8","Female","","false","","","","","[508.30000000074506,625.3000000007451]","./assets/img/canyon/memory/14.jpg","[""ArrowUp"",""ArrowLeft""]","value training","canyon","23","{""ArrowUp,ArrowLeft"":23,""ArrowUp,ArrowRight"":10,""ArrowDown,ArrowLeft"":8,""ArrowDown,ArrowRight"":30}","false","ArrowUp,ArrowLeft","false","","","original","1","44","","",""
"html-keyboard-response","161","838670","0.0-4.0-2.0-1.22","spark_pilot_2","7119","7","8","Female","","","","","","","null","<div style=""font-size:60px;"">+</div>","null","fixation","","","","","","","","","","","45","","",""
"revaluation","162","844719","0.0-4.0-2.0-0.23","spark_pilot_2","7119","7","8","Female","","false","","","","","[470.80000000074506,467.80000000074506]","./assets/img/canyon/memory/4.jpg","[""ArrowUp"",""ArrowLeft""]","value training","canyon","23","{""ArrowUp,ArrowLeft"":23,""ArrowUp,ArrowRight"":10,""ArrowDown,ArrowLeft"":8,""ArrowDown,ArrowRight"":30}","false","ArrowUp,ArrowLeft","false","","","original","1","46","","",""
"html-keyboard-response","163","845229","0.0-4.0-2.0-1.23","spark_pilot_2","7119","7","8","Female","","","","","","","null","<div style=""font-size:60px;"">+</div>","null","fixation","","","","","","","","","","","47","","",""
"revaluation","164","851279","0.0-4.0-2.0-0.24","spark_pilot_2","7119","7","8","Female","","false","","","","","[633.3000000007451,554.3000000007451]","./assets/img/canyon/memory/0.jpg","[""ArrowUp"",""ArrowLeft""]","value training","canyon","23","{""ArrowUp,ArrowLeft"":23,""ArrowUp,ArrowRight"":10,""ArrowDown,ArrowLeft"":8,""ArrowDown,ArrowRight"":30}","false","ArrowUp,ArrowLeft","false","","","original","1","48","","",""
"html-keyboard-response","165","851789","0.0-4.0-2.0-1.24","spark_pilot_2","7119","7","8","Female","","","","","","","null","<div style=""font-size:60px;"">+</div>","null","fixation","","","","","","","","","","","49","","",""
"revaluation","166","857829","0.0-4.0-2.0-0.25","spark_pilot_2","7119","7","8","Female","","false","","","","","[617.1999999992549,404.30000000074506]","./assets/img/canyon/memory/11.jpg","[""ArrowUp"",""ArrowLeft""]","value training","canyon","23","{""ArrowUp,ArrowLeft"":23,""ArrowUp,ArrowRight"":10,""ArrowDown,ArrowLeft"":8,""ArrowDown,ArrowRight"":30}","false","ArrowUp,ArrowLeft","false","","","original","1","50","","",""
"html-keyboard-response","167","858333","0.0-4.0-2.0-1.25","spark_pilot_2","7119","7","8","Female","","","","","","","null","<div style=""font-size:60px;"">+</div>","null","fixation","","","","","","","","","","","51","","",""
"revaluation","168","864374","0.0-4.0-2.0-0.26","spark_pilot_2","7119","7","8","Female","","false","","","","","[639.8000000007451,816.1999999992549]","./assets/img/canyon/memory/14.jpg","[""ArrowUp"",""ArrowLeft""]","value training","canyon","23","{""ArrowUp,ArrowLeft"":23,""ArrowUp,ArrowRight"":10,""ArrowDown,ArrowLeft"":8,""ArrowDown,ArrowRight"":30}","false","ArrowUp,ArrowLeft","false","","","original","1","52","","",""
"html-keyboard-response","169","864877","0.0-4.0-2.0-1.26","spark_pilot_2","7119","7","8","Female","","","","","","","null","<div style=""font-size:60px;"">+</div>","null","fixation","","","","","","","","","","","53","","",""
"revaluation","170","870919","0.0-4.0-2.0-0.27","spark_pilot_2","7119","7","8","Female","","false","","","","","[555.6000000014901,427.30000000074506]","./assets/img/canyon/memory/28.jpg","[""ArrowUp"",""ArrowLeft""]","value training","canyon","23","{""ArrowUp,ArrowLeft"":23,""ArrowUp,ArrowRight"":10,""ArrowDown,ArrowLeft"":8,""ArrowDown,ArrowRight"":30}","false","ArrowUp,ArrowLeft","false","","","original","1","54","","",""
"html-keyboard-response","171","871429","0.0-4.0-2.0-1.27","spark_pilot_2","7119","7","8","Female","","","","","","","null","<div style=""font-size:60px;"">+</div>","null","fixation","","","","","","","","","","","55","","",""
"revaluation","172","877470","0.0-4.0-2.0-0.28","spark_pilot_2","7119","7","8","Female","","false","","","","","[627.3999999985099,775.0999999977648]","./assets/img/canyon/memory/32.jpg","[""ArrowUp"",""ArrowLeft""]","value training","canyon","23","{""ArrowUp,ArrowLeft"":23,""ArrowUp,ArrowRight"":10,""ArrowDown,ArrowLeft"":8,""ArrowDown,ArrowRight"":30}","false","ArrowUp,ArrowLeft","false","","","original","1","56","","",""
"html-keyboard-response","173","877981","0.0-4.0-2.0-1.28","spark_pilot_2","7119","7","8","Female","","","","","","","null","<div style=""font-size:60px;"">+</div>","null","fixation","","","","","","","","","","","57","","",""
"revaluation","174","884030","0.0-4.0-2.0-0.29","spark_pilot_2","7119","7","8","Female","","false","","","","","[322.69999999925494,590.6999999992549]","./assets/img/canyon/memory/1.jpg","[""ArrowUp"",""ArrowLeft""]","value training","canyon","23","{""ArrowUp,ArrowLeft"":23,""ArrowUp,ArrowRight"":10,""ArrowDown,ArrowLeft"":8,""ArrowDown,ArrowRight"":30}","false","ArrowUp,ArrowLeft","false","","","original","1","58","","",""
"html-keyboard-response","175","884541","0.0-4.0-2.0-1.29","spark_pilot_2","7119","7","8","Female","","","","","","","null","<div style=""font-size:60px;"">+</div>","null","fixation","","","","","","","","","","","59","","",""
"revaluation","176","890582","0.0-4.0-2.0-0.30","spark_pilot_2","7119","7","8","Female","","false","","","","","[547.1999999992549,717.6999999992549]","./assets/img/canyon/memory/32.jpg","[""ArrowUp"",""ArrowLeft""]","value training","canyon","23","{""ArrowUp,ArrowLeft"":23,""ArrowUp,ArrowRight"":10,""ArrowDown,ArrowLeft"":8,""ArrowDown,ArrowRight"":30}","false","ArrowUp,ArrowLeft","false","","","original","1","60","","",""
"html-keyboard-response","177","891093","0.0-4.0-2.0-1.30","spark_pilot_2","7119","7","8","Female","","","","","","","null","<div style=""font-size:60px;"">+</div>","null","fixation","","","","","","","","","","","61","","",""
"revaluation","178","897135","0.0-4.0-2.0-0.31","spark_pilot_2","7119","7","8","Female","","false","","","","","[537.4000000022352,342.5]","./assets/img/canyon/memory/36.jpg","[""ArrowUp"",""ArrowLeft""]","value training","canyon","23","{""ArrowUp,ArrowLeft"":23,""ArrowUp,ArrowRight"":10,""ArrowDown,ArrowLeft"":8,""ArrowDown,ArrowRight"":30}","false","ArrowUp,ArrowLeft","false","","","original","1","62","","",""
"html-keyboard-response","179","897645","0.0-4.0-2.0-1.31","spark_pilot_2","7119","7","8","Female","","","","","","","null","<div style=""font-size:60px;"">+</div>","null","fixation","","","","","","","","","","","63","","",""
"revaluation","180","903687","0.0-4.0-2.0-0.32","spark_pilot_2","7119","7","8","Female","","false","","","","","[574.8000000007451,584]","./assets/img/canyon/memory/4.jpg","[""ArrowUp"",""ArrowLeft""]","value training","canyon","23","{""ArrowUp,ArrowLeft"":23,""ArrowUp,ArrowRight"":10,""ArrowDown,ArrowLeft"":8,""ArrowDown,ArrowRight"":30}","false","ArrowUp,ArrowLeft","false","","","original","1","64","","",""
"html-keyboard-response","181","904197","0.0-4.0-2.0-1.32","spark_pilot_2","7119","7","8","Female","","","","","","","null","<div style=""font-size:60px;"">+</div>","null","fixation","","","","","","","","","","","65","","",""
"revaluation","182","910246","0.0-4.0-2.0-0.33","spark_pilot_2","7119","7","8","Female","","false","","","","","[473.19999999925494,381.6000000014901]","./assets/img/canyon/memory/31.jpg","[""ArrowUp"",""ArrowLeft""]","value training","canyon","23","{""ArrowUp,ArrowLeft"":23,""ArrowUp,ArrowRight"":10,""ArrowDown,ArrowLeft"":8,""ArrowDown,ArrowRight"":30}","false","ArrowUp,ArrowLeft","false","","","original","1","66","","",""
"html-keyboard-response","183","910757","0.0-4.0-2.0-1.33","spark_pilot_2","7119","7","8","Female","","","","","","","null","<div style=""font-size:60px;"">+</div>","null","fixation","","","","","","","","","","","67","","",""
"revaluation","184","916806","0.0-4.0-2.0-0.34","spark_pilot_2","7119","7","8","Female","","true","","","","","[441.20000000298023]","./assets/img/canyon/memory/29.jpg","[""ArrowUp""]","value training","canyon","-5","{""ArrowUp,ArrowLeft"":23,""ArrowUp,ArrowRight"":10,""ArrowDown,ArrowLeft"":8,""ArrowDown,ArrowRight"":30}","false","ArrowUp","false","","","original","1","68","","",""
"html-keyboard-response","185","917317","0.0-4.0-2.0-1.34","spark_pilot_2","7119","7","8","Female","","","","","","","null","<div style=""font-size:60px;"">+</div>","null","fixation","","","","","","","","","","","69","","",""
"revaluation","186","923367","0.0-4.0-2.0-0.35","spark_pilot_2","7119","7","8","Female","","false","","","","","[861.5999999977648,567.1999999992549]","./assets/img/canyon/memory/31.jpg","[""ArrowUp"",""ArrowLeft""]","value training","canyon","23","{""ArrowUp,ArrowLeft"":23,""ArrowUp,ArrowRight"":10,""ArrowDown,ArrowLeft"":8,""ArrowDown,ArrowRight"":30}","false","ArrowUp,ArrowLeft","false","","","original","1","70","","",""
"html-keyboard-response","187","923877","0.0-4.0-2.0-1.35","spark_pilot_2","7119","7","8","Female","","","","","","","null","<div style=""font-size:60px;"">+</div>","null","fixation","","","","","","","","","","","71","","",""
"revaluation","188","927910","0.0-4.0-2.0-0.36","spark_pilot_2","7119","7","8","Female","","false","","","","","[548.1999999992549]","./assets/img/canyon/catch/7.jpg","[""ArrowUp""]","value training","canyon","-10","{""ArrowUp,ArrowLeft"":23,""ArrowUp,ArrowRight"":10,""ArrowDown,ArrowLeft"":8,""ArrowDown,ArrowRight"":30}","false","ArrowUp","true","","","original","1","72","","",""
"html-keyboard-response","189","928422","0.0-4.0-2.0-1.36","spark_pilot_2","7119","7","8","Female","","","","","","","null","<div style=""font-size:60px;"">+</div>","null","fixation","","","","","","","","","","","73","","",""
"revaluation","190","934461","0.0-4.0-2.0-0.37","spark_pilot_2","7119","7","8","Female","","false","","","","","[665.1999999992549,863.1000000014901]","./assets/img/canyon/memory/34.jpg","[""ArrowUp"",""ArrowLeft""]","value training","canyon","23","{""ArrowUp,ArrowLeft"":23,""ArrowUp,ArrowRight"":10,""ArrowDown,ArrowLeft"":8,""ArrowDown,ArrowRight"":30}","false","ArrowUp,ArrowLeft","false","","","original","1","74","","",""
"html-keyboard-response","191","934965","0.0-4.0-2.0-1.37","spark_pilot_2","7119","7","8","Female","","","","","","","null","<div style=""font-size:60px;"">+</div>","null","fixation","","","","","","","","","","","75","","",""
"revaluation","192","941007","0.0-4.0-2.0-0.38","spark_pilot_2","7119","7","8","Female","","false","","","","","[642.8000000007451,537.9000000022352]","./assets/img/canyon/memory/27.jpg","[""ArrowUp"",""ArrowLeft""]","value training","canyon","23","{""ArrowUp,ArrowLeft"":23,""ArrowUp,ArrowRight"":10,""ArrowDown,ArrowLeft"":8,""ArrowDown,ArrowRight"":30}","false","ArrowUp,ArrowLeft","false","","","original","1","76","","",""
"html-keyboard-response","193","941517","0.0-4.0-2.0-1.38","spark_pilot_2","7119","7","8","Female","","","","","","","null","<div style=""font-size:60px;"">+</div>","null","fixation","","","","","","","","","","","77","","",""
"revaluation","194","947559","0.0-4.0-2.0-0.39","spark_pilot_2","7119","7","8","Female","","false","","","","","[418.5999999977648,782.1000000014901]","./assets/img/canyon/memory/15.jpg","[""ArrowUp"",""ArrowLeft""]","value training","canyon","23","{""ArrowUp,ArrowLeft"":23,""ArrowUp,ArrowRight"":10,""ArrowDown,ArrowLeft"":8,""ArrowDown,ArrowRight"":30}","false","ArrowUp,ArrowLeft","false","","","original","1","78","","",""
"html-keyboard-response","195","948069","0.0-4.0-2.0-1.39","spark_pilot_2","7119","7","8","Female","","","","","","","null","<div style=""font-size:60px;"">+</div>","null","fixation","","","","","","","","","","","79","","",""
"revaluation","196","954110","0.0-4.0-2.0-0.40","spark_pilot_2","7119","7","8","Female","","false","","","","","[444.8999999985099,461.0999999977648]","./assets/img/canyon/memory/3.jpg","[""ArrowUp"",""ArrowLeft""]","value training","canyon","23","{""ArrowUp,ArrowLeft"":23,""ArrowUp,ArrowRight"":10,""ArrowDown,ArrowLeft"":8,""ArrowDown,ArrowRight"":30}","false","ArrowUp,ArrowLeft","false","","","original","1","80","","",""
"html-keyboard-response","197","954621","0.0-4.0-2.0-1.40","spark_pilot_2","7119","7","8","Female","","","","","","","null","<div style=""font-size:60px;"">+</div>","null","fixation","","","","","","","","","","","81","","",""
"revaluation","198","958655","0.0-4.0-2.0-0.41","spark_pilot_2","7119","7","8","Female","","false","","","","","[687.3000000007451]","./assets/img/canyon/catch/6.jpg","[""spaceBar""]","value training","canyon","0","{""ArrowUp,ArrowLeft"":23,""ArrowUp,ArrowRight"":10,""ArrowDown,ArrowLeft"":8,""ArrowDown,ArrowRight"":30}","true","spaceBar","true","","","original","1","82","","",""
"html-keyboard-response","199","959165","0.0-4.0-2.0-1.41","spark_pilot_2","7119","7","8","Female","","","","","","","null","<div style=""font-size:60px;"">+</div>","null","fixation","","","","","","","","","","","83","","",""
"revaluation","200","965207","0.0-4.0-2.0-0.42","spark_pilot_2","7119","7","8","Female","","false","","","","","[396,1133.4000000022352]","./assets/img/canyon/memory/2.jpg","[""ArrowUp"",""ArrowLeft""]","value training","canyon","23","{""ArrowUp,ArrowLeft"":23,""ArrowUp,ArrowRight"":10,""ArrowDown,ArrowLeft"":8,""ArrowDown,ArrowRight"":30}","false","ArrowUp,ArrowLeft","false","","","original","1","84","","",""
"html-keyboard-response","201","965717","0.0-4.0-2.0-1.42","spark_pilot_2","7119","7","8","Female","","","","","","","null","<div style=""font-size:60px;"">+</div>","null","fixation","","","","","","","","","","","85","","",""
"revaluation","202","971759","0.0-4.0-2.0-0.43","spark_pilot_2","7119","7","8","Female","","false","","","","","[469.5,391.30000000074506]","./assets/img/canyon/memory/40.jpg","[""ArrowUp"",""ArrowLeft""]","value training","canyon","23","{""ArrowUp,ArrowLeft"":23,""ArrowUp,ArrowRight"":10,""ArrowDown,ArrowLeft"":8,""ArrowDown,ArrowRight"":30}","false","ArrowUp,ArrowLeft","false","","","original","1","86","","",""
"html-keyboard-response","203","972269","0.0-4.0-2.0-1.43","spark_pilot_2","7119","7","8","Female","","","","","","","null","<div style=""font-size:60px;"">+</div>","null","fixation","","","","","","","","","","","87","","",""
"revaluation","204","978318","0.0-4.0-2.0-0.44","spark_pilot_2","7119","7","8","Female","","false","","","","","[693.3000000007451,444.70000000298023]","./assets/img/canyon/memory/0.jpg","[""ArrowUp"",""ArrowLeft""]","value training","canyon","23","{""ArrowUp,ArrowLeft"":23,""ArrowUp,ArrowRight"":10,""ArrowDown,ArrowLeft"":8,""ArrowDown,ArrowRight"":30}","false","ArrowUp,ArrowLeft","false","","","original","1","88","","",""
"html-keyboard-response","205","978829","0.0-4.0-2.0-1.44","spark_pilot_2","7119","7","8","Female","","","","","","","null","<div style=""font-size:60px;"">+</div>","null","fixation","","","","","","","","","","","89","","",""
"revaluation","206","984871","0.0-4.0-2.0-0.45","spark_pilot_2","7119","7","8","Female","","false","","","","","[439.3999999985099,459.5999999977648]","./assets/img/canyon/memory/20.jpg","[""ArrowUp"",""ArrowLeft""]","value training","canyon","23","{""ArrowUp,ArrowLeft"":23,""ArrowUp,ArrowRight"":10,""ArrowDown,ArrowLeft"":8,""ArrowDown,ArrowRight"":30}","false","ArrowUp,ArrowLeft","false","","","original","1","90","","",""
"html-keyboard-response","207","985381","0.0-4.0-2.0-1.45","spark_pilot_2","7119","7","8","Female","","","","","","","null","<div style=""font-size:60px;"">+</div>","null","fixation","","","","","","","","","","","91","","",""
"revaluation","208","989415","0.0-4.0-2.0-0.46","spark_pilot_2","7119","7","8","Female","","false","","","","","[455.6000000014901]","./assets/img/canyon/catch/5.jpg","[""ArrowUp""]","value training","canyon","-10","{""ArrowUp,ArrowLeft"":23,""ArrowUp,ArrowRight"":10,""ArrowDown,ArrowLeft"":8,""ArrowDown,ArrowRight"":30}","false","ArrowUp","true","","","original","1","92","","",""
"html-keyboard-response","209","989925","0.0-4.0-2.0-1.46","spark_pilot_2","7119","7","8","Female","","","","","","","null","<div style=""font-size:60px;"">+</div>","null","fixation","","","","","","","","","","","93","","",""
"revaluation","210","993959","0.0-4.0-2.0-0.47","spark_pilot_2","7119","7","8","Female","","false","","","","","[732.5999999977648]","./assets/img/canyon/catch/3.jpg","[""spaceBar""]","value training","canyon","0","{""ArrowUp,ArrowLeft"":23,""ArrowUp,ArrowRight"":10,""ArrowDown,ArrowLeft"":8,""ArrowDown,ArrowRight"":30}","true","spaceBar","true","","","original","1","94","","",""
"html-keyboard-response","211","994468","0.0-4.0-2.0-1.47","spark_pilot_2","7119","7","8","Female","","","","","","","null","<div style=""font-size:60px;"">+</div>","null","fixation","","","","","","","","","","","95","","",""
"revaluation","212","1000495","0.0-4.0-2.0-0.48","spark_pilot_2","7119","7","8","Female","","false","","","","","[552.6999999992549,493.0999999977648]","./assets/img/canyon/memory/3.jpg","[""ArrowUp"",""ArrowLeft""]","value training","canyon","23","{""ArrowUp,ArrowLeft"":23,""ArrowUp,ArrowRight"":10,""ArrowDown,ArrowLeft"":8,""ArrowDown,ArrowRight"":30}","false","ArrowUp,ArrowLeft","false","","","original","1","96","","",""
"html-keyboard-response","213","1001005","0.0-4.0-2.0-1.48","spark_pilot_2","7119","7","8","Female","","","","","","","null","<div style=""font-size:60px;"">+</div>","null","fixation","","","","","","","","","","","97","","",""
"revaluation","214","1007054","0.0-4.0-2.0-0.49","spark_pilot_2","7119","7","8","Female","","true","","","","","[493.80000000074506]","./assets/img/canyon/memory/15.jpg","[""ArrowUp""]","value training","canyon","-5","{""ArrowUp,ArrowLeft"":23,""ArrowUp,ArrowRight"":10,""ArrowDown,ArrowLeft"":8,""ArrowDown,ArrowRight"":30}","false","ArrowUp","false","","","original","1","98","","",""
"html-keyboard-response","215","1007565","0.0-4.0-2.0-1.49","spark_pilot_2","7119","7","8","Female","","","","","","","null","<div style=""font-size:60px;"">+</div>","null","fixation","","","","","","","","","","","99","","",""
"learning-instructions","216","1023655","0.0-4.0-3.0-0.0","spark_pilot_2","7119","7","8","Female","","","","","","","3175.2999999970198","<p> Now, you will travel with a friend who will choose whether you go up or down first. </p>
            <p> On these turns, you will just see the animal that they found. You will still get to choose which chest to search for treasure.</p>","","instructions","","","","","","","","","","","","","",""
"revaluation","217","1027678","0.0-4.0-4.0-0.0","spark_pilot_2","7119","7","8","Female","","false","","","","","[937.8000000007451]","./assets/img/canyon/animals/giraffe.jpg","[""ArrowLeft""]","revaluation","canyon","23","{""ArrowUp,ArrowLeft"":23,""ArrowUp,ArrowRight"":10,""ArrowDown,ArrowLeft"":8,""ArrowDown,ArrowRight"":30}","true","ArrowUp,ArrowLeft","","","","original","1","0","","",""
"html-keyboard-response","218","1028197","0.0-4.0-4.0-1.0","spark_pilot_2","7119","7","8","Female","","","","","","","null","<div style=""font-size:60px;"">+</div>","null","fixation","","","","","","","","","","","1","","",""
"revaluation","219","1032232","0.0-4.0-4.0-0.1","spark_pilot_2","7119","7","8","Female","","false","","","","","[755.1999999992549]","./assets/img/canyon/animals/lion.jpg","[""ArrowRight""]","revaluation","canyon","30","{""ArrowUp,ArrowLeft"":23,""ArrowUp,ArrowRight"":10,""ArrowDown,ArrowLeft"":8,""ArrowDown,ArrowRight"":30}","true","ArrowDown,ArrowRight","","","","original","1","2","","",""
"html-keyboard-response","220","1032741","0.0-4.0-4.0-1.1","spark_pilot_2","7119","7","8","Female","","","","","","","null","<div style=""font-size:60px;"">+</div>","null","fixation","","","","","","","","","","","3","","",""
"revaluation","221","1036783","0.0-4.0-4.0-0.2","spark_pilot_2","7119","7","8","Female","","false","","","","","[461.3999999985099]","./assets/img/canyon/animals/lion.jpg","[""ArrowRight""]","revaluation","canyon","30","{""ArrowUp,ArrowLeft"":23,""ArrowUp,ArrowRight"":10,""ArrowDown,ArrowLeft"":8,""ArrowDown,ArrowRight"":30}","true","ArrowDown,ArrowRight","","","","original","1","4","","",""
"html-keyboard-response","222","1037293","0.0-4.0-4.0-1.2","spark_pilot_2","7119","7","8","Female","","","","","","","null","<div style=""font-size:60px;"">+</div>","null","fixation","","","","","","","","","","","5","","",""
"revaluation","223","1041327","0.0-4.0-4.0-0.3","spark_pilot_2","7119","7","8","Female","","false","","","","","[398.5]","./assets/img/canyon/animals/lion.jpg","[""ArrowRight""]","revaluation","canyon","30","{""ArrowUp,ArrowLeft"":23,""ArrowUp,ArrowRight"":10,""ArrowDown,ArrowLeft"":8,""ArrowDown,ArrowRight"":30}","true","ArrowDown,ArrowRight","","","","original","1","6","","",""
"html-keyboard-response","224","1041837","0.0-4.0-4.0-1.3","spark_pilot_2","7119","7","8","Female","","","","","","","null","<div style=""font-size:60px;"">+</div>","null","fixation","","","","","","","","","","","7","","",""
"revaluation","225","1045879","0.0-4.0-4.0-0.4","spark_pilot_2","7119","7","8","Female","","false","","","","","[967.5]","./assets/img/canyon/animals/giraffe.jpg","[""ArrowLeft""]","revaluation","canyon","23","{""ArrowUp,ArrowLeft"":23,""ArrowUp,ArrowRight"":10,""ArrowDown,ArrowLeft"":8,""ArrowDown,ArrowRight"":30}","true","ArrowUp,ArrowLeft","","","","original","1","8","","",""
"html-keyboard-response","226","1046389","0.0-4.0-4.0-1.4","spark_pilot_2","7119","7","8","Female","","","","","","","null","<div style=""font-size:60px;"">+</div>","null","fixation","","","","","","","","","","","9","","",""
"revaluation","227","1050423","0.0-4.0-4.0-0.5","spark_pilot_2","7119","7","8","Female","","false","","","","","[512.3999999985099]","./assets/img/canyon/animals/lion.jpg","[""ArrowLeft""]","revaluation","canyon","8","{""ArrowUp,ArrowLeft"":23,""ArrowUp,ArrowRight"":10,""ArrowDown,ArrowLeft"":8,""ArrowDown,ArrowRight"":30}","false","ArrowDown,ArrowLeft","","","","original","1","10","","",""
"html-keyboard-response","228","1050933","0.0-4.0-4.0-1.5","spark_pilot_2","7119","7","8","Female","","","","","","","null","<div style=""font-size:60px;"">+</div>","null","fixation","","","","","","","","","","","11","","",""
"revaluation","229","1054967","0.0-4.0-4.0-0.6","spark_pilot_2","7119","7","8","Female","","false","","","","","[605.1000000014901]","./assets/img/canyon/animals/lion.jpg","[""ArrowLeft""]","revaluation","canyon","8","{""ArrowUp,ArrowLeft"":23,""ArrowUp,ArrowRight"":10,""ArrowDown,ArrowLeft"":8,""ArrowDown,ArrowRight"":30}","false","ArrowDown,ArrowLeft","","","","original","1","12","","",""
"html-keyboard-response","230","1055477","0.0-4.0-4.0-1.6","spark_pilot_2","7119","7","8","Female","","","","","","","null","<div style=""font-size:60px;"">+</div>","null","fixation","","","","","","","","","","","13","","",""
"revaluation","231","1059510","0.0-4.0-4.0-0.7","spark_pilot_2","7119","7","8","Female","","false","","","","","[624.2999999970198]","./assets/img/canyon/animals/lion.jpg","[""ArrowRight""]","revaluation","canyon","30","{""ArrowUp,ArrowLeft"":23,""ArrowUp,ArrowRight"":10,""ArrowDown,ArrowLeft"":8,""ArrowDown,ArrowRight"":30}","true","ArrowDown,ArrowRight","","","","original","1","14","","",""
"html-keyboard-response","232","1060021","0.0-4.0-4.0-1.7","spark_pilot_2","7119","7","8","Female","","","","","","","null","<div style=""font-size:60px;"">+</div>","null","fixation","","","","","","","","","","","15","","",""
"revaluation","233","1064055","0.0-4.0-4.0-0.8","spark_pilot_2","7119","7","8","Female","","false","","","","","[837.6999999992549]","./assets/img/canyon/animals/lion.jpg","[""ArrowRight""]","revaluation","canyon","30","{""ArrowUp,ArrowLeft"":23,""ArrowUp,ArrowRight"":10,""ArrowDown,ArrowLeft"":8,""ArrowDown,ArrowRight"":30}","true","ArrowDown,ArrowRight","","","","original","1","16","","",""
"html-keyboard-response","234","1064565","0.0-4.0-4.0-1.8","spark_pilot_2","7119","7","8","Female","","","","","","","null","<div style=""font-size:60px;"">+</div>","null","fixation","","","","","","","","","","","17","","",""
"revaluation","235","1068598","0.0-4.0-4.0-0.9","spark_pilot_2","7119","7","8","Female","","false","","","","","[700]","./assets/img/canyon/animals/giraffe.jpg","[""ArrowLeft""]","revaluation","canyon","23","{""ArrowUp,ArrowLeft"":23,""ArrowUp,ArrowRight"":10,""ArrowDown,ArrowLeft"":8,""ArrowDown,ArrowRight"":30}","true","ArrowUp,ArrowLeft","","","","original","1","18","","",""
"html-keyboard-response","236","1069109","0.0-4.0-4.0-1.9","spark_pilot_2","7119","7","8","Female","","","","","","","null","<div style=""font-size:60px;"">+</div>","null","fixation","","","","","","","","","","","19","","",""
"revaluation","237","1073151","0.0-4.0-4.0-0.10","spark_pilot_2","7119","7","8","Female","","false","","","","","[583.1999999992549]","./assets/img/canyon/animals/lion.jpg","[""ArrowRight""]","revaluation","canyon","30","{""ArrowUp,ArrowLeft"":23,""ArrowUp,ArrowRight"":10,""ArrowDown,ArrowLeft"":8,""ArrowDown,ArrowRight"":30}","true","ArrowDown,ArrowRight","","","","original","1","20","","",""
"html-keyboard-response","238","1073661","0.0-4.0-4.0-1.10","spark_pilot_2","7119","7","8","Female","","","","","","","null","<div style=""font-size:60px;"">+</div>","null","fixation","","","","","","","","","","","21","","",""
"revaluation","239","1077694","0.0-4.0-4.0-0.11","spark_pilot_2","7119","7","8","Female","","false","","","","","[424.70000000298023]","./assets/img/canyon/animals/giraffe.jpg","[""ArrowLeft""]","revaluation","canyon","23","{""ArrowUp,ArrowLeft"":23,""ArrowUp,ArrowRight"":10,""ArrowDown,ArrowLeft"":8,""ArrowDown,ArrowRight"":30}","true","ArrowUp,ArrowLeft","","","","original","1","22","","",""
"html-keyboard-response","240","1078205","0.0-4.0-4.0-1.11","spark_pilot_2","7119","7","8","Female","","","","","","","null","<div style=""font-size:60px;"">+</div>","null","fixation","","","","","","","","","","","23","","",""
"revaluation","241","1082239","0.0-4.0-4.0-0.12","spark_pilot_2","7119","7","8","Female","","false","","","","","[472.20000000298023]","./assets/img/canyon/animals/giraffe.jpg","[""ArrowRight""]","revaluation","canyon","10","{""ArrowUp,ArrowLeft"":23,""ArrowUp,ArrowRight"":10,""ArrowDown,ArrowLeft"":8,""ArrowDown,ArrowRight"":30}","false","ArrowUp,ArrowRight","","","","original","1","24","","",""
"html-keyboard-response","242","1082749","0.0-4.0-4.0-1.12","spark_pilot_2","7119","7","8","Female","","","","","","","null","<div style=""font-size:60px;"">+</div>","null","fixation","","","","","","","","","","","25","","",""
"revaluation","243","1086783","0.0-4.0-4.0-0.13","spark_pilot_2","7119","7","8","Female","","false","","","","","[508.80000000074506]","./assets/img/canyon/animals/giraffe.jpg","[""ArrowLeft""]","revaluation","canyon","23","{""ArrowUp,ArrowLeft"":23,""ArrowUp,ArrowRight"":10,""ArrowDown,ArrowLeft"":8,""ArrowDown,ArrowRight"":30}","true","ArrowUp,ArrowLeft","","","","original","1","26","","",""
"html-keyboard-response","244","1087293","0.0-4.0-4.0-1.13","spark_pilot_2","7119","7","8","Female","","","","","","","null","<div style=""font-size:60px;"">+</div>","null","fixation","","","","","","","","","","","27","","",""
"revaluation","245","1091327","0.0-4.0-4.0-0.14","spark_pilot_2","7119","7","8","Female","","false","","","","","[783.1999999992549]","./assets/img/canyon/animals/giraffe.jpg","[""ArrowLeft""]","revaluation","canyon","23","{""ArrowUp,ArrowLeft"":23,""ArrowUp,ArrowRight"":10,""ArrowDown,ArrowLeft"":8,""ArrowDown,ArrowRight"":30}","true","ArrowUp,ArrowLeft","","","","original","1","28","","",""
"html-keyboard-response","246","1091837","0.0-4.0-4.0-1.14","spark_pilot_2","7119","7","8","Female","","","","","","","null","<div style=""font-size:60px;"">+</div>","null","fixation","","","","","","","","","","","29","","",""
"revaluation","247","1095871","0.0-4.0-4.0-0.15","spark_pilot_2","7119","7","8","Female","","false","","","","","[643.8000000007451]","./assets/img/canyon/animals/giraffe.jpg","[""ArrowLeft""]","revaluation","canyon","23","{""ArrowUp,ArrowLeft"":23,""ArrowUp,ArrowRight"":10,""ArrowDown,ArrowLeft"":8,""ArrowDown,ArrowRight"":30}","true","ArrowUp,ArrowLeft","","","","original","1","30","","",""
"html-keyboard-response","248","1096381","0.0-4.0-4.0-1.15","spark_pilot_2","7119","7","8","Female","","","","","","","null","<div style=""font-size:60px;"">+</div>","null","fixation","","","","","","","","","","","31","","",""
"revaluation","249","1100415","0.0-4.0-4.0-0.16","spark_pilot_2","7119","7","8","Female","","false","","","","","[785.1999999992549]","./assets/img/canyon/animals/giraffe.jpg","[""ArrowLeft""]","revaluation","canyon","23","{""ArrowUp,ArrowLeft"":23,""ArrowUp,ArrowRight"":10,""ArrowDown,ArrowLeft"":8,""ArrowDown,ArrowRight"":30}","true","ArrowUp,ArrowLeft","","","","original","1","32","","",""
"html-keyboard-response","250","1100925","0.0-4.0-4.0-1.16","spark_pilot_2","7119","7","8","Female","","","","","","","null","<div style=""font-size:60px;"">+</div>","null","fixation","","","","","","","","","","","33","","",""
"revaluation","251","1104966","0.0-4.0-4.0-0.17","spark_pilot_2","7119","7","8","Female","","false","","","","","[468.6000000014901]","./assets/img/canyon/animals/lion.jpg","[""ArrowLeft""]","revaluation","canyon","8","{""ArrowUp,ArrowLeft"":23,""ArrowUp,ArrowRight"":10,""ArrowDown,ArrowLeft"":8,""ArrowDown,ArrowRight"":30}","false","ArrowDown,ArrowLeft","","","","original","1","34","","",""
"html-keyboard-response","252","1105477","0.0-4.0-4.0-1.17","spark_pilot_2","7119","7","8","Female","","","","","","","null","<div style=""font-size:60px;"">+</div>","null","fixation","","","","","","","","","","","35","","",""
"learning-instructions","253","1119593","0.0-4.0-5.0-0.0","spark_pilot_2","7119","7","8","Female","","","","","","","2459.60000000149","<p> Time to play the dot game! </p>
            <p> For one minute, click the red dots on the following screen as they appear. </p>
            <p><b> Don't look away, as you will earn bonus for clicking dots</b>. </p>","","instructions","","","","","","","","","","","","","",""
"revaluation","254","1179605","0.0-4.0-6.0-0.0","spark_pilot_2","7119","7","8","Female","","","","","","","[96,103,91,98,95,89]","","","rest","","60","","","","","0","60000","","","","","",""
"learning-instructions","255","1205599","0.0-4.0-7.0-0.0","spark_pilot_2","7119","7","8","Female","","","","","","","19878.89999999851","<p> You have almost finished this part of the game! </p>
            <p> We are going to ask you to make a few more choices. </p>","","instructions","","","","","","","","","","","","","",""
"learning-instructions","256","1224204","0.0-4.0-7.0-0.1","spark_pilot_2","7119","7","8","Female","","","","","","","4627.39999999851","<p> First, you need to decide whether to go up or down. When you see each picture, use the arrow keys to make your choice. </p>
            <p><b>You will not see which animal you found, but try to get to the one that will give you the most treasure.</b></p>","","instructions","","","","","","","","","","","","","",""
"revaluation","257","1225812","0.0-4.0-8.0-0.0","spark_pilot_2","7119","7","8","Female","","false","","","","","[1592]","./assets/img/canyon/test/1.jpg","[""ArrowUp""]","first stage test","canyon","0","{""ArrowUp,ArrowLeft"":23,""ArrowUp,ArrowRight"":10,""ArrowDown,ArrowLeft"":8,""ArrowDown,ArrowRight"":30}","false","ArrowUp","false","","","original","1","","","",""
"html-keyboard-response","258","1226318","0.0-4.0-8.0-1.0","spark_pilot_2","7119","7","8","Female","","","","","","","null","<div style=""font-size:60px;"">+</div>","null","fixation","","","","","","","","","","","","","",""
"revaluation","259","1227251","0.0-4.0-8.0-0.1","spark_pilot_2","7119","7","8","Female","","false","","","","","[912.5]","./assets/img/canyon/test/3.jpg","[""ArrowUp""]","first stage test","canyon","0","{""ArrowUp,ArrowLeft"":23,""ArrowUp,ArrowRight"":10,""ArrowDown,ArrowLeft"":8,""ArrowDown,ArrowRight"":30}","false","ArrowUp","false","","","original","1","","","",""
"html-keyboard-response","260","1227757","0.0-4.0-8.0-1.1","spark_pilot_2","7119","7","8","Female","","","","","","","null","<div style=""font-size:60px;"">+</div>","null","fixation","","","","","","","","","","","","","",""
"revaluation","261","1228381","0.0-4.0-8.0-0.2","spark_pilot_2","7119","7","8","Female","","false","","","","","[605.8000000007451]","./assets/img/canyon/test/2.jpg","[""ArrowUp""]","first stage test","canyon","0","{""ArrowUp,ArrowLeft"":23,""ArrowUp,ArrowRight"":10,""ArrowDown,ArrowLeft"":8,""ArrowDown,ArrowRight"":30}","false","ArrowUp","false","","","original","1","","","",""
"html-keyboard-response","262","1228885","0.0-4.0-8.0-1.2","spark_pilot_2","7119","7","8","Female","","","","","","","null","<div style=""font-size:60px;"">+</div>","null","fixation","","","","","","","","","","","","","",""
"revaluation","263","1229277","0.0-4.0-8.0-0.3","spark_pilot_2","7119","7","8","Female","","false","","","","","[369.5999999977648]","./assets/img/canyon/test/0.jpg","[""ArrowUp""]","first stage test","canyon","0","{""ArrowUp,ArrowLeft"":23,""ArrowUp,ArrowRight"":10,""ArrowDown,ArrowLeft"":8,""ArrowDown,ArrowRight"":30}","false","ArrowUp","false","","","original","1","","","",""
"html-keyboard-response","264","1229781","0.0-4.0-8.0-1.3","spark_pilot_2","7119","7","8","Female","","","","","","","null","<div style=""font-size:60px;"">+</div>","null","fixation","","","","","","","","","","","","","",""
"learning-instructions","265","1244411","0.0-4.0-9.0-0.0","spark_pilot_2","7119","7","8","Female","","","","","","","3277.89999999851","<p> Now you will see the animals again and can search their chests for treasure. </p>
            <p> This time, you will not see how much treasure you earned, but you will earn more bonus money for making better choices. </p>","","instructions","","","","","","","","","","","","","",""
"revaluation","266","1245054","0.0-4.0-10.0-0.0","spark_pilot_2","7119","7","8","Female","","false","","","","","[626.9000000022352]","./assets/img/canyon/animals/giraffe.jpg","[""ArrowLeft""]","second stage test","canyon","0","{""ArrowUp,ArrowLeft"":23,""ArrowUp,ArrowRight"":10,""ArrowDown,ArrowLeft"":8,""ArrowDown,ArrowRight"":30}","true","ArrowUp,ArrowLeft","","","","original","1","","","",""
"html-keyboard-response","267","1245565","0.0-4.0-10.0-1.0","spark_pilot_2","7119","7","8","Female","","","","","","","null","<div style=""font-size:60px;"">+</div>","null","fixation","","","","","","","","","","","","","",""
"revaluation","268","1246222","0.0-4.0-10.0-0.1","spark_pilot_2","7119","7","8","Female","","false","","","","","[638.8000000007451]","./assets/img/canyon/animals/giraffe.jpg","[""ArrowLeft""]","second stage test","canyon","0","{""ArrowUp,ArrowLeft"":23,""ArrowUp,ArrowRight"":10,""ArrowDown,ArrowLeft"":8,""ArrowDown,ArrowRight"":30}","true","ArrowUp,ArrowLeft","","","","original","1","","","",""
"html-keyboard-response","269","1246725","0.0-4.0-10.0-1.1","spark_pilot_2","7119","7","8","Female","","","","","","","null","<div style=""font-size:60px;"">+</div>","null","fixation","","","","","","","","","","","","","",""
"revaluation","270","1247175","0.0-4.0-10.0-0.2","spark_pilot_2","7119","7","8","Female","","false","","","","","[426.3999999985099]","./assets/img/canyon/animals/giraffe.jpg","[""ArrowLeft""]","second stage test","canyon","0","{""ArrowUp,ArrowLeft"":23,""ArrowUp,ArrowRight"":10,""ArrowDown,ArrowLeft"":8,""ArrowDown,ArrowRight"":30}","true","ArrowUp,ArrowLeft","","","","original","1","","","",""
"html-keyboard-response","271","1247685","0.0-4.0-10.0-1.2","spark_pilot_2","7119","7","8","Female","","","","","","","null","<div style=""font-size:60px;"">+</div>","null","fixation","","","","","","","","","","","","","",""
"revaluation","272","1248067","0.0-4.0-10.0-0.3","spark_pilot_2","7119","7","8","Female","","false","","","","","[359.8999999985099]","./assets/img/canyon/animals/giraffe.jpg","[""ArrowLeft""]","second stage test","canyon","0","{""ArrowUp,ArrowLeft"":23,""ArrowUp,ArrowRight"":10,""ArrowDown,ArrowLeft"":8,""ArrowDown,ArrowRight"":30}","true","ArrowUp,ArrowLeft","","","","original","1","","","",""
"html-keyboard-response","273","1248573","0.0-4.0-10.0-1.3","spark_pilot_2","7119","7","8","Female","","","","","","","null","<div style=""font-size:60px;"">+</div>","null","fixation","","","","","","","","","","","","","",""
"revaluation","274","1249262","0.0-4.0-10.0-0.4","spark_pilot_2","7119","7","8","Female","","false","","","","","[662.3000000007451]","./assets/img/canyon/animals/lion.jpg","[""ArrowRight""]","second stage test","canyon","0","{""ArrowUp,ArrowLeft"":23,""ArrowUp,ArrowRight"":10,""ArrowDown,ArrowLeft"":8,""ArrowDown,ArrowRight"":30}","true","ArrowDown,ArrowRight","","","","original","1","","","",""
"html-keyboard-response","275","1249773","0.0-4.0-10.0-1.4","spark_pilot_2","7119","7","8","Female","","","","","","","null","<div style=""font-size:60px;"">+</div>","null","fixation","","","","","","","","","","","","","",""
"revaluation","276","1250377","0.0-4.0-10.0-0.5","spark_pilot_2","7119","7","8","Female","","false","","","","","[567.2999999970198]","./assets/img/canyon/animals/lion.jpg","[""ArrowRight""]","second stage test","canyon","0","{""ArrowUp,ArrowLeft"":23,""ArrowUp,ArrowRight"":10,""ArrowDown,ArrowLeft"":8,""ArrowDown,ArrowRight"":30}","true","ArrowDown,ArrowRight","","","","original","1","","","",""
"html-keyboard-response","277","1250885","0.0-4.0-10.0-1.5","spark_pilot_2","7119","7","8","Female","","","","","","","null","<div style=""font-size:60px;"">+</div>","null","fixation","","","","","","","","","","","","","",""
"revaluation","278","1251278","0.0-4.0-10.0-0.6","spark_pilot_2","7119","7","8","Female","","false","","","","","[367.30000000074506]","./assets/img/canyon/animals/lion.jpg","[""ArrowRight""]","second stage test","canyon","0","{""ArrowUp,ArrowLeft"":23,""ArrowUp,ArrowRight"":10,""ArrowDown,ArrowLeft"":8,""ArrowDown,ArrowRight"":30}","true","ArrowDown,ArrowRight","","","","original","1","","","",""
"html-keyboard-response","279","1251781","0.0-4.0-10.0-1.6","spark_pilot_2","7119","7","8","Female","","","","","","","null","<div style=""font-size:60px;"">+</div>","null","fixation","","","","","","","","","","","","","",""
"revaluation","280","1252230","0.0-4.0-10.0-0.7","spark_pilot_2","7119","7","8","Female","","false","","","","","[423.30000000074506]","./assets/img/canyon/animals/lion.jpg","[""ArrowRight""]","second stage test","canyon","0","{""ArrowUp,ArrowLeft"":23,""ArrowUp,ArrowRight"":10,""ArrowDown,ArrowLeft"":8,""ArrowDown,ArrowRight"":30}","true","ArrowDown,ArrowRight","","","","original","1","","","",""
"html-keyboard-response","281","1252741","0.0-4.0-10.0-1.7","spark_pilot_2","7119","7","8","Female","","","","","","","null","<div style=""font-size:60px;"">+</div>","null","fixation","","","","","","","","","","","","","",""
"learning-instructions","282","1257618","0.0-4.0-0.1-0.2","spark_pilot_2","7119","7","8","Female","","","","","","","2114.7000000029802","<p> This time you are searching for treasure in the <b>ocean</b>.</p>","","instructions","","","","","","","","","","","","","",""
"learning-instructions","283","1277806","0.0-4.0-0.1-0.3","spark_pilot_2","7119","7","8","Female","","","","","","","2922.900000002235","<p><b>New</b> animals with <b>new</b> treasure chests live here. You need to explore to discover where the animal with the best treasure chest is.</p>
                    <p> Like before, once you figure out which animal has the chest with the most treasure, you should try to get to that animal and select that chest! </p>","","instructions","","","","","","","","","","","","","",""
"learning-instructions","284","1294186","0.0-4.0-1.1-0.1","spark_pilot_2","7119","7","8","Female","","","","","","","1639.699999999255","<p> Remember, when you see a picture of the place, use the up and down keys to <b>find an animal</b>.</p>
            <p> When you encounter an animal, you should use the left and right keys to <b>select a treasure chest</b>.</p>
            <p> Don't forget to look out for the robber! </p>","","instructions","","","","","","","","","","","","","",""
"revaluation","285","1300217","0.0-4.0-2.1-0.50","spark_pilot_2","7119","7","8","Female","","false","","","","","[1045,746.6000000014901]","./assets/img/ocean/memory/28.jpg","[""ArrowUp"",""ArrowRight""]","value training","ocean","10","{""ArrowUp,ArrowLeft"":26,""ArrowUp,ArrowRight"":10,""ArrowDown,ArrowLeft"":5,""ArrowDown,ArrowRight"":17}","false","ArrowUp,ArrowRight","false","","","revaluation","2","0","","",""
"html-keyboard-response","286","1300725","0.0-4.0-2.1-1.50","spark_pilot_2","7119","7","8","Female","","","","","","","null","<div style=""font-size:60px;"">+</div>","null","fixation","","","","","","","","","","","1","","",""
"revaluation","287","1304759","0.0-4.0-2.1-0.51","spark_pilot_2","7119","7","8","Female","","false","","","","","[448.70000000298023]","./assets/img/ocean/catch/7.jpg","[""ArrowUp""]","value training","ocean","-10","{""ArrowUp,ArrowLeft"":26,""ArrowUp,ArrowRight"":10,""ArrowDown,ArrowLeft"":5,""ArrowDown,ArrowRight"":17}","false","ArrowUp","true","","","revaluation","2","2","","",""
"html-keyboard-response","288","1305270","0.0-4.0-2.1-1.51","spark_pilot_2","7119","7","8","Female","","","","","","","null","<div style=""font-size:60px;"">+</div>","null","fixation","","","","","","","","","","","3","","",""
"revaluation","289","1311319","0.0-4.0-2.1-0.52","spark_pilot_2","7119","7","8","Female","","false","","","","","[923.4000000022352,1415.9000000022352]","./assets/img/ocean/memory/28.jpg","[""ArrowUp"",""ArrowLeft""]","value training","ocean","26","{""ArrowUp,ArrowLeft"":26,""ArrowUp,ArrowRight"":10,""ArrowDown,ArrowLeft"":5,""ArrowDown,ArrowRight"":17}","true","ArrowUp,ArrowLeft","false","","","revaluation","2","4","","",""
"html-keyboard-response","290","1311829","0.0-4.0-2.1-1.52","spark_pilot_2","7119","7","8","Female","","","","","","","null","<div style=""font-size:60px;"">+</div>","null","fixation","","","","","","","","","","","5","","",""
"revaluation","291","1317870","0.0-4.0-2.1-0.53","spark_pilot_2","7119","7","8","Female","","false","","","","","[851.9000000022352,540.3000000007451]","./assets/img/ocean/memory/29.jpg","[""ArrowUp"",""ArrowLeft""]","value training","ocean","26","{""ArrowUp,ArrowLeft"":26,""ArrowUp,ArrowRight"":10,""ArrowDown,ArrowLeft"":5,""ArrowDown,ArrowRight"":17}","true","ArrowUp,ArrowLeft","false","","","revaluation","2","6","","",""
"html-keyboard-response","292","1318381","0.0-4.0-2.1-1.53","spark_pilot_2","7119","7","8","Female","","","","","","","null","<div style=""font-size:60px;"">+</div>","null","fixation","","","","","","","","","","","7","","",""
"revaluation","293","1324422","0.0-4.0-2.1-0.54","spark_pilot_2","7119","7","8","Female","","false","","","","","[328.6000000014901,594.8999999985099]","./assets/img/ocean/memory/32.jpg","[""ArrowUp"",""ArrowLeft""]","value training","ocean","26","{""ArrowUp,ArrowLeft"":26,""ArrowUp,ArrowRight"":10,""ArrowDown,ArrowLeft"":5,""ArrowDown,ArrowRight"":17}","true","ArrowUp,ArrowLeft","false","","","revaluation","2","8","","",""
"html-keyboard-response","294","1324933","0.0-4.0-2.1-1.54","spark_pilot_2","7119","7","8","Female","","","","","","","null","<div style=""font-size:60px;"">+</div>","null","fixation","","","","","","","","","","","9","","",""
"revaluation","295","1330982","0.0-4.0-2.1-0.55","spark_pilot_2","7119","7","8","Female","","false","","","","","[539.6999999992549,496]","./assets/img/ocean/memory/0.jpg","[""ArrowUp"",""ArrowLeft""]","value training","ocean","26","{""ArrowUp,ArrowLeft"":26,""ArrowUp,ArrowRight"":10,""ArrowDown,ArrowLeft"":5,""ArrowDown,ArrowRight"":17}","true","ArrowUp,ArrowLeft","false","","","revaluation","2","10","","",""
"html-keyboard-response","296","1331493","0.0-4.0-2.1-1.55","spark_pilot_2","7119","7","8","Female","","","","","","","null","<div style=""font-size:60px;"">+</div>","null","fixation","","","","","","","","","","","11","","",""
"revaluation","297","1337534","0.0-4.0-2.1-0.56","spark_pilot_2","7119","7","8","Female","","false","","","","","[543,733.7000000029802]","./assets/img/ocean/memory/36.jpg","[""ArrowUp"",""ArrowLeft""]","value training","ocean","26","{""ArrowUp,ArrowLeft"":26,""ArrowUp,ArrowRight"":10,""ArrowDown,ArrowLeft"":5,""ArrowDown,ArrowRight"":17}","true","ArrowUp,ArrowLeft","false","","","revaluation","2","12","","",""
"html-keyboard-response","298","1338045","0.0-4.0-2.1-1.56","spark_pilot_2","7119","7","8","Female","","","","","","","null","<div style=""font-size:60px;"">+</div>","null","fixation","","","","","","","","","","","13","","",""
"revaluation","299","1344086","0.0-4.0-2.1-0.57","spark_pilot_2","7119","7","8","Female","","false","","","","","[519.6000000014901,681.5]","./assets/img/ocean/memory/29.jpg","[""ArrowUp"",""ArrowLeft""]","value training","ocean","26","{""ArrowUp,ArrowLeft"":26,""ArrowUp,ArrowRight"":10,""ArrowDown,ArrowLeft"":5,""ArrowDown,ArrowRight"":17}","true","ArrowUp,ArrowLeft","false","","","revaluation","2","14","","",""
"html-keyboard-response","300","1344597","0.0-4.0-2.1-1.57","spark_pilot_2","7119","7","8","Female","","","","","","","null","<div style=""font-size:60px;"">+</div>","null","fixation","","","","","","","","","","","15","","",""
"revaluation","301","1350646","0.0-4.0-2.1-0.58","spark_pilot_2","7119","7","8","Female","","false","","","","","[447.5999999977648,409.1000000014901]","./assets/img/ocean/memory/34.jpg","[""ArrowUp"",""ArrowLeft""]","value training","ocean","26","{""ArrowUp,ArrowLeft"":26,""ArrowUp,ArrowRight"":10,""ArrowDown,ArrowLeft"":5,""ArrowDown,ArrowRight"":17}","true","ArrowUp,ArrowLeft","false","","","revaluation","2","16","","",""
"html-keyboard-response","302","1351157","0.0-4.0-2.1-1.58","spark_pilot_2","7119","7","8","Female","","","","","","","null","<div style=""font-size:60px;"">+</div>","null","fixation","","","","","","","","","","","17","","",""
"revaluation","303","1355207","0.0-4.0-2.1-0.59","spark_pilot_2","7119","7","8","Female","","false","","","","","[345.70000000298023]","./assets/img/ocean/catch/3.jpg","[""ArrowUp""]","value training","ocean","-10","{""ArrowUp,ArrowLeft"":26,""ArrowUp,ArrowRight"":10,""ArrowDown,ArrowLeft"":5,""ArrowDown,ArrowRight"":17}","false","ArrowUp","true","","","revaluation","2","18","","",""
"html-keyboard-response","304","1355717","0.0-4.0-2.1-1.59","spark_pilot_2","7119","7","8","Female","","","","","","","null","<div style=""font-size:60px;"">+</div>","null","fixation","","","","","","","","","","","19","","",""
"revaluation","305","1361758","0.0-4.0-2.1-0.60","spark_pilot_2","7119","7","8","Female","","false","","","","","[1014.6000000014901,505.3999999985099]","./assets/img/ocean/memory/27.jpg","[""ArrowUp"",""ArrowLeft""]","value training","ocean","26","{""ArrowUp,ArrowLeft"":26,""ArrowUp,ArrowRight"":10,""ArrowDown,ArrowLeft"":5,""ArrowDown,ArrowRight"":17}","true","ArrowUp,ArrowLeft","false","","","revaluation","2","20","","",""
"html-keyboard-response","306","1362269","0.0-4.0-2.1-1.60","spark_pilot_2","7119","7","8","Female","","","","","","","null","<div style=""font-size:60px;"">+</div>","null","fixation","","","","","","","","","","","21","","",""
"revaluation","307","1368311","0.0-4.0-2.1-0.61","spark_pilot_2","7119","7","8","Female","","false","","","","","[563.3999999985099,760.9000000022352]","./assets/img/ocean/memory/40.jpg","[""ArrowUp"",""ArrowLeft""]","value training","ocean","26","{""ArrowUp,ArrowLeft"":26,""ArrowUp,ArrowRight"":10,""ArrowDown,ArrowLeft"":5,""ArrowDown,ArrowRight"":17}","true","ArrowUp,ArrowLeft","false","","","revaluation","2","22","","",""
