"trial_type","trial_index","time_elapsed","internal_node_id","task_version","subject_id","assigned_condition","age","gender","success","timeout","failed_images","failed_audio","failed_video","browser_interaction","rt","stimulus","response","task_part","environment","score","rewardMap","correct","fullState","isCatch","numberMissed","duration","condition","order","trial_num","key_press","ground_truth","bonus"
"pavlovia","0","1354","0.0-0.0","spark_pilot_2","7137","2","9","Female","","","","","","","","","","","","","","","","","","","","","","","",""
"preload","1","33779","0.0-1.0","spark_pilot_2","7137","2","9","Female","true","false","[]","[]","[]","[{""event"":""fullscreenenter"",""trial"":2,""time"":47648}]","","","","","","","","","","","","","","","","","",""
"fullscreen","2","48639","0.0-2.0","spark_pilot_2","7137","2","9","Female","true","","","","","","","","","","","","","","","","","","","","","","",""
"audio-button-response","3","51877","0.0-3.0-0.0-0.0","spark_pilot_2","7137","2","9","Female","","","","","","","3200","./assets/audio/audiotest/turtle.mp3","2","audio_test","","","","","","","","","","","","","",""
"learning-instructions","4","69251","0.0-3.0-1.0-0.0","spark_pilot_2","7137","2","9","Female","","","","","","","10381.799999952316","<p> Welcome! Please remember to stay in fullscreen mode and don't click away from the experiment. </p>","","instructions","","","","","","","","","","","","","",""
"learning-instructions","5","80732","0.0-3.0-1.0-0.1","spark_pilot_2","7137","2","9","Female","","","","","","","3063.9000000953674","<p> Today you will be playing a game to earn treasure. </p>
            <p> At the end of the experiment, you will earn a bonus based on how much treasure you find. </p>
            <img src='./assets/img/instructions/treasure.jpg' class='instructions-image'>","","instructions","","","","","","","","","","","","","",""
"learning-instructions","6","94558","0.0-3.0-1.0-0.2","spark_pilot_2","7137","2","9","Female","","","","","","","5559.799999952316","<p> Animals have hidden treasure in treasure chests. </p>
            <p> You need to first find an animal and then choose which of their treasure chests to search. </p>
            <img src='./assets/img/space/animals/cat.jpg' class='instructions-image'>","","instructions","","","","","","","","","","","","","",""
"learning-instructions","7","109527","0.0-3.0-1.0-0.3","spark_pilot_2","7137","2","9","Female","","","","","","","1819.2000000476837","<p> In each round, you will search for treasure in a different place. In the real game, there will be two rounds. </p>
            <p> You will begin with a separate, practice round where you will search for treasure in outer space. </p>
            <img src='./assets/img/space/0.jpg' class='instructions-image'>","","instructions","","","","","","","","","","","","","",""
"learning-instructions","8","122407","0.0-3.0-1.0-0.4","spark_pilot_2","7137","2","9","Female","","","","","","","1460.1000001430511","<p> On every turn, you will see a picture of the place that you are in, but the specific image may be different each time. </p>
            <p> For example, both of these images mean you are in outer space. </p>
            <img src='./assets/img/instructions/outerspace.jpg' class='instructions-image'>","","instructions","","","","","","","","","","","","","",""
"learning-instructions","9","132770","0.0-3.0-1.0-0.5","spark_pilot_2","7137","2","9","Female","","","","","","","2542","<p> You need to decide which direction to travel in. </p>
            <p> You can choose between going <b>up or down</b> by using the arrow keys. </p>
            <img src='./assets/img/instructions/updown.jpg' class='instructions-image'>","","instructions","","","","","","","","","","","","","",""
"learning-instructions","10","145978","0.0-3.0-1.0-0.6","spark_pilot_2","7137","2","9","Female","","","","","","","4391","<p> You will have <b>2 seconds</b> to make your choice. </p>
            <p> If you do not make a choice within 2 seconds, you will not find an animal or earn treasure. </p>
            <img src='./assets/img/instructions/2seconds.jpg' class='instructions-image'>","","instructions","","","","","","","","","","","","","",""
"learning-instructions","11","163947","0.0-3.0-1.0-0.7","spark_pilot_2","7137","2","9","Female","","","","","","","10940","<p> Let’s try practicing that now! </p>
            <p> When you see a picture of the place you are in, press the <b>up</b> key to travel up. </p>
            <img src='./assets/img/instructions/pressUp.jpg' class='instructions-image'>","","instructions","","","","","","","","","","","","","",""
"revaluation","12","167977","0.0-3.0-2.0-0.0","spark_pilot_2","7137","2","9","Female","","false","","","","","[911.2999999523163]","./assets/img/space/0.jpg","[""ArrowUp""]","first stage practice","space","0","null","null","ArrowUp","false","","","","","","","",""
"html-keyboard-response","13","168495","0.0-3.0-2.0-1.0","spark_pilot_2","7137","2","9","Female","","","","","","","null","<div style=""font-size:60px;"">+</div>","null","fixation","","","","","","","","","","","","","",""
"revaluation","14","172516","0.0-3.0-2.0-0.1","spark_pilot_2","7137","2","9","Female","","false","","","","","[971.7999999523163]","./assets/img/space/1.jpg","[""ArrowUp""]","first stage practice","space","0","null","null","ArrowUp","false","","","","","","","",""
"html-keyboard-response","15","173035","0.0-3.0-2.0-1.1","spark_pilot_2","7137","2","9","Female","","","","","","","null","<div style=""font-size:60px;"">+</div>","null","fixation","","","","","","","","","","","","","",""
"revaluation","16","177075","0.0-3.0-2.0-0.2","spark_pilot_2","7137","2","9","Female","","false","","","","","[683.2000000476837]","./assets/img/space/2.jpg","[""ArrowUp""]","first stage practice","space","0","null","null","ArrowUp","false","","","","","","","",""
"html-keyboard-response","17","177595","0.0-3.0-2.0-1.2","spark_pilot_2","7137","2","9","Female","","","","","","","null","<div style=""font-size:60px;"">+</div>","null","fixation","","","","","","","","","","","","","",""
"learning-instructions","18","208499","0.0-3.0-3.0-0.0","spark_pilot_2","7137","2","9","Female","","","","","","","26212.10000014305","<p> Great job! Now try pressing the <b>down</b> key to travel down. </p>
            <img src='./assets/img/instructions/pressDown.jpg' class='instructions-image'>","","instructions","","","","","","","","","","","","","",""
"revaluation","19","212512","0.0-3.0-4.0-0.0","spark_pilot_2","7137","2","9","Female","","false","","","","","[630.7000000476837]","./assets/img/space/3.jpg","[""ArrowDown""]","first stage practice","space","0","null","null","ArrowDown","false","","","","","","","",""
"html-keyboard-response","20","213016","0.0-3.0-4.0-1.0","spark_pilot_2","7137","2","9","Female","","","","","","","null","<div style=""font-size:60px;"">+</div>","null","fixation","","","","","","","","","","","","","",""
"revaluation","21","217032","0.0-3.0-4.0-0.1","spark_pilot_2","7137","2","9","Female","","false","","","","","[520.2999999523163]","./assets/img/space/4.jpg","[""ArrowDown""]","first stage practice","space","0","null","null","ArrowDown","false","","","","","","","",""
"html-keyboard-response","22","217536","0.0-3.0-4.0-1.1","spark_pilot_2","7137","2","9","Female","","","","","","","null","<div style=""font-size:60px;"">+</div>","null","fixation","","","","","","","","","","","","","",""
"revaluation","23","221552","0.0-3.0-4.0-0.2","spark_pilot_2","7137","2","9","Female","","false","","","","","[418.5]","./assets/img/space/5.jpg","[""ArrowDown""]","first stage practice","space","0","null","null","ArrowDown","false","","","","","","","",""
"html-keyboard-response","24","222055","0.0-3.0-4.0-1.2","spark_pilot_2","7137","2","9","Female","","","","","","","null","<div style=""font-size:60px;"">+</div>","null","fixation","","","","","","","","","","","","","",""
"learning-instructions","25","234159","0.0-3.0-5.0-0.0","spark_pilot_2","7137","2","9","Female","","","","","","","2240.5","<p> The animals don’t move, so the animal in the upper part of a place will stay in the upper part of a place, and the animal in the lower part of a place will stay in the lower part of a place. </p>","","instructions","","","","","","","","","","","","","",""
"learning-instructions","26","246261","0.0-3.0-5.0-0.1","spark_pilot_2","7137","2","9","Female","","","","","","","2982.699999809265","<p> Each animal has two treasure chests for you to choose from. </p>
            <p> The amount of treasure in each chest can range from <b> 0 to 40 pieces.</b></p>","","instructions","","","","","","","","","","","","","",""
"learning-instructions","27","260165","0.0-3.0-5.0-0.2","spark_pilot_2","7137","2","9","Female","","","","","","","2716.4000000953674","<p> You should decide which chest to search for treasure by using the <b>left</b> and <b>right</b> arrow keys. </p>
            <p><b> Pay attention to which animal is on the screen, as the animals have different treasure chests. </b></p>
            <img src='./assets/img/instructions/leftright.jpg' class='instructions-image'>","","instructions","","","","","","","","","","","","","",""
"learning-instructions","28","269174","0.0-3.0-5.0-0.3","spark_pilot_2","7137","2","9","Female","","","","","","","2655.4000000953674","<p> Let’s try practicing that now. </p>
            <p> When you see an animal, choose which chest to search for treasure. </p>
            <img src='./assets/img/instructions/chooseChest.jpg' class='instructions-image'>","","instructions","","","","","","","","","","","","","",""
"revaluation","29","273208","0.0-3.0-6.0-0.0","spark_pilot_2","7137","2","9","Female","","false","","","","","[1000.3999998569489]","./assets/img/space/animals/rabbit.jpg","[""ArrowRight""]","second stage practice","space","23","{""ArrowUp,ArrowLeft"":3,""ArrowUp,ArrowRight"":36,""ArrowDown,ArrowLeft"":15,""ArrowDown,ArrowRight"":23}","true","ArrowDown,ArrowRight","","","","","","","","",""
"html-keyboard-response","30","273727","0.0-3.0-6.0-1.0","spark_pilot_2","7137","2","9","Female","","","","","","","null","<div style=""font-size:60px;"">+</div>","null","fixation","","","","","","","","","","","","","",""
"revaluation","31","277758","0.0-3.0-6.0-0.1","spark_pilot_2","7137","2","9","Female","","false","","","","","[1390.5999999046326]","./assets/img/space/animals/cat.jpg","[""ArrowLeft""]","second stage practice","space","3","{""ArrowUp,ArrowLeft"":3,""ArrowUp,ArrowRight"":36,""ArrowDown,ArrowLeft"":15,""ArrowDown,ArrowRight"":23}","false","ArrowUp,ArrowLeft","","","","","","","","",""
"html-keyboard-response","32","278277","0.0-3.0-6.0-1.1","spark_pilot_2","7137","2","9","Female","","","","","","","null","<div style=""font-size:60px;"">+</div>","null","fixation","","","","","","","","","","","","","",""
"revaluation","33","282317","0.0-3.0-6.0-0.2","spark_pilot_2","7137","2","9","Female","","false","","","","","[949.7000000476837]","./assets/img/space/animals/cat.jpg","[""ArrowRight""]","second stage practice","space","36","{""ArrowUp,ArrowLeft"":3,""ArrowUp,ArrowRight"":36,""ArrowDown,ArrowLeft"":15,""ArrowDown,ArrowRight"":23}","true","ArrowUp,ArrowRight","","","","","","","","",""
"html-keyboard-response","34","282837","0.0-3.0-6.0-1.2","spark_pilot_2","7137","2","9","Female","","","","","","","null","<div style=""font-size:60px;"">+</div>","null","fixation","","","","","","","","","","","","","",""
"revaluation","35","286877","0.0-3.0-6.0-0.3","spark_pilot_2","7137","2","9","Female","","false","","","","","[1085.2999999523163]","./assets/img/space/animals/rabbit.jpg","[""ArrowRight""]","second stage practice","space","23","{""ArrowUp,ArrowLeft"":3,""ArrowUp,ArrowRight"":36,""ArrowDown,ArrowLeft"":15,""ArrowDown,ArrowRight"":23}","true","ArrowDown,ArrowRight","","","","","","","","",""
"html-keyboard-response","36","287397","0.0-3.0-6.0-1.3","spark_pilot_2","7137","2","9","Female","","","","","","","null","<div style=""font-size:60px;"">+</div>","null","fixation","","","","","","","","","","","","","",""
"learning-instructions","37","313736","0.0-3.0-7.0-0.0","spark_pilot_2","7137","2","9","Female","","","","","","","9528.700000047684","<p> Great job. Now let’s try putting it together. </p>
            <p> On each turn, you will first see a picture to remind you of the place you are in, and you need to choose whether to go up or down. </p>
            <p> Then you will see an animal and choose which of its chests to search for treasure. </p>","","instructions","","","","","","","","","","","","","",""
"learning-instructions","38","323573","0.0-3.0-7.0-0.1","spark_pilot_2","7137","2","9","Female","","","","","","","1494.7999999523163","<p> When you choose whether to go up or down, try to go to the animal with the chest with the most treasure. </p>
            <p> Try practicing that now! </p>","","instructions","","","","","","","","","","","","","",""
"revaluation","39","329627","0.0-3.0-8.0-0.0","spark_pilot_2","7137","2","9","Female","","false","","","","","[1222.1999998092651,1382.1999998092651]","./assets/img/space/6.jpg","[""ArrowUp"",""ArrowRight""]","full practice","space","36","{""ArrowUp,ArrowLeft"":3,""ArrowUp,ArrowRight"":36,""ArrowDown,ArrowLeft"":15,""ArrowDown,ArrowRight"":23}","true","ArrowUp,ArrowRight","false","","","","","","","",""
"html-keyboard-response","40","330151","0.0-3.0-8.0-1.0","spark_pilot_2","7137","2","9","Female","","","","","","","null","<div style=""font-size:60px;"">+</div>","null","fixation","","","","","","","","","","","","","",""
"revaluation","41","336206","0.0-3.0-8.0-0.1","spark_pilot_2","7137","2","9","Female","","false","","","","","[732.1000001430511,955.5999999046326]","./assets/img/space/7.jpg","[""ArrowDown"",""ArrowRight""]","full practice","space","23","{""ArrowUp,ArrowLeft"":3,""ArrowUp,ArrowRight"":36,""ArrowDown,ArrowLeft"":15,""ArrowDown,ArrowRight"":23}","false","ArrowDown,ArrowRight","false","","","","","","","",""
"html-keyboard-response","42","336721","0.0-3.0-8.0-1.1","spark_pilot_2","7137","2","9","Female","","","","","","","null","<div style=""font-size:60px;"">+</div>","null","fixation","","","","","","","","","","","","","",""
"revaluation","43","342776","0.0-3.0-8.0-0.2","spark_pilot_2","7137","2","9","Female","","false","","","","","[697.1999998092651,1011.0999999046326]","./assets/img/space/8.jpg","[""ArrowUp"",""ArrowRight""]","full practice","space","36","{""ArrowUp,ArrowLeft"":3,""ArrowUp,ArrowRight"":36,""ArrowDown,ArrowLeft"":15,""ArrowDown,ArrowRight"":23}","true","ArrowUp,ArrowRight","false","","","","","","","",""
"html-keyboard-response","44","343291","0.0-3.0-8.0-1.2","spark_pilot_2","7137","2","9","Female","","","","","","","null","<div style=""font-size:60px;"">+</div>","null","fixation","","","","","","","","","","","","","",""
"revaluation","45","349326","0.0-3.0-8.0-0.3","spark_pilot_2","7137","2","9","Female","","false","","","","","[1166.5999999046326,855.5]","./assets/img/space/9.jpg","[""ArrowUp"",""ArrowRight""]","full practice","space","36","{""ArrowUp,ArrowLeft"":3,""ArrowUp,ArrowRight"":36,""ArrowDown,ArrowLeft"":15,""ArrowDown,ArrowRight"":23}","true","ArrowUp,ArrowRight","false","","","","","","","",""
"html-keyboard-response","46","349846","0.0-3.0-8.0-1.3","spark_pilot_2","7137","2","9","Female","","","","","","","null","<div style=""font-size:60px;"">+</div>","null","fixation","","","","","","","","","","","","","",""
"revaluation","47","355880","0.0-3.0-8.0-0.4","spark_pilot_2","7137","2","9","Female","","false","","","","","[623.9000000953674,548.8999998569489]","./assets/img/space/10.jpg","[""ArrowUp"",""ArrowRight""]","full practice","space","36","{""ArrowUp,ArrowLeft"":3,""ArrowUp,ArrowRight"":36,""ArrowDown,ArrowLeft"":15,""ArrowDown,ArrowRight"":23}","true","ArrowUp,ArrowRight","false","","","","","","","",""
"html-keyboard-response","48","356383","0.0-3.0-8.0-1.4","spark_pilot_2","7137","2","9","Female","","","","","","","null","<div style=""font-size:60px;"">+</div>","null","fixation","","","","","","","","","","","","","",""
"learning-instructions","49","370024","0.0-3.0-9.0-0.0","spark_pilot_2","7137","2","9","Female","","","","","","","3335.399999856949","<p> One last thing: sometimes, you will see a robber. The robber can be anywhere in the picture. </p>
            <p> If you do not stop them, you will lose treasure. </p>
            <img src='./assets/img/instructions/robber.jpg' class='instructions-image'>","","instructions","","","","","","","","","","","","","",""
"learning-instructions","50","393439","0.0-3.0-9.0-0.1","spark_pilot_2","7137","2","9","Female","","","","","","","16220.300000190735","<p> If you see the robber, you should <b>press the space bar</b> rather than using the arrow keys. </p>
            <p> Try practicing that now! </p>","","instructions","","","","","","","","","","","","","",""
"revaluation","51","397477","0.0-3.0-10.0-0.0","spark_pilot_2","7137","2","9","Female","","false","","","","","[898.0999999046326]","./assets/img/space/catch/0.jpg","[""ArrowUp""]","catch practice","space","-10","{""ArrowUp,ArrowLeft"":3,""ArrowUp,ArrowRight"":36,""ArrowDown,ArrowLeft"":15,""ArrowDown,ArrowRight"":23}","false","ArrowUp","true","","","","","","","",""
"html-keyboard-response","52","397987","0.0-3.0-10.0-1.0","spark_pilot_2","7137","2","9","Female","","","","","","","null","<div style=""font-size:60px;"">+</div>","null","fixation","","","","","","","","","","","","","",""
"revaluation","53","402007","0.0-3.0-10.0-0.1","spark_pilot_2","7137","2","9","Female","","false","","","","","[1218.7000000476837]","./assets/img/space/catch/1.jpg","[""spaceBar""]","catch practice","space","0","{""ArrowUp,ArrowLeft"":3,""ArrowUp,ArrowRight"":36,""ArrowDown,ArrowLeft"":15,""ArrowDown,ArrowRight"":23}","true","spaceBar","true","","","","","","","",""
"html-keyboard-response","54","402517","0.0-3.0-10.0-1.1","spark_pilot_2","7137","2","9","Female","","","","","","","null","<div style=""font-size:60px;"">+</div>","null","fixation","","","","","","","","","","","","","",""
"revaluation","55","406567","0.0-3.0-10.0-0.2","spark_pilot_2","7137","2","9","Female","","false","","","","","[599.7999999523163]","./assets/img/space/catch/2.jpg","[""spaceBar""]","catch practice","space","0","{""ArrowUp,ArrowLeft"":3,""ArrowUp,ArrowRight"":36,""ArrowDown,ArrowLeft"":15,""ArrowDown,ArrowRight"":23}","true","spaceBar","true","","","","","","","",""
"html-keyboard-response","56","407077","0.0-3.0-10.0-1.2","spark_pilot_2","7137","2","9","Female","","","","","","","null","<div style=""font-size:60px;"">+</div>","null","fixation","","","","","","","","","","","","","",""
"learning-instructions","57","423916","0.0-3.0-11.0-0.0","spark_pilot_2","7137","2","9","Female","","","","","","","3248.2000000476837","<p> After you explore a place to find treasure, it will be time to play a different game. </p>
            <p> During this game, red dots will appear on the screen and fall down slowly. </p>
            <p><b> You must click on them before they reach the bottom. </b></p>
            <img src='./assets/img/instructions/dotGame.jpg' class='instructions-image'>","","instructions","","","","","","","","","","","","","",""
"learning-instructions","58","430916","0.0-3.0-11.0-0.1","spark_pilot_2","7137","2","9","Female","","","","","","","1328.1000001430511","<p> For every dot you click, you will earn additional treasure. </p>
            <p> Let’s try practicing that now. </p>","","instructions","","","","","","","","","","","","","",""
"revaluation","59","445931","0.0-3.0-12.0-0.0","spark_pilot_2","7137","2","9","Female","","","","","","","[96]","","","rest practice","","10","","","","","0","15000","","","","","",""
"learning-instructions","60","453366","0.0-3.0-13.0-0.0-0.0","spark_pilot_2","7137","2","9","Female","","","","","","","2178.2000000476837","<p> Now, you will practice a shortened version of the game to get a sense of how it all fits together. </p>","","instructions","","","","","","","","","","","","","",""
"learning-instructions","61","457508","0.0-3.0-13.0-0.0-0.1","spark_pilot_2","7137","2","9","Female","","","","","","","940.8999998569489","<p>This time you are searching for treasure in outer space.</p>","","instructions","","","","","","","","","","","","","",""
"learning-instructions","62","473318","0.0-3.0-13.0-1.0-0.0","spark_pilot_2","7137","2","9","Female","","","","","","","1030.0999999046326","<p> Remember, when you see a picture of the place, use the up and down keys to <b>find an animal</b>.</p>
            <p> When you encounter an animal, you should use the left and right keys to <b>select a treasure chest</b>.</p>
            <p> Don't forget to look out for the robber! </p>","","instructions","","","","","","","","","","","","","",""
"revaluation","63","479346","0.0-3.0-13.0-2.0-0.0","spark_pilot_2","7137","2","9","Female","","false","","","","","[1152.5,577.3999998569489]","./assets/img/space/11.jpg","[""ArrowUp"",""ArrowRight""]","practice block","space","36","{""ArrowUp,ArrowLeft"":3,""ArrowUp,ArrowRight"":36,""ArrowDown,ArrowLeft"":15,""ArrowDown,ArrowRight"":23}","true","ArrowUp,ArrowRight","false","","","","","","","",""
"html-keyboard-response","64","479856","0.0-3.0-13.0-2.0-1.0","spark_pilot_2","7137","2","9","Female","","","","","","","null","<div style=""font-size:60px;"">+</div>","null","fixation","","","","","","","","","","","","","",""
"revaluation","65","485906","0.0-3.0-13.0-2.0-0.1","spark_pilot_2","7137","2","9","Female","","false","","","","","[647.4000000953674,541.2000000476837]","./assets/img/space/12.jpg","[""ArrowUp"",""ArrowRight""]","practice block","space","36","{""ArrowUp,ArrowLeft"":3,""ArrowUp,ArrowRight"":36,""ArrowDown,ArrowLeft"":15,""ArrowDown,ArrowRight"":23}","true","ArrowUp,ArrowRight","false","","","","","","","",""
"html-keyboard-response","66","486426","0.0-3.0-13.0-2.0-1.1","spark_pilot_2","7137","2","9","Female","","","","","","","null","<div style=""font-size:60px;"">+</div>","null","fixation","","","","","","","","","","","","","",""
"revaluation","67","492466","0.0-3.0-13.0-2.0-0.2","spark_pilot_2","7137","2","9","Female","","false","","","","","[1355.1999998092651,460.7000000476837]","./assets/img/space/13.jpg","[""ArrowDown"",""ArrowLeft""]","practice block","space","15","{""ArrowUp,ArrowLeft"":3,""ArrowUp,ArrowRight"":36,""ArrowDown,ArrowLeft"":15,""ArrowDown,ArrowRight"":23}","false","ArrowDown,ArrowLeft","false","","","","","","","",""
"html-keyboard-response","68","492986","0.0-3.0-13.0-2.0-1.2","spark_pilot_2","7137","2","9","Female","","","","","","","null","<div style=""font-size:60px;"">+</div>","null","fixation","","","","","","","","","","","","","",""
"revaluation","69","499026","0.0-3.0-13.0-2.0-0.3","spark_pilot_2","7137","2","9","Female","","false","","","","","[757.4000000953674,435.39999985694885]","./assets/img/space/14.jpg","[""ArrowUp"",""ArrowRight""]","practice block","space","36","{""ArrowUp,ArrowLeft"":3,""ArrowUp,ArrowRight"":36,""ArrowDown,ArrowLeft"":15,""ArrowDown,ArrowRight"":23}","true","ArrowUp,ArrowRight","false","","","","","","","",""
"html-keyboard-response","70","499536","0.0-3.0-13.0-2.0-1.3","spark_pilot_2","7137","2","9","Female","","","","","","","null","<div style=""font-size:60px;"">+</div>","null","fixation","","","","","","","","","","","","","",""
"revaluation","71","505552","0.0-3.0-13.0-2.0-0.4","spark_pilot_2","7137","2","9","Female","","false","","","","","[1654.2000000476837,626.6999998092651]","./assets/img/space/11.jpg","[""ArrowUp"",""ArrowRight""]","practice block","space","36","{""ArrowUp,ArrowLeft"":3,""ArrowUp,ArrowRight"":36,""ArrowDown,ArrowLeft"":15,""ArrowDown,ArrowRight"":23}","true","ArrowUp,ArrowRight","false","","","","","","","",""
"html-keyboard-response","72","506056","0.0-3.0-13.0-2.0-1.4","spark_pilot_2","7137","2","9","Female","","","","","","","null","<div style=""font-size:60px;"">+</div>","null","fixation","","","","","","","","","","","","","",""
"revaluation","73","512080","0.0-3.0-13.0-2.0-0.5","spark_pilot_2","7137","2","9","Female","","false","","","","","[862.8000001907349,503.90000009536743]","./assets/img/space/12.jpg","[""ArrowUp"",""ArrowRight""]","practice block","space","36","{""ArrowUp,ArrowLeft"":3,""ArrowUp,ArrowRight"":36,""ArrowDown,ArrowLeft"":15,""ArrowDown,ArrowRight"":23}","true","ArrowUp,ArrowRight","false","","","","","","","",""
"html-keyboard-response","74","512584","0.0-3.0-13.0-2.0-1.5","spark_pilot_2","7137","2","9","Female","","","","","","","null","<div style=""font-size:60px;"">+</div>","null","fixation","","","","","","","","","","","","","",""
"revaluation","75","518608","0.0-3.0-13.0-2.0-0.6","spark_pilot_2","7137","2","9","Female","","false","","","","","[798.7999999523163,538.2999999523163]","./assets/img/space/13.jpg","[""ArrowUp"",""ArrowRight""]","practice block","space","36","{""ArrowUp,ArrowLeft"":3,""ArrowUp,ArrowRight"":36,""ArrowDown,ArrowLeft"":15,""ArrowDown,ArrowRight"":23}","true","ArrowUp,ArrowRight","false","","","","","","","",""
"html-keyboard-response","76","519112","0.0-3.0-13.0-2.0-1.6","spark_pilot_2","7137","2","9","Female","","","","","","","null","<div style=""font-size:60px;"">+</div>","null","fixation","","","","","","","","","","","","","",""
"revaluation","77","525136","0.0-3.0-13.0-2.0-0.7","spark_pilot_2","7137","2","9","Female","","false","","","","","[1078.3999998569489,1122.7999999523163]","./assets/img/space/14.jpg","[""ArrowUp"",""ArrowLeft""]","practice block","space","3","{""ArrowUp,ArrowLeft"":3,""ArrowUp,ArrowRight"":36,""ArrowDown,ArrowLeft"":15,""ArrowDown,ArrowRight"":23}","false","ArrowUp,ArrowLeft","false","","","","","","","",""
"html-keyboard-response","78","525640","0.0-3.0-13.0-2.0-1.7","spark_pilot_2","7137","2","9","Female","","","","","","","null","<div style=""font-size:60px;"">+</div>","null","fixation","","","","","","","","","","","","","",""
"revaluation","79","529656","0.0-3.0-13.0-2.0-0.8","spark_pilot_2","7137","2","9","Female","","false","","","","","[696.2999999523163]","./assets/img/space/catch/3.jpg","[""spaceBar""]","practice block","space","0","{""ArrowUp,ArrowLeft"":3,""ArrowUp,ArrowRight"":36,""ArrowDown,ArrowLeft"":15,""ArrowDown,ArrowRight"":23}","true","spaceBar","true","","","","","","","",""
"html-keyboard-response","80","530160","0.0-3.0-13.0-2.0-1.8","spark_pilot_2","7137","2","9","Female","","","","","","","null","<div style=""font-size:60px;"">+</div>","null","fixation","","","","","","","","","","","","","",""
"learning-instructions","81","544563","0.0-3.0-13.0-3.0-0.0","spark_pilot_2","7137","2","9","Female","","","","","","","1470.2000000476837","<p> Now, you will travel with a friend who will choose whether you go up or down first. </p>
            <p> On these turns, you will just see the animal that they found. You will still get to choose which chest to search for treasure.</p>","","instructions","","","","","","","","","","","","","",""
"revaluation","82","548591","0.0-3.0-13.0-4.0-0.0","spark_pilot_2","7137","2","9","Female","","false","","","","","[817.6999998092651]","./assets/img/space/animals/rabbit.jpg","[""ArrowRight""]","practice block","space","23","{""ArrowUp,ArrowLeft"":3,""ArrowUp,ArrowRight"":36,""ArrowDown,ArrowLeft"":15,""ArrowDown,ArrowRight"":23}","true","ArrowDown,ArrowRight","","","","","","","","",""
"html-keyboard-response","83","549101","0.0-3.0-13.0-4.0-1.0","spark_pilot_2","7137","2","9","Female","","","","","","","null","<div style=""font-size:60px;"">+</div>","null","fixation","","","","","","","","","","","","","",""
"revaluation","84","553131","0.0-3.0-13.0-4.0-0.1","spark_pilot_2","7137","2","9","Female","","false","","","","","[774.8000001907349]","./assets/img/space/animals/cat.jpg","[""ArrowRight""]","practice block","space","36","{""ArrowUp,ArrowLeft"":3,""ArrowUp,ArrowRight"":36,""ArrowDown,ArrowLeft"":15,""ArrowDown,ArrowRight"":23}","true","ArrowUp,ArrowRight","","","","","","","","",""
"html-keyboard-response","85","553641","0.0-3.0-13.0-4.0-1.1","spark_pilot_2","7137","2","9","Female","","","","","","","null","<div style=""font-size:60px;"">+</div>","null","fixation","","","","","","","","","","","","","",""
"revaluation","86","557680","0.0-3.0-13.0-4.0-0.2","spark_pilot_2","7137","2","9","Female","","false","","","","","[1161.7000000476837]","./assets/img/space/animals/rabbit.jpg","[""ArrowRight""]","practice block","space","23","{""ArrowUp,ArrowLeft"":3,""ArrowUp,ArrowRight"":36,""ArrowDown,ArrowLeft"":15,""ArrowDown,ArrowRight"":23}","true","ArrowDown,ArrowRight","","","","","","","","",""
"html-keyboard-response","87","558201","0.0-3.0-13.0-4.0-1.2","spark_pilot_2","7137","2","9","Female","","","","","","","null","<div style=""font-size:60px;"">+</div>","null","fixation","","","","","","","","","","","","","",""
"revaluation","88","562231","0.0-3.0-13.0-4.0-0.3","spark_pilot_2","7137","2","9","Female","","false","","","","","[554.6000001430511]","./assets/img/space/animals/cat.jpg","[""ArrowRight""]","practice block","space","36","{""ArrowUp,ArrowLeft"":3,""ArrowUp,ArrowRight"":36,""ArrowDown,ArrowLeft"":15,""ArrowDown,ArrowRight"":23}","true","ArrowUp,ArrowRight","","","","","","","","",""
"html-keyboard-response","89","562750","0.0-3.0-13.0-4.0-1.3","spark_pilot_2","7137","2","9","Female","","","","","","","null","<div style=""font-size:60px;"">+</div>","null","fixation","","","","","","","","","","","","","",""
"learning-instructions","90","571427","0.0-3.0-13.0-5.0-0.0","spark_pilot_2","7137","2","9","Female","","","","","","","1284.8000001907349","<p> Time to play the dot game! </p>
            <p> For 15 seconds, click the red dots on the following screen as they appear. </p>","","instructions","","","","","","","","","","","","","",""
"revaluation","91","586446","0.0-3.0-13.0-6.0-0.0","spark_pilot_2","7137","2","9","Female","","","","","","","[87]","","","rest practice","","10","","","","","0","15000","","","","","",""
"learning-instructions","92","595200","0.0-3.0-13.0-7.0-0.0","spark_pilot_2","7137","2","9","Female","","","","","","","2618.7000000476837","<p> You have almost finished this part of the game! </p>
            <p> We are going to ask you to make a few more choices. </p>","","instructions","","","","","","","","","","","","","",""
"learning-instructions","93","610872","0.0-3.0-13.0-7.0-0.1","spark_pilot_2","7137","2","9","Female","","","","","","","1620.9000000953674","<p> First, you need to decide whether to go up or down. When you see each picture, use the arrow keys to make your choice. </p>
            <p><b>You will not see which animal you found, but try to get to the one that will give you the most treasure.</b></p>","","instructions","","","","","","","","","","","","","",""
"revaluation","94","611712","0.0-3.0-13.0-8.0","spark_pilot_2","7137","2","9","Female","","false","","","","","[838.7999999523163]","./assets/img/space/15.jpg","[""ArrowUp""]","practice block","space","0","{""ArrowUp,ArrowLeft"":3,""ArrowUp,ArrowRight"":36,""ArrowDown,ArrowLeft"":15,""ArrowDown,ArrowRight"":23}","true","ArrowUp","false","","","","","","","",""
"html-keyboard-response","95","612226","0.0-3.0-13.0-9.0","spark_pilot_2","7137","2","9","Female","","","","","","","null","<div style=""font-size:60px;"">+</div>","null","fixation","","","","","","","","","","","","","",""
"learning-instructions","96","624679","0.0-3.0-13.0-10.0-0.0","spark_pilot_2","7137","2","9","Female","","","","","","","1047.7000000476837","<p> Now you will see the animals again and can search their chests for treasure. </p>
            <p> This time, you will not see how much treasure you earned, but you will earn more bonus money for making better choices. </p>","","instructions","","","","","","","","","","","","","",""
"revaluation","97","625533","0.0-3.0-13.0-11.0-0.0","spark_pilot_2","7137","2","9","Female","","false","","","","","[853]","./assets/img/space/animals/cat.jpg","[""ArrowRight""]","practice block","space","0","{""ArrowUp,ArrowLeft"":3,""ArrowUp,ArrowRight"":36,""ArrowDown,ArrowLeft"":15,""ArrowDown,ArrowRight"":23}","true","ArrowUp,ArrowRight","","","","","","","","",""
"html-keyboard-response","98","626040","0.0-3.0-13.0-11.0-1.0","spark_pilot_2","7137","2","9","Female","","","","","","","null","<div style=""font-size:60px;"">+</div>","null","fixation","","","","","","","","","","","","","",""
"revaluation","99","626944","0.0-3.0-13.0-11.0-0.1","spark_pilot_2","7137","2","9","Female","","false","","","","","[901.9000000953674]","./assets/img/space/animals/rabbit.jpg","[""ArrowRight""]","practice block","space","0","{""ArrowUp,ArrowLeft"":3,""ArrowUp,ArrowRight"":36,""ArrowDown,ArrowLeft"":15,""ArrowDown,ArrowRight"":23}","true","ArrowDown,ArrowRight","","","","","","","","",""
"html-keyboard-response","100","627450","0.0-3.0-13.0-11.0-1.1","spark_pilot_2","7137","2","9","Female","","","","","","","null","<div style=""font-size:60px;"">+</div>","null","fixation","","","","","","","","","","","","","",""
"learning-instructions","101","633280","0.0-3.0-14.0-0.0","spark_pilot_2","7137","2","9","Female","","","","","","","968.2000000476837","<p> Before you start, we're going to ask you a few questions about how the game works. </p>","","instructions","","","","","","","","","","","","","",""
"comp-q","102","642712","0.0-3.0-15.0-0.0-0.0","spark_pilot_2","7137","2","9","Female","","","","","","","3849.0999999046326","<p> <b> True or False? </b> </p>
            <p> There can be 50 pieces of treasure in a given animal's chest. </p>","0","comp_question","","","","false","","","","","","","","","",""
"comp-q","103","652489","0.0-3.0-15.0-0.0-1.0","spark_pilot_2","7137","2","9","Female","","","","","","","3237.9000000953674","<p> <b>Incorrect.</b> The amount of treasure in each chest can range from 0 to 40 pieces. </p>","0","comp_answer","","","","","","","","","","","","","",""
"comp-q","104","658781","0.0-3.0-15.0-0.1-0.1","spark_pilot_2","7137","2","9","Female","","","","","","","730.7000000476837","<p> <b> True or False? </b> </p>
            <p> There can be 50 pieces of treasure in a given animal's chest. </p>","1","comp_question","","","","true","","","","","","","","","",""
"comp-q","105","667705","0.0-3.0-15.0-0.1-1.1","spark_pilot_2","7137","2","9","Female","","","","","","","2254.800000190735","<p> <b> That's right! </b> The amount of treasure in each chest can range from 0 to 40 pieces. </p>","0","comp_answer","","","","","","","","","","","","","",""
"comp-q","106","675958","0.0-3.0-15.0-0.2-0.2","spark_pilot_2","7137","2","9","Female","","","","","","","1137.3999998569489","<p> <b> True or False? </b> </p><p> In this game, all animals have the same amount of treasure in their left and right chests. </p>","1","comp_question","","","","true","","","","","","","","","",""
"comp-q","107","682756","0.0-3.0-15.0-0.2-1.2","spark_pilot_2","7137","2","9","Female","","","","","","","1565.2999999523163","<p> <b> That's right! </b> Animals have different amounts of treasure in their treasure chests. </p>","0","comp_answer","","","","","","","","","","","","","",""
"comp-q","108","690481","0.0-3.0-15.0-0.3-0.3","spark_pilot_2","7137","2","9","Female","","","","","","","1869.8999998569489","<p> <b> True or False? </b> </p><p> The same animal will always be there if you go up in the same place. </p>","0","comp_question","","","","true","","","","","","","","","",""
"comp-q","109","699100","0.0-3.0-15.0-0.3-1.3","spark_pilot_2","7137","2","9","Female","","","","","","","2169.699999809265","<p> <b> That's right! </b> One animal lives in the upper part and one lives in the lower part of every place. </p>","0","comp_answer","","","","","","","","","","","","","",""
"comp-q","110","705488","0.0-3.0-15.0-0.4-0.4","spark_pilot_2","7137","2","9","Female","","","","","","","867.4000000953674","<p> <b> True or False? </b> </p><p> If you see a different picture, it means you are in a new place. </p>","1","comp_question","","","","true","","","","","","","","","",""
"comp-q","111","718860","0.0-3.0-15.0-0.4-1.4","spark_pilot_2","7137","2","9","Female","","","","","","","2110.600000143051","<p> <b> That's right! </b> Lots of different images may show the same place. For example,  you may see three different images that all remind you that you are in outer space. </p>","0","comp_answer","","","","","","","","","","","","","",""
"learning-instructions","112","732256","0.0-3.0-16.0-0.0","spark_pilot_2","7137","2","9","Female","","","","","","","3546","<p> Good job. Remember to do your best because the amount of treasure you earn will be converted into bonus money. </p>
            <p> It’s time to start the real game! </p>","","instructions","","","","","","","","","","","","","",""
"learning-instructions","113","736371","0.0-4.0-0.0-0.0","spark_pilot_2","7137","2","9","Female","","","","","","","1400.7999999523163","<p> This time you are searching for treasure in the <b>ocean</b>.</p>","","instructions","","","","","","","","","","","","","",""
"learning-instructions","114","754530","0.0-4.0-0.0-0.1","spark_pilot_2","7137","2","9","Female","","","","","","","860.5999999046326","<p><b>New</b> animals with <b>new</b> treasure chests live here. You need to explore to discover where the animal with the best treasure chest is.</p>
                    <p> Like before, once you figure out which animal has the chest with the most treasure, you should try to get to that animal and select that chest! </p>","","instructions","","","","","","","","","","","","","",""
"learning-instructions","115","770470","0.0-4.0-1.0-0.0","spark_pilot_2","7137","2","9","Female","","","","","","","1211.3000001907349","<p> Remember, when you see a picture of the place, use the up and down keys to <b>find an animal</b>.</p>
            <p> When you encounter an animal, you should use the left and right keys to <b>select a treasure chest</b>.</p>
            <p> Don't forget to look out for the robber! </p>","","instructions","","","","","","","","","","","","","",""
"revaluation","116","776508","0.0-4.0-2.0-0.0","spark_pilot_2","7137","2","9","Female","","false","","","","","[745.1000001430511,821.4000000953674]","./assets/img/ocean/memory/34.jpg","[""ArrowUp"",""ArrowRight""]","value training","ocean","10","{""ArrowUp,ArrowLeft"":23,""ArrowUp,ArrowRight"":10,""ArrowDown,ArrowLeft"":8,""ArrowDown,ArrowRight"":30}","false","ArrowUp,ArrowRight","false","","","revaluation","1","0","","",""
"html-keyboard-response","117","777028","0.0-4.0-2.0-1.0","spark_pilot_2","7137","2","9","Female","","","","","","","null","<div style=""font-size:60px;"">+</div>","null","fixation","","","","","","","","","","","1","","",""
"revaluation","118","783068","0.0-4.0-2.0-0.1","spark_pilot_2","7137","2","9","Female","","false","","","","","[607.7999999523163,478.2000000476837]","./assets/img/ocean/memory/33.jpg","[""ArrowUp"",""ArrowLeft""]","value training","ocean","23","{""ArrowUp,ArrowLeft"":23,""ArrowUp,ArrowRight"":10,""ArrowDown,ArrowLeft"":8,""ArrowDown,ArrowRight"":30}","false","ArrowUp,ArrowLeft","false","","","revaluation","1","2","","",""
"html-keyboard-response","119","783578","0.0-4.0-2.0-1.1","spark_pilot_2","7137","2","9","Female","","","","","","","null","<div style=""font-size:60px;"">+</div>","null","fixation","","","","","","","","","","","3","","",""
"revaluation","120","789618","0.0-4.0-2.0-0.2","spark_pilot_2","7137","2","9","Female","","false","","","","","[560.2999999523163,757.2999999523163]","./assets/img/ocean/memory/23.jpg","[""ArrowDown"",""ArrowRight""]","value training","ocean","30","{""ArrowUp,ArrowLeft"":23,""ArrowUp,ArrowRight"":10,""ArrowDown,ArrowLeft"":8,""ArrowDown,ArrowRight"":30}","true","ArrowDown,ArrowRight","false","","","revaluation","1","4","","",""
"html-keyboard-response","121","790138","0.0-4.0-2.0-1.2","spark_pilot_2","7137","2","9","Female","","","","","","","null","<div style=""font-size:60px;"">+</div>","null","fixation","","","","","","","","","","","5","","",""
"revaluation","122","796198","0.0-4.0-2.0-0.3","spark_pilot_2","7137","2","9","Female","","false","","","","","[774.9000000953674,401.09999990463257]","./assets/img/ocean/memory/13.jpg","[""ArrowDown"",""ArrowLeft""]","value training","ocean","8","{""ArrowUp,ArrowLeft"":23,""ArrowUp,ArrowRight"":10,""ArrowDown,ArrowLeft"":8,""ArrowDown,ArrowRight"":30}","false","ArrowDown,ArrowLeft","false","","","revaluation","1","6","","",""
"html-keyboard-response","123","796707","0.0-4.0-2.0-1.3","spark_pilot_2","7137","2","9","Female","","","","","","","null","<div style=""font-size:60px;"">+</div>","null","fixation","","","","","","","","","","","7","","",""
"revaluation","124","802727","0.0-4.0-2.0-0.4","spark_pilot_2","7137","2","9","Female","","false","","","","","[581.9000000953674,444.39999985694885]","./assets/img/ocean/memory/39.jpg","[""ArrowDown"",""ArrowRight""]","value training","ocean","30","{""ArrowUp,ArrowLeft"":23,""ArrowUp,ArrowRight"":10,""ArrowDown,ArrowLeft"":8,""ArrowDown,ArrowRight"":30}","true","ArrowDown,ArrowRight","false","","","revaluation","1","8","","",""
"html-keyboard-response","125","803231","0.0-4.0-2.0-1.4","spark_pilot_2","7137","2","9","Female","","","","","","","null","<div style=""font-size:60px;"">+</div>","null","fixation","","","","","","","","","","","9","","",""
"revaluation","126","807247","0.0-4.0-2.0-0.5","spark_pilot_2","7137","2","9","Female","","false","","","","","[844.5999999046326]","./assets/img/ocean/catch/7.jpg","[""spaceBar""]","value training","ocean","0","{""ArrowUp,ArrowLeft"":23,""ArrowUp,ArrowRight"":10,""ArrowDown,ArrowLeft"":8,""ArrowDown,ArrowRight"":30}","true","spaceBar","true","","","revaluation","1","10","","",""
"html-keyboard-response","127","807751","0.0-4.0-2.0-1.5","spark_pilot_2","7137","2","9","Female","","","","","","","null","<div style=""font-size:60px;"">+</div>","null","fixation","","","","","","","","","","","11","","",""
"revaluation","128","813775","0.0-4.0-2.0-0.6","spark_pilot_2","7137","2","9","Female","","false","","","","","[733.0999999046326,471.60000014305115]","./assets/img/ocean/memory/29.jpg","[""ArrowDown"",""ArrowRight""]","value training","ocean","30","{""ArrowUp,ArrowLeft"":23,""ArrowUp,ArrowRight"":10,""ArrowDown,ArrowLeft"":8,""ArrowDown,ArrowRight"":30}","true","ArrowDown,ArrowRight","false","","","revaluation","1","12","","",""
"html-keyboard-response","129","814279","0.0-4.0-2.0-1.6","spark_pilot_2","7137","2","9","Female","","","","","","","null","<div style=""font-size:60px;"">+</div>","null","fixation","","","","","","","","","","","13","","",""
"revaluation","130","820304","0.0-4.0-2.0-0.7","spark_pilot_2","7137","2","9","Female","","false","","","","","[766.7000000476837,414]","./assets/img/ocean/memory/16.jpg","[""ArrowDown"",""ArrowRight""]","value training","ocean","30","{""ArrowUp,ArrowLeft"":23,""ArrowUp,ArrowRight"":10,""ArrowDown,ArrowLeft"":8,""ArrowDown,ArrowRight"":30}","true","ArrowDown,ArrowRight","false","","","revaluation","1","14","","",""
"html-keyboard-response","131","820807","0.0-4.0-2.0-1.7","spark_pilot_2","7137","2","9","Female","","","","","","","null","<div style=""font-size:60px;"">+</div>","null","fixation","","","","","","","","","","","15","","",""
"revaluation","132","826831","0.0-4.0-2.0-0.8","spark_pilot_2","7137","2","9","Female","","false","","","","","[621.1000001430511,436]","./assets/img/ocean/memory/22.jpg","[""ArrowDown"",""ArrowRight""]","value training","ocean","30","{""ArrowUp,ArrowLeft"":23,""ArrowUp,ArrowRight"":10,""ArrowDown,ArrowLeft"":8,""ArrowDown,ArrowRight"":30}","true","ArrowDown,ArrowRight","false","","","revaluation","1","16","","",""
"html-keyboard-response","133","827335","0.0-4.0-2.0-1.8","spark_pilot_2","7137","2","9","Female","","","","","","","null","<div style=""font-size:60px;"">+</div>","null","fixation","","","","","","","","","","","17","","",""
"revaluation","134","833360","0.0-4.0-2.0-0.9","spark_pilot_2","7137","2","9","Female","","false","","","","","[971.7000000476837,505.40000009536743]","./assets/img/ocean/memory/30.jpg","[""ArrowDown"",""ArrowRight""]","value training","ocean","30","{""ArrowUp,ArrowLeft"":23,""ArrowUp,ArrowRight"":10,""ArrowDown,ArrowLeft"":8,""ArrowDown,ArrowRight"":30}","true","ArrowDown,ArrowRight","false","","","revaluation","1","18","","",""
"html-keyboard-response","135","833863","0.0-4.0-2.0-1.9","spark_pilot_2","7137","2","9","Female","","","","","","","null","<div style=""font-size:60px;"">+</div>","null","fixation","","","","","","","","","","","19","","",""
"revaluation","136","839887","0.0-4.0-2.0-0.10","spark_pilot_2","7137","2","9","Female","","false","","","","","[611.0999999046326,478]","./assets/img/ocean/memory/11.jpg","[""ArrowDown"",""ArrowRight""]","value training","ocean","30","{""ArrowUp,ArrowLeft"":23,""ArrowUp,ArrowRight"":10,""ArrowDown,ArrowLeft"":8,""ArrowDown,ArrowRight"":30}","true","ArrowDown,ArrowRight","false","","","revaluation","1","20","","",""
"html-keyboard-response","137","840391","0.0-4.0-2.0-1.10","spark_pilot_2","7137","2","9","Female","","","","","","","null","<div style=""font-size:60px;"">+</div>","null","fixation","","","","","","","","","","","21","","",""
"revaluation","138","846416","0.0-4.0-2.0-0.11","spark_pilot_2","7137","2","9","Female","","false","","","","","[1034.7999999523163,490.40000009536743]","./assets/img/ocean/memory/21.jpg","[""ArrowDown"",""ArrowRight""]","value training","ocean","30","{""ArrowUp,ArrowLeft"":23,""ArrowUp,ArrowRight"":10,""ArrowDown,ArrowLeft"":8,""ArrowDown,ArrowRight"":30}","true","ArrowDown,ArrowRight","false","","","revaluation","1","22","","",""
"html-keyboard-response","139","846925","0.0-4.0-2.0-1.11","spark_pilot_2","7137","2","9","Female","","","","","","","null","<div style=""font-size:60px;"">+</div>","null","fixation","","","","","","","","","","","23","","",""
"revaluation","140","852952","0.0-4.0-2.0-0.12","spark_pilot_2","7137","2","9","Female","","false","","","","","[574.5,571.2999999523163]","./assets/img/ocean/memory/29.jpg","[""ArrowDown"",""ArrowRight""]","value training","ocean","30","{""ArrowUp,ArrowLeft"":23,""ArrowUp,ArrowRight"":10,""ArrowDown,ArrowLeft"":8,""ArrowDown,ArrowRight"":30}","true","ArrowDown,ArrowRight","false","","","revaluation","1","24","","",""
"html-keyboard-response","141","853455","0.0-4.0-2.0-1.12","spark_pilot_2","7137","2","9","Female","","","","","","","null","<div style=""font-size:60px;"">+</div>","null","fixation","","","","","","","","","","","25","","",""
"revaluation","142","857472","0.0-4.0-2.0-0.13","spark_pilot_2","7137","2","9","Female","","false","","","","","[918.3999998569489]","./assets/img/ocean/catch/6.jpg","[""spaceBar""]","value training","ocean","0","{""ArrowUp,ArrowLeft"":23,""ArrowUp,ArrowRight"":10,""ArrowDown,ArrowLeft"":8,""ArrowDown,ArrowRight"":30}","true","spaceBar","true","","","revaluation","1","26","","",""
"html-keyboard-response","143","857975","0.0-4.0-2.0-1.13","spark_pilot_2","7137","2","9","Female","","","","","","","null","<div style=""font-size:60px;"">+</div>","null","fixation","","","","","","","","","","","27","","",""
"revaluation","144","864000","0.0-4.0-2.0-0.14","spark_pilot_2","7137","2","9","Female","","false","","","","","[611.3999998569489,415.10000014305115]","./assets/img/ocean/memory/37.jpg","[""ArrowDown"",""ArrowRight""]","value training","ocean","30","{""ArrowUp,ArrowLeft"":23,""ArrowUp,ArrowRight"":10,""ArrowDown,ArrowLeft"":8,""ArrowDown,ArrowRight"":30}","true","ArrowDown,ArrowRight","false","","","revaluation","1","28","","",""
"html-keyboard-response","145","864503","0.0-4.0-2.0-1.14","spark_pilot_2","7137","2","9","Female","","","","","","","null","<div style=""font-size:60px;"">+</div>","null","fixation","","","","","","","","","","","29","","",""
"revaluation","146","870528","0.0-4.0-2.0-0.15","spark_pilot_2","7137","2","9","Female","","false","","","","","[553.3000001907349,442.2000000476837]","./assets/img/ocean/memory/27.jpg","[""ArrowDown"",""ArrowRight""]","value training","ocean","30","{""ArrowUp,ArrowLeft"":23,""ArrowUp,ArrowRight"":10,""ArrowDown,ArrowLeft"":8,""ArrowDown,ArrowRight"":30}","true","ArrowDown,ArrowRight","false","","","revaluation","1","30","","",""
"html-keyboard-response","147","871031","0.0-4.0-2.0-1.15","spark_pilot_2","7137","2","9","Female","","","","","","","null","<div style=""font-size:60px;"">+</div>","null","fixation","","","","","","","","","","","31","","",""
"revaluation","148","877056","0.0-4.0-2.0-0.16","spark_pilot_2","7137","2","9","Female","","false","","","","","[619,397.2999999523163]","./assets/img/ocean/memory/11.jpg","[""ArrowDown"",""ArrowRight""]","value training","ocean","30","{""ArrowUp,ArrowLeft"":23,""ArrowUp,ArrowRight"":10,""ArrowDown,ArrowLeft"":8,""ArrowDown,ArrowRight"":30}","true","ArrowDown,ArrowRight","false","","","revaluation","1","32","","",""
"html-keyboard-response","149","877560","0.0-4.0-2.0-1.16","spark_pilot_2","7137","2","9","Female","","","","","","","null","<div style=""font-size:60px;"">+</div>","null","fixation","","","","","","","","","","","33","","",""
"revaluation","150","883584","0.0-4.0-2.0-0.17","spark_pilot_2","7137","2","9","Female","","false","","","","","[594,395.2999999523163]","./assets/img/ocean/memory/33.jpg","[""ArrowDown"",""ArrowRight""]","value training","ocean","30","{""ArrowUp,ArrowLeft"":23,""ArrowUp,ArrowRight"":10,""ArrowDown,ArrowLeft"":8,""ArrowDown,ArrowRight"":30}","true","ArrowDown,ArrowRight","false","","","revaluation","1","34","","",""
"html-keyboard-response","151","884087","0.0-4.0-2.0-1.17","spark_pilot_2","7137","2","9","Female","","","","","","","null","<div style=""font-size:60px;"">+</div>","null","fixation","","","","","","","","","","","35","","",""
"revaluation","152","890112","0.0-4.0-2.0-0.18","spark_pilot_2","7137","2","9","Female","","false","","","","","[944.3000001907349,428.90000009536743]","./assets/img/ocean/memory/20.jpg","[""ArrowDown"",""ArrowRight""]","value training","ocean","30","{""ArrowUp,ArrowLeft"":23,""ArrowUp,ArrowRight"":10,""ArrowDown,ArrowLeft"":8,""ArrowDown,ArrowRight"":30}","true","ArrowDown,ArrowRight","false","","","revaluation","1","36","","",""
"html-keyboard-response","153","890615","0.0-4.0-2.0-1.18","spark_pilot_2","7137","2","9","Female","","","","","","","null","<div style=""font-size:60px;"">+</div>","null","fixation","","","","","","","","","","","37","","",""
"revaluation","154","896640","0.0-4.0-2.0-0.19","spark_pilot_2","7137","2","9","Female","","false","","","","","[560.5,370.89999985694885]","./assets/img/ocean/memory/39.jpg","[""ArrowDown"",""ArrowRight""]","value training","ocean","30","{""ArrowUp,ArrowLeft"":23,""ArrowUp,ArrowRight"":10,""ArrowDown,ArrowLeft"":8,""ArrowDown,ArrowRight"":30}","true","ArrowDown,ArrowRight","false","","","revaluation","1","38","","",""
"html-keyboard-response","155","897143","0.0-4.0-2.0-1.19","spark_pilot_2","7137","2","9","Female","","","","","","","null","<div style=""font-size:60px;"">+</div>","null","fixation","","","","","","","","","","","39","","",""
"revaluation","156","901160","0.0-4.0-2.0-0.20","spark_pilot_2","7137","2","9","Female","","false","","","","","[599.1999998092651]","./assets/img/ocean/catch/3.jpg","[""spaceBar""]","value training","ocean","0","{""ArrowUp,ArrowLeft"":23,""ArrowUp,ArrowRight"":10,""ArrowDown,ArrowLeft"":8,""ArrowDown,ArrowRight"":30}","true","spaceBar","true","","","revaluation","1","40","","",""
"html-keyboard-response","157","901664","0.0-4.0-2.0-1.20","spark_pilot_2","7137","2","9","Female","","","","","","","null","<div style=""font-size:60px;"">+</div>","null","fixation","","","","","","","","","","","41","","",""
"revaluation","158","907688","0.0-4.0-2.0-0.21","spark_pilot_2","7137","2","9","Female","","false","","","","","[842.2999999523163,398.10000014305115]","./assets/img/ocean/memory/31.jpg","[""ArrowDown"",""ArrowRight""]","value training","ocean","30","{""ArrowUp,ArrowLeft"":23,""ArrowUp,ArrowRight"":10,""ArrowDown,ArrowLeft"":8,""ArrowDown,ArrowRight"":30}","true","ArrowDown,ArrowRight","false","","","revaluation","1","42","","",""
"html-keyboard-response","159","908192","0.0-4.0-2.0-1.21","spark_pilot_2","7137","2","9","Female","","","","","","","null","<div style=""font-size:60px;"">+</div>","null","fixation","","","","","","","","","","","43","","",""
"revaluation","160","914215","0.0-4.0-2.0-0.22","spark_pilot_2","7137","2","9","Female","","false","","","","","[609.4000000953674,377]","./assets/img/ocean/memory/40.jpg","[""ArrowDown"",""ArrowRight""]","value training","ocean","30","{""ArrowUp,ArrowLeft"":23,""ArrowUp,ArrowRight"":10,""ArrowDown,ArrowLeft"":8,""ArrowDown,ArrowRight"":30}","true","ArrowDown,ArrowRight","false","","","revaluation","1","44","","",""
"html-keyboard-response","161","914720","0.0-4.0-2.0-1.22","spark_pilot_2","7137","2","9","Female","","","","","","","null","<div style=""font-size:60px;"">+</div>","null","fixation","","","","","","","","","","","45","","",""
"revaluation","162","918736","0.0-4.0-2.0-0.23","spark_pilot_2","7137","2","9","Female","","false","","","","","[580.7000000476837]","./assets/img/ocean/catch/0.jpg","[""spaceBar""]","value training","ocean","0","{""ArrowUp,ArrowLeft"":23,""ArrowUp,ArrowRight"":10,""ArrowDown,ArrowLeft"":8,""ArrowDown,ArrowRight"":30}","true","spaceBar","true","","","revaluation","1","46","","",""
"html-keyboard-response","163","919239","0.0-4.0-2.0-1.23","spark_pilot_2","7137","2","9","Female","","","","","","","null","<div style=""font-size:60px;"">+</div>","null","fixation","","","","","","","","","","","47","","",""
"revaluation","164","925263","0.0-4.0-2.0-0.24","spark_pilot_2","7137","2","9","Female","","false","","","","","[702.4000000953674,1067.5999999046326]","./assets/img/ocean/memory/7.jpg","[""ArrowDown"",""ArrowRight""]","value training","ocean","30","{""ArrowUp,ArrowLeft"":23,""ArrowUp,ArrowRight"":10,""ArrowDown,ArrowLeft"":8,""ArrowDown,ArrowRight"":30}","true","ArrowDown,ArrowRight","false","","","revaluation","1","48","","",""
"html-keyboard-response","165","925768","0.0-4.0-2.0-1.24","spark_pilot_2","7137","2","9","Female","","","","","","","null","<div style=""font-size:60px;"">+</div>","null","fixation","","","","","","","","","","","49","","",""
"revaluation","166","929784","0.0-4.0-2.0-0.25","spark_pilot_2","7137","2","9","Female","","false","","","","","[629.1000001430511]","./assets/img/ocean/catch/2.jpg","[""spaceBar""]","value training","ocean","0","{""ArrowUp,ArrowLeft"":23,""ArrowUp,ArrowRight"":10,""ArrowDown,ArrowLeft"":8,""ArrowDown,ArrowRight"":30}","true","spaceBar","true","","","revaluation","1","50","","",""
"html-keyboard-response","167","930287","0.0-4.0-2.0-1.25","spark_pilot_2","7137","2","9","Female","","","","","","","null","<div style=""font-size:60px;"">+</div>","null","fixation","","","","","","","","","","","51","","",""
"revaluation","168","936311","0.0-4.0-2.0-0.26","spark_pilot_2","7137","2","9","Female","","false","","","","","[736.7999999523163,397.2999999523163]","./assets/img/ocean/memory/21.jpg","[""ArrowDown"",""ArrowRight""]","value training","ocean","30","{""ArrowUp,ArrowLeft"":23,""ArrowUp,ArrowRight"":10,""ArrowDown,ArrowLeft"":8,""ArrowDown,ArrowRight"":30}","true","ArrowDown,ArrowRight","false","","","revaluation","1","52","","",""
"html-keyboard-response","169","936815","0.0-4.0-2.0-1.26","spark_pilot_2","7137","2","9","Female","","","","","","","null","<div style=""font-size:60px;"">+</div>","null","fixation","","","","","","","","","","","53","","",""
"revaluation","170","942841","0.0-4.0-2.0-0.27","spark_pilot_2","7137","2","9","Female","","false","","","","","[516.8000001907349,386.2000000476837]","./assets/img/ocean/memory/32.jpg","[""ArrowDown"",""ArrowRight""]","value training","ocean","30","{""ArrowUp,ArrowLeft"":23,""ArrowUp,ArrowRight"":10,""ArrowDown,ArrowLeft"":8,""ArrowDown,ArrowRight"":30}","true","ArrowDown,ArrowRight","false","","","revaluation","1","54","","",""
"html-keyboard-response","171","943343","0.0-4.0-2.0-1.27","spark_pilot_2","7137","2","9","Female","","","","","","","null","<div style=""font-size:60px;"">+</div>","null","fixation","","","","","","","","","","","55","","",""
"revaluation","172","949368","0.0-4.0-2.0-0.28","spark_pilot_2","7137","2","9","Female","","false","","","","","[550.6000001430511,465.59999990463257]","./assets/img/ocean/memory/7.jpg","[""ArrowDown"",""ArrowRight""]","value training","ocean","30","{""ArrowUp,ArrowLeft"":23,""ArrowUp,ArrowRight"":10,""ArrowDown,ArrowLeft"":8,""ArrowDown,ArrowRight"":30}","true","ArrowDown,ArrowRight","false","","","revaluation","1","56","","",""
"html-keyboard-response","173","949871","0.0-4.0-2.0-1.28","spark_pilot_2","7137","2","9","Female","","","","","","","null","<div style=""font-size:60px;"">+</div>","null","fixation","","","","","","","","","","","57","","",""
"revaluation","174","955895","0.0-4.0-2.0-0.29","spark_pilot_2","7137","2","9","Female","","false","","","","","[503.89999985694885,585.4000000953674]","./assets/img/ocean/memory/34.jpg","[""ArrowDown"",""ArrowRight""]","value training","ocean","30","{""ArrowUp,ArrowLeft"":23,""ArrowUp,ArrowRight"":10,""ArrowDown,ArrowLeft"":8,""ArrowDown,ArrowRight"":30}","true","ArrowDown,ArrowRight","false","","","revaluation","1","58","","",""
"html-keyboard-response","175","956400","0.0-4.0-2.0-1.29","spark_pilot_2","7137","2","9","Female","","","","","","","null","<div style=""font-size:60px;"">+</div>","null","fixation","","","","","","","","","","","59","","",""
"revaluation","176","962423","0.0-4.0-2.0-0.30","spark_pilot_2","7137","2","9","Female","","false","","","","","[533.5999999046326,321.90000009536743]","./assets/img/ocean/memory/31.jpg","[""ArrowDown"",""ArrowRight""]","value training","ocean","30","{""ArrowUp,ArrowLeft"":23,""ArrowUp,ArrowRight"":10,""ArrowDown,ArrowLeft"":8,""ArrowDown,ArrowRight"":30}","true","ArrowDown,ArrowRight","false","","","revaluation","1","60","","",""
"html-keyboard-response","177","962927","0.0-4.0-2.0-1.30","spark_pilot_2","7137","2","9","Female","","","","","","","null","<div style=""font-size:60px;"">+</div>","null","fixation","","","","","","","","","","","61","","",""
"revaluation","178","968951","0.0-4.0-2.0-0.31","spark_pilot_2","7137","2","9","Female","","false","","","","","[510,445.2000000476837]","./assets/img/ocean/memory/32.jpg","[""ArrowDown"",""ArrowRight""]","value training","ocean","30","{""ArrowUp,ArrowLeft"":23,""ArrowUp,ArrowRight"":10,""ArrowDown,ArrowLeft"":8,""ArrowDown,ArrowRight"":30}","true","ArrowDown,ArrowRight","false","","","revaluation","1","62","","",""
"html-keyboard-response","179","969456","0.0-4.0-2.0-1.31","spark_pilot_2","7137","2","9","Female","","","","","","","null","<div style=""font-size:60px;"">+</div>","null","fixation","","","","","","","","","","","63","","",""
"revaluation","180","973471","0.0-4.0-2.0-0.32","spark_pilot_2","7137","2","9","Female","","false","","","","","[810.5]","./assets/img/ocean/catch/5.jpg","[""spaceBar""]","value training","ocean","0","{""ArrowUp,ArrowLeft"":23,""ArrowUp,ArrowRight"":10,""ArrowDown,ArrowLeft"":8,""ArrowDown,ArrowRight"":30}","true","spaceBar","true","","","revaluation","1","64","","",""
"html-keyboard-response","181","973975","0.0-4.0-2.0-1.32","spark_pilot_2","7137","2","9","Female","","","","","","","null","<div style=""font-size:60px;"">+</div>","null","fixation","","","","","","","","","","","65","","",""
"revaluation","182","980000","0.0-4.0-2.0-0.33","spark_pilot_2","7137","2","9","Female","","false","","","","","[600.2000000476837,368.7999999523163]","./assets/img/ocean/memory/1.jpg","[""ArrowDown"",""ArrowRight""]","value training","ocean","30","{""ArrowUp,ArrowLeft"":23,""ArrowUp,ArrowRight"":10,""ArrowDown,ArrowLeft"":8,""ArrowDown,ArrowRight"":30}","true","ArrowDown,ArrowRight","false","","","revaluation","1","66","","",""
"html-keyboard-response","183","980503","0.0-4.0-2.0-1.33","spark_pilot_2","7137","2","9","Female","","","","","","","null","<div style=""font-size:60px;"">+</div>","null","fixation","","","","","","","","","","","67","","",""
"revaluation","184","986528","0.0-4.0-2.0-0.34","spark_pilot_2","7137","2","9","Female","","false","","","","","[1460.0999999046326,504.89999985694885]","./assets/img/ocean/memory/23.jpg","[""ArrowDown"",""ArrowRight""]","value training","ocean","30","{""ArrowUp,ArrowLeft"":23,""ArrowUp,ArrowRight"":10,""ArrowDown,ArrowLeft"":8,""ArrowDown,ArrowRight"":30}","true","ArrowDown,ArrowRight","false","","","revaluation","1","68","","",""
"html-keyboard-response","185","987031","0.0-4.0-2.0-1.34","spark_pilot_2","7137","2","9","Female","","","","","","","null","<div style=""font-size:60px;"">+</div>","null","fixation","","","","","","","","","","","69","","",""
"revaluation","186","993056","0.0-4.0-2.0-0.35","spark_pilot_2","7137","2","9","Female","","false","","","","","[590,301.2999999523163]","./assets/img/ocean/memory/12.jpg","[""ArrowDown"",""ArrowRight""]","value training","ocean","30","{""ArrowUp,ArrowLeft"":23,""ArrowUp,ArrowRight"":10,""ArrowDown,ArrowLeft"":8,""ArrowDown,ArrowRight"":30}","true","ArrowDown,ArrowRight","false","","","revaluation","1","70","","",""
"html-keyboard-response","187","993564","0.0-4.0-2.0-1.35","spark_pilot_2","7137","2","9","Female","","","","","","","null","<div style=""font-size:60px;"">+</div>","null","fixation","","","","","","","","","","","71","","",""
"revaluation","188","997576","0.0-4.0-2.0-0.36","spark_pilot_2","7137","2","9","Female","","false","","","","","[665.8999998569489]","./assets/img/ocean/catch/4.jpg","[""spaceBar""]","value training","ocean","0","{""ArrowUp,ArrowLeft"":23,""ArrowUp,ArrowRight"":10,""ArrowDown,ArrowLeft"":8,""ArrowDown,ArrowRight"":30}","true","spaceBar","true","","","revaluation","1","72","","",""
"html-keyboard-response","189","998092","0.0-4.0-2.0-1.36","spark_pilot_2","7137","2","9","Female","","","","","","","null","<div style=""font-size:60px;"">+</div>","null","fixation","","","","","","","","","","","73","","",""
"revaluation","190","1002103","0.0-4.0-2.0-0.37","spark_pilot_2","7137","2","9","Female","","false","","","","","[629.3999998569489]","./assets/img/ocean/catch/1.jpg","[""spaceBar""]","value training","ocean","0","{""ArrowUp,ArrowLeft"":23,""ArrowUp,ArrowRight"":10,""ArrowDown,ArrowLeft"":8,""ArrowDown,ArrowRight"":30}","true","spaceBar","true","","","revaluation","1","74","","",""
"html-keyboard-response","191","1002609","0.0-4.0-2.0-1.37","spark_pilot_2","7137","2","9","Female","","","","","","","null","<div style=""font-size:60px;"">+</div>","null","fixation","","","","","","","","","","","75","","",""
"revaluation","192","1008632","0.0-4.0-2.0-0.38","spark_pilot_2","7137","2","9","Female","","false","","","","","[1184.8999998569489,335.10000014305115]","./assets/img/ocean/memory/20.jpg","[""ArrowDown"",""ArrowRight""]","value training","ocean","30","{""ArrowUp,ArrowLeft"":23,""ArrowUp,ArrowRight"":10,""ArrowDown,ArrowLeft"":8,""ArrowDown,ArrowRight"":30}","true","ArrowDown,ArrowRight","false","","","revaluation","1","76","","",""
"html-keyboard-response","193","1009135","0.0-4.0-2.0-1.38","spark_pilot_2","7137","2","9","Female","","","","","","","null","<div style=""font-size:60px;"">+</div>","null","fixation","","","","","","","","","","","77","","",""
"revaluation","194","1015159","0.0-4.0-2.0-0.39","spark_pilot_2","7137","2","9","Female","","false","","","","","[688.4000000953674,414.10000014305115]","./assets/img/ocean/memory/27.jpg","[""ArrowDown"",""ArrowRight""]","value training","ocean","30","{""ArrowUp,ArrowLeft"":23,""ArrowUp,ArrowRight"":10,""ArrowDown,ArrowLeft"":8,""ArrowDown,ArrowRight"":30}","true","ArrowDown,ArrowRight","false","","","revaluation","1","78","","",""
"html-keyboard-response","195","1015663","0.0-4.0-2.0-1.39","spark_pilot_2","7137","2","9","Female","","","","","","","null","<div style=""font-size:60px;"">+</div>","null","fixation","","","","","","","","","","","79","","",""
"revaluation","196","1021687","0.0-4.0-2.0-0.40","spark_pilot_2","7137","2","9","Female","","false","","","","","[573.1000001430511,405.60000014305115]","./assets/img/ocean/memory/4.jpg","[""ArrowDown"",""ArrowRight""]","value training","ocean","30","{""ArrowUp,ArrowLeft"":23,""ArrowUp,ArrowRight"":10,""ArrowDown,ArrowLeft"":8,""ArrowDown,ArrowRight"":30}","true","ArrowDown,ArrowRight","false","","","revaluation","1","80","","",""
"html-keyboard-response","197","1022191","0.0-4.0-2.0-1.40","spark_pilot_2","7137","2","9","Female","","","","","","","null","<div style=""font-size:60px;"">+</div>","null","fixation","","","","","","","","","","","81","","",""
"revaluation","198","1028216","0.0-4.0-2.0-0.41","spark_pilot_2","7137","2","9","Female","","false","","","","","[636,386.59999990463257]","./assets/img/ocean/memory/30.jpg","[""ArrowDown"",""ArrowRight""]","value training","ocean","30","{""ArrowUp,ArrowLeft"":23,""ArrowUp,ArrowRight"":10,""ArrowDown,ArrowLeft"":8,""ArrowDown,ArrowRight"":30}","true","ArrowDown,ArrowRight","false","","","revaluation","1","82","","",""
"html-keyboard-response","199","1028720","0.0-4.0-2.0-1.41","spark_pilot_2","7137","2","9","Female","","","","","","","null","<div style=""font-size:60px;"">+</div>","null","fixation","","","","","","","","","","","83","","",""
"revaluation","200","1034743","0.0-4.0-2.0-0.42","spark_pilot_2","7137","2","9","Female","","false","","","","","[656.9000000953674,415.59999990463257]","./assets/img/ocean/memory/4.jpg","[""ArrowDown"",""ArrowRight""]","value training","ocean","30","{""ArrowUp,ArrowLeft"":23,""ArrowUp,ArrowRight"":10,""ArrowDown,ArrowLeft"":8,""ArrowDown,ArrowRight"":30}","true","ArrowDown,ArrowRight","false","","","revaluation","1","84","","",""
"html-keyboard-response","201","1035247","0.0-4.0-2.0-1.42","spark_pilot_2","7137","2","9","Female","","","","","","","null","<div style=""font-size:60px;"">+</div>","null","fixation","","","","","","","","","","","85","","",""
"revaluation","202","1041271","0.0-4.0-2.0-0.43","spark_pilot_2","7137","2","9","Female","","false","","","","","[875.7999999523163,387]","./assets/img/ocean/memory/40.jpg","[""ArrowDown"",""ArrowRight""]","value training","ocean","30","{""ArrowUp,ArrowLeft"":23,""ArrowUp,ArrowRight"":10,""ArrowDown,ArrowLeft"":8,""ArrowDown,ArrowRight"":30}","true","ArrowDown,ArrowRight","false","","","revaluation","1","86","","",""
"html-keyboard-response","203","1041775","0.0-4.0-2.0-1.43","spark_pilot_2","7137","2","9","Female","","","","","","","null","<div style=""font-size:60px;"">+</div>","null","fixation","","","","","","","","","","","87","","",""
"revaluation","204","1047800","0.0-4.0-2.0-0.44","spark_pilot_2","7137","2","9","Female","","false","","","","","[460.40000009536743,554.9000000953674]","./assets/img/ocean/memory/1.jpg","[""ArrowDown"",""ArrowRight""]","value training","ocean","30","{""ArrowUp,ArrowLeft"":23,""ArrowUp,ArrowRight"":10,""ArrowDown,ArrowLeft"":8,""ArrowDown,ArrowRight"":30}","true","ArrowDown,ArrowRight","false","","","revaluation","1","88","","",""
"html-keyboard-response","205","1048304","0.0-4.0-2.0-1.44","spark_pilot_2","7137","2","9","Female","","","","","","","null","<div style=""font-size:60px;"">+</div>","null","fixation","","","","","","","","","","","89","","",""
"revaluation","206","1054328","0.0-4.0-2.0-0.45","spark_pilot_2","7137","2","9","Female","","false","","","","","[468.10000014305115,544.5999999046326]","./assets/img/ocean/memory/13.jpg","[""ArrowDown"",""ArrowRight""]","value training","ocean","30","{""ArrowUp,ArrowLeft"":23,""ArrowUp,ArrowRight"":10,""ArrowDown,ArrowLeft"":8,""ArrowDown,ArrowRight"":30}","true","ArrowDown,ArrowRight","false","","","revaluation","1","90","","",""
"html-keyboard-response","207","1054831","0.0-4.0-2.0-1.45","spark_pilot_2","7137","2","9","Female","","","","","","","null","<div style=""font-size:60px;"">+</div>","null","fixation","","","","","","","","","","","91","","",""
"revaluation","208","1060855","0.0-4.0-2.0-0.46","spark_pilot_2","7137","2","9","Female","","true","","","","","[609.8999998569489]","./assets/img/ocean/memory/16.jpg","[""ArrowDown""]","value training","ocean","-5","{""ArrowUp,ArrowLeft"":23,""ArrowUp,ArrowRight"":10,""ArrowDown,ArrowLeft"":8,""ArrowDown,ArrowRight"":30}","false","ArrowDown","false","","","revaluation","1","92","","",""
"html-keyboard-response","209","1061359","0.0-4.0-2.0-1.46","spark_pilot_2","7137","2","9","Female","","","","","","","null","<div style=""font-size:60px;"">+</div>","null","fixation","","","","","","","","","","","93","","",""
"revaluation","210","1067384","0.0-4.0-2.0-0.47","spark_pilot_2","7137","2","9","Female","","false","","","","","[446.40000009536743,482.40000009536743]","./assets/img/ocean/memory/22.jpg","[""ArrowDown"",""ArrowRight""]","value training","ocean","30","{""ArrowUp,ArrowLeft"":23,""ArrowUp,ArrowRight"":10,""ArrowDown,ArrowLeft"":8,""ArrowDown,ArrowRight"":30}","true","ArrowDown,ArrowRight","false","","","revaluation","1","94","","",""
"html-keyboard-response","211","1067887","0.0-4.0-2.0-1.47","spark_pilot_2","7137","2","9","Female","","","","","","","null","<div style=""font-size:60px;"">+</div>","null","fixation","","","","","","","","","","","95","","",""
"revaluation","212","1073912","0.0-4.0-2.0-0.48","spark_pilot_2","7137","2","9","Female","","false","","","","","[496.7000000476837,494]","./assets/img/ocean/memory/37.jpg","[""ArrowDown"",""ArrowRight""]","value training","ocean","30","{""ArrowUp,ArrowLeft"":23,""ArrowUp,ArrowRight"":10,""ArrowDown,ArrowLeft"":8,""ArrowDown,ArrowRight"":30}","true","ArrowDown,ArrowRight","false","","","revaluation","1","96","","",""
"html-keyboard-response","213","1074416","0.0-4.0-2.0-1.48","spark_pilot_2","7137","2","9","Female","","","","","","","null","<div style=""font-size:60px;"">+</div>","null","fixation","","","","","","","","","","","97","","",""
"revaluation","214","1080440","0.0-4.0-2.0-0.49","spark_pilot_2","7137","2","9","Female","","false","","","","","[378.39999985694885,449.5]","./assets/img/ocean/memory/12.jpg","[""ArrowDown"",""ArrowRight""]","value training","ocean","30","{""ArrowUp,ArrowLeft"":23,""ArrowUp,ArrowRight"":10,""ArrowDown,ArrowLeft"":8,""ArrowDown,ArrowRight"":30}","true","ArrowDown,ArrowRight","false","","","revaluation","1","98","","",""
"html-keyboard-response","215","1080944","0.0-4.0-2.0-1.49","spark_pilot_2","7137","2","9","Female","","","","","","","null","<div style=""font-size:60px;"">+</div>","null","fixation","","","","","","","","","","","99","","",""
"learning-instructions","216","1095717","0.0-4.0-3.0-0.0","spark_pilot_2","7137","2","9","Female","","","","","","","1884.2999999523163","<p> Now, you will travel with a friend who will choose whether you go up or down first. </p>
            <p> On these turns, you will just see the animal that they found. You will still get to choose which chest to search for treasure.</p>","","instructions","","","","","","","","","","","","","",""
"revaluation","217","1099751","0.0-4.0-4.0-0.0","spark_pilot_2","7137","2","9","Female","","true","","","","","[]","./assets/img/ocean/animals/seahorse.jpg","[]","revaluation","ocean","-5","{""ArrowUp,ArrowLeft"":27,""ArrowUp,ArrowRight"":15,""ArrowDown,ArrowLeft"":21,""ArrowDown,ArrowRight"":7}","false","ArrowUp","","","","revaluation","1","0","","",""
"html-keyboard-response","218","1100261","0.0-4.0-4.0-1.0","spark_pilot_2","7137","2","9","Female","","","","","","","null","<div style=""font-size:60px;"">+</div>","null","fixation","","","","","","","","","","","1","","",""
"revaluation","219","1104281","0.0-4.0-4.0-0.1","spark_pilot_2","7137","2","9","Female","","false","","","","","[1050.7000000476837]","./assets/img/ocean/animals/octopus.jpg","[""ArrowRight""]","revaluation","ocean","7","{""ArrowUp,ArrowLeft"":27,""ArrowUp,ArrowRight"":15,""ArrowDown,ArrowLeft"":21,""ArrowDown,ArrowRight"":7}","false","ArrowDown,ArrowRight","","","","revaluation","1","2","","",""
"html-keyboard-response","220","1104801","0.0-4.0-4.0-1.1","spark_pilot_2","7137","2","9","Female","","","","","","","null","<div style=""font-size:60px;"">+</div>","null","fixation","","","","","","","","","","","3","","",""
"revaluation","221","1108831","0.0-4.0-4.0-0.2","spark_pilot_2","7137","2","9","Female","","false","","","","","[705.2999999523163]","./assets/img/ocean/animals/octopus.jpg","[""ArrowLeft""]","revaluation","ocean","21","{""ArrowUp,ArrowLeft"":27,""ArrowUp,ArrowRight"":15,""ArrowDown,ArrowLeft"":21,""ArrowDown,ArrowRight"":7}","true","ArrowDown,ArrowLeft","","","","revaluation","1","4","","",""
"html-keyboard-response","222","1109341","0.0-4.0-4.0-1.2","spark_pilot_2","7137","2","9","Female","","","","","","","null","<div style=""font-size:60px;"">+</div>","null","fixation","","","","","","","","","","","5","","",""
"revaluation","223","1113371","0.0-4.0-4.0-0.3","spark_pilot_2","7137","2","9","Female","","false","","","","","[1167.2999999523163]","./assets/img/ocean/animals/seahorse.jpg","[""ArrowLeft""]","revaluation","ocean","27","{""ArrowUp,ArrowLeft"":27,""ArrowUp,ArrowRight"":15,""ArrowDown,ArrowLeft"":21,""ArrowDown,ArrowRight"":7}","true","ArrowUp,ArrowLeft","","","","revaluation","1","6","","",""
"html-keyboard-response","224","1113881","0.0-4.0-4.0-1.3","spark_pilot_2","7137","2","9","Female","","","","","","","null","<div style=""font-size:60px;"">+</div>","null","fixation","","","","","","","","","","","7","","",""
"revaluation","225","1117901","0.0-4.0-4.0-0.4","spark_pilot_2","7137","2","9","Female","","false","","","","","[822.5]","./assets/img/ocean/animals/octopus.jpg","[""ArrowLeft""]","revaluation","ocean","21","{""ArrowUp,ArrowLeft"":27,""ArrowUp,ArrowRight"":15,""ArrowDown,ArrowLeft"":21,""ArrowDown,ArrowRight"":7}","true","ArrowDown,ArrowLeft","","","","revaluation","1","8","","",""
"html-keyboard-response","226","1118411","0.0-4.0-4.0-1.4","spark_pilot_2","7137","2","9","Female","","","","","","","null","<div style=""font-size:60px;"">+</div>","null","fixation","","","","","","","","","","","9","","",""
"revaluation","227","1122451","0.0-4.0-4.0-0.5","spark_pilot_2","7137","2","9","Female","","false","","","","","[513.0999999046326]","./assets/img/ocean/animals/seahorse.jpg","[""ArrowLeft""]","revaluation","ocean","27","{""ArrowUp,ArrowLeft"":27,""ArrowUp,ArrowRight"":15,""ArrowDown,ArrowLeft"":21,""ArrowDown,ArrowRight"":7}","true","ArrowUp,ArrowLeft","","","","revaluation","1","10","","",""
"html-keyboard-response","228","1122971","0.0-4.0-4.0-1.5","spark_pilot_2","7137","2","9","Female","","","","","","","null","<div style=""font-size:60px;"">+</div>","null","fixation","","","","","","","","","","","11","","",""
"revaluation","229","1126984","0.0-4.0-4.0-0.6","spark_pilot_2","7137","2","9","Female","","false","","","","","[523.5999999046326]","./assets/img/ocean/animals/octopus.jpg","[""ArrowLeft""]","revaluation","ocean","21","{""ArrowUp,ArrowLeft"":27,""ArrowUp,ArrowRight"":15,""ArrowDown,ArrowLeft"":21,""ArrowDown,ArrowRight"":7}","true","ArrowDown,ArrowLeft","","","","revaluation","1","12","","",""
"html-keyboard-response","230","1127487","0.0-4.0-4.0-1.6","spark_pilot_2","7137","2","9","Female","","","","","","","null","<div style=""font-size:60px;"">+</div>","null","fixation","","","","","","","","","","","13","","",""
"revaluation","231","1131504","0.0-4.0-4.0-0.7","spark_pilot_2","7137","2","9","Female","","false","","","","","[337.2000000476837]","./assets/img/ocean/animals/seahorse.jpg","[""ArrowRight""]","revaluation","ocean","15","{""ArrowUp,ArrowLeft"":27,""ArrowUp,ArrowRight"":15,""ArrowDown,ArrowLeft"":21,""ArrowDown,ArrowRight"":7}","false","ArrowUp,ArrowRight","","","","revaluation","1","14","","",""
"html-keyboard-response","232","1132007","0.0-4.0-4.0-1.7","spark_pilot_2","7137","2","9","Female","","","","","","","null","<div style=""font-size:60px;"">+</div>","null","fixation","","","","","","","","","","","15","","",""
"revaluation","233","1136024","0.0-4.0-4.0-0.8","spark_pilot_2","7137","2","9","Female","","false","","","","","[486.40000009536743]","./assets/img/ocean/animals/seahorse.jpg","[""ArrowLeft""]","revaluation","ocean","27","{""ArrowUp,ArrowLeft"":27,""ArrowUp,ArrowRight"":15,""ArrowDown,ArrowLeft"":21,""ArrowDown,ArrowRight"":7}","true","ArrowUp,ArrowLeft","","","","revaluation","1","16","","",""
"html-keyboard-response","234","1136527","0.0-4.0-4.0-1.8","spark_pilot_2","7137","2","9","Female","","","","","","","null","<div style=""font-size:60px;"">+</div>","null","fixation","","","","","","","","","","","17","","",""
"revaluation","235","1140545","0.0-4.0-4.0-0.9","spark_pilot_2","7137","2","9","Female","","false","","","","","[431.7000000476837]","./assets/img/ocean/animals/seahorse.jpg","[""ArrowLeft""]","revaluation","ocean","27","{""ArrowUp,ArrowLeft"":27,""ArrowUp,ArrowRight"":15,""ArrowDown,ArrowLeft"":21,""ArrowDown,ArrowRight"":7}","true","ArrowUp,ArrowLeft","","","","revaluation","1","18","","",""
"html-keyboard-response","236","1141047","0.0-4.0-4.0-1.9","spark_pilot_2","7137","2","9","Female","","","","","","","null","<div style=""font-size:60px;"">+</div>","null","fixation","","","","","","","","","","","19","","",""
"revaluation","237","1145064","0.0-4.0-4.0-0.10","spark_pilot_2","7137","2","9","Female","","false","","","","","[331.2000000476837]","./assets/img/ocean/animals/seahorse.jpg","[""ArrowLeft""]","revaluation","ocean","27","{""ArrowUp,ArrowLeft"":27,""ArrowUp,ArrowRight"":15,""ArrowDown,ArrowLeft"":21,""ArrowDown,ArrowRight"":7}","true","ArrowUp,ArrowLeft","","","","revaluation","1","20","","",""
"html-keyboard-response","238","1145567","0.0-4.0-4.0-1.10","spark_pilot_2","7137","2","9","Female","","","","","","","null","<div style=""font-size:60px;"">+</div>","null","fixation","","","","","","","","","","","21","","",""
"revaluation","239","1149583","0.0-4.0-4.0-0.11","spark_pilot_2","7137","2","9","Female","","false","","","","","[474.5]","./assets/img/ocean/animals/octopus.jpg","[""ArrowRight""]","revaluation","ocean","7","{""ArrowUp,ArrowLeft"":27,""ArrowUp,ArrowRight"":15,""ArrowDown,ArrowLeft"":21,""ArrowDown,ArrowRight"":7}","false","ArrowDown,ArrowRight","","","","revaluation","1","22","","",""
"html-keyboard-response","240","1150087","0.0-4.0-4.0-1.11","spark_pilot_2","7137","2","9","Female","","","","","","","null","<div style=""font-size:60px;"">+</div>","null","fixation","","","","","","","","","","","23","","",""
"revaluation","241","1154103","0.0-4.0-4.0-0.12","spark_pilot_2","7137","2","9","Female","","false","","","","","[447.09999990463257]","./assets/img/ocean/animals/seahorse.jpg","[""ArrowLeft""]","revaluation","ocean","27","{""ArrowUp,ArrowLeft"":27,""ArrowUp,ArrowRight"":15,""ArrowDown,ArrowLeft"":21,""ArrowDown,ArrowRight"":7}","true","ArrowUp,ArrowLeft","","","","revaluation","1","24","","",""
"html-keyboard-response","242","1154607","0.0-4.0-4.0-1.12","spark_pilot_2","7137","2","9","Female","","","","","","","null","<div style=""font-size:60px;"">+</div>","null","fixation","","","","","","","","","","","25","","",""
"revaluation","243","1158623","0.0-4.0-4.0-0.13","spark_pilot_2","7137","2","9","Female","","false","","","","","[389.5]","./assets/img/ocean/animals/octopus.jpg","[""ArrowLeft""]","revaluation","ocean","21","{""ArrowUp,ArrowLeft"":27,""ArrowUp,ArrowRight"":15,""ArrowDown,ArrowLeft"":21,""ArrowDown,ArrowRight"":7}","true","ArrowDown,ArrowLeft","","","","revaluation","1","26","","",""
"html-keyboard-response","244","1159128","0.0-4.0-4.0-1.13","spark_pilot_2","7137","2","9","Female","","","","","","","null","<div style=""font-size:60px;"">+</div>","null","fixation","","","","","","","","","","","27","","",""
"revaluation","245","1163144","0.0-4.0-4.0-0.14","spark_pilot_2","7137","2","9","Female","","false","","","","","[336.7000000476837]","./assets/img/ocean/animals/octopus.jpg","[""ArrowLeft""]","revaluation","ocean","21","{""ArrowUp,ArrowLeft"":27,""ArrowUp,ArrowRight"":15,""ArrowDown,ArrowLeft"":21,""ArrowDown,ArrowRight"":7}","true","ArrowDown,ArrowLeft","","","","revaluation","1","28","","",""
"html-keyboard-response","246","1163648","0.0-4.0-4.0-1.14","spark_pilot_2","7137","2","9","Female","","","","","","","null","<div style=""font-size:60px;"">+</div>","null","fixation","","","","","","","","","","","29","","",""
"revaluation","247","1167664","0.0-4.0-4.0-0.15","spark_pilot_2","7137","2","9","Female","","false","","","","","[445.90000009536743]","./assets/img/ocean/animals/seahorse.jpg","[""ArrowLeft""]","revaluation","ocean","27","{""ArrowUp,ArrowLeft"":27,""ArrowUp,ArrowRight"":15,""ArrowDown,ArrowLeft"":21,""ArrowDown,ArrowRight"":7}","true","ArrowUp,ArrowLeft","","","","revaluation","1","30","","",""
"html-keyboard-response","248","1168168","0.0-4.0-4.0-1.15","spark_pilot_2","7137","2","9","Female","","","","","","","null","<div style=""font-size:60px;"">+</div>","null","fixation","","","","","","","","","","","31","","",""
"revaluation","249","1172184","0.0-4.0-4.0-0.16","spark_pilot_2","7137","2","9","Female","","false","","","","","[309.2000000476837]","./assets/img/ocean/animals/octopus.jpg","[""ArrowLeft""]","revaluation","ocean","21","{""ArrowUp,ArrowLeft"":27,""ArrowUp,ArrowRight"":15,""ArrowDown,ArrowLeft"":21,""ArrowDown,ArrowRight"":7}","true","ArrowDown,ArrowLeft","","","","revaluation","1","32","","",""
"html-keyboard-response","250","1172687","0.0-4.0-4.0-1.16","spark_pilot_2","7137","2","9","Female","","","","","","","null","<div style=""font-size:60px;"">+</div>","null","fixation","","","","","","","","","","","33","","",""
"revaluation","251","1176703","0.0-4.0-4.0-0.17","spark_pilot_2","7137","2","9","Female","","false","","","","","[402]","./assets/img/ocean/animals/octopus.jpg","[""ArrowLeft""]","revaluation","ocean","21","{""ArrowUp,ArrowLeft"":27,""ArrowUp,ArrowRight"":15,""ArrowDown,ArrowLeft"":21,""ArrowDown,ArrowRight"":7}","true","ArrowDown,ArrowLeft","","","","revaluation","1","34","","",""
"html-keyboard-response","252","1177207","0.0-4.0-4.0-1.17","spark_pilot_2","7137","2","9","Female","","","","","","","null","<div style=""font-size:60px;"">+</div>","null","fixation","","","","","","","","","","","35","","",""
"learning-instructions","253","1190455","0.0-4.0-5.0-0.0","spark_pilot_2","7137","2","9","Female","","","","","","","1831","<p> Time to play the dot game! </p>
            <p> For one minute, click the red dots on the following screen as they appear. </p>
            <p><b> Don't look away, as you will earn bonus for clicking dots</b>. </p>","","instructions","","","","","","","","","","","","","",""
"revaluation","254","1250463","0.0-4.0-6.0-0.0","spark_pilot_2","7137","2","9","Female","","","","","","","[70,77,57,69,107,71,85]","","","rest","","70","","","","","0","60000","","","","","",""
"learning-instructions","255","1257910","0.0-4.0-7.0-0.0","spark_pilot_2","7137","2","9","Female","","","","","","","1333.1000001430511","<p> You have almost finished this part of the game! </p>
            <p> We are going to ask you to make a few more choices. </p>","","instructions","","","","","","","","","","","","","",""
"learning-instructions","256","1274338","0.0-4.0-7.0-0.1","spark_pilot_2","7137","2","9","Female","","","","","","","2461.7000000476837","<p> First, you need to decide whether to go up or down. When you see each picture, use the arrow keys to make your choice. </p>
            <p><b>You will not see which animal you found, but try to get to the one that will give you the most treasure.</b></p>","","instructions","","","","","","","","","","","","","",""
"revaluation","257","1275575","0.0-4.0-8.0-0.0","spark_pilot_2","7137","2","9","Female","","false","","","","","[1234.5]","./assets/img/ocean/test/3.jpg","[""ArrowUp""]","first stage test","ocean","0","{""ArrowUp,ArrowLeft"":27,""ArrowUp,ArrowRight"":15,""ArrowDown,ArrowLeft"":21,""ArrowDown,ArrowRight"":7}","true","ArrowUp","false","","","revaluation","1","","","",""
"html-keyboard-response","258","1276083","0.0-4.0-8.0-1.0","spark_pilot_2","7137","2","9","Female","","","","","","","null","<div style=""font-size:60px;"">+</div>","null","fixation","","","","","","","","","","","","","",""
"revaluation","259","1277112","0.0-4.0-8.0-0.1","spark_pilot_2","7137","2","9","Female","","false","","","","","[1026.2999999523163]","./assets/img/ocean/test/0.jpg","[""ArrowUp""]","first stage test","ocean","0","{""ArrowUp,ArrowLeft"":27,""ArrowUp,ArrowRight"":15,""ArrowDown,ArrowLeft"":21,""ArrowDown,ArrowRight"":7}","true","ArrowUp","false","","","revaluation","1","","","",""
"html-keyboard-response","260","1277625","0.0-4.0-8.0-1.1","spark_pilot_2","7137","2","9","Female","","","","","","","null","<div style=""font-size:60px;"">+</div>","null","fixation","","","","","","","","","","","","","",""
"revaluation","261","1278832","0.0-4.0-8.0-0.2","spark_pilot_2","7137","2","9","Female","","false","","","","","[1204.3999998569489]","./assets/img/ocean/test/2.jpg","[""ArrowUp""]","first stage test","ocean","0","{""ArrowUp,ArrowLeft"":27,""ArrowUp,ArrowRight"":15,""ArrowDown,ArrowLeft"":21,""ArrowDown,ArrowRight"":7}","true","ArrowUp","false","","","revaluation","1","","","",""
"html-keyboard-response","262","1279346","0.0-4.0-8.0-1.2","spark_pilot_2","7137","2","9","Female","","","","","","","null","<div style=""font-size:60px;"">+</div>","null","fixation","","","","","","","","","","","","","",""
"revaluation","263","1280346","0.0-4.0-8.0-0.3","spark_pilot_2","7137","2","9","Female","","false","","","","","[997.9000000953674]","./assets/img/ocean/test/1.jpg","[""ArrowUp""]","first stage test","ocean","0","{""ArrowUp,ArrowLeft"":27,""ArrowUp,ArrowRight"":15,""ArrowDown,ArrowLeft"":21,""ArrowDown,ArrowRight"":7}","true","ArrowUp","false","","","revaluation","1","","","",""
"html-keyboard-response","264","1280855","0.0-4.0-8.0-1.3","spark_pilot_2","7137","2","9","Female","","","","","","","null","<div style=""font-size:60px;"">+</div>","null","fixation","","","","","","","","","","","","","",""
"learning-instructions","265","1292897","0.0-4.0-9.0-0.0","spark_pilot_2","7137","2","9","Female","","","","","","","700.4000000953674","<p> Now you will see the animals again and can search their chests for treasure. </p>
            <p> This time, you will not see how much treasure you earned, but you will earn more bonus money for making better choices. </p>","","instructions","","","","","","","","","","","","","",""
"revaluation","266","1294116","0.0-4.0-10.0-0.0","spark_pilot_2","7137","2","9","Female","","false","","","","","[1217.1999998092651]","./assets/img/ocean/animals/seahorse.jpg","[""ArrowLeft""]","second stage test","ocean","0","{""ArrowUp,ArrowLeft"":27,""ArrowUp,ArrowRight"":15,""ArrowDown,ArrowLeft"":21,""ArrowDown,ArrowRight"":7}","true","ArrowUp,ArrowLeft","","","","revaluation","1","","","",""
"html-keyboard-response","267","1294637","0.0-4.0-10.0-1.0","spark_pilot_2","7137","2","9","Female","","","","","","","null","<div style=""font-size:60px;"">+</div>","null","fixation","","","","","","","","","","","","","",""
"revaluation","268","1295510","0.0-4.0-10.0-0.1","spark_pilot_2","7137","2","9","Female","","false","","","","","[869.2999999523163]","./assets/img/ocean/animals/seahorse.jpg","[""ArrowRight""]","second stage test","ocean","0","{""ArrowUp,ArrowLeft"":27,""ArrowUp,ArrowRight"":15,""ArrowDown,ArrowLeft"":21,""ArrowDown,ArrowRight"":7}","false","ArrowUp,ArrowRight","","","","revaluation","1","","","",""
"html-keyboard-response","269","1296035","0.0-4.0-10.0-1.1","spark_pilot_2","7137","2","9","Female","","","","","","","null","<div style=""font-size:60px;"">+</div>","null","fixation","","","","","","","","","","","","","",""
"revaluation","270","1297015","0.0-4.0-10.0-0.2","spark_pilot_2","7137","2","9","Female","","false","","","","","[977.0999999046326]","./assets/img/ocean/animals/seahorse.jpg","[""ArrowLeft""]","second stage test","ocean","0","{""ArrowUp,ArrowLeft"":27,""ArrowUp,ArrowRight"":15,""ArrowDown,ArrowLeft"":21,""ArrowDown,ArrowRight"":7}","true","ArrowUp,ArrowLeft","","","","revaluation","1","","","",""
"html-keyboard-response","271","1297535","0.0-4.0-10.0-1.2","spark_pilot_2","7137","2","9","Female","","","","","","","null","<div style=""font-size:60px;"">+</div>","null","fixation","","","","","","","","","","","","","",""
"revaluation","272","1297962","0.0-4.0-10.0-0.3","spark_pilot_2","7137","2","9","Female","","false","","","","","[425]","./assets/img/ocean/animals/seahorse.jpg","[""ArrowRight""]","second stage test","ocean","0","{""ArrowUp,ArrowLeft"":27,""ArrowUp,ArrowRight"":15,""ArrowDown,ArrowLeft"":21,""ArrowDown,ArrowRight"":7}","false","ArrowUp,ArrowRight","","","","revaluation","1","","","",""
"html-keyboard-response","273","1298475","0.0-4.0-10.0-1.3","spark_pilot_2","7137","2","9","Female","","","","","","","null","<div style=""font-size:60px;"">+</div>","null","fixation","","","","","","","","","","","","","",""
"revaluation","274","1299280","0.0-4.0-10.0-0.4","spark_pilot_2","7137","2","9","Female","","false","","","","","[802.5]","./assets/img/ocean/animals/octopus.jpg","[""ArrowLeft""]","second stage test","ocean","0","{""ArrowUp,ArrowLeft"":27,""ArrowUp,ArrowRight"":15,""ArrowDown,ArrowLeft"":21,""ArrowDown,ArrowRight"":7}","true","ArrowDown,ArrowLeft","","","","revaluation","1","","","",""
"html-keyboard-response","275","1299795","0.0-4.0-10.0-1.4","spark_pilot_2","7137","2","9","Female","","","","","","","null","<div style=""font-size:60px;"">+</div>","null","fixation","","","","","","","","","","","","","",""
"revaluation","276","1300279","0.0-4.0-10.0-0.5","spark_pilot_2","7137","2","9","Female","","false","","","","","[481.7000000476837]","./assets/img/ocean/animals/octopus.jpg","[""ArrowRight""]","second stage test","ocean","0","{""ArrowUp,ArrowLeft"":27,""ArrowUp,ArrowRight"":15,""ArrowDown,ArrowLeft"":21,""ArrowDown,ArrowRight"":7}","false","ArrowDown,ArrowRight","","","","revaluation","1","","","",""
"html-keyboard-response","277","1300785","0.0-4.0-10.0-1.5","spark_pilot_2","7137","2","9","Female","","","","","","","null","<div style=""font-size:60px;"">+</div>","null","fixation","","","","","","","","","","","","","",""
"revaluation","278","1301303","0.0-4.0-10.0-0.6","spark_pilot_2","7137","2","9","Female","","false","","","","","[515.3000001907349]","./assets/img/ocean/animals/octopus.jpg","[""ArrowLeft""]","second stage test","ocean","0","{""ArrowUp,ArrowLeft"":27,""ArrowUp,ArrowRight"":15,""ArrowDown,ArrowLeft"":21,""ArrowDown,ArrowRight"":7}","true","ArrowDown,ArrowLeft","","","","revaluation","1","","","",""
"html-keyboard-response","279","1301825","0.0-4.0-10.0-1.6","spark_pilot_2","7137","2","9","Female","","","","","","","null","<div style=""font-size:60px;"">+</div>","null","fixation","","","","","","","","","","","","","",""
"revaluation","280","1302218","0.0-4.0-10.0-0.7","spark_pilot_2","7137","2","9","Female","","false","","","","","[390.19999980926514]","./assets/img/ocean/animals/octopus.jpg","[""ArrowRight""]","second stage test","ocean","0","{""ArrowUp,ArrowLeft"":27,""ArrowUp,ArrowRight"":15,""ArrowDown,ArrowLeft"":21,""ArrowDown,ArrowRight"":7}","false","ArrowDown,ArrowRight","","","","revaluation","1","","","",""
"html-keyboard-response","281","1302735","0.0-4.0-10.0-1.7","spark_pilot_2","7137","2","9","Female","","","","","","","null","<div style=""font-size:60px;"">+</div>","null","fixation","","","","","","","","","","","","","",""
"learning-instructions","282","1306317","0.0-4.0-0.1-0.2","spark_pilot_2","7137","2","9","Female","","","","","","","809.7999999523163","<p> This time you are searching for treasure in the <b>canyon</b>.</p>","","instructions","","","","","","","","","","","","","",""
"learning-instructions","283","1324497","0.0-4.0-0.1-0.3","spark_pilot_2","7137","2","9","Female","","","","","","","920","<p><b>New</b> animals with <b>new</b> treasure chests live here. You need to explore to discover where the animal with the best treasure chest is.</p>
                    <p> Like before, once you figure out which animal has the chest with the most treasure, you should try to get to that animal and select that chest! </p>","","instructions","","","","","","","","","","","","","",""
"learning-instructions","284","1340563","0.0-4.0-1.1-0.1","spark_pilot_2","7137","2","9","Female","","","","","","","1336.0999999046326","<p> Remember, when you see a picture of the place, use the up and down keys to <b>find an animal</b>.</p>
            <p> When you encounter an animal, you should use the left and right keys to <b>select a treasure chest</b>.</p>
            <p> Don't forget to look out for the robber! </p>","","instructions","","","","","","","","","","","","","",""
"revaluation","285","1346595","0.0-4.0-2.1-0.50","spark_pilot_2","7137","2","9","Female","","false","","","","","[706.6000001430511,627.9000000953674]","./assets/img/canyon/memory/21.jpg","[""ArrowUp"",""ArrowRight""]","value training","canyon","10","{""ArrowUp,ArrowLeft"":26,""ArrowUp,ArrowRight"":10,""ArrowDown,ArrowLeft"":5,""ArrowDown,ArrowRight"":17}","false","ArrowUp,ArrowRight","false","","","original","2","0","","",""
"html-keyboard-response","286","1347111","0.0-4.0-2.1-1.50","spark_pilot_2","7137","2","9","Female","","","","","","","null","<div style=""font-size:60px;"">+</div>","null","fixation","","","","","","","","","","","1","","",""
"revaluation","287","1353154","0.0-4.0-2.1-0.51","spark_pilot_2","7137","2","9","Female","","false","","","","","[373.7000000476837,357.60000014305115]","./assets/img/canyon/memory/27.jpg","[""ArrowUp"",""ArrowLeft""]","value training","canyon","26","{""ArrowUp,ArrowLeft"":26,""ArrowUp,ArrowRight"":10,""ArrowDown,ArrowLeft"":5,""ArrowDown,ArrowRight"":17}","true","ArrowUp,ArrowLeft","false","","","original","2","2","","",""
"html-keyboard-response","288","1353674","0.0-4.0-2.1-1.51","spark_pilot_2","7137","2","9","Female","","","","","","","null","<div style=""font-size:60px;"">+</div>","null","fixation","","","","","","","","","","","3","","",""
"revaluation","289","1359723","0.0-4.0-2.1-0.52","spark_pilot_2","7137","2","9","Female","","false","","","","","[340.10000014305115,380]","./assets/img/canyon/memory/11.jpg","[""ArrowDown"",""ArrowRight""]","value training","canyon","17","{""ArrowUp,ArrowLeft"":26,""ArrowUp,ArrowRight"":10,""ArrowDown,ArrowLeft"":5,""ArrowDown,ArrowRight"":17}","false","ArrowDown,ArrowRight","false","","","original","2","4","","",""
"html-keyboard-response","290","1360234","0.0-4.0-2.1-1.52","spark_pilot_2","7137","2","9","Female","","","","","","","null","<div style=""font-size:60px;"">+</div>","null","fixation","","","","","","","","","","","5","","",""
"revaluation","291","1366274","0.0-4.0-2.1-0.53","spark_pilot_2","7137","2","9","Female","","false","","","","","[327,333.7000000476837]","./assets/img/canyon/memory/27.jpg","[""ArrowDown"",""ArrowLeft""]","value training","canyon","5","{""ArrowUp,ArrowLeft"":26,""ArrowUp,ArrowRight"":10,""ArrowDown,ArrowLeft"":5,""ArrowDown,ArrowRight"":17}","false","ArrowDown,ArrowLeft","false","","","original","2","6","","",""
"html-keyboard-response","292","1366793","0.0-4.0-2.1-1.53","spark_pilot_2","7137","2","9","Female","","","","","","","null","<div style=""font-size:60px;"">+</div>","null","fixation","","","","","","","","","","","7","","",""
"revaluation","293","1370807","0.0-4.0-2.1-0.54","spark_pilot_2","7137","2","9","Female","","false","","","","","[331]","./assets/img/canyon/catch/5.jpg","[""ArrowUp""]","value training","canyon","-10","{""ArrowUp,ArrowLeft"":26,""ArrowUp,ArrowRight"":10,""ArrowDown,ArrowLeft"":5,""ArrowDown,ArrowRight"":17}","false","ArrowUp","true","","","original","2","8","","",""
"html-keyboard-response","294","1371312","0.0-4.0-2.1-1.54","spark_pilot_2","7137","2","9","Female","","","","","","","null","<div style=""font-size:60px;"">+</div>","null","fixation","","","","","","","","","","","9","","",""
"revaluation","295","1377335","0.0-4.0-2.1-0.55","spark_pilot_2","7137","2","9","Female","","false","","","","","[395.89999985694885,424.89999985694885]","./assets/img/canyon/memory/29.jpg","[""ArrowUp"",""ArrowLeft""]","value training","canyon","26","{""ArrowUp,ArrowLeft"":26,""ArrowUp,ArrowRight"":10,""ArrowDown,ArrowLeft"":5,""ArrowDown,ArrowRight"":17}","true","ArrowUp,ArrowLeft","false","","","original","2","10","","",""
"html-keyboard-response","296","1377839","0.0-4.0-2.1-1.55","spark_pilot_2","7137","2","9","Female","","","","","","","null","<div style=""font-size:60px;"">+</div>","null","fixation","","","","","","","","","","","11","","",""
"revaluation","297","1383863","0.0-4.0-2.1-0.56","spark_pilot_2","7137","2","9","Female","","false","","","","","[605.5,383.5]","./assets/img/canyon/memory/20.jpg","[""ArrowUp"",""ArrowLeft""]","value training","canyon","26","{""ArrowUp,ArrowLeft"":26,""ArrowUp,ArrowRight"":10,""ArrowDown,ArrowLeft"":5,""ArrowDown,ArrowRight"":17}","true","ArrowUp,ArrowLeft","false","","","original","2","12","","",""
"html-keyboard-response","298","1384367","0.0-4.0-2.1-1.56","spark_pilot_2","7137","2","9","Female","","","","","","","null","<div style=""font-size:60px;"">+</div>","null","fixation","","","","","","","","","","","13","","",""
"revaluation","299","1390391","0.0-4.0-2.1-0.57","spark_pilot_2","7137","2","9","Female","","false","","","","","[630.2000000476837,397.2999999523163]","./assets/img/canyon/memory/23.jpg","[""ArrowUp"",""ArrowLeft""]","value training","canyon","26","{""ArrowUp,ArrowLeft"":26,""ArrowUp,ArrowRight"":10,""ArrowDown,ArrowLeft"":5,""ArrowDown,ArrowRight"":17}","true","ArrowUp,ArrowLeft","false","","","original","2","14","","",""
"html-keyboard-response","300","1390895","0.0-4.0-2.1-1.57","spark_pilot_2","7137","2","9","Female","","","","","","","null","<div style=""font-size:60px;"">+</div>","null","fixation","","","","","","","","","","","15","","",""
"revaluation","301","1396919","0.0-4.0-2.1-0.58","spark_pilot_2","7137","2","9","Female","","false","","","","","[537.5,300.7999999523163]","./assets/img/canyon/memory/31.jpg","[""ArrowUp"",""ArrowLeft""]","value training","canyon","26","{""ArrowUp,ArrowLeft"":26,""ArrowUp,ArrowRight"":10,""ArrowDown,ArrowLeft"":5,""ArrowDown,ArrowRight"":17}","true","ArrowUp,ArrowLeft","false","","","original","2","16","","",""
"html-keyboard-response","302","1397423","0.0-4.0-2.1-1.58","spark_pilot_2","7137","2","9","Female","","","","","","","null","<div style=""font-size:60px;"">+</div>","null","fixation","","","","","","","","","","","17","","",""
"revaluation","303","1401440","0.0-4.0-2.1-0.59","spark_pilot_2","7137","2","9","Female","","false","","","","","[571.5999999046326]","./assets/img/canyon/catch/7.jpg","[""spaceBar""]","value training","canyon","0","{""ArrowUp,ArrowLeft"":26,""ArrowUp,ArrowRight"":10,""ArrowDown,ArrowLeft"":5,""ArrowDown,ArrowRight"":17}","true","spaceBar","true","","","original","2","18","","",""
"html-keyboard-response","304","1401943","0.0-4.0-2.1-1.59","spark_pilot_2","7137","2","9","Female","","","","","","","null","<div style=""font-size:60px;"">+</div>","null","fixation","","","","","","","","","","","19","","",""
"revaluation","305","1407975","0.0-4.0-2.1-0.60","spark_pilot_2","7137","2","9","Female","","false","","","","","[549.2999999523163,510.90000009536743]","./assets/img/canyon/memory/37.jpg","[""ArrowUp"",""ArrowLeft""]","value training","canyon","26","{""ArrowUp,ArrowLeft"":26,""ArrowUp,ArrowRight"":10,""ArrowDown,ArrowLeft"":5,""ArrowDown,ArrowRight"":17}","true","ArrowUp,ArrowLeft","false","","","original","2","20","","",""
"html-keyboard-response","306","1408479","0.0-4.0-2.1-1.60","spark_pilot_2","7137","2","9","Female","","","","","","","null","<div style=""font-size:60px;"">+</div>","null","fixation","","","","","","","","","","","21","","",""
