"trial_type","trial_index","time_elapsed","internal_node_id","task_version","subject_id","assigned_condition","age","gender","browser_interaction","success","timeout","failed_images","failed_audio","failed_video","rt","stimulus","response","task_part","environment","score","rewardMap","correct","fullState","isCatch","numberMissed","duration","condition","order","trial_num","key_press","ground_truth","bonus"
"pavlovia","0","1689","0.0-0.0","spark_pilot_2","7982","2","17","Female","[{""event"":""blur"",""trial"":1,""time"":8695},{""event"":""focus"",""trial"":1,""time"":25803},{""event"":""fullscreenenter"",""trial"":2,""time"":82035},{""event"":""blur"",""trial"":284,""time"":1333918},{""event"":""fullscreenexit"",""trial"":284,""time"":1333923},{""event"":""focus"",""trial"":284,""time"":1333929},{""event"":""blur"",""trial"":287,""time"":1348055},{""event"":""focus"",""trial"":287,""time"":1348062},{""event"":""blur"",""trial"":289,""time"":1351764},{""event"":""focus"",""trial"":289,""time"":1354302},{""event"":""blur"",""trial"":423,""time"":1799161},{""event"":""focus"",""trial"":423,""time"":1802315},{""event"":""blur"",""trial"":462,""time"":1962065},{""event"":""focus"",""trial"":462,""time"":1967507},{""event"":""blur"",""trial"":485,""time"":2036540},{""event"":""focus"",""trial"":487,""time"":2038206},{""event"":""blur"",""trial"":553,""time"":2127946},{""event"":""focus"",""trial"":553,""time"":2130638}]","","","","","","","","","","","","","","","","","","","","","","",""
"preload","1","78901","0.0-1.0","spark_pilot_2","7982","2","17","Female","[{""event"":""blur"",""trial"":1,""time"":8695},{""event"":""focus"",""trial"":1,""time"":25803},{""event"":""fullscreenenter"",""trial"":2,""time"":82035},{""event"":""blur"",""trial"":284,""time"":1333918},{""event"":""fullscreenexit"",""trial"":284,""time"":1333923},{""event"":""focus"",""trial"":284,""time"":1333929},{""event"":""blur"",""trial"":287,""time"":1348055},{""event"":""focus"",""trial"":287,""time"":1348062},{""event"":""blur"",""trial"":289,""time"":1351764},{""event"":""focus"",""trial"":289,""time"":1354302},{""event"":""blur"",""trial"":423,""time"":1799161},{""event"":""focus"",""trial"":423,""time"":1802315},{""event"":""blur"",""trial"":462,""time"":1962065},{""event"":""focus"",""trial"":462,""time"":1967507},{""event"":""blur"",""trial"":485,""time"":2036540},{""event"":""focus"",""trial"":487,""time"":2038206},{""event"":""blur"",""trial"":553,""time"":2127946},{""event"":""focus"",""trial"":553,""time"":2130638}]","true","false","[]","[]","[]","","","","","","","","","","","","","","","","","",""
"fullscreen","2","83004","0.0-2.0","spark_pilot_2","7982","2","17","Female","","true","","","","","","","","","","","","","","","","","","","","","",""
"audio-button-response","3","84201","0.0-3.0-0.0-0.0","spark_pilot_2","7982","2","17","Female","","","","","","","1120","./assets/audio/audiotest/turtle.mp3","2","audio_test","","","","","","","","","","","","","",""
"learning-instructions","4","99695","0.0-3.0-1.0-0.0","spark_pilot_2","7982","2","17","Female","","","","","","","8492","<p> Welcome! Please remember to stay in fullscreen mode and don't click away from the experiment. </p>","","instructions","","","","","","","","","","","","","",""
"learning-instructions","5","114189","0.0-3.0-1.0-0.1","spark_pilot_2","7982","2","17","Female","","","","","","","6070","<p> Today you will be playing a game to earn treasure. </p>
            <p> At the end of the experiment, you will earn a bonus based on how much treasure you find. </p>
            <img src='./assets/img/instructions/treasure.jpg' class='instructions-image'>","","instructions","","","","","","","","","","","","","",""
"learning-instructions","6","129597","0.0-3.0-1.0-0.2","spark_pilot_2","7982","2","17","Female","","","","","","","7139.5","<p> Animals have hidden treasure in treasure chests. </p>
            <p> You need to first find an animal and then choose which of their treasure chests to search. </p>
            <img src='./assets/img/space/animals/cat.jpg' class='instructions-image'>","","instructions","","","","","","","","","","","","","",""
"learning-instructions","7","146502","0.0-3.0-1.0-0.3","spark_pilot_2","7982","2","17","Female","","","","","","","3733.800000011921","<p> In each round, you will search for treasure in a different place. In the real game, there will be two rounds. </p>
            <p> You will begin with a separate, practice round where you will search for treasure in outer space. </p>
            <img src='./assets/img/space/0.jpg' class='instructions-image'>","","instructions","","","","","","","","","","","","","",""
"learning-instructions","8","160646","0.0-3.0-1.0-0.4","spark_pilot_2","7982","2","17","Female","","","","","","","2718.5","<p> On every turn, you will see a picture of the place that you are in, but the specific image may be different each time. </p>
            <p> For example, both of these images mean you are in outer space. </p>
            <img src='./assets/img/instructions/outerspace.jpg' class='instructions-image'>","","instructions","","","","","","","","","","","","","",""
"learning-instructions","9","172206","0.0-3.0-1.0-0.5","spark_pilot_2","7982","2","17","Female","","","","","","","3717.9000000059605","<p> You need to decide which direction to travel in. </p>
            <p> You can choose between going <b>up or down</b> by using the arrow keys. </p>
            <img src='./assets/img/instructions/updown.jpg' class='instructions-image'>","","instructions","","","","","","","","","","","","","",""
"learning-instructions","10","185653","0.0-3.0-1.0-0.6","spark_pilot_2","7982","2","17","Female","","","","","","","4614.399999976158","<p> You will have <b>2 seconds</b> to make your choice. </p>
            <p> If you do not make a choice within 2 seconds, you will not find an animal or earn treasure. </p>
            <img src='./assets/img/instructions/2seconds.jpg' class='instructions-image'>","","instructions","","","","","","","","","","","","","",""
"learning-instructions","11","195777","0.0-3.0-1.0-0.7","spark_pilot_2","7982","2","17","Female","","","","","","","3087.699999988079","<p> Let’s try practicing that now! </p>
            <p> When you see a picture of the place you are in, press the <b>up</b> key to travel up. </p>
            <img src='./assets/img/instructions/pressUp.jpg' class='instructions-image'>","","instructions","","","","","","","","","","","","","",""
"revaluation","12","199815","0.0-3.0-2.0-0.0","spark_pilot_2","7982","2","17","Female","","","false","","","","[837.1000000238419]","./assets/img/space/0.jpg","[""ArrowUp""]","first stage practice","space","0","null","null","ArrowUp","false","","","","","","","",""
"html-keyboard-response","13","200327","0.0-3.0-2.0-1.0","spark_pilot_2","7982","2","17","Female","","","","","","","null","<div style=""font-size:60px;"">+</div>","null","fixation","","","","","","","","","","","","","",""
"revaluation","14","204347","0.0-3.0-2.0-0.1","spark_pilot_2","7982","2","17","Female","","","false","","","","[916.8000000119209]","./assets/img/space/1.jpg","[""ArrowUp""]","first stage practice","space","0","null","null","ArrowUp","false","","","","","","","",""
"html-keyboard-response","15","204859","0.0-3.0-2.0-1.1","spark_pilot_2","7982","2","17","Female","","","","","","","null","<div style=""font-size:60px;"">+</div>","null","fixation","","","","","","","","","","","","","",""
"revaluation","16","208875","0.0-3.0-2.0-0.2","spark_pilot_2","7982","2","17","Female","","","false","","","","[1048.4000000059605]","./assets/img/space/2.jpg","[""ArrowUp""]","first stage practice","space","0","null","null","ArrowUp","false","","","","","","","",""
"html-keyboard-response","17","209387","0.0-3.0-2.0-1.2","spark_pilot_2","7982","2","17","Female","","","","","","","null","<div style=""font-size:60px;"">+</div>","null","fixation","","","","","","","","","","","","","",""
"learning-instructions","18","217242","0.0-3.0-3.0-0.0","spark_pilot_2","7982","2","17","Female","","","","","","","3154.7000000178814","<p> Great job! Now try pressing the <b>down</b> key to travel down. </p>
            <img src='./assets/img/instructions/pressDown.jpg' class='instructions-image'>","","instructions","","","","","","","","","","","","","",""
"revaluation","19","221253","0.0-3.0-4.0-0.0","spark_pilot_2","7982","2","17","Female","","","false","","","","[659.2000000178814]","./assets/img/space/3.jpg","[""ArrowDown""]","first stage practice","space","0","null","null","ArrowDown","false","","","","","","","",""
"html-keyboard-response","20","221766","0.0-3.0-4.0-1.0","spark_pilot_2","7982","2","17","Female","","","","","","","null","<div style=""font-size:60px;"">+</div>","null","fixation","","","","","","","","","","","","","",""
"revaluation","21","225785","0.0-3.0-4.0-0.1","spark_pilot_2","7982","2","17","Female","","","true","","","","[]","./assets/img/space/4.jpg","[]","first stage practice","space","-5","null","null","","false","","","","","","","",""
"html-keyboard-response","22","226297","0.0-3.0-4.0-1.1","spark_pilot_2","7982","2","17","Female","","","","","","","null","<div style=""font-size:60px;"">+</div>","null","fixation","","","","","","","","","","","","","",""
"revaluation","23","230317","0.0-3.0-4.0-0.2","spark_pilot_2","7982","2","17","Female","","","false","","","","[1058.4000000059605]","./assets/img/space/5.jpg","[""ArrowDown""]","first stage practice","space","0","null","null","ArrowDown","false","","","","","","","",""
"html-keyboard-response","24","230831","0.0-3.0-4.0-1.2","spark_pilot_2","7982","2","17","Female","","","","","","","null","<div style=""font-size:60px;"">+</div>","null","fixation","","","","","","","","","","","","","",""
"learning-instructions","25","242389","0.0-3.0-5.0-0.0","spark_pilot_2","7982","2","17","Female","","","","","","","1700.8999999761581","<p> The animals don’t move, so the animal in the upper part of a place will stay in the upper part of a place, and the animal in the lower part of a place will stay in the lower part of a place. </p>","","instructions","","","","","","","","","","","","","",""
"learning-instructions","26","253026","0.0-3.0-5.0-0.1","spark_pilot_2","7982","2","17","Female","","","","","","","1498.7999999821186","<p> Each animal has two treasure chests for you to choose from. </p>
            <p> The amount of treasure in each chest can range from <b> 0 to 40 pieces.</b></p>","","instructions","","","","","","","","","","","","","",""
"learning-instructions","27","266672","0.0-3.0-5.0-0.2","spark_pilot_2","7982","2","17","Female","","","","","","","2454.300000011921","<p> You should decide which chest to search for treasure by using the <b>left</b> and <b>right</b> arrow keys. </p>
            <p><b> Pay attention to which animal is on the screen, as the animals have different treasure chests. </b></p>
            <img src='./assets/img/instructions/leftright.jpg' class='instructions-image'>","","instructions","","","","","","","","","","","","","",""
"learning-instructions","28","275857","0.0-3.0-5.0-0.3","spark_pilot_2","7982","2","17","Female","","","","","","","2809.0999999940395","<p> Let’s try practicing that now. </p>
            <p> When you see an animal, choose which chest to search for treasure. </p>
            <img src='./assets/img/instructions/chooseChest.jpg' class='instructions-image'>","","instructions","","","","","","","","","","","","","",""
"revaluation","29","279881","0.0-3.0-6.0-0.0","spark_pilot_2","7982","2","17","Female","","","false","","","","[855]","./assets/img/space/animals/rabbit.jpg","[""ArrowLeft""]","second stage practice","space","15","{""ArrowUp,ArrowLeft"":3,""ArrowUp,ArrowRight"":36,""ArrowDown,ArrowLeft"":15,""ArrowDown,ArrowRight"":23}","false","ArrowDown,ArrowLeft","","","","","","","","",""
"html-keyboard-response","30","280398","0.0-3.0-6.0-1.0","spark_pilot_2","7982","2","17","Female","","","","","","","null","<div style=""font-size:60px;"">+</div>","null","fixation","","","","","","","","","","","","","",""
"revaluation","31","284423","0.0-3.0-6.0-0.1","spark_pilot_2","7982","2","17","Female","","","false","","","","[928]","./assets/img/space/animals/rabbit.jpg","[""ArrowRight""]","second stage practice","space","23","{""ArrowUp,ArrowLeft"":3,""ArrowUp,ArrowRight"":36,""ArrowDown,ArrowLeft"":15,""ArrowDown,ArrowRight"":23}","true","ArrowDown,ArrowRight","","","","","","","","",""
"html-keyboard-response","32","284938","0.0-3.0-6.0-1.1","spark_pilot_2","7982","2","17","Female","","","","","","","null","<div style=""font-size:60px;"">+</div>","null","fixation","","","","","","","","","","","","","",""
"revaluation","33","288969","0.0-3.0-6.0-0.2","spark_pilot_2","7982","2","17","Female","","","false","","","","[1015]","./assets/img/space/animals/cat.jpg","[""ArrowLeft""]","second stage practice","space","3","{""ArrowUp,ArrowLeft"":3,""ArrowUp,ArrowRight"":36,""ArrowDown,ArrowLeft"":15,""ArrowDown,ArrowRight"":23}","false","ArrowUp,ArrowLeft","","","","","","","","",""
"html-keyboard-response","34","289486","0.0-3.0-6.0-1.2","spark_pilot_2","7982","2","17","Female","","","","","","","null","<div style=""font-size:60px;"">+</div>","null","fixation","","","","","","","","","","","","","",""
"revaluation","35","293510","0.0-3.0-6.0-0.3","spark_pilot_2","7982","2","17","Female","","","false","","","","[385.7999999821186]","./assets/img/space/animals/cat.jpg","[""ArrowRight""]","second stage practice","space","36","{""ArrowUp,ArrowLeft"":3,""ArrowUp,ArrowRight"":36,""ArrowDown,ArrowLeft"":15,""ArrowDown,ArrowRight"":23}","true","ArrowUp,ArrowRight","","","","","","","","",""
"html-keyboard-response","36","294023","0.0-3.0-6.0-1.3","spark_pilot_2","7982","2","17","Female","","","","","","","null","<div style=""font-size:60px;"">+</div>","null","fixation","","","","","","","","","","","","","",""
"learning-instructions","37","313585","0.0-3.0-7.0-0.0","spark_pilot_2","7982","2","17","Female","","","","","","","2738.7000000178814","<p> Great job. Now let’s try putting it together. </p>
            <p> On each turn, you will first see a picture to remind you of the place you are in, and you need to choose whether to go up or down. </p>
            <p> Then you will see an animal and choose which of its chests to search for treasure. </p>","","instructions","","","","","","","","","","","","","",""
"learning-instructions","38","324449","0.0-3.0-7.0-0.1","spark_pilot_2","7982","2","17","Female","","","","","","","1511.4000000059605","<p> When you choose whether to go up or down, try to go to the animal with the chest with the most treasure. </p>
            <p> Try practicing that now! </p>","","instructions","","","","","","","","","","","","","",""
"revaluation","39","330482","0.0-3.0-8.0-0.0","spark_pilot_2","7982","2","17","Female","","","false","","","","[1438.199999988079,733.0999999940395]","./assets/img/space/6.jpg","[""ArrowUp"",""ArrowRight""]","full practice","space","36","{""ArrowUp,ArrowLeft"":3,""ArrowUp,ArrowRight"":36,""ArrowDown,ArrowLeft"":15,""ArrowDown,ArrowRight"":23}","true","ArrowUp,ArrowRight","false","","","","","","","",""
"html-keyboard-response","40","330984","0.0-3.0-8.0-1.0","spark_pilot_2","7982","2","17","Female","","","","","","","null","<div style=""font-size:60px;"">+</div>","null","fixation","","","","","","","","","","","","","",""
"revaluation","41","337009","0.0-3.0-8.0-0.1","spark_pilot_2","7982","2","17","Female","","","false","","","","[900.8000000119209,1813]","./assets/img/space/7.jpg","[""ArrowUp"",""ArrowRight""]","full practice","space","36","{""ArrowUp,ArrowLeft"":3,""ArrowUp,ArrowRight"":36,""ArrowDown,ArrowLeft"":15,""ArrowDown,ArrowRight"":23}","true","ArrowUp,ArrowRight","false","","","","","","","",""
"html-keyboard-response","42","337520","0.0-3.0-8.0-1.1","spark_pilot_2","7982","2","17","Female","","","","","","","null","<div style=""font-size:60px;"">+</div>","null","fixation","","","","","","","","","","","","","",""
"revaluation","43","341540","0.0-3.0-8.0-0.2","spark_pilot_2","7982","2","17","Female","","","true","","","","[]","./assets/img/space/8.jpg","[]","full practice","space","-5","{""ArrowUp,ArrowLeft"":3,""ArrowUp,ArrowRight"":36,""ArrowDown,ArrowLeft"":15,""ArrowDown,ArrowRight"":23}","false","","false","","","","","","","",""
"html-keyboard-response","44","342053","0.0-3.0-8.0-1.2","spark_pilot_2","7982","2","17","Female","","","","","","","null","<div style=""font-size:60px;"">+</div>","null","fixation","","","","","","","","","","","","","",""
"revaluation","45","348078","0.0-3.0-8.0-0.3","spark_pilot_2","7982","2","17","Female","","","false","","","","[744.0999999940395,472.2000000178814]","./assets/img/space/9.jpg","[""ArrowUp"",""ArrowRight""]","full practice","space","36","{""ArrowUp,ArrowLeft"":3,""ArrowUp,ArrowRight"":36,""ArrowDown,ArrowLeft"":15,""ArrowDown,ArrowRight"":23}","true","ArrowUp,ArrowRight","false","","","","","","","",""
"html-keyboard-response","46","348595","0.0-3.0-8.0-1.3","spark_pilot_2","7982","2","17","Female","","","","","","","null","<div style=""font-size:60px;"">+</div>","null","fixation","","","","","","","","","","","","","",""
"revaluation","47","354618","0.0-3.0-8.0-0.4","spark_pilot_2","7982","2","17","Female","","","false","","","","[690.0999999940395,698.5]","./assets/img/space/10.jpg","[""ArrowUp"",""ArrowRight""]","full practice","space","36","{""ArrowUp,ArrowLeft"":3,""ArrowUp,ArrowRight"":36,""ArrowDown,ArrowLeft"":15,""ArrowDown,ArrowRight"":23}","true","ArrowUp,ArrowRight","false","","","","","","","",""
"html-keyboard-response","48","355121","0.0-3.0-8.0-1.4","spark_pilot_2","7982","2","17","Female","","","","","","","null","<div style=""font-size:60px;"">+</div>","null","fixation","","","","","","","","","","","","","",""
"learning-instructions","49","368119","0.0-3.0-9.0-0.0","spark_pilot_2","7982","2","17","Female","","","","","","","2683","<p> One last thing: sometimes, you will see a robber. The robber can be anywhere in the picture. </p>
            <p> If you do not stop them, you will lose treasure. </p>
            <img src='./assets/img/instructions/robber.jpg' class='instructions-image'>","","instructions","","","","","","","","","","","","","",""
"learning-instructions","50","378081","0.0-3.0-9.0-0.1","spark_pilot_2","7982","2","17","Female","","","","","","","2794.7999999821186","<p> If you see the robber, you should <b>press the space bar</b> rather than using the arrow keys. </p>
            <p> Try practicing that now! </p>","","instructions","","","","","","","","","","","","","",""
"revaluation","51","382095","0.0-3.0-10.0-0.0","spark_pilot_2","7982","2","17","Female","","","false","","","","[1608.199999988079]","./assets/img/space/catch/0.jpg","[""ArrowUp""]","catch practice","space","-10","{""ArrowUp,ArrowLeft"":3,""ArrowUp,ArrowRight"":36,""ArrowDown,ArrowLeft"":15,""ArrowDown,ArrowRight"":23}","false","ArrowUp","true","","","","","","","",""
"html-keyboard-response","52","382609","0.0-3.0-10.0-1.0","spark_pilot_2","7982","2","17","Female","","","","","","","null","<div style=""font-size:60px;"">+</div>","null","fixation","","","","","","","","","","","","","",""
"revaluation","53","386635","0.0-3.0-10.0-0.1","spark_pilot_2","7982","2","17","Female","","","false","","","","[1356.3999999761581]","./assets/img/space/catch/1.jpg","[""spaceBar""]","catch practice","space","0","{""ArrowUp,ArrowLeft"":3,""ArrowUp,ArrowRight"":36,""ArrowDown,ArrowLeft"":15,""ArrowDown,ArrowRight"":23}","true","spaceBar","true","","","","","","","",""
"html-keyboard-response","54","387148","0.0-3.0-10.0-1.1","spark_pilot_2","7982","2","17","Female","","","","","","","null","<div style=""font-size:60px;"">+</div>","null","fixation","","","","","","","","","","","","","",""
"revaluation","55","391171","0.0-3.0-10.0-0.2","spark_pilot_2","7982","2","17","Female","","","false","","","","[552.5]","./assets/img/space/catch/2.jpg","[""spaceBar""]","catch practice","space","0","{""ArrowUp,ArrowLeft"":3,""ArrowUp,ArrowRight"":36,""ArrowDown,ArrowLeft"":15,""ArrowDown,ArrowRight"":23}","true","spaceBar","true","","","","","","","",""
"html-keyboard-response","56","391685","0.0-3.0-10.0-1.2","spark_pilot_2","7982","2","17","Female","","","","","","","null","<div style=""font-size:60px;"">+</div>","null","fixation","","","","","","","","","","","","","",""
"learning-instructions","57","406658","0.0-3.0-11.0-0.0","spark_pilot_2","7982","2","17","Female","","","","","","","1372.699999988079","<p> After you explore a place to find treasure, it will be time to play a different game. </p>
            <p> During this game, red dots will appear on the screen and fall down slowly. </p>
            <p><b> You must click on them before they reach the bottom. </b></p>
            <img src='./assets/img/instructions/dotGame.jpg' class='instructions-image'>","","instructions","","","","","","","","","","","","","",""
"learning-instructions","58","413520","0.0-3.0-11.0-0.1","spark_pilot_2","7982","2","17","Female","","","","","","","1173.9000000059605","<p> For every dot you click, you will earn additional treasure. </p>
            <p> Let’s try practicing that now. </p>","","instructions","","","","","","","","","","","","","",""
"revaluation","59","428540","0.0-3.0-12.0-0.0","spark_pilot_2","7982","2","17","Female","","","","","","","[174]","","","rest practice","","10","","","","","0","15000","","","","","",""
"learning-instructions","60","435210","0.0-3.0-13.0-0.0-0.0","spark_pilot_2","7982","2","17","Female","","","","","","","1404.5999999940395","<p> Now, you will practice a shortened version of the game to get a sense of how it all fits together. </p>","","instructions","","","","","","","","","","","","","",""
"learning-instructions","61","440852","0.0-3.0-13.0-0.0-0.1","spark_pilot_2","7982","2","17","Female","","","","","","","2457.5","<p>This time you are searching for treasure in outer space.</p>","","instructions","","","","","","","","","","","","","",""
"learning-instructions","62","457270","0.0-3.0-13.0-1.0-0.0","spark_pilot_2","7982","2","17","Female","","","","","","","1635.5999999940395","<p> Remember, when you see a picture of the place, use the up and down keys to <b>find an animal</b>.</p>
            <p> When you encounter an animal, you should use the left and right keys to <b>select a treasure chest</b>.</p>
            <p> Don't forget to look out for the robber! </p>","","instructions","","","","","","","","","","","","","",""
"revaluation","63","461293","0.0-3.0-13.0-2.0-0.0","spark_pilot_2","7982","2","17","Female","","","true","","","","[]","./assets/img/space/11.jpg","[]","practice block","space","-5","{""ArrowUp,ArrowLeft"":3,""ArrowUp,ArrowRight"":36,""ArrowDown,ArrowLeft"":15,""ArrowDown,ArrowRight"":23}","false","","false","","","","","","","",""
"html-keyboard-response","64","461805","0.0-3.0-13.0-2.0-1.0","spark_pilot_2","7982","2","17","Female","","","","","","","null","<div style=""font-size:60px;"">+</div>","null","fixation","","","","","","","","","","","","","",""
"revaluation","65","467835","0.0-3.0-13.0-2.0-0.1","spark_pilot_2","7982","2","17","Female","","","false","","","","[802.5,533.1999999880791]","./assets/img/space/12.jpg","[""ArrowUp"",""ArrowRight""]","practice block","space","36","{""ArrowUp,ArrowLeft"":3,""ArrowUp,ArrowRight"":36,""ArrowDown,ArrowLeft"":15,""ArrowDown,ArrowRight"":23}","true","ArrowUp,ArrowRight","false","","","","","","","",""
"html-keyboard-response","66","468347","0.0-3.0-13.0-2.0-1.1","spark_pilot_2","7982","2","17","Female","","","","","","","null","<div style=""font-size:60px;"">+</div>","null","fixation","","","","","","","","","","","","","",""
"revaluation","67","474376","0.0-3.0-13.0-2.0-0.2","spark_pilot_2","7982","2","17","Female","","","false","","","","[868.0999999940395,427.69999998807907]","./assets/img/space/13.jpg","[""ArrowUp"",""ArrowRight""]","practice block","space","36","{""ArrowUp,ArrowLeft"":3,""ArrowUp,ArrowRight"":36,""ArrowDown,ArrowLeft"":15,""ArrowDown,ArrowRight"":23}","true","ArrowUp,ArrowRight","false","","","","","","","",""
"html-keyboard-response","68","474879","0.0-3.0-13.0-2.0-1.2","spark_pilot_2","7982","2","17","Female","","","","","","","null","<div style=""font-size:60px;"">+</div>","null","fixation","","","","","","","","","","","","","",""
"revaluation","69","480910","0.0-3.0-13.0-2.0-0.3","spark_pilot_2","7982","2","17","Female","","","false","","","","[592.4000000059605,481]","./assets/img/space/14.jpg","[""ArrowUp"",""ArrowRight""]","practice block","space","36","{""ArrowUp,ArrowLeft"":3,""ArrowUp,ArrowRight"":36,""ArrowDown,ArrowLeft"":15,""ArrowDown,ArrowRight"":23}","true","ArrowUp,ArrowRight","false","","","","","","","",""
"html-keyboard-response","70","481422","0.0-3.0-13.0-2.0-1.3","spark_pilot_2","7982","2","17","Female","","","","","","","null","<div style=""font-size:60px;"">+</div>","null","fixation","","","","","","","","","","","","","",""
"revaluation","71","487449","0.0-3.0-13.0-2.0-0.4","spark_pilot_2","7982","2","17","Female","","","false","","","","[912.1000000238419,476.19999998807907]","./assets/img/space/11.jpg","[""ArrowUp"",""ArrowRight""]","practice block","space","36","{""ArrowUp,ArrowLeft"":3,""ArrowUp,ArrowRight"":36,""ArrowDown,ArrowLeft"":15,""ArrowDown,ArrowRight"":23}","true","ArrowUp,ArrowRight","false","","","","","","","",""
"html-keyboard-response","72","487951","0.0-3.0-13.0-2.0-1.4","spark_pilot_2","7982","2","17","Female","","","","","","","null","<div style=""font-size:60px;"">+</div>","null","fixation","","","","","","","","","","","","","",""
"revaluation","73","493959","0.0-3.0-13.0-2.0-0.5","spark_pilot_2","7982","2","17","Female","","","false","","","","[822.4000000059605,479.30000001192093]","./assets/img/space/12.jpg","[""ArrowUp"",""ArrowRight""]","practice block","space","36","{""ArrowUp,ArrowLeft"":3,""ArrowUp,ArrowRight"":36,""ArrowDown,ArrowLeft"":15,""ArrowDown,ArrowRight"":23}","true","ArrowUp,ArrowRight","false","","","","","","","",""
"html-keyboard-response","74","494461","0.0-3.0-13.0-2.0-1.5","spark_pilot_2","7982","2","17","Female","","","","","","","null","<div style=""font-size:60px;"">+</div>","null","fixation","","","","","","","","","","","","","",""
"revaluation","75","500470","0.0-3.0-13.0-2.0-0.6","spark_pilot_2","7982","2","17","Female","","","false","","","","[495.40000000596046,535.4000000059605]","./assets/img/space/13.jpg","[""ArrowUp"",""ArrowRight""]","practice block","space","36","{""ArrowUp,ArrowLeft"":3,""ArrowUp,ArrowRight"":36,""ArrowDown,ArrowLeft"":15,""ArrowDown,ArrowRight"":23}","true","ArrowUp,ArrowRight","false","","","","","","","",""
"html-keyboard-response","76","500972","0.0-3.0-13.0-2.0-1.6","spark_pilot_2","7982","2","17","Female","","","","","","","null","<div style=""font-size:60px;"">+</div>","null","fixation","","","","","","","","","","","","","",""
"revaluation","77","506980","0.0-3.0-13.0-2.0-0.7","spark_pilot_2","7982","2","17","Female","","","false","","","","[633.0999999940395,520.1999999880791]","./assets/img/space/14.jpg","[""ArrowUp"",""ArrowRight""]","practice block","space","36","{""ArrowUp,ArrowLeft"":3,""ArrowUp,ArrowRight"":36,""ArrowDown,ArrowLeft"":15,""ArrowDown,ArrowRight"":23}","true","ArrowUp,ArrowRight","false","","","","","","","",""
"html-keyboard-response","78","507482","0.0-3.0-13.0-2.0-1.7","spark_pilot_2","7982","2","17","Female","","","","","","","null","<div style=""font-size:60px;"">+</div>","null","fixation","","","","","","","","","","","","","",""
"revaluation","79","511491","0.0-3.0-13.0-2.0-0.8","spark_pilot_2","7982","2","17","Female","","","false","","","","[1010.4000000059605]","./assets/img/space/catch/3.jpg","[""spaceBar""]","practice block","space","0","{""ArrowUp,ArrowLeft"":3,""ArrowUp,ArrowRight"":36,""ArrowDown,ArrowLeft"":15,""ArrowDown,ArrowRight"":23}","true","spaceBar","true","","","","","","","",""
"html-keyboard-response","80","511993","0.0-3.0-13.0-2.0-1.8","spark_pilot_2","7982","2","17","Female","","","","","","","null","<div style=""font-size:60px;"">+</div>","null","fixation","","","","","","","","","","","","","",""
"learning-instructions","81","526604","0.0-3.0-13.0-3.0-0.0","spark_pilot_2","7982","2","17","Female","","","","","","","1623.9000000059605","<p> Now, you will travel with a friend who will choose whether you go up or down first. </p>
            <p> On these turns, you will just see the animal that they found. You will still get to choose which chest to search for treasure.</p>","","instructions","","","","","","","","","","","","","",""
"revaluation","82","530633","0.0-3.0-13.0-4.0-0.0","spark_pilot_2","7982","2","17","Female","","","false","","","","[1263.4000000059605]","./assets/img/space/animals/cat.jpg","[""ArrowRight""]","practice block","space","36","{""ArrowUp,ArrowLeft"":3,""ArrowUp,ArrowRight"":36,""ArrowDown,ArrowLeft"":15,""ArrowDown,ArrowRight"":23}","true","ArrowUp,ArrowRight","","","","","","","","",""
"html-keyboard-response","83","531150","0.0-3.0-13.0-4.0-1.0","spark_pilot_2","7982","2","17","Female","","","","","","","null","<div style=""font-size:60px;"">+</div>","null","fixation","","","","","","","","","","","","","",""
"revaluation","84","535177","0.0-3.0-13.0-4.0-0.1","spark_pilot_2","7982","2","17","Female","","","false","","","","[1342.4000000059605]","./assets/img/space/animals/rabbit.jpg","[""ArrowLeft""]","practice block","space","15","{""ArrowUp,ArrowLeft"":3,""ArrowUp,ArrowRight"":36,""ArrowDown,ArrowLeft"":15,""ArrowDown,ArrowRight"":23}","false","ArrowDown,ArrowLeft","","","","","","","","",""
"html-keyboard-response","85","535691","0.0-3.0-13.0-4.0-1.1","spark_pilot_2","7982","2","17","Female","","","","","","","null","<div style=""font-size:60px;"">+</div>","null","fixation","","","","","","","","","","","","","",""
"revaluation","86","539708","0.0-3.0-13.0-4.0-0.2","spark_pilot_2","7982","2","17","Female","","","false","","","","[673.5]","./assets/img/space/animals/cat.jpg","[""ArrowLeft""]","practice block","space","3","{""ArrowUp,ArrowLeft"":3,""ArrowUp,ArrowRight"":36,""ArrowDown,ArrowLeft"":15,""ArrowDown,ArrowRight"":23}","false","ArrowUp,ArrowLeft","","","","","","","","",""
"html-keyboard-response","87","540225","0.0-3.0-13.0-4.0-1.2","spark_pilot_2","7982","2","17","Female","","","","","","","null","<div style=""font-size:60px;"">+</div>","null","fixation","","","","","","","","","","","","","",""
"revaluation","88","544239","0.0-3.0-13.0-4.0-0.3","spark_pilot_2","7982","2","17","Female","","","false","","","","[909.5]","./assets/img/space/animals/rabbit.jpg","[""ArrowRight""]","practice block","space","23","{""ArrowUp,ArrowLeft"":3,""ArrowUp,ArrowRight"":36,""ArrowDown,ArrowLeft"":15,""ArrowDown,ArrowRight"":23}","true","ArrowDown,ArrowRight","","","","","","","","",""
"html-keyboard-response","89","544754","0.0-3.0-13.0-4.0-1.3","spark_pilot_2","7982","2","17","Female","","","","","","","null","<div style=""font-size:60px;"">+</div>","null","fixation","","","","","","","","","","","","","",""
"learning-instructions","90","553430","0.0-3.0-13.0-5.0-0.0","spark_pilot_2","7982","2","17","Female","","","","","","","1299.800000011921","<p> Time to play the dot game! </p>
            <p> For 15 seconds, click the red dots on the following screen as they appear. </p>","","instructions","","","","","","","","","","","","","",""
"revaluation","91","568431","0.0-3.0-13.0-6.0-0.0","spark_pilot_2","7982","2","17","Female","","","","","","","[55]","","","rest practice","","10","","","","","0","15000","","","","","",""
"learning-instructions","92","577135","0.0-3.0-13.0-7.0-0.0","spark_pilot_2","7982","2","17","Female","","","","","","","2555.800000011921","<p> You have almost finished this part of the game! </p>
            <p> We are going to ask you to make a few more choices. </p>","","instructions","","","","","","","","","","","","","",""
"learning-instructions","93","595465","0.0-3.0-13.0-7.0-0.1","spark_pilot_2","7982","2","17","Female","","","","","","","4305.799999982119","<p> First, you need to decide whether to go up or down. When you see each picture, use the arrow keys to make your choice. </p>
            <p><b>You will not see which animal you found, but try to get to the one that will give you the most treasure.</b></p>","","instructions","","","","","","","","","","","","","",""
"revaluation","94","596834","0.0-3.0-13.0-8.0","spark_pilot_2","7982","2","17","Female","","","false","","","","[1365.699999988079]","./assets/img/space/15.jpg","[""ArrowUp""]","practice block","space","0","{""ArrowUp,ArrowLeft"":3,""ArrowUp,ArrowRight"":36,""ArrowDown,ArrowLeft"":15,""ArrowDown,ArrowRight"":23}","true","ArrowUp","false","","","","","","","",""
"html-keyboard-response","95","597349","0.0-3.0-13.0-9.0","spark_pilot_2","7982","2","17","Female","","","","","","","null","<div style=""font-size:60px;"">+</div>","null","fixation","","","","","","","","","","","","","",""
"learning-instructions","96","611927","0.0-3.0-13.0-10.0-0.0","spark_pilot_2","7982","2","17","Female","","","","","","","3197","<p> Now you will see the animals again and can search their chests for treasure. </p>
            <p> This time, you will not see how much treasure you earned, but you will earn more bonus money for making better choices. </p>","","instructions","","","","","","","","","","","","","",""
"revaluation","97","612845","0.0-3.0-13.0-11.0-0.0","spark_pilot_2","7982","2","17","Female","","","false","","","","[916.6000000238419]","./assets/img/space/animals/cat.jpg","[""ArrowRight""]","practice block","space","0","{""ArrowUp,ArrowLeft"":3,""ArrowUp,ArrowRight"":36,""ArrowDown,ArrowLeft"":15,""ArrowDown,ArrowRight"":23}","true","ArrowUp,ArrowRight","","","","","","","","",""
"html-keyboard-response","98","613359","0.0-3.0-13.0-11.0-1.0","spark_pilot_2","7982","2","17","Female","","","","","","","null","<div style=""font-size:60px;"">+</div>","null","fixation","","","","","","","","","","","","","",""
"revaluation","99","614221","0.0-3.0-13.0-11.0-0.1","spark_pilot_2","7982","2","17","Female","","","false","","","","[855.6999999880791]","./assets/img/space/animals/rabbit.jpg","[""ArrowRight""]","practice block","space","0","{""ArrowUp,ArrowLeft"":3,""ArrowUp,ArrowRight"":36,""ArrowDown,ArrowLeft"":15,""ArrowDown,ArrowRight"":23}","true","ArrowDown,ArrowRight","","","","","","","","",""
"html-keyboard-response","100","614732","0.0-3.0-13.0-11.0-1.1","spark_pilot_2","7982","2","17","Female","","","","","","","null","<div style=""font-size:60px;"">+</div>","null","fixation","","","","","","","","","","","","","",""
"learning-instructions","101","623079","0.0-3.0-14.0-0.0","spark_pilot_2","7982","2","17","Female","","","","","","","2509.7999999821186","<p> Before you start, we're going to ask you a few questions about how the game works. </p>","","instructions","","","","","","","","","","","","","",""
"comp-q","102","629879","0.0-3.0-15.0-0.0-0.0","spark_pilot_2","7982","2","17","Female","","","","","","","1200.0999999940395","<p> <b> True or False? </b> </p>
            <p> There can be 50 pieces of treasure in a given animal's chest. </p>","1","comp_question","","","","true","","","","","","","","","",""
"comp-q","103","638904","0.0-3.0-15.0-0.0-1.0","spark_pilot_2","7982","2","17","Female","","","","","","","2364.5999999940395","<p> <b> That's right! </b> The amount of treasure in each chest can range from 0 to 40 pieces. </p>","0","comp_answer","","","","","","","","","","","","","",""
"comp-q","104","647164","0.0-3.0-15.0-0.1-0.1","spark_pilot_2","7982","2","17","Female","","","","","","","1124","<p> <b> True or False? </b> </p><p> In this game, all animals have the same amount of treasure in their left and right chests. </p>","1","comp_question","","","","true","","","","","","","","","",""
"comp-q","105","654397","0.0-3.0-15.0-0.1-1.1","spark_pilot_2","7982","2","17","Female","","","","","","","1996.7000000178814","<p> <b> That's right! </b> Animals have different amounts of treasure in their treasure chests. </p>","0","comp_answer","","","","","","","","","","","","","",""
"comp-q","106","661418","0.0-3.0-15.0-0.2-0.2","spark_pilot_2","7982","2","17","Female","","","","","","","1168.5","<p> <b> True or False? </b> </p><p> The same animal will always be there if you go up in the same place. </p>","1","comp_question","","","","false","","","","","","","","","",""
"comp-q","107","668842","0.0-3.0-15.0-0.2-1.2","spark_pilot_2","7982","2","17","Female","","","","","","","1111.9000000059605","<p> <b>Incorrect.</b> One animal lives in the upper part and one lives in the lower part of every place. </p>","0","comp_answer","","","","","","","","","","","","","",""
"comp-q","108","676104","0.0-3.0-15.0-0.3-0.3","spark_pilot_2","7982","2","17","Female","","","","","","","1444.7000000178814","<p> <b> True or False? </b> </p><p> The same animal will always be there if you go up in the same place. </p>","0","comp_question","","","","true","","","","","","","","","",""
"comp-q","109","685492","0.0-3.0-15.0-0.3-1.3","spark_pilot_2","7982","2","17","Female","","","","","","","2932.300000011921","<p> <b> That's right! </b> One animal lives in the upper part and one lives in the lower part of every place. </p>","0","comp_answer","","","","","","","","","","","","","",""
"comp-q","110","692764","0.0-3.0-15.0-0.4-0.4","spark_pilot_2","7982","2","17","Female","","","","","","","1744.699999988079","<p> <b> True or False? </b> </p><p> If you see a different picture, it means you are in a new place. </p>","1","comp_question","","","","true","","","","","","","","","",""
"comp-q","111","705314","0.0-3.0-15.0-0.4-1.4","spark_pilot_2","7982","2","17","Female","","","","","","","1304.0999999940395","<p> <b> That's right! </b> Lots of different images may show the same place. For example,  you may see three different images that all remind you that you are in outer space. </p>","0","comp_answer","","","","","","","","","","","","","",""
"learning-instructions","112","724299","0.0-3.0-16.0-0.0","spark_pilot_2","7982","2","17","Female","","","","","","","9119.59999999404","<p> Good job. Remember to do your best because the amount of treasure you earn will be converted into bonus money. </p>
            <p> It’s time to start the real game! </p>","","instructions","","","","","","","","","","","","","",""
"learning-instructions","113","730953","0.0-4.0-0.0-0.0","spark_pilot_2","7982","2","17","Female","","","","","","","3942.800000011921","<p> This time you are searching for treasure in the <b>ocean</b>.</p>","","instructions","","","","","","","","","","","","","",""
"learning-instructions","114","749663","0.0-4.0-0.0-0.1","spark_pilot_2","7982","2","17","Female","","","","","","","1403.5999999940395","<p><b>New</b> animals with <b>new</b> treasure chests live here. You need to explore to discover where the animal with the best treasure chest is.</p>
                    <p> Like before, once you figure out which animal has the chest with the most treasure, you should try to get to that animal and select that chest! </p>","","instructions","","","","","","","","","","","","","",""
"learning-instructions","115","766345","0.0-4.0-1.0-0.0","spark_pilot_2","7982","2","17","Female","","","","","","","1946.800000011921","<p> Remember, when you see a picture of the place, use the up and down keys to <b>find an animal</b>.</p>
            <p> When you encounter an animal, you should use the left and right keys to <b>select a treasure chest</b>.</p>
            <p> Don't forget to look out for the robber! </p>","","instructions","","","","","","","","","","","","","",""
"revaluation","116","772379","0.0-4.0-2.0-0.0","spark_pilot_2","7982","2","17","Female","","","false","","","","[1260.9000000059605,1020.5]","./assets/img/ocean/memory/26.jpg","[""ArrowDown"",""ArrowRight""]","value training","ocean","30","{""ArrowUp,ArrowLeft"":23,""ArrowUp,ArrowRight"":10,""ArrowDown,ArrowLeft"":8,""ArrowDown,ArrowRight"":30}","true","ArrowDown,ArrowRight","false","","","revaluation","1","0","","",""
"html-keyboard-response","117","772892","0.0-4.0-2.0-1.0","spark_pilot_2","7982","2","17","Female","","","","","","","null","<div style=""font-size:60px;"">+</div>","null","fixation","","","","","","","","","","","1","","",""
"revaluation","118","778927","0.0-4.0-2.0-0.1","spark_pilot_2","7982","2","17","Female","","","false","","","","[1077.7999999821186,1115.0999999940395]","./assets/img/ocean/memory/41.jpg","[""ArrowUp"",""ArrowRight""]","value training","ocean","10","{""ArrowUp,ArrowLeft"":23,""ArrowUp,ArrowRight"":10,""ArrowDown,ArrowLeft"":8,""ArrowDown,ArrowRight"":30}","false","ArrowUp,ArrowRight","false","","","revaluation","1","2","","",""
"html-keyboard-response","119","779443","0.0-4.0-2.0-1.1","spark_pilot_2","7982","2","17","Female","","","","","","","null","<div style=""font-size:60px;"">+</div>","null","fixation","","","","","","","","","","","3","","",""
"revaluation","120","783473","0.0-4.0-2.0-0.2","spark_pilot_2","7982","2","17","Female","","","false","","","","[862.1999999880791]","./assets/img/ocean/catch/5.jpg","[""ArrowUp""]","value training","ocean","-10","{""ArrowUp,ArrowLeft"":23,""ArrowUp,ArrowRight"":10,""ArrowDown,ArrowLeft"":8,""ArrowDown,ArrowRight"":30}","false","ArrowUp","true","","","revaluation","1","4","","",""
"html-keyboard-response","121","783987","0.0-4.0-2.0-1.2","spark_pilot_2","7982","2","17","Female","","","","","","","null","<div style=""font-size:60px;"">+</div>","null","fixation","","","","","","","","","","","5","","",""
"revaluation","122","790003","0.0-4.0-2.0-0.3","spark_pilot_2","7982","2","17","Female","","","false","","","","[1089.2000000178814,382.09999999403954]","./assets/img/ocean/memory/32.jpg","[""ArrowUp"",""ArrowLeft""]","value training","ocean","23","{""ArrowUp,ArrowLeft"":23,""ArrowUp,ArrowRight"":10,""ArrowDown,ArrowLeft"":8,""ArrowDown,ArrowRight"":30}","false","ArrowUp,ArrowLeft","false","","","revaluation","1","6","","",""
"html-keyboard-response","123","790519","0.0-4.0-2.0-1.3","spark_pilot_2","7982","2","17","Female","","","","","","","null","<div style=""font-size:60px;"">+</div>","null","fixation","","","","","","","","","","","7","","",""
"revaluation","124","796535","0.0-4.0-2.0-0.4","spark_pilot_2","7982","2","17","Female","","","false","","","","[957.1000000238419,499.5]","./assets/img/ocean/memory/2.jpg","[""ArrowDown"",""ArrowRight""]","value training","ocean","30","{""ArrowUp,ArrowLeft"":23,""ArrowUp,ArrowRight"":10,""ArrowDown,ArrowLeft"":8,""ArrowDown,ArrowRight"":30}","true","ArrowDown,ArrowRight","false","","","revaluation","1","8","","",""
"html-keyboard-response","125","797037","0.0-4.0-2.0-1.4","spark_pilot_2","7982","2","17","Female","","","","","","","null","<div style=""font-size:60px;"">+</div>","null","fixation","","","","","","","","","","","9","","",""
"revaluation","126","803042","0.0-4.0-2.0-0.5","spark_pilot_2","7982","2","17","Female","","","false","","","","[752.5999999940395,394.2000000178814]","./assets/img/ocean/memory/36.jpg","[""ArrowUp"",""ArrowLeft""]","value training","ocean","23","{""ArrowUp,ArrowLeft"":23,""ArrowUp,ArrowRight"":10,""ArrowDown,ArrowLeft"":8,""ArrowDown,ArrowRight"":30}","false","ArrowUp,ArrowLeft","false","","","revaluation","1","10","","",""
"html-keyboard-response","127","803544","0.0-4.0-2.0-1.5","spark_pilot_2","7982","2","17","Female","","","","","","","null","<div style=""font-size:60px;"">+</div>","null","fixation","","","","","","","","","","","11","","",""
"revaluation","128","809554","0.0-4.0-2.0-0.6","spark_pilot_2","7982","2","17","Female","","","false","","","","[839.9000000059605,499.59999999403954]","./assets/img/ocean/memory/12.jpg","[""ArrowDown"",""ArrowRight""]","value training","ocean","30","{""ArrowUp,ArrowLeft"":23,""ArrowUp,ArrowRight"":10,""ArrowDown,ArrowLeft"":8,""ArrowDown,ArrowRight"":30}","true","ArrowDown,ArrowRight","false","","","revaluation","1","12","","",""
"html-keyboard-response","129","810056","0.0-4.0-2.0-1.6","spark_pilot_2","7982","2","17","Female","","","","","","","null","<div style=""font-size:60px;"">+</div>","null","fixation","","","","","","","","","","","13","","",""
"revaluation","130","816064","0.0-4.0-2.0-0.7","spark_pilot_2","7982","2","17","Female","","","false","","","","[623.1000000238419,483.5]","./assets/img/ocean/memory/1.jpg","[""ArrowDown"",""ArrowRight""]","value training","ocean","30","{""ArrowUp,ArrowLeft"":23,""ArrowUp,ArrowRight"":10,""ArrowDown,ArrowLeft"":8,""ArrowDown,ArrowRight"":30}","true","ArrowDown,ArrowRight","false","","","revaluation","1","14","","",""
"html-keyboard-response","131","816567","0.0-4.0-2.0-1.7","spark_pilot_2","7982","2","17","Female","","","","","","","null","<div style=""font-size:60px;"">+</div>","null","fixation","","","","","","","","","","","15","","",""
"revaluation","132","822575","0.0-4.0-2.0-0.8","spark_pilot_2","7982","2","17","Female","","","false","","","","[973.5,407.59999999403954]","./assets/img/ocean/memory/6.jpg","[""ArrowDown"",""ArrowRight""]","value training","ocean","30","{""ArrowUp,ArrowLeft"":23,""ArrowUp,ArrowRight"":10,""ArrowDown,ArrowLeft"":8,""ArrowDown,ArrowRight"":30}","true","ArrowDown,ArrowRight","false","","","revaluation","1","16","","",""
"html-keyboard-response","133","823078","0.0-4.0-2.0-1.8","spark_pilot_2","7982","2","17","Female","","","","","","","null","<div style=""font-size:60px;"">+</div>","null","fixation","","","","","","","","","","","17","","",""
"revaluation","134","829084","0.0-4.0-2.0-0.9","spark_pilot_2","7982","2","17","Female","","","false","","","","[759.8999999761581,525.5]","./assets/img/ocean/memory/19.jpg","[""ArrowDown"",""ArrowRight""]","value training","ocean","30","{""ArrowUp,ArrowLeft"":23,""ArrowUp,ArrowRight"":10,""ArrowDown,ArrowLeft"":8,""ArrowDown,ArrowRight"":30}","true","ArrowDown,ArrowRight","false","","","revaluation","1","18","","",""
"html-keyboard-response","135","829587","0.0-4.0-2.0-1.9","spark_pilot_2","7982","2","17","Female","","","","","","","null","<div style=""font-size:60px;"">+</div>","null","fixation","","","","","","","","","","","19","","",""
"revaluation","136","833596","0.0-4.0-2.0-0.10","spark_pilot_2","7982","2","17","Female","","","true","","","","[]","./assets/img/ocean/memory/29.jpg","[]","value training","ocean","-5","{""ArrowUp,ArrowLeft"":23,""ArrowUp,ArrowRight"":10,""ArrowDown,ArrowLeft"":8,""ArrowDown,ArrowRight"":30}","false","","false","","","revaluation","1","20","","",""
"html-keyboard-response","137","834099","0.0-4.0-2.0-1.10","spark_pilot_2","7982","2","17","Female","","","","","","","null","<div style=""font-size:60px;"">+</div>","null","fixation","","","","","","","","","","","21","","",""
"revaluation","138","838108","0.0-4.0-2.0-0.11","spark_pilot_2","7982","2","17","Female","","","false","","","","[1378]","./assets/img/ocean/catch/3.jpg","[""spaceBar""]","value training","ocean","0","{""ArrowUp,ArrowLeft"":23,""ArrowUp,ArrowRight"":10,""ArrowDown,ArrowLeft"":8,""ArrowDown,ArrowRight"":30}","true","spaceBar","true","","","revaluation","1","22","","",""
"html-keyboard-response","139","838611","0.0-4.0-2.0-1.11","spark_pilot_2","7982","2","17","Female","","","","","","","null","<div style=""font-size:60px;"">+</div>","null","fixation","","","","","","","","","","","23","","",""
"revaluation","140","844618","0.0-4.0-2.0-0.12","spark_pilot_2","7982","2","17","Female","","","false","","","","[899.9000000059605,1228.3999999761581]","./assets/img/ocean/memory/3.jpg","[""ArrowUp"",""ArrowLeft""]","value training","ocean","23","{""ArrowUp,ArrowLeft"":23,""ArrowUp,ArrowRight"":10,""ArrowDown,ArrowLeft"":8,""ArrowDown,ArrowRight"":30}","false","ArrowUp,ArrowLeft","false","","","revaluation","1","24","","",""
"html-keyboard-response","141","845120","0.0-4.0-2.0-1.12","spark_pilot_2","7982","2","17","Female","","","","","","","null","<div style=""font-size:60px;"">+</div>","null","fixation","","","","","","","","","","","25","","",""
"revaluation","142","849129","0.0-4.0-2.0-0.13","spark_pilot_2","7982","2","17","Female","","","false","","","","[970]","./assets/img/ocean/catch/6.jpg","[""spaceBar""]","value training","ocean","0","{""ArrowUp,ArrowLeft"":23,""ArrowUp,ArrowRight"":10,""ArrowDown,ArrowLeft"":8,""ArrowDown,ArrowRight"":30}","true","spaceBar","true","","","revaluation","1","26","","",""
"html-keyboard-response","143","849631","0.0-4.0-2.0-1.13","spark_pilot_2","7982","2","17","Female","","","","","","","null","<div style=""font-size:60px;"">+</div>","null","fixation","","","","","","","","","","","27","","",""
"revaluation","144","853640","0.0-4.0-2.0-0.14","spark_pilot_2","7982","2","17","Female","","","false","","","","[860.2999999821186]","./assets/img/ocean/catch/4.jpg","[""ArrowDown""]","value training","ocean","-10","{""ArrowUp,ArrowLeft"":23,""ArrowUp,ArrowRight"":10,""ArrowDown,ArrowLeft"":8,""ArrowDown,ArrowRight"":30}","false","ArrowDown","true","","","revaluation","1","28","","",""
"html-keyboard-response","145","854142","0.0-4.0-2.0-1.14","spark_pilot_2","7982","2","17","Female","","","","","","","null","<div style=""font-size:60px;"">+</div>","null","fixation","","","","","","","","","","","29","","",""
"revaluation","146","860149","0.0-4.0-2.0-0.15","spark_pilot_2","7982","2","17","Female","","","false","","","","[955.2999999821186,574.2999999821186]","./assets/img/ocean/memory/23.jpg","[""ArrowDown"",""ArrowRight""]","value training","ocean","30","{""ArrowUp,ArrowLeft"":23,""ArrowUp,ArrowRight"":10,""ArrowDown,ArrowLeft"":8,""ArrowDown,ArrowRight"":30}","true","ArrowDown,ArrowRight","false","","","revaluation","1","30","","",""
"html-keyboard-response","147","860652","0.0-4.0-2.0-1.15","spark_pilot_2","7982","2","17","Female","","","","","","","null","<div style=""font-size:60px;"">+</div>","null","fixation","","","","","","","","","","","31","","",""
"revaluation","148","866661","0.0-4.0-2.0-0.16","spark_pilot_2","7982","2","17","Female","","","false","","","","[1034.5999999940395,1111.2999999821186]","./assets/img/ocean/memory/5.jpg","[""ArrowDown"",""ArrowRight""]","value training","ocean","30","{""ArrowUp,ArrowLeft"":23,""ArrowUp,ArrowRight"":10,""ArrowDown,ArrowLeft"":8,""ArrowDown,ArrowRight"":30}","true","ArrowDown,ArrowRight","false","","","revaluation","1","32","","",""
"html-keyboard-response","149","867163","0.0-4.0-2.0-1.16","spark_pilot_2","7982","2","17","Female","","","","","","","null","<div style=""font-size:60px;"">+</div>","null","fixation","","","","","","","","","","","33","","",""
"revaluation","150","873172","0.0-4.0-2.0-0.17","spark_pilot_2","7982","2","17","Female","","","false","","","","[1079.4000000059605,442.5]","./assets/img/ocean/memory/5.jpg","[""ArrowDown"",""ArrowRight""]","value training","ocean","30","{""ArrowUp,ArrowLeft"":23,""ArrowUp,ArrowRight"":10,""ArrowDown,ArrowLeft"":8,""ArrowDown,ArrowRight"":30}","true","ArrowDown,ArrowRight","false","","","revaluation","1","34","","",""
"html-keyboard-response","151","873675","0.0-4.0-2.0-1.17","spark_pilot_2","7982","2","17","Female","","","","","","","null","<div style=""font-size:60px;"">+</div>","null","fixation","","","","","","","","","","","35","","",""
"revaluation","152","879683","0.0-4.0-2.0-0.18","spark_pilot_2","7982","2","17","Female","","","false","","","","[829.8000000119209,610.0999999940395]","./assets/img/ocean/memory/32.jpg","[""ArrowDown"",""ArrowRight""]","value training","ocean","30","{""ArrowUp,ArrowLeft"":23,""ArrowUp,ArrowRight"":10,""ArrowDown,ArrowLeft"":8,""ArrowDown,ArrowRight"":30}","true","ArrowDown,ArrowRight","false","","","revaluation","1","36","","",""
"html-keyboard-response","153","880184","0.0-4.0-2.0-1.18","spark_pilot_2","7982","2","17","Female","","","","","","","null","<div style=""font-size:60px;"">+</div>","null","fixation","","","","","","","","","","","37","","",""
"revaluation","154","886191","0.0-4.0-2.0-0.19","spark_pilot_2","7982","2","17","Female","","","false","","","","[1206.4000000059605,638.8000000119209]","./assets/img/ocean/memory/20.jpg","[""ArrowDown"",""ArrowRight""]","value training","ocean","30","{""ArrowUp,ArrowLeft"":23,""ArrowUp,ArrowRight"":10,""ArrowDown,ArrowLeft"":8,""ArrowDown,ArrowRight"":30}","true","ArrowDown,ArrowRight","false","","","revaluation","1","38","","",""
"html-keyboard-response","155","886694","0.0-4.0-2.0-1.19","spark_pilot_2","7982","2","17","Female","","","","","","","null","<div style=""font-size:60px;"">+</div>","null","fixation","","","","","","","","","","","39","","",""
"revaluation","156","892703","0.0-4.0-2.0-0.20","spark_pilot_2","7982","2","17","Female","","","false","","","","[544,363.59999999403954]","./assets/img/ocean/memory/9.jpg","[""ArrowDown"",""ArrowRight""]","value training","ocean","30","{""ArrowUp,ArrowLeft"":23,""ArrowUp,ArrowRight"":10,""ArrowDown,ArrowLeft"":8,""ArrowDown,ArrowRight"":30}","true","ArrowDown,ArrowRight","false","","","revaluation","1","40","","",""
"html-keyboard-response","157","893206","0.0-4.0-2.0-1.20","spark_pilot_2","7982","2","17","Female","","","","","","","null","<div style=""font-size:60px;"">+</div>","null","fixation","","","","","","","","","","","41","","",""
"revaluation","158","899214","0.0-4.0-2.0-0.21","spark_pilot_2","7982","2","17","Female","","","false","","","","[718.7999999821186,512.8999999761581]","./assets/img/ocean/memory/29.jpg","[""ArrowDown"",""ArrowRight""]","value training","ocean","30","{""ArrowUp,ArrowLeft"":23,""ArrowUp,ArrowRight"":10,""ArrowDown,ArrowLeft"":8,""ArrowDown,ArrowRight"":30}","true","ArrowDown,ArrowRight","false","","","revaluation","1","42","","",""
"html-keyboard-response","159","899716","0.0-4.0-2.0-1.21","spark_pilot_2","7982","2","17","Female","","","","","","","null","<div style=""font-size:60px;"">+</div>","null","fixation","","","","","","","","","","","43","","",""
"revaluation","160","905725","0.0-4.0-2.0-0.22","spark_pilot_2","7982","2","17","Female","","","false","","","","[511.80000001192093,163.30000001192093]","./assets/img/ocean/memory/2.jpg","[""ArrowDown"",""ArrowRight""]","value training","ocean","30","{""ArrowUp,ArrowLeft"":23,""ArrowUp,ArrowRight"":10,""ArrowDown,ArrowLeft"":8,""ArrowDown,ArrowRight"":30}","true","ArrowDown,ArrowRight","false","","","revaluation","1","44","","",""
"html-keyboard-response","161","906227","0.0-4.0-2.0-1.22","spark_pilot_2","7982","2","17","Female","","","","","","","null","<div style=""font-size:60px;"">+</div>","null","fixation","","","","","","","","","","","45","","",""
"revaluation","162","912237","0.0-4.0-2.0-0.23","spark_pilot_2","7982","2","17","Female","","","false","","","","[757.7000000178814,613]","./assets/img/ocean/memory/0.jpg","[""ArrowDown"",""ArrowRight""]","value training","ocean","30","{""ArrowUp,ArrowLeft"":23,""ArrowUp,ArrowRight"":10,""ArrowDown,ArrowLeft"":8,""ArrowDown,ArrowRight"":30}","true","ArrowDown,ArrowRight","false","","","revaluation","1","46","","",""
"html-keyboard-response","163","912739","0.0-4.0-2.0-1.23","spark_pilot_2","7982","2","17","Female","","","","","","","null","<div style=""font-size:60px;"">+</div>","null","fixation","","","","","","","","","","","47","","",""
"revaluation","164","918747","0.0-4.0-2.0-0.24","spark_pilot_2","7982","2","17","Female","","","false","","","","[1226.7000000178814,647.5]","./assets/img/ocean/memory/12.jpg","[""ArrowUp"",""ArrowRight""]","value training","ocean","10","{""ArrowUp,ArrowLeft"":23,""ArrowUp,ArrowRight"":10,""ArrowDown,ArrowLeft"":8,""ArrowDown,ArrowRight"":30}","false","ArrowUp,ArrowRight","false","","","revaluation","1","48","","",""
"html-keyboard-response","165","919248","0.0-4.0-2.0-1.24","spark_pilot_2","7982","2","17","Female","","","","","","","null","<div style=""font-size:60px;"">+</div>","null","fixation","","","","","","","","","","","49","","",""
"revaluation","166","925257","0.0-4.0-2.0-0.25","spark_pilot_2","7982","2","17","Female","","","false","","","","[1418,513.0999999940395]","./assets/img/ocean/memory/9.jpg","[""ArrowDown"",""ArrowRight""]","value training","ocean","30","{""ArrowUp,ArrowLeft"":23,""ArrowUp,ArrowRight"":10,""ArrowDown,ArrowLeft"":8,""ArrowDown,ArrowRight"":30}","true","ArrowDown,ArrowRight","false","","","revaluation","1","50","","",""
"html-keyboard-response","167","925760","0.0-4.0-2.0-1.25","spark_pilot_2","7982","2","17","Female","","","","","","","null","<div style=""font-size:60px;"">+</div>","null","fixation","","","","","","","","","","","51","","",""
"revaluation","168","931769","0.0-4.0-2.0-0.26","spark_pilot_2","7982","2","17","Female","","","false","","","","[968.8999999761581,368.80000001192093]","./assets/img/ocean/memory/20.jpg","[""ArrowDown"",""ArrowLeft""]","value training","ocean","8","{""ArrowUp,ArrowLeft"":23,""ArrowUp,ArrowRight"":10,""ArrowDown,ArrowLeft"":8,""ArrowDown,ArrowRight"":30}","false","ArrowDown,ArrowLeft","false","","","revaluation","1","52","","",""
"html-keyboard-response","169","932271","0.0-4.0-2.0-1.26","spark_pilot_2","7982","2","17","Female","","","","","","","null","<div style=""font-size:60px;"">+</div>","null","fixation","","","","","","","","","","","53","","",""
"revaluation","170","938280","0.0-4.0-2.0-0.27","spark_pilot_2","7982","2","17","Female","","","false","","","","[815.8000000119209,495.7999999821186]","./assets/img/ocean/memory/23.jpg","[""ArrowDown"",""ArrowRight""]","value training","ocean","30","{""ArrowUp,ArrowLeft"":23,""ArrowUp,ArrowRight"":10,""ArrowDown,ArrowLeft"":8,""ArrowDown,ArrowRight"":30}","true","ArrowDown,ArrowRight","false","","","revaluation","1","54","","",""
"html-keyboard-response","171","938782","0.0-4.0-2.0-1.27","spark_pilot_2","7982","2","17","Female","","","","","","","null","<div style=""font-size:60px;"">+</div>","null","fixation","","","","","","","","","","","55","","",""
"revaluation","172","944790","0.0-4.0-2.0-0.28","spark_pilot_2","7982","2","17","Female","","","false","","","","[772.3000000119209,566]","./assets/img/ocean/memory/26.jpg","[""ArrowDown"",""ArrowRight""]","value training","ocean","30","{""ArrowUp,ArrowLeft"":23,""ArrowUp,ArrowRight"":10,""ArrowDown,ArrowLeft"":8,""ArrowDown,ArrowRight"":30}","true","ArrowDown,ArrowRight","false","","","revaluation","1","56","","",""
"html-keyboard-response","173","945292","0.0-4.0-2.0-1.28","spark_pilot_2","7982","2","17","Female","","","","","","","null","<div style=""font-size:60px;"">+</div>","null","fixation","","","","","","","","","","","57","","",""
"revaluation","174","951302","0.0-4.0-2.0-0.29","spark_pilot_2","7982","2","17","Female","","","false","","","","[907.3000000119209,407.30000001192093]","./assets/img/ocean/memory/21.jpg","[""ArrowDown"",""ArrowRight""]","value training","ocean","30","{""ArrowUp,ArrowLeft"":23,""ArrowUp,ArrowRight"":10,""ArrowDown,ArrowLeft"":8,""ArrowDown,ArrowRight"":30}","true","ArrowDown,ArrowRight","false","","","revaluation","1","58","","",""
"html-keyboard-response","175","951804","0.0-4.0-2.0-1.29","spark_pilot_2","7982","2","17","Female","","","","","","","null","<div style=""font-size:60px;"">+</div>","null","fixation","","","","","","","","","","","59","","",""
"revaluation","176","957814","0.0-4.0-2.0-0.30","spark_pilot_2","7982","2","17","Female","","","false","","","","[752.3000000119209,678.0999999940395]","./assets/img/ocean/memory/39.jpg","[""ArrowDown"",""ArrowRight""]","value training","ocean","30","{""ArrowUp,ArrowLeft"":23,""ArrowUp,ArrowRight"":10,""ArrowDown,ArrowLeft"":8,""ArrowDown,ArrowRight"":30}","true","ArrowDown,ArrowRight","false","","","revaluation","1","60","","",""
"html-keyboard-response","177","958316","0.0-4.0-2.0-1.30","spark_pilot_2","7982","2","17","Female","","","","","","","null","<div style=""font-size:60px;"">+</div>","null","fixation","","","","","","","","","","","61","","",""
"revaluation","178","964323","0.0-4.0-2.0-0.31","spark_pilot_2","7982","2","17","Female","","","false","","","","[703.4000000059605,509.90000000596046]","./assets/img/ocean/memory/27.jpg","[""ArrowDown"",""ArrowRight""]","value training","ocean","30","{""ArrowUp,ArrowLeft"":23,""ArrowUp,ArrowRight"":10,""ArrowDown,ArrowLeft"":8,""ArrowDown,ArrowRight"":30}","true","ArrowDown,ArrowRight","false","","","revaluation","1","62","","",""
"html-keyboard-response","179","964825","0.0-4.0-2.0-1.31","spark_pilot_2","7982","2","17","Female","","","","","","","null","<div style=""font-size:60px;"">+</div>","null","fixation","","","","","","","","","","","63","","",""
"revaluation","180","970841","0.0-4.0-2.0-0.32","spark_pilot_2","7982","2","17","Female","","","false","","","","[690.7000000178814,701.7000000178814]","./assets/img/ocean/memory/39.jpg","[""ArrowDown"",""ArrowRight""]","value training","ocean","30","{""ArrowUp,ArrowLeft"":23,""ArrowUp,ArrowRight"":10,""ArrowDown,ArrowLeft"":8,""ArrowDown,ArrowRight"":30}","true","ArrowDown,ArrowRight","false","","","revaluation","1","64","","",""
"html-keyboard-response","181","971343","0.0-4.0-2.0-1.32","spark_pilot_2","7982","2","17","Female","","","","","","","null","<div style=""font-size:60px;"">+</div>","null","fixation","","","","","","","","","","","65","","",""
"revaluation","182","977353","0.0-4.0-2.0-0.33","spark_pilot_2","7982","2","17","Female","","","false","","","","[739.6999999880791,855.6999999880791]","./assets/img/ocean/memory/30.jpg","[""ArrowDown"",""ArrowRight""]","value training","ocean","30","{""ArrowUp,ArrowLeft"":23,""ArrowUp,ArrowRight"":10,""ArrowDown,ArrowLeft"":8,""ArrowDown,ArrowRight"":30}","true","ArrowDown,ArrowRight","false","","","revaluation","1","66","","",""
"html-keyboard-response","183","977855","0.0-4.0-2.0-1.33","spark_pilot_2","7982","2","17","Female","","","","","","","null","<div style=""font-size:60px;"">+</div>","null","fixation","","","","","","","","","","","67","","",""
"revaluation","184","983863","0.0-4.0-2.0-0.34","spark_pilot_2","7982","2","17","Female","","","false","","","","[658.5999999940395,668.0999999940395]","./assets/img/ocean/memory/30.jpg","[""ArrowDown"",""ArrowRight""]","value training","ocean","30","{""ArrowUp,ArrowLeft"":23,""ArrowUp,ArrowRight"":10,""ArrowDown,ArrowLeft"":8,""ArrowDown,ArrowRight"":30}","true","ArrowDown,ArrowRight","false","","","revaluation","1","68","","",""
"html-keyboard-response","185","984366","0.0-4.0-2.0-1.34","spark_pilot_2","7982","2","17","Female","","","","","","","null","<div style=""font-size:60px;"">+</div>","null","fixation","","","","","","","","","","","69","","",""
"revaluation","186","990373","0.0-4.0-2.0-0.35","spark_pilot_2","7982","2","17","Female","","","false","","","","[1263.7999999821186,1381.7999999821186]","./assets/img/ocean/memory/27.jpg","[""ArrowDown"",""ArrowRight""]","value training","ocean","30","{""ArrowUp,ArrowLeft"":23,""ArrowUp,ArrowRight"":10,""ArrowDown,ArrowLeft"":8,""ArrowDown,ArrowRight"":30}","true","ArrowDown,ArrowRight","false","","","revaluation","1","70","","",""
"html-keyboard-response","187","990875","0.0-4.0-2.0-1.35","spark_pilot_2","7982","2","17","Female","","","","","","","null","<div style=""font-size:60px;"">+</div>","null","fixation","","","","","","","","","","","71","","",""
"revaluation","188","996882","0.0-4.0-2.0-0.36","spark_pilot_2","7982","2","17","Female","","","false","","","","[1858.5,1169.2000000178814]","./assets/img/ocean/memory/11.jpg","[""ArrowDown"",""ArrowRight""]","value training","ocean","30","{""ArrowUp,ArrowLeft"":23,""ArrowUp,ArrowRight"":10,""ArrowDown,ArrowLeft"":8,""ArrowDown,ArrowRight"":30}","true","ArrowDown,ArrowRight","false","","","revaluation","1","72","","",""
"html-keyboard-response","189","997384","0.0-4.0-2.0-1.36","spark_pilot_2","7982","2","17","Female","","","","","","","null","<div style=""font-size:60px;"">+</div>","null","fixation","","","","","","","","","","","73","","",""
"revaluation","190","1001391","0.0-4.0-2.0-0.37","spark_pilot_2","7982","2","17","Female","","","false","","","","[1445]","./assets/img/ocean/catch/2.jpg","[""spaceBar""]","value training","ocean","0","{""ArrowUp,ArrowLeft"":23,""ArrowUp,ArrowRight"":10,""ArrowDown,ArrowLeft"":8,""ArrowDown,ArrowRight"":30}","true","spaceBar","true","","","revaluation","1","74","","",""
"html-keyboard-response","191","1001893","0.0-4.0-2.0-1.37","spark_pilot_2","7982","2","17","Female","","","","","","","null","<div style=""font-size:60px;"">+</div>","null","fixation","","","","","","","","","","","75","","",""
"revaluation","192","1005900","0.0-4.0-2.0-0.38","spark_pilot_2","7982","2","17","Female","","","false","","","","[1083.9000000059605]","./assets/img/ocean/catch/7.jpg","[""spaceBar""]","value training","ocean","0","{""ArrowUp,ArrowLeft"":23,""ArrowUp,ArrowRight"":10,""ArrowDown,ArrowLeft"":8,""ArrowDown,ArrowRight"":30}","true","spaceBar","true","","","revaluation","1","76","","",""
"html-keyboard-response","193","1006403","0.0-4.0-2.0-1.38","spark_pilot_2","7982","2","17","Female","","","","","","","null","<div style=""font-size:60px;"">+</div>","null","fixation","","","","","","","","","","","77","","",""
"revaluation","194","1010411","0.0-4.0-2.0-0.39","spark_pilot_2","7982","2","17","Female","","","true","","","","[]","./assets/img/ocean/memory/36.jpg","[]","value training","ocean","-5","{""ArrowUp,ArrowLeft"":23,""ArrowUp,ArrowRight"":10,""ArrowDown,ArrowLeft"":8,""ArrowDown,ArrowRight"":30}","false","","false","","","revaluation","1","78","","",""
"html-keyboard-response","195","1010914","0.0-4.0-2.0-1.39","spark_pilot_2","7982","2","17","Female","","","","","","","null","<div style=""font-size:60px;"">+</div>","null","fixation","","","","","","","","","","","79","","",""
"revaluation","196","1014920","0.0-4.0-2.0-0.40","spark_pilot_2","7982","2","17","Female","","","true","","","","[]","./assets/img/ocean/memory/1.jpg","[]","value training","ocean","-5","{""ArrowUp,ArrowLeft"":23,""ArrowUp,ArrowRight"":10,""ArrowDown,ArrowLeft"":8,""ArrowDown,ArrowRight"":30}","false","","false","","","revaluation","1","80","","",""
"html-keyboard-response","197","1015422","0.0-4.0-2.0-1.40","spark_pilot_2","7982","2","17","Female","","","","","","","null","<div style=""font-size:60px;"">+</div>","null","fixation","","","","","","","","","","","81","","",""
"revaluation","198","1021431","0.0-4.0-2.0-0.41","spark_pilot_2","7982","2","17","Female","","","false","","","","[953.5,661.6999999880791]","./assets/img/ocean/memory/19.jpg","[""ArrowDown"",""ArrowRight""]","value training","ocean","30","{""ArrowUp,ArrowLeft"":23,""ArrowUp,ArrowRight"":10,""ArrowDown,ArrowLeft"":8,""ArrowDown,ArrowRight"":30}","true","ArrowDown,ArrowRight","false","","","revaluation","1","82","","",""
"html-keyboard-response","199","1021933","0.0-4.0-2.0-1.41","spark_pilot_2","7982","2","17","Female","","","","","","","null","<div style=""font-size:60px;"">+</div>","null","fixation","","","","","","","","","","","83","","",""
"revaluation","200","1027952","0.0-4.0-2.0-0.42","spark_pilot_2","7982","2","17","Female","","","false","","","","[629.0999999940395,522.3000000119209]","./assets/img/ocean/memory/3.jpg","[""ArrowDown"",""ArrowRight""]","value training","ocean","30","{""ArrowUp,ArrowLeft"":23,""ArrowUp,ArrowRight"":10,""ArrowDown,ArrowLeft"":8,""ArrowDown,ArrowRight"":30}","true","ArrowDown,ArrowRight","false","","","revaluation","1","84","","",""
"html-keyboard-response","201","1028454","0.0-4.0-2.0-1.42","spark_pilot_2","7982","2","17","Female","","","","","","","null","<div style=""font-size:60px;"">+</div>","null","fixation","","","","","","","","","","","85","","",""
"revaluation","202","1034462","0.0-4.0-2.0-0.43","spark_pilot_2","7982","2","17","Female","","","false","","","","[705.1999999880791,581.5]","./assets/img/ocean/memory/11.jpg","[""ArrowDown"",""ArrowRight""]","value training","ocean","30","{""ArrowUp,ArrowLeft"":23,""ArrowUp,ArrowRight"":10,""ArrowDown,ArrowLeft"":8,""ArrowDown,ArrowRight"":30}","true","ArrowDown,ArrowRight","false","","","revaluation","1","86","","",""
"html-keyboard-response","203","1034965","0.0-4.0-2.0-1.43","spark_pilot_2","7982","2","17","Female","","","","","","","null","<div style=""font-size:60px;"">+</div>","null","fixation","","","","","","","","","","","87","","",""
"revaluation","204","1040975","0.0-4.0-2.0-0.44","spark_pilot_2","7982","2","17","Female","","","false","","","","[574.7999999821186,543.5]","./assets/img/ocean/memory/6.jpg","[""ArrowDown"",""ArrowRight""]","value training","ocean","30","{""ArrowUp,ArrowLeft"":23,""ArrowUp,ArrowRight"":10,""ArrowDown,ArrowLeft"":8,""ArrowDown,ArrowRight"":30}","true","ArrowDown,ArrowRight","false","","","revaluation","1","88","","",""
"html-keyboard-response","205","1041477","0.0-4.0-2.0-1.44","spark_pilot_2","7982","2","17","Female","","","","","","","null","<div style=""font-size:60px;"">+</div>","null","fixation","","","","","","","","","","","89","","",""
"revaluation","206","1045485","0.0-4.0-2.0-0.45","spark_pilot_2","7982","2","17","Female","","","false","","","","[1296.7000000178814]","./assets/img/ocean/catch/1.jpg","[""spaceBar""]","value training","ocean","0","{""ArrowUp,ArrowLeft"":23,""ArrowUp,ArrowRight"":10,""ArrowDown,ArrowLeft"":8,""ArrowDown,ArrowRight"":30}","true","spaceBar","true","","","revaluation","1","90","","",""
"html-keyboard-response","207","1045987","0.0-4.0-2.0-1.45","spark_pilot_2","7982","2","17","Female","","","","","","","null","<div style=""font-size:60px;"">+</div>","null","fixation","","","","","","","","","","","91","","",""
"revaluation","208","1051996","0.0-4.0-2.0-0.46","spark_pilot_2","7982","2","17","Female","","","false","","","","[692,441.19999998807907]","./assets/img/ocean/memory/41.jpg","[""ArrowDown"",""ArrowRight""]","value training","ocean","30","{""ArrowUp,ArrowLeft"":23,""ArrowUp,ArrowRight"":10,""ArrowDown,ArrowLeft"":8,""ArrowDown,ArrowRight"":30}","true","ArrowDown,ArrowRight","false","","","revaluation","1","92","","",""
"html-keyboard-response","209","1052498","0.0-4.0-2.0-1.46","spark_pilot_2","7982","2","17","Female","","","","","","","null","<div style=""font-size:60px;"">+</div>","null","fixation","","","","","","","","","","","93","","",""
"revaluation","210","1058506","0.0-4.0-2.0-0.47","spark_pilot_2","7982","2","17","Female","","","false","","","","[491,633.1999999880791]","./assets/img/ocean/memory/0.jpg","[""ArrowDown"",""ArrowRight""]","value training","ocean","30","{""ArrowUp,ArrowLeft"":23,""ArrowUp,ArrowRight"":10,""ArrowDown,ArrowLeft"":8,""ArrowDown,ArrowRight"":30}","true","ArrowDown,ArrowRight","false","","","revaluation","1","94","","",""
"html-keyboard-response","211","1059008","0.0-4.0-2.0-1.47","spark_pilot_2","7982","2","17","Female","","","","","","","null","<div style=""font-size:60px;"">+</div>","null","fixation","","","","","","","","","","","95","","",""
"revaluation","212","1063014","0.0-4.0-2.0-0.48","spark_pilot_2","7982","2","17","Female","","","false","","","","[1068.7999999821186]","./assets/img/ocean/catch/0.jpg","[""spaceBar""]","value training","ocean","0","{""ArrowUp,ArrowLeft"":23,""ArrowUp,ArrowRight"":10,""ArrowDown,ArrowLeft"":8,""ArrowDown,ArrowRight"":30}","true","spaceBar","true","","","revaluation","1","96","","",""
"html-keyboard-response","213","1063516","0.0-4.0-2.0-1.48","spark_pilot_2","7982","2","17","Female","","","","","","","null","<div style=""font-size:60px;"">+</div>","null","fixation","","","","","","","","","","","97","","",""
"revaluation","214","1069524","0.0-4.0-2.0-0.49","spark_pilot_2","7982","2","17","Female","","","false","","","","[1031.5999999940395,669.0999999940395]","./assets/img/ocean/memory/21.jpg","[""ArrowDown"",""ArrowRight""]","value training","ocean","30","{""ArrowUp,ArrowLeft"":23,""ArrowUp,ArrowRight"":10,""ArrowDown,ArrowLeft"":8,""ArrowDown,ArrowRight"":30}","true","ArrowDown,ArrowRight","false","","","revaluation","1","98","","",""
"html-keyboard-response","215","1070026","0.0-4.0-2.0-1.49","spark_pilot_2","7982","2","17","Female","","","","","","","null","<div style=""font-size:60px;"">+</div>","null","fixation","","","","","","","","","","","99","","",""
"learning-instructions","216","1085680","0.0-4.0-3.0-0.0","spark_pilot_2","7982","2","17","Female","","","","","","","2705.0999999940395","<p> Now, you will travel with a friend who will choose whether you go up or down first. </p>
            <p> On these turns, you will just see the animal that they found. You will still get to choose which chest to search for treasure.</p>","","instructions","","","","","","","","","","","","","",""
"revaluation","217","1089693","0.0-4.0-4.0-0.0","spark_pilot_2","7982","2","17","Female","","","false","","","","[1979.699999988079]","./assets/img/ocean/animals/seahorse.jpg","[""ArrowRight""]","revaluation","ocean","7","{""ArrowUp,ArrowLeft"":27,""ArrowUp,ArrowRight"":15,""ArrowDown,ArrowLeft"":21,""ArrowDown,ArrowRight"":7}","false","ArrowDown,ArrowRight","","","","revaluation","1","0","","",""
"html-keyboard-response","218","1090207","0.0-4.0-4.0-1.0","spark_pilot_2","7982","2","17","Female","","","","","","","null","<div style=""font-size:60px;"">+</div>","null","fixation","","","","","","","","","","","1","","",""
"revaluation","219","1094226","0.0-4.0-4.0-0.1","spark_pilot_2","7982","2","17","Female","","","false","","","","[411.2999999821186]","./assets/img/ocean/animals/seahorse.jpg","[""ArrowLeft""]","revaluation","ocean","21","{""ArrowUp,ArrowLeft"":27,""ArrowUp,ArrowRight"":15,""ArrowDown,ArrowLeft"":21,""ArrowDown,ArrowRight"":7}","true","ArrowDown,ArrowLeft","","","","revaluation","1","2","","",""
"html-keyboard-response","220","1094742","0.0-4.0-4.0-1.1","spark_pilot_2","7982","2","17","Female","","","","","","","null","<div style=""font-size:60px;"">+</div>","null","fixation","","","","","","","","","","","3","","",""
"revaluation","221","1098768","0.0-4.0-4.0-0.2","spark_pilot_2","7982","2","17","Female","","","false","","","","[549.5]","./assets/img/ocean/animals/seahorse.jpg","[""ArrowLeft""]","revaluation","ocean","21","{""ArrowUp,ArrowLeft"":27,""ArrowUp,ArrowRight"":15,""ArrowDown,ArrowLeft"":21,""ArrowDown,ArrowRight"":7}","true","ArrowDown,ArrowLeft","","","","revaluation","1","4","","",""
"html-keyboard-response","222","1099280","0.0-4.0-4.0-1.2","spark_pilot_2","7982","2","17","Female","","","","","","","null","<div style=""font-size:60px;"">+</div>","null","fixation","","","","","","","","","","","5","","",""
"revaluation","223","1103297","0.0-4.0-4.0-0.3","spark_pilot_2","7982","2","17","Female","","","false","","","","[1010.2000000178814]","./assets/img/ocean/animals/octopus.jpg","[""ArrowRight""]","revaluation","ocean","15","{""ArrowUp,ArrowLeft"":27,""ArrowUp,ArrowRight"":15,""ArrowDown,ArrowLeft"":21,""ArrowDown,ArrowRight"":7}","false","ArrowUp,ArrowRight","","","","revaluation","1","6","","",""
"html-keyboard-response","224","1103811","0.0-4.0-4.0-1.3","spark_pilot_2","7982","2","17","Female","","","","","","","null","<div style=""font-size:60px;"">+</div>","null","fixation","","","","","","","","","","","7","","",""
"revaluation","225","1107835","0.0-4.0-4.0-0.4","spark_pilot_2","7982","2","17","Female","","","false","","","","[374.09999999403954]","./assets/img/ocean/animals/octopus.jpg","[""ArrowLeft""]","revaluation","ocean","27","{""ArrowUp,ArrowLeft"":27,""ArrowUp,ArrowRight"":15,""ArrowDown,ArrowLeft"":21,""ArrowDown,ArrowRight"":7}","true","ArrowUp,ArrowLeft","","","","revaluation","1","8","","",""
"html-keyboard-response","226","1108350","0.0-4.0-4.0-1.4","spark_pilot_2","7982","2","17","Female","","","","","","","null","<div style=""font-size:60px;"">+</div>","null","fixation","","","","","","","","","","","9","","",""
"revaluation","227","1112377","0.0-4.0-4.0-0.5","spark_pilot_2","7982","2","17","Female","","","false","","","","[629.6999999880791]","./assets/img/ocean/animals/octopus.jpg","[""ArrowLeft""]","revaluation","ocean","27","{""ArrowUp,ArrowLeft"":27,""ArrowUp,ArrowRight"":15,""ArrowDown,ArrowLeft"":21,""ArrowDown,ArrowRight"":7}","true","ArrowUp,ArrowLeft","","","","revaluation","1","10","","",""
"html-keyboard-response","228","1112892","0.0-4.0-4.0-1.5","spark_pilot_2","7982","2","17","Female","","","","","","","null","<div style=""font-size:60px;"">+</div>","null","fixation","","","","","","","","","","","11","","",""
"revaluation","229","1116899","0.0-4.0-4.0-0.6","spark_pilot_2","7982","2","17","Female","","","false","","","","[511.2999999821186]","./assets/img/ocean/animals/octopus.jpg","[""ArrowLeft""]","revaluation","ocean","27","{""ArrowUp,ArrowLeft"":27,""ArrowUp,ArrowRight"":15,""ArrowDown,ArrowLeft"":21,""ArrowDown,ArrowRight"":7}","true","ArrowUp,ArrowLeft","","","","revaluation","1","12","","",""
"html-keyboard-response","230","1117402","0.0-4.0-4.0-1.6","spark_pilot_2","7982","2","17","Female","","","","","","","null","<div style=""font-size:60px;"">+</div>","null","fixation","","","","","","","","","","","13","","",""
"revaluation","231","1121410","0.0-4.0-4.0-0.7","spark_pilot_2","7982","2","17","Female","","","false","","","","[451.90000000596046]","./assets/img/ocean/animals/octopus.jpg","[""ArrowLeft""]","revaluation","ocean","27","{""ArrowUp,ArrowLeft"":27,""ArrowUp,ArrowRight"":15,""ArrowDown,ArrowLeft"":21,""ArrowDown,ArrowRight"":7}","true","ArrowUp,ArrowLeft","","","","revaluation","1","14","","",""
"html-keyboard-response","232","1121913","0.0-4.0-4.0-1.7","spark_pilot_2","7982","2","17","Female","","","","","","","null","<div style=""font-size:60px;"">+</div>","null","fixation","","","","","","","","","","","15","","",""
"revaluation","233","1125919","0.0-4.0-4.0-0.8","spark_pilot_2","7982","2","17","Female","","","false","","","","[494.30000001192093]","./assets/img/ocean/animals/seahorse.jpg","[""ArrowLeft""]","revaluation","ocean","21","{""ArrowUp,ArrowLeft"":27,""ArrowUp,ArrowRight"":15,""ArrowDown,ArrowLeft"":21,""ArrowDown,ArrowRight"":7}","true","ArrowDown,ArrowLeft","","","","revaluation","1","16","","",""
"html-keyboard-response","234","1126421","0.0-4.0-4.0-1.8","spark_pilot_2","7982","2","17","Female","","","","","","","null","<div style=""font-size:60px;"">+</div>","null","fixation","","","","","","","","","","","17","","",""
"revaluation","235","1130430","0.0-4.0-4.0-0.9","spark_pilot_2","7982","2","17","Female","","","true","","","","[]","./assets/img/ocean/animals/seahorse.jpg","[]","revaluation","ocean","-5","{""ArrowUp,ArrowLeft"":27,""ArrowUp,ArrowRight"":15,""ArrowDown,ArrowLeft"":21,""ArrowDown,ArrowRight"":7}","false","ArrowDown","","","","revaluation","1","18","","",""
"html-keyboard-response","236","1130932","0.0-4.0-4.0-1.9","spark_pilot_2","7982","2","17","Female","","","","","","","null","<div style=""font-size:60px;"">+</div>","null","fixation","","","","","","","","","","","19","","",""
"revaluation","237","1134939","0.0-4.0-4.0-0.10","spark_pilot_2","7982","2","17","Female","","","false","","","","[342.09999999403954]","./assets/img/ocean/animals/seahorse.jpg","[""ArrowLeft""]","revaluation","ocean","21","{""ArrowUp,ArrowLeft"":27,""ArrowUp,ArrowRight"":15,""ArrowDown,ArrowLeft"":21,""ArrowDown,ArrowRight"":7}","true","ArrowDown,ArrowLeft","","","","revaluation","1","20","","",""
"html-keyboard-response","238","1135440","0.0-4.0-4.0-1.10","spark_pilot_2","7982","2","17","Female","","","","","","","null","<div style=""font-size:60px;"">+</div>","null","fixation","","","","","","","","","","","21","","",""
"revaluation","239","1139448","0.0-4.0-4.0-0.11","spark_pilot_2","7982","2","17","Female","","","false","","","","[300]","./assets/img/ocean/animals/octopus.jpg","[""ArrowLeft""]","revaluation","ocean","27","{""ArrowUp,ArrowLeft"":27,""ArrowUp,ArrowRight"":15,""ArrowDown,ArrowLeft"":21,""ArrowDown,ArrowRight"":7}","true","ArrowUp,ArrowLeft","","","","revaluation","1","22","","",""
"html-keyboard-response","240","1139951","0.0-4.0-4.0-1.11","spark_pilot_2","7982","2","17","Female","","","","","","","null","<div style=""font-size:60px;"">+</div>","null","fixation","","","","","","","","","","","23","","",""
"revaluation","241","1143957","0.0-4.0-4.0-0.12","spark_pilot_2","7982","2","17","Female","","","false","","","","[460.09999999403954]","./assets/img/ocean/animals/octopus.jpg","[""ArrowLeft""]","revaluation","ocean","27","{""ArrowUp,ArrowLeft"":27,""ArrowUp,ArrowRight"":15,""ArrowDown,ArrowLeft"":21,""ArrowDown,ArrowRight"":7}","true","ArrowUp,ArrowLeft","","","","revaluation","1","24","","",""
"html-keyboard-response","242","1144459","0.0-4.0-4.0-1.12","spark_pilot_2","7982","2","17","Female","","","","","","","null","<div style=""font-size:60px;"">+</div>","null","fixation","","","","","","","","","","","25","","",""
"revaluation","243","1148467","0.0-4.0-4.0-0.13","spark_pilot_2","7982","2","17","Female","","","false","","","","[587.8000000119209]","./assets/img/ocean/animals/seahorse.jpg","[""ArrowLeft""]","revaluation","ocean","21","{""ArrowUp,ArrowLeft"":27,""ArrowUp,ArrowRight"":15,""ArrowDown,ArrowLeft"":21,""ArrowDown,ArrowRight"":7}","true","ArrowDown,ArrowLeft","","","","revaluation","1","26","","",""
"html-keyboard-response","244","1148970","0.0-4.0-4.0-1.13","spark_pilot_2","7982","2","17","Female","","","","","","","null","<div style=""font-size:60px;"">+</div>","null","fixation","","","","","","","","","","","27","","",""
"revaluation","245","1152979","0.0-4.0-4.0-0.14","spark_pilot_2","7982","2","17","Female","","","false","","","","[558.3000000119209]","./assets/img/ocean/animals/octopus.jpg","[""ArrowLeft""]","revaluation","ocean","27","{""ArrowUp,ArrowLeft"":27,""ArrowUp,ArrowRight"":15,""ArrowDown,ArrowLeft"":21,""ArrowDown,ArrowRight"":7}","true","ArrowUp,ArrowLeft","","","","revaluation","1","28","","",""
"html-keyboard-response","246","1153481","0.0-4.0-4.0-1.14","spark_pilot_2","7982","2","17","Female","","","","","","","null","<div style=""font-size:60px;"">+</div>","null","fixation","","","","","","","","","","","29","","",""
"revaluation","247","1157490","0.0-4.0-4.0-0.15","spark_pilot_2","7982","2","17","Female","","","true","","","","[]","./assets/img/ocean/animals/seahorse.jpg","[]","revaluation","ocean","-5","{""ArrowUp,ArrowLeft"":27,""ArrowUp,ArrowRight"":15,""ArrowDown,ArrowLeft"":21,""ArrowDown,ArrowRight"":7}","false","ArrowDown","","","","revaluation","1","30","","",""
"html-keyboard-response","248","1157992","0.0-4.0-4.0-1.15","spark_pilot_2","7982","2","17","Female","","","","","","","null","<div style=""font-size:60px;"">+</div>","null","fixation","","","","","","","","","","","31","","",""
"revaluation","249","1161999","0.0-4.0-4.0-0.16","spark_pilot_2","7982","2","17","Female","","","true","","","","[]","./assets/img/ocean/animals/seahorse.jpg","[]","revaluation","ocean","-5","{""ArrowUp,ArrowLeft"":27,""ArrowUp,ArrowRight"":15,""ArrowDown,ArrowLeft"":21,""ArrowDown,ArrowRight"":7}","false","ArrowDown","","","","revaluation","1","32","","",""
"html-keyboard-response","250","1162501","0.0-4.0-4.0-1.16","spark_pilot_2","7982","2","17","Female","","","","","","","null","<div style=""font-size:60px;"">+</div>","null","fixation","","","","","","","","","","","33","","",""
"revaluation","251","1166511","0.0-4.0-4.0-0.17","spark_pilot_2","7982","2","17","Female","","","false","","","","[346.2999999821186]","./assets/img/ocean/animals/octopus.jpg","[""ArrowLeft""]","revaluation","ocean","27","{""ArrowUp,ArrowLeft"":27,""ArrowUp,ArrowRight"":15,""ArrowDown,ArrowLeft"":21,""ArrowDown,ArrowRight"":7}","true","ArrowUp,ArrowLeft","","","","revaluation","1","34","","",""
"html-keyboard-response","252","1167015","0.0-4.0-4.0-1.17","spark_pilot_2","7982","2","17","Female","","","","","","","null","<div style=""font-size:60px;"">+</div>","null","fixation","","","","","","","","","","","35","","",""
"learning-instructions","253","1180625","0.0-4.0-5.0-0.0","spark_pilot_2","7982","2","17","Female","","","","","","","2066.800000011921","<p> Time to play the dot game! </p>
            <p> For one minute, click the red dots on the following screen as they appear. </p>
            <p><b> Don't look away, as you will earn bonus for clicking dots</b>. </p>","","instructions","","","","","","","","","","","","","",""
"revaluation","254","1240628","0.0-4.0-6.0-0.0","spark_pilot_2","7982","2","17","Female","","","","","","","[245,125,216,139,99,104,83]","","","rest","","70","","","","","0","60000","","","","","",""
"learning-instructions","255","1251342","0.0-4.0-7.0-0.0","spark_pilot_2","7982","2","17","Female","","","","","","","4538.199999988079","<p> You have almost finished this part of the game! </p>
            <p> We are going to ask you to make a few more choices. </p>","","instructions","","","","","","","","","","","","","",""
"learning-instructions","256","1268742","0.0-4.0-7.0-0.1","spark_pilot_2","7982","2","17","Female","","","","","","","3428.199999988079","<p> First, you need to decide whether to go up or down. When you see each picture, use the arrow keys to make your choice. </p>
            <p><b>You will not see which animal you found, but try to get to the one that will give you the most treasure.</b></p>","","instructions","","","","","","","","","","","","","",""
"revaluation","257","1271740","0.0-4.0-8.0-0.0","spark_pilot_2","7982","2","17","Female","","","false","","","","[2996.0999999940395]","./assets/img/ocean/test/1.jpg","[""ArrowDown""]","first stage test","ocean","0","{""ArrowUp,ArrowLeft"":27,""ArrowUp,ArrowRight"":15,""ArrowDown,ArrowLeft"":21,""ArrowDown,ArrowRight"":7}","false","ArrowDown","false","","","revaluation","1","","","",""
"html-keyboard-response","258","1272245","0.0-4.0-8.0-1.0","spark_pilot_2","7982","2","17","Female","","","","","","","null","<div style=""font-size:60px;"">+</div>","null","fixation","","","","","","","","","","","","","",""
"revaluation","259","1272833","0.0-4.0-8.0-0.1","spark_pilot_2","7982","2","17","Female","","","false","","","","[582.0999999940395]","./assets/img/ocean/test/2.jpg","[""ArrowDown""]","first stage test","ocean","0","{""ArrowUp,ArrowLeft"":27,""ArrowUp,ArrowRight"":15,""ArrowDown,ArrowLeft"":21,""ArrowDown,ArrowRight"":7}","false","ArrowDown","false","","","revaluation","1","","","",""
"html-keyboard-response","260","1273341","0.0-4.0-8.0-1.1","spark_pilot_2","7982","2","17","Female","","","","","","","null","<div style=""font-size:60px;"">+</div>","null","fixation","","","","","","","","","","","","","",""
"revaluation","261","1273747","0.0-4.0-8.0-0.2","spark_pilot_2","7982","2","17","Female","","","false","","","","[400.19999998807907]","./assets/img/ocean/test/0.jpg","[""ArrowDown""]","first stage test","ocean","0","{""ArrowUp,ArrowLeft"":27,""ArrowUp,ArrowRight"":15,""ArrowDown,ArrowLeft"":21,""ArrowDown,ArrowRight"":7}","false","ArrowDown","false","","","revaluation","1","","","",""
"html-keyboard-response","262","1274263","0.0-4.0-8.0-1.2","spark_pilot_2","7982","2","17","Female","","","","","","","null","<div style=""font-size:60px;"">+</div>","null","fixation","","","","","","","","","","","","","",""
"revaluation","263","1274868","0.0-4.0-8.0-0.3","spark_pilot_2","7982","2","17","Female","","","false","","","","[598.5]","./assets/img/ocean/test/3.jpg","[""ArrowUp""]","first stage test","ocean","0","{""ArrowUp,ArrowLeft"":27,""ArrowUp,ArrowRight"":15,""ArrowDown,ArrowLeft"":21,""ArrowDown,ArrowRight"":7}","true","ArrowUp","false","","","revaluation","1","","","",""
"html-keyboard-response","264","1275377","0.0-4.0-8.0-1.3","spark_pilot_2","7982","2","17","Female","","","","","","","null","<div style=""font-size:60px;"">+</div>","null","fixation","","","","","","","","","","","","","",""
"learning-instructions","265","1290137","0.0-4.0-9.0-0.0","spark_pilot_2","7982","2","17","Female","","","","","","","3423.5","<p> Now you will see the animals again and can search their chests for treasure. </p>
            <p> This time, you will not see how much treasure you earned, but you will earn more bonus money for making better choices. </p>","","instructions","","","","","","","","","","","","","",""
"revaluation","266","1291207","0.0-4.0-10.0-0.0","spark_pilot_2","7982","2","17","Female","","","false","","","","[1068.5]","./assets/img/ocean/animals/octopus.jpg","[""ArrowRight""]","second stage test","ocean","0","{""ArrowUp,ArrowLeft"":27,""ArrowUp,ArrowRight"":15,""ArrowDown,ArrowLeft"":21,""ArrowDown,ArrowRight"":7}","false","ArrowUp,ArrowRight","","","","revaluation","1","","","",""
"html-keyboard-response","267","1291713","0.0-4.0-10.0-1.0","spark_pilot_2","7982","2","17","Female","","","","","","","null","<div style=""font-size:60px;"">+</div>","null","fixation","","","","","","","","","","","","","",""
"revaluation","268","1292722","0.0-4.0-10.0-0.1","spark_pilot_2","7982","2","17","Female","","","false","","","","[1003.8000000119209]","./assets/img/ocean/animals/octopus.jpg","[""ArrowLeft""]","second stage test","ocean","0","{""ArrowUp,ArrowLeft"":27,""ArrowUp,ArrowRight"":15,""ArrowDown,ArrowLeft"":21,""ArrowDown,ArrowRight"":7}","true","ArrowUp,ArrowLeft","","","","revaluation","1","","","",""
"html-keyboard-response","269","1293239","0.0-4.0-10.0-1.1","spark_pilot_2","7982","2","17","Female","","","","","","","null","<div style=""font-size:60px;"">+</div>","null","fixation","","","","","","","","","","","","","",""
"revaluation","270","1295630","0.0-4.0-10.0-0.2","spark_pilot_2","7982","2","17","Female","","","false","","","","[2385.4000000059605]","./assets/img/ocean/animals/octopus.jpg","[""ArrowLeft""]","second stage test","ocean","0","{""ArrowUp,ArrowLeft"":27,""ArrowUp,ArrowRight"":15,""ArrowDown,ArrowLeft"":21,""ArrowDown,ArrowRight"":7}","true","ArrowUp,ArrowLeft","","","","revaluation","1","","","",""
"html-keyboard-response","271","1296141","0.0-4.0-10.0-1.2","spark_pilot_2","7982","2","17","Female","","","","","","","null","<div style=""font-size:60px;"">+</div>","null","fixation","","","","","","","","","","","","","",""
"revaluation","272","1296666","0.0-4.0-10.0-0.3","spark_pilot_2","7982","2","17","Female","","","false","","","","[518.5]","./assets/img/ocean/animals/octopus.jpg","[""ArrowLeft""]","second stage test","ocean","0","{""ArrowUp,ArrowLeft"":27,""ArrowUp,ArrowRight"":15,""ArrowDown,ArrowLeft"":21,""ArrowDown,ArrowRight"":7}","true","ArrowUp,ArrowLeft","","","","revaluation","1","","","",""
"html-keyboard-response","273","1297169","0.0-4.0-10.0-1.3","spark_pilot_2","7982","2","17","Female","","","","","","","null","<div style=""font-size:60px;"">+</div>","null","fixation","","","","","","","","","","","","","",""
"revaluation","274","1298283","0.0-4.0-10.0-0.4","spark_pilot_2","7982","2","17","Female","","","false","","","","[1108.4000000059605]","./assets/img/ocean/animals/seahorse.jpg","[""ArrowLeft""]","second stage test","ocean","0","{""ArrowUp,ArrowLeft"":27,""ArrowUp,ArrowRight"":15,""ArrowDown,ArrowLeft"":21,""ArrowDown,ArrowRight"":7}","true","ArrowDown,ArrowLeft","","","","revaluation","1","","","",""
"html-keyboard-response","275","1298795","0.0-4.0-10.0-1.4","spark_pilot_2","7982","2","17","Female","","","","","","","null","<div style=""font-size:60px;"">+</div>","null","fixation","","","","","","","","","","","","","",""
"revaluation","276","1299143","0.0-4.0-10.0-0.5","spark_pilot_2","7982","2","17","Female","","","false","","","","[342.59999999403954]","./assets/img/ocean/animals/seahorse.jpg","[""ArrowRight""]","second stage test","ocean","0","{""ArrowUp,ArrowLeft"":27,""ArrowUp,ArrowRight"":15,""ArrowDown,ArrowLeft"":21,""ArrowDown,ArrowRight"":7}","false","ArrowDown,ArrowRight","","","","revaluation","1","","","",""
"html-keyboard-response","277","1299651","0.0-4.0-10.0-1.5","spark_pilot_2","7982","2","17","Female","","","","","","","null","<div style=""font-size:60px;"">+</div>","null","fixation","","","","","","","","","","","","","",""
"revaluation","278","1300054","0.0-4.0-10.0-0.6","spark_pilot_2","7982","2","17","Female","","","false","","","","[396.5]","./assets/img/ocean/animals/seahorse.jpg","[""ArrowLeft""]","second stage test","ocean","0","{""ArrowUp,ArrowLeft"":27,""ArrowUp,ArrowRight"":15,""ArrowDown,ArrowLeft"":21,""ArrowDown,ArrowRight"":7}","true","ArrowDown,ArrowLeft","","","","revaluation","1","","","",""
"html-keyboard-response","279","1300555","0.0-4.0-10.0-1.6","spark_pilot_2","7982","2","17","Female","","","","","","","null","<div style=""font-size:60px;"">+</div>","null","fixation","","","","","","","","","","","","","",""
"revaluation","280","1300918","0.0-4.0-10.0-0.7","spark_pilot_2","7982","2","17","Female","","","false","","","","[358.5]","./assets/img/ocean/animals/seahorse.jpg","[""ArrowRight""]","second stage test","ocean","0","{""ArrowUp,ArrowLeft"":27,""ArrowUp,ArrowRight"":15,""ArrowDown,ArrowLeft"":21,""ArrowDown,ArrowRight"":7}","false","ArrowDown,ArrowRight","","","","revaluation","1","","","",""
"html-keyboard-response","281","1301426","0.0-4.0-10.0-1.7","spark_pilot_2","7982","2","17","Female","","","","","","","null","<div style=""font-size:60px;"">+</div>","null","fixation","","","","","","","","","","","","","",""
"learning-instructions","282","1306486","0.0-4.0-0.1-0.2","spark_pilot_2","7982","2","17","Female","","","","","","","2282.9000000059605","<p> This time you are searching for treasure in the <b>canyon</b>.</p>","","instructions","","","","","","","","","","","","","",""
"learning-instructions","283","1324820","0.0-4.0-0.1-0.3","spark_pilot_2","7982","2","17","Female","[{""event"":""blur"",""trial"":1,""time"":8695},{""event"":""focus"",""trial"":1,""time"":25803},{""event"":""fullscreenenter"",""trial"":2,""time"":82035},{""event"":""blur"",""trial"":284,""time"":1333918},{""event"":""fullscreenexit"",""trial"":284,""time"":1333923},{""event"":""focus"",""trial"":284,""time"":1333929},{""event"":""blur"",""trial"":287,""time"":1348055},{""event"":""focus"",""trial"":287,""time"":1348062},{""event"":""blur"",""trial"":289,""time"":1351764},{""event"":""focus"",""trial"":289,""time"":1354302},{""event"":""blur"",""trial"":423,""time"":1799161},{""event"":""focus"",""trial"":423,""time"":1802315},{""event"":""blur"",""trial"":462,""time"":1962065},{""event"":""focus"",""trial"":462,""time"":1967507},{""event"":""blur"",""trial"":485,""time"":2036540},{""event"":""focus"",""trial"":487,""time"":2038206},{""event"":""blur"",""trial"":553,""time"":2127946},{""event"":""focus"",""trial"":553,""time"":2130638}]","","","","","","1077.2000000178814","<p><b>New</b> animals with <b>new</b> treasure chests live here. You need to explore to discover where the animal with the best treasure chest is.</p>
                    <p> Like before, once you figure out which animal has the chest with the most treasure, you should try to get to that animal and select that chest! </p>","","instructions","","","","","","","","","","","","","",""
"learning-instructions","284","1340827","0.0-4.0-1.1-0.1","spark_pilot_2","7982","2","17","Female","","","","","","","1283.199999988079","<p> Remember, when you see a picture of the place, use the up and down keys to <b>find an animal</b>.</p>
            <p> When you encounter an animal, you should use the left and right keys to <b>select a treasure chest</b>.</p>
            <p> Don't forget to look out for the robber! </p>","","instructions","","","","","","","","","","","","","",""
"revaluation","285","1344852","0.0-4.0-2.1-0.50","spark_pilot_2","7982","2","17","Female","","","false","","","","[1303.800000011921]","./assets/img/canyon/catch/7.jpg","[""spaceBar""]","value training","canyon","0","{""ArrowUp,ArrowLeft"":26,""ArrowUp,ArrowRight"":10,""ArrowDown,ArrowLeft"":5,""ArrowDown,ArrowRight"":17}","true","spaceBar","true","","","original","2","0","","",""
"html-keyboard-response","286","1345366","0.0-4.0-2.1-1.50","spark_pilot_2","7982","2","17","Female","[{""event"":""blur"",""trial"":1,""time"":8695},{""event"":""focus"",""trial"":1,""time"":25803},{""event"":""fullscreenenter"",""trial"":2,""time"":82035},{""event"":""blur"",""trial"":284,""time"":1333918},{""event"":""fullscreenexit"",""trial"":284,""time"":1333923},{""event"":""focus"",""trial"":284,""time"":1333929},{""event"":""blur"",""trial"":287,""time"":1348055},{""event"":""focus"",""trial"":287,""time"":1348062},{""event"":""blur"",""trial"":289,""time"":1351764},{""event"":""focus"",""trial"":289,""time"":1354302},{""event"":""blur"",""trial"":423,""time"":1799161},{""event"":""focus"",""trial"":423,""time"":1802315},{""event"":""blur"",""trial"":462,""time"":1962065},{""event"":""focus"",""trial"":462,""time"":1967507},{""event"":""blur"",""trial"":485,""time"":2036540},{""event"":""focus"",""trial"":487,""time"":2038206},{""event"":""blur"",""trial"":553,""time"":2127946},{""event"":""focus"",""trial"":553,""time"":2130638}]","","","","","","null","<div style=""font-size:60px;"">+</div>","null","fixation","","","","","","","","","","","1","","",""
"revaluation","287","1350058","0.0-4.0-2.1-0.51","spark_pilot_2","7982","2","17","Female","","","true","","","","[]","./assets/img/canyon/memory/0.jpg","[]","value training","canyon","-5","{""ArrowUp,ArrowLeft"":26,""ArrowUp,ArrowRight"":10,""ArrowDown,ArrowLeft"":5,""ArrowDown,ArrowRight"":17}","false","","false","","","original","2","2","","",""
"html-keyboard-response","288","1350560","0.0-4.0-2.1-1.51","spark_pilot_2","7982","2","17","Female","[{""event"":""blur"",""trial"":1,""time"":8695},{""event"":""focus"",""trial"":1,""time"":25803},{""event"":""fullscreenenter"",""trial"":2,""time"":82035},{""event"":""blur"",""trial"":284,""time"":1333918},{""event"":""fullscreenexit"",""trial"":284,""time"":1333923},{""event"":""focus"",""trial"":284,""time"":1333929},{""event"":""blur"",""trial"":287,""time"":1348055},{""event"":""focus"",""trial"":287,""time"":1348062},{""event"":""blur"",""trial"":289,""time"":1351764},{""event"":""focus"",""trial"":289,""time"":1354302},{""event"":""blur"",""trial"":423,""time"":1799161},{""event"":""focus"",""trial"":423,""time"":1802315},{""event"":""blur"",""trial"":462,""time"":1962065},{""event"":""focus"",""trial"":462,""time"":1967507},{""event"":""blur"",""trial"":485,""time"":2036540},{""event"":""focus"",""trial"":487,""time"":2038206},{""event"":""blur"",""trial"":553,""time"":2127946},{""event"":""focus"",""trial"":553,""time"":2130638}]","","","","","","null","<div style=""font-size:60px;"">+</div>","null","fixation","","","","","","","","","","","3","","",""
"revaluation","289","1356578","0.0-4.0-2.1-0.52","spark_pilot_2","7982","2","17","Female","","","true","","","","[1184.2000000178814]","./assets/img/canyon/memory/5.jpg","[""ArrowDown""]","value training","canyon","-5","{""ArrowUp,ArrowLeft"":26,""ArrowUp,ArrowRight"":10,""ArrowDown,ArrowLeft"":5,""ArrowDown,ArrowRight"":17}","false","ArrowDown","false","","","original","2","4","","",""
"html-keyboard-response","290","1357080","0.0-4.0-2.1-1.52","spark_pilot_2","7982","2","17","Female","","","","","","","null","<div style=""font-size:60px;"">+</div>","null","fixation","","","","","","","","","","","5","","",""
"revaluation","291","1363108","0.0-4.0-2.1-0.53","spark_pilot_2","7982","2","17","Female","","","false","","","","[1411.0999999940395,959]","./assets/img/canyon/memory/30.jpg","[""ArrowUp"",""ArrowRight""]","value training","canyon","10","{""ArrowUp,ArrowLeft"":26,""ArrowUp,ArrowRight"":10,""ArrowDown,ArrowLeft"":5,""ArrowDown,ArrowRight"":17}","false","ArrowUp,ArrowRight","false","","","original","2","6","","",""
"html-keyboard-response","292","1363625","0.0-4.0-2.1-1.53","spark_pilot_2","7982","2","17","Female","","","","","","","null","<div style=""font-size:60px;"">+</div>","null","fixation","","","","","","","","","","","7","","",""
