"trial_type","trial_index","time_elapsed","internal_node_id","task_version","subject_id","assigned_condition","age","gender","success","timeout","failed_images","failed_audio","failed_video","browser_interaction","rt","stimulus","response","task_part","environment","score","rewardMap","correct","fullState","isCatch","numberMissed","duration","condition","order","trial_num","key_press","ground_truth","bonus"
"pavlovia","0","1140","0.0-0.0","spark_pilot_2","7279","3","10","Male","","","","","","","","","","","","","","","","","","","","","","","",""
"preload","1","17536","0.0-1.0","spark_pilot_2","7279","3","10","Male","true","false","[]","[]","[]","[{""event"":""fullscreenenter"",""trial"":2,""time"":25948}]","","","","","","","","","","","","","","","","","",""
"fullscreen","2","26923","0.0-2.0","spark_pilot_2","7279","3","10","Male","true","","","","","","","","","","","","","","","","","","","","","","",""
"audio-button-response","3","28608","0.0-3.0-0.0-0.0","spark_pilot_2","7279","3","10","Male","","","","","","","1227","./assets/audio/audiotest/turtle.mp3","2","audio_test","","","","","","","","","","","","","",""
"learning-instructions","4","38177","0.0-3.0-1.0-0.0","spark_pilot_2","7279","3","10","Male","","","","","","","2582","<p> Welcome! Please remember to stay in fullscreen mode and don't click away from the experiment. </p>","","instructions","","","","","","","","","","","","","",""
"learning-instructions","5","49212","0.0-3.0-1.0-0.1","spark_pilot_2","7279","3","10","Male","","","","","","","2610.100000143051","<p> Today you will be playing a game to earn treasure. </p>
            <p> At the end of the experiment, you will earn a bonus based on how much treasure you find. </p>
            <img src='./assets/img/instructions/treasure.jpg' class='instructions-image'>","","instructions","","","","","","","","","","","","","",""
"learning-instructions","6","60979","0.0-3.0-1.0-0.2","spark_pilot_2","7279","3","10","Male","","","","","","","3485.7000000476837","<p> Animals have hidden treasure in treasure chests. </p>
            <p> You need to first find an animal and then choose which of their treasure chests to search. </p>
            <img src='./assets/img/space/animals/cat.jpg' class='instructions-image'>","","instructions","","","","","","","","","","","","","",""
"learning-instructions","7","77091","0.0-3.0-1.0-0.3","spark_pilot_2","7279","3","10","Male","","","","","","","2923.9000000953674","<p> In each round, you will search for treasure in a different place. In the real game, there will be two rounds. </p>
            <p> You will begin with a separate, practice round where you will search for treasure in outer space. </p>
            <img src='./assets/img/space/0.jpg' class='instructions-image'>","","instructions","","","","","","","","","","","","","",""
"learning-instructions","8","91735","0.0-3.0-1.0-0.4","spark_pilot_2","7279","3","10","Male","","","","","","","3200.100000143051","<p> On every turn, you will see a picture of the place that you are in, but the specific image may be different each time. </p>
            <p> For example, both of these images mean you are in outer space. </p>
            <img src='./assets/img/instructions/outerspace.jpg' class='instructions-image'>","","instructions","","","","","","","","","","","","","",""
"learning-instructions","9","108055","0.0-3.0-1.0-0.5","spark_pilot_2","7279","3","10","Male","","","","","","","8467.799999952316","<p> You need to decide which direction to travel in. </p>
            <p> You can choose between going <b>up or down</b> by using the arrow keys. </p>
            <img src='./assets/img/instructions/updown.jpg' class='instructions-image'>","","instructions","","","","","","","","","","","","","",""
"learning-instructions","10","118494","0.0-3.0-1.0-0.6","spark_pilot_2","7279","3","10","Male","","","","","","","1605.7999999523163","<p> You will have <b>2 seconds</b> to make your choice. </p>
            <p> If you do not make a choice within 2 seconds, you will not find an animal or earn treasure. </p>
            <img src='./assets/img/instructions/2seconds.jpg' class='instructions-image'>","","instructions","","","","","","","","","","","","","",""
"learning-instructions","11","127444","0.0-3.0-1.0-0.7","spark_pilot_2","7279","3","10","Male","","","","","","","1894.2999999523163","<p> Let’s try practicing that now! </p>
            <p> When you see a picture of the place you are in, press the <b>up</b> key to travel up. </p>
            <img src='./assets/img/instructions/pressUp.jpg' class='instructions-image'>","","instructions","","","","","","","","","","","","","",""
"revaluation","12","131460","0.0-3.0-2.0-0.0","spark_pilot_2","7279","3","10","Male","","true","","","","","[]","./assets/img/space/0.jpg","[]","first stage practice","space","-5","null","null","","false","","","","","","","",""
"html-keyboard-response","13","131962","0.0-3.0-2.0-1.0","spark_pilot_2","7279","3","10","Male","","","","","","","null","<div style=""font-size:60px;"">+</div>","null","fixation","","","","","","","","","","","","","",""
"revaluation","14","135967","0.0-3.0-2.0-0.1","spark_pilot_2","7279","3","10","Male","","false","","","","","[513.6000001430511]","./assets/img/space/1.jpg","[""ArrowUp""]","first stage practice","space","0","null","null","ArrowUp","false","","","","","","","",""
"html-keyboard-response","15","136468","0.0-3.0-2.0-1.1","spark_pilot_2","7279","3","10","Male","","","","","","","null","<div style=""font-size:60px;"">+</div>","null","fixation","","","","","","","","","","","","","",""
"revaluation","16","140473","0.0-3.0-2.0-0.2","spark_pilot_2","7279","3","10","Male","","false","","","","","[879.1999998092651]","./assets/img/space/2.jpg","[""ArrowUp""]","first stage practice","space","0","null","null","ArrowUp","false","","","","","","","",""
"html-keyboard-response","17","140974","0.0-3.0-2.0-1.2","spark_pilot_2","7279","3","10","Male","","","","","","","null","<div style=""font-size:60px;"">+</div>","null","fixation","","","","","","","","","","","","","",""
"learning-instructions","18","149102","0.0-3.0-3.0-0.0","spark_pilot_2","7279","3","10","Male","","","","","","","3424.4000000953674","<p> Great job! Now try pressing the <b>down</b> key to travel down. </p>
            <img src='./assets/img/instructions/pressDown.jpg' class='instructions-image'>","","instructions","","","","","","","","","","","","","",""
"revaluation","19","153107","0.0-3.0-4.0-0.0","spark_pilot_2","7279","3","10","Male","","false","","","","","[674.9000000953674]","./assets/img/space/3.jpg","[""ArrowDown""]","first stage practice","space","0","null","null","ArrowDown","false","","","","","","","",""
"html-keyboard-response","20","153609","0.0-3.0-4.0-1.0","spark_pilot_2","7279","3","10","Male","","","","","","","null","<div style=""font-size:60px;"">+</div>","null","fixation","","","","","","","","","","","","","",""
"revaluation","21","157620","0.0-3.0-4.0-0.1","spark_pilot_2","7279","3","10","Male","","false","","","","","[543.4000000953674]","./assets/img/space/4.jpg","[""ArrowDown""]","first stage practice","space","0","null","null","ArrowDown","false","","","","","","","",""
"html-keyboard-response","22","158121","0.0-3.0-4.0-1.1","spark_pilot_2","7279","3","10","Male","","","","","","","null","<div style=""font-size:60px;"">+</div>","null","fixation","","","","","","","","","","","","","",""
"revaluation","23","162127","0.0-3.0-4.0-0.2","spark_pilot_2","7279","3","10","Male","","false","","","","","[1844.0999999046326]","./assets/img/space/5.jpg","[""ArrowDown""]","first stage practice","space","0","null","null","ArrowDown","false","","","","","","","",""
"html-keyboard-response","24","162629","0.0-3.0-4.0-1.2","spark_pilot_2","7279","3","10","Male","","","","","","","null","<div style=""font-size:60px;"">+</div>","null","fixation","","","","","","","","","","","","","",""
"learning-instructions","25","174143","0.0-3.0-5.0-0.0","spark_pilot_2","7279","3","10","Male","","","","","","","1648.0999999046326","<p> The animals don’t move, so the animal in the upper part of a place will stay in the upper part of a place, and the animal in the lower part of a place will stay in the lower part of a place. </p>","","instructions","","","","","","","","","","","","","",""
"learning-instructions","26","184147","0.0-3.0-5.0-0.1","spark_pilot_2","7279","3","10","Male","","","","","","","846.6000001430511","<p> Each animal has two treasure chests for you to choose from. </p>
            <p> The amount of treasure in each chest can range from <b> 0 to 40 pieces.</b></p>","","instructions","","","","","","","","","","","","","",""
"learning-instructions","27","196995","0.0-3.0-5.0-0.2","spark_pilot_2","7279","3","10","Male","","","","","","","1630.3999998569489","<p> You should decide which chest to search for treasure by using the <b>left</b> and <b>right</b> arrow keys. </p>
            <p><b> Pay attention to which animal is on the screen, as the animals have different treasure chests. </b></p>
            <img src='./assets/img/instructions/leftright.jpg' class='instructions-image'>","","instructions","","","","","","","","","","","","","",""
"learning-instructions","28","204722","0.0-3.0-5.0-0.3","spark_pilot_2","7279","3","10","Male","","","","","","","1346.2000000476837","<p> Let’s try practicing that now. </p>
            <p> When you see an animal, choose which chest to search for treasure. </p>
            <img src='./assets/img/instructions/chooseChest.jpg' class='instructions-image'>","","instructions","","","","","","","","","","","","","",""
"revaluation","29","208732","0.0-3.0-6.0-0.0","spark_pilot_2","7279","3","10","Male","","false","","","","","[552.5999999046326]","./assets/img/space/animals/rabbit.jpg","[""ArrowRight""]","second stage practice","space","23","{""ArrowUp,ArrowLeft"":3,""ArrowUp,ArrowRight"":36,""ArrowDown,ArrowLeft"":15,""ArrowDown,ArrowRight"":23}","true","ArrowDown,ArrowRight","","","","","","","","",""
"html-keyboard-response","30","209234","0.0-3.0-6.0-1.0","spark_pilot_2","7279","3","10","Male","","","","","","","null","<div style=""font-size:60px;"">+</div>","null","fixation","","","","","","","","","","","","","",""
"revaluation","31","213238","0.0-3.0-6.0-0.1","spark_pilot_2","7279","3","10","Male","","false","","","","","[663.7999999523163]","./assets/img/space/animals/rabbit.jpg","[""ArrowRight""]","second stage practice","space","23","{""ArrowUp,ArrowLeft"":3,""ArrowUp,ArrowRight"":36,""ArrowDown,ArrowLeft"":15,""ArrowDown,ArrowRight"":23}","true","ArrowDown,ArrowRight","","","","","","","","",""
"html-keyboard-response","32","213741","0.0-3.0-6.0-1.1","spark_pilot_2","7279","3","10","Male","","","","","","","null","<div style=""font-size:60px;"">+</div>","null","fixation","","","","","","","","","","","","","",""
"revaluation","33","217745","0.0-3.0-6.0-0.2","spark_pilot_2","7279","3","10","Male","","false","","","","","[456.5]","./assets/img/space/animals/cat.jpg","[""ArrowLeft""]","second stage practice","space","3","{""ArrowUp,ArrowLeft"":3,""ArrowUp,ArrowRight"":36,""ArrowDown,ArrowLeft"":15,""ArrowDown,ArrowRight"":23}","false","ArrowUp,ArrowLeft","","","","","","","","",""
"html-keyboard-response","34","218246","0.0-3.0-6.0-1.2","spark_pilot_2","7279","3","10","Male","","","","","","","null","<div style=""font-size:60px;"">+</div>","null","fixation","","","","","","","","","","","","","",""
"revaluation","35","222250","0.0-3.0-6.0-0.3","spark_pilot_2","7279","3","10","Male","","false","","","","","[618.7999999523163]","./assets/img/space/animals/cat.jpg","[""ArrowLeft""]","second stage practice","space","3","{""ArrowUp,ArrowLeft"":3,""ArrowUp,ArrowRight"":36,""ArrowDown,ArrowLeft"":15,""ArrowDown,ArrowRight"":23}","false","ArrowUp,ArrowLeft","","","","","","","","",""
"html-keyboard-response","36","222752","0.0-3.0-6.0-1.3","spark_pilot_2","7279","3","10","Male","","","","","","","null","<div style=""font-size:60px;"">+</div>","null","fixation","","","","","","","","","","","","","",""
"learning-instructions","37","241255","0.0-3.0-7.0-0.0","spark_pilot_2","7279","3","10","Male","","","","","","","1644.1000001430511","<p> Great job. Now let’s try putting it together. </p>
            <p> On each turn, you will first see a picture to remind you of the place you are in, and you need to choose whether to go up or down. </p>
            <p> Then you will see an animal and choose which of its chests to search for treasure. </p>","","instructions","","","","","","","","","","","","","",""
"learning-instructions","38","250886","0.0-3.0-7.0-0.1","spark_pilot_2","7279","3","10","Male","","","","","","","1354.5999999046326","<p> When you choose whether to go up or down, try to go to the animal with the chest with the most treasure. </p>
            <p> Try practicing that now! </p>","","instructions","","","","","","","","","","","","","",""
"revaluation","39","256891","0.0-3.0-8.0-0.0","spark_pilot_2","7279","3","10","Male","","false","","","","","[676.8999998569489,1288.2999999523163]","./assets/img/space/6.jpg","[""ArrowUp"",""ArrowRight""]","full practice","space","36","{""ArrowUp,ArrowLeft"":3,""ArrowUp,ArrowRight"":36,""ArrowDown,ArrowLeft"":15,""ArrowDown,ArrowRight"":23}","true","ArrowUp,ArrowRight","false","","","","","","","",""
"html-keyboard-response","40","257392","0.0-3.0-8.0-1.0","spark_pilot_2","7279","3","10","Male","","","","","","","null","<div style=""font-size:60px;"">+</div>","null","fixation","","","","","","","","","","","","","",""
"revaluation","41","263400","0.0-3.0-8.0-0.1","spark_pilot_2","7279","3","10","Male","","false","","","","","[648.1000001430511,1056.8000001907349]","./assets/img/space/7.jpg","[""ArrowUp"",""ArrowRight""]","full practice","space","36","{""ArrowUp,ArrowLeft"":3,""ArrowUp,ArrowRight"":36,""ArrowDown,ArrowLeft"":15,""ArrowDown,ArrowRight"":23}","true","ArrowUp,ArrowRight","false","","","","","","","",""
"html-keyboard-response","42","263902","0.0-3.0-8.0-1.1","spark_pilot_2","7279","3","10","Male","","","","","","","null","<div style=""font-size:60px;"">+</div>","null","fixation","","","","","","","","","","","","","",""
"revaluation","43","269907","0.0-3.0-8.0-0.2","spark_pilot_2","7279","3","10","Male","","false","","","","","[354.60000014305115,688.4000000953674]","./assets/img/space/8.jpg","[""ArrowDown"",""ArrowLeft""]","full practice","space","15","{""ArrowUp,ArrowLeft"":3,""ArrowUp,ArrowRight"":36,""ArrowDown,ArrowLeft"":15,""ArrowDown,ArrowRight"":23}","false","ArrowDown,ArrowLeft","false","","","","","","","",""
"html-keyboard-response","44","270408","0.0-3.0-8.0-1.2","spark_pilot_2","7279","3","10","Male","","","","","","","null","<div style=""font-size:60px;"">+</div>","null","fixation","","","","","","","","","","","","","",""
"revaluation","45","276413","0.0-3.0-8.0-0.3","spark_pilot_2","7279","3","10","Male","","false","","","","","[600.2999999523163,383.10000014305115]","./assets/img/space/9.jpg","[""ArrowUp"",""ArrowRight""]","full practice","space","36","{""ArrowUp,ArrowLeft"":3,""ArrowUp,ArrowRight"":36,""ArrowDown,ArrowLeft"":15,""ArrowDown,ArrowRight"":23}","true","ArrowUp,ArrowRight","false","","","","","","","",""
"html-keyboard-response","46","276914","0.0-3.0-8.0-1.3","spark_pilot_2","7279","3","10","Male","","","","","","","null","<div style=""font-size:60px;"">+</div>","null","fixation","","","","","","","","","","","","","",""
"revaluation","47","282918","0.0-3.0-8.0-0.4","spark_pilot_2","7279","3","10","Male","","false","","","","","[684.6000001430511,557.2999999523163]","./assets/img/space/10.jpg","[""ArrowUp"",""ArrowRight""]","full practice","space","36","{""ArrowUp,ArrowLeft"":3,""ArrowUp,ArrowRight"":36,""ArrowDown,ArrowLeft"":15,""ArrowDown,ArrowRight"":23}","true","ArrowUp,ArrowRight","false","","","","","","","",""
"html-keyboard-response","48","283420","0.0-3.0-8.0-1.4","spark_pilot_2","7279","3","10","Male","","","","","","","null","<div style=""font-size:60px;"">+</div>","null","fixation","","","","","","","","","","","","","",""
"learning-instructions","49","294724","0.0-3.0-9.0-0.0","spark_pilot_2","7279","3","10","Male","","","","","","","988.3999998569489","<p> One last thing: sometimes, you will see a robber. The robber can be anywhere in the picture. </p>
            <p> If you do not stop them, you will lose treasure. </p>
            <img src='./assets/img/instructions/robber.jpg' class='instructions-image'>","","instructions","","","","","","","","","","","","","",""
"learning-instructions","50","302774","0.0-3.0-9.0-0.1","spark_pilot_2","7279","3","10","Male","","","","","","","856.9000000953674","<p> If you see the robber, you should <b>press the space bar</b> rather than using the arrow keys. </p>
            <p> Try practicing that now! </p>","","instructions","","","","","","","","","","","","","",""
"revaluation","51","306778","0.0-3.0-10.0-0.0","spark_pilot_2","7279","3","10","Male","","false","","","","","[852.6000001430511]","./assets/img/space/catch/0.jpg","[""spaceBar""]","catch practice","space","0","{""ArrowUp,ArrowLeft"":3,""ArrowUp,ArrowRight"":36,""ArrowDown,ArrowLeft"":15,""ArrowDown,ArrowRight"":23}","true","spaceBar","true","","","","","","","",""
"html-keyboard-response","52","307280","0.0-3.0-10.0-1.0","spark_pilot_2","7279","3","10","Male","","","","","","","null","<div style=""font-size:60px;"">+</div>","null","fixation","","","","","","","","","","","","","",""
"revaluation","53","311286","0.0-3.0-10.0-0.1","spark_pilot_2","7279","3","10","Male","","false","","","","","[495.80000019073486]","./assets/img/space/catch/1.jpg","[""spaceBar""]","catch practice","space","0","{""ArrowUp,ArrowLeft"":3,""ArrowUp,ArrowRight"":36,""ArrowDown,ArrowLeft"":15,""ArrowDown,ArrowRight"":23}","true","spaceBar","true","","","","","","","",""
"html-keyboard-response","54","311787","0.0-3.0-10.0-1.1","spark_pilot_2","7279","3","10","Male","","","","","","","null","<div style=""font-size:60px;"">+</div>","null","fixation","","","","","","","","","","","","","",""
"revaluation","55","315791","0.0-3.0-10.0-0.2","spark_pilot_2","7279","3","10","Male","","false","","","","","[528.2000000476837]","./assets/img/space/catch/2.jpg","[""spaceBar""]","catch practice","space","0","{""ArrowUp,ArrowLeft"":3,""ArrowUp,ArrowRight"":36,""ArrowDown,ArrowLeft"":15,""ArrowDown,ArrowRight"":23}","true","spaceBar","true","","","","","","","",""
"html-keyboard-response","56","316292","0.0-3.0-10.0-1.2","spark_pilot_2","7279","3","10","Male","","","","","","","null","<div style=""font-size:60px;"">+</div>","null","fixation","","","","","","","","","","","","","",""
"learning-instructions","57","331573","0.0-3.0-11.0-0.0","spark_pilot_2","7279","3","10","Male","","","","","","","1655.5999999046326","<p> After you explore a place to find treasure, it will be time to play a different game. </p>
            <p> During this game, red dots will appear on the screen and fall down slowly. </p>
            <p><b> You must click on them before they reach the bottom. </b></p>
            <img src='./assets/img/instructions/dotGame.jpg' class='instructions-image'>","","instructions","","","","","","","","","","","","","",""
"learning-instructions","58","338383","0.0-3.0-11.0-0.1","spark_pilot_2","7279","3","10","Male","","","","","","","1127.1999998092651","<p> For every dot you click, you will earn additional treasure. </p>
            <p> Let’s try practicing that now. </p>","","instructions","","","","","","","","","","","","","",""
"revaluation","59","353392","0.0-3.0-12.0-0.0","spark_pilot_2","7279","3","10","Male","","","","","","","[79]","","","rest practice","","10","","","","","0","15000","","","","","",""
"learning-instructions","60","360429","0.0-3.0-13.0-0.0-0.0","spark_pilot_2","7279","3","10","Male","","","","","","","1764.2000000476837","<p> Now, you will practice a shortened version of the game to get a sense of how it all fits together. </p>","","instructions","","","","","","","","","","","","","",""
"learning-instructions","61","364678","0.0-3.0-13.0-0.0-0.1","spark_pilot_2","7279","3","10","Male","","","","","","","1052.4000000953674","<p>This time you are searching for treasure in outer space.</p>","","instructions","","","","","","","","","","","","","",""
"learning-instructions","62","388354","0.0-3.0-13.0-1.0-0.0","spark_pilot_2","7279","3","10","Male","","","","","","","8877.900000095367","<p> Remember, when you see a picture of the place, use the up and down keys to <b>find an animal</b>.</p>
            <p> When you encounter an animal, you should use the left and right keys to <b>select a treasure chest</b>.</p>
            <p> Don't forget to look out for the robber! </p>","","instructions","","","","","","","","","","","","","",""
"revaluation","63","394360","0.0-3.0-13.0-2.0-0.0","spark_pilot_2","7279","3","10","Male","","false","","","","","[987.7999999523163,1243.7999999523163]","./assets/img/space/11.jpg","[""ArrowUp"",""ArrowRight""]","practice block","space","36","{""ArrowUp,ArrowLeft"":3,""ArrowUp,ArrowRight"":36,""ArrowDown,ArrowLeft"":15,""ArrowDown,ArrowRight"":23}","true","ArrowUp,ArrowRight","false","","","","","","","",""
"html-keyboard-response","64","394861","0.0-3.0-13.0-2.0-1.0","spark_pilot_2","7279","3","10","Male","","","","","","","null","<div style=""font-size:60px;"">+</div>","null","fixation","","","","","","","","","","","","","",""
"revaluation","65","400865","0.0-3.0-13.0-2.0-0.1","spark_pilot_2","7279","3","10","Male","","false","","","","","[972.9000000953674,440.5]","./assets/img/space/12.jpg","[""ArrowDown"",""ArrowRight""]","practice block","space","23","{""ArrowUp,ArrowLeft"":3,""ArrowUp,ArrowRight"":36,""ArrowDown,ArrowLeft"":15,""ArrowDown,ArrowRight"":23}","false","ArrowDown,ArrowRight","false","","","","","","","",""
"html-keyboard-response","66","401367","0.0-3.0-13.0-2.0-1.1","spark_pilot_2","7279","3","10","Male","","","","","","","null","<div style=""font-size:60px;"">+</div>","null","fixation","","","","","","","","","","","","","",""
"revaluation","67","407373","0.0-3.0-13.0-2.0-0.2","spark_pilot_2","7279","3","10","Male","","false","","","","","[1719.5,989.2999999523163]","./assets/img/space/13.jpg","[""ArrowDown"",""ArrowRight""]","practice block","space","23","{""ArrowUp,ArrowLeft"":3,""ArrowUp,ArrowRight"":36,""ArrowDown,ArrowLeft"":15,""ArrowDown,ArrowRight"":23}","false","ArrowDown,ArrowRight","false","","","","","","","",""
"html-keyboard-response","68","407874","0.0-3.0-13.0-2.0-1.2","spark_pilot_2","7279","3","10","Male","","","","","","","null","<div style=""font-size:60px;"">+</div>","null","fixation","","","","","","","","","","","","","",""
"revaluation","69","413881","0.0-3.0-13.0-2.0-0.3","spark_pilot_2","7279","3","10","Male","","false","","","","","[1121.3000001907349,947.5999999046326]","./assets/img/space/14.jpg","[""ArrowDown"",""ArrowRight""]","practice block","space","23","{""ArrowUp,ArrowLeft"":3,""ArrowUp,ArrowRight"":36,""ArrowDown,ArrowLeft"":15,""ArrowDown,ArrowRight"":23}","false","ArrowDown,ArrowRight","false","","","","","","","",""
"html-keyboard-response","70","414384","0.0-3.0-13.0-2.0-1.3","spark_pilot_2","7279","3","10","Male","","","","","","","null","<div style=""font-size:60px;"">+</div>","null","fixation","","","","","","","","","","","","","",""
"revaluation","71","418389","0.0-3.0-13.0-2.0-0.4","spark_pilot_2","7279","3","10","Male","","true","","","","","[]","./assets/img/space/11.jpg","[]","practice block","space","-5","{""ArrowUp,ArrowLeft"":3,""ArrowUp,ArrowRight"":36,""ArrowDown,ArrowLeft"":15,""ArrowDown,ArrowRight"":23}","false","","false","","","","","","","",""
"html-keyboard-response","72","418891","0.0-3.0-13.0-2.0-1.4","spark_pilot_2","7279","3","10","Male","","","","","","","null","<div style=""font-size:60px;"">+</div>","null","fixation","","","","","","","","","","","","","",""
"revaluation","73","424897","0.0-3.0-13.0-2.0-0.5","spark_pilot_2","7279","3","10","Male","","false","","","","","[724.4000000953674,392.89999985694885]","./assets/img/space/12.jpg","[""ArrowDown"",""ArrowRight""]","practice block","space","23","{""ArrowUp,ArrowLeft"":3,""ArrowUp,ArrowRight"":36,""ArrowDown,ArrowLeft"":15,""ArrowDown,ArrowRight"":23}","false","ArrowDown,ArrowRight","false","","","","","","","",""
"html-keyboard-response","74","425398","0.0-3.0-13.0-2.0-1.5","spark_pilot_2","7279","3","10","Male","","","","","","","null","<div style=""font-size:60px;"">+</div>","null","fixation","","","","","","","","","","","","","",""
"revaluation","75","429403","0.0-3.0-13.0-2.0-0.6","spark_pilot_2","7279","3","10","Male","","true","","","","","[]","./assets/img/space/13.jpg","[]","practice block","space","-5","{""ArrowUp,ArrowLeft"":3,""ArrowUp,ArrowRight"":36,""ArrowDown,ArrowLeft"":15,""ArrowDown,ArrowRight"":23}","false","","false","","","","","","","",""
"html-keyboard-response","76","429904","0.0-3.0-13.0-2.0-1.6","spark_pilot_2","7279","3","10","Male","","","","","","","null","<div style=""font-size:60px;"">+</div>","null","fixation","","","","","","","","","","","","","",""
"revaluation","77","435909","0.0-3.0-13.0-2.0-0.7","spark_pilot_2","7279","3","10","Male","","false","","","","","[872.5,265.60000014305115]","./assets/img/space/14.jpg","[""ArrowUp"",""ArrowLeft""]","practice block","space","3","{""ArrowUp,ArrowLeft"":3,""ArrowUp,ArrowRight"":36,""ArrowDown,ArrowLeft"":15,""ArrowDown,ArrowRight"":23}","false","ArrowUp,ArrowLeft","false","","","","","","","",""
"html-keyboard-response","78","436411","0.0-3.0-13.0-2.0-1.7","spark_pilot_2","7279","3","10","Male","","","","","","","null","<div style=""font-size:60px;"">+</div>","null","fixation","","","","","","","","","","","","","",""
"revaluation","79","440415","0.0-3.0-13.0-2.0-0.8","spark_pilot_2","7279","3","10","Male","","false","","","","","[813.0999999046326]","./assets/img/space/catch/3.jpg","[""spaceBar""]","practice block","space","0","{""ArrowUp,ArrowLeft"":3,""ArrowUp,ArrowRight"":36,""ArrowDown,ArrowLeft"":15,""ArrowDown,ArrowRight"":23}","true","spaceBar","true","","","","","","","",""
"html-keyboard-response","80","440917","0.0-3.0-13.0-2.0-1.8","spark_pilot_2","7279","3","10","Male","","","","","","","null","<div style=""font-size:60px;"">+</div>","null","fixation","","","","","","","","","","","","","",""
"learning-instructions","81","455768","0.0-3.0-13.0-3.0-0.0","spark_pilot_2","7279","3","10","Male","","","","","","","1438.2000000476837","<p> Now, you will travel with a friend who will choose whether you go up or down first. </p>
            <p> On these turns, you will just see the animal that they found. You will still get to choose which chest to search for treasure.</p>","","instructions","","","","","","","","","","","","","",""
"revaluation","82","459773","0.0-3.0-13.0-4.0-0.0","spark_pilot_2","7279","3","10","Male","","false","","","","","[1183.9000000953674]","./assets/img/space/animals/rabbit.jpg","[""ArrowRight""]","practice block","space","23","{""ArrowUp,ArrowLeft"":3,""ArrowUp,ArrowRight"":36,""ArrowDown,ArrowLeft"":15,""ArrowDown,ArrowRight"":23}","true","ArrowDown,ArrowRight","","","","","","","","",""
"html-keyboard-response","83","460275","0.0-3.0-13.0-4.0-1.0","spark_pilot_2","7279","3","10","Male","","","","","","","null","<div style=""font-size:60px;"">+</div>","null","fixation","","","","","","","","","","","","","",""
"revaluation","84","464281","0.0-3.0-13.0-4.0-0.1","spark_pilot_2","7279","3","10","Male","","false","","","","","[829.7999999523163]","./assets/img/space/animals/rabbit.jpg","[""ArrowRight""]","practice block","space","23","{""ArrowUp,ArrowLeft"":3,""ArrowUp,ArrowRight"":36,""ArrowDown,ArrowLeft"":15,""ArrowDown,ArrowRight"":23}","true","ArrowDown,ArrowRight","","","","","","","","",""
"html-keyboard-response","85","464783","0.0-3.0-13.0-4.0-1.1","spark_pilot_2","7279","3","10","Male","","","","","","","null","<div style=""font-size:60px;"">+</div>","null","fixation","","","","","","","","","","","","","",""
"revaluation","86","468788","0.0-3.0-13.0-4.0-0.2","spark_pilot_2","7279","3","10","Male","","false","","","","","[414.89999985694885]","./assets/img/space/animals/cat.jpg","[""ArrowLeft""]","practice block","space","3","{""ArrowUp,ArrowLeft"":3,""ArrowUp,ArrowRight"":36,""ArrowDown,ArrowLeft"":15,""ArrowDown,ArrowRight"":23}","false","ArrowUp,ArrowLeft","","","","","","","","",""
"html-keyboard-response","87","469289","0.0-3.0-13.0-4.0-1.2","spark_pilot_2","7279","3","10","Male","","","","","","","null","<div style=""font-size:60px;"">+</div>","null","fixation","","","","","","","","","","","","","",""
"revaluation","88","473294","0.0-3.0-13.0-4.0-0.3","spark_pilot_2","7279","3","10","Male","","false","","","","","[502.59999990463257]","./assets/img/space/animals/cat.jpg","[""ArrowRight""]","practice block","space","36","{""ArrowUp,ArrowLeft"":3,""ArrowUp,ArrowRight"":36,""ArrowDown,ArrowLeft"":15,""ArrowDown,ArrowRight"":23}","true","ArrowUp,ArrowRight","","","","","","","","",""
"html-keyboard-response","89","473795","0.0-3.0-13.0-4.0-1.3","spark_pilot_2","7279","3","10","Male","","","","","","","null","<div style=""font-size:60px;"">+</div>","null","fixation","","","","","","","","","","","","","",""
"learning-instructions","90","483227","0.0-3.0-13.0-5.0-0.0","spark_pilot_2","7279","3","10","Male","","","","","","","2048.2999999523163","<p> Time to play the dot game! </p>
            <p> For 15 seconds, click the red dots on the following screen as they appear. </p>","","instructions","","","","","","","","","","","","","",""
"revaluation","91","498229","0.0-3.0-13.0-6.0-0.0","spark_pilot_2","7279","3","10","Male","","","","","","","[173]","","","rest practice","","10","","","","","0","15000","","","","","",""
"learning-instructions","92","507804","0.0-3.0-13.0-7.0-0.0","spark_pilot_2","7279","3","10","Male","","","","","","","3435.800000190735","<p> You have almost finished this part of the game! </p>
            <p> We are going to ask you to make a few more choices. </p>","","instructions","","","","","","","","","","","","","",""
"learning-instructions","93","524702","0.0-3.0-13.0-7.0-0.1","spark_pilot_2","7279","3","10","Male","","","","","","","2861.2000000476837","<p> First, you need to decide whether to go up or down. When you see each picture, use the arrow keys to make your choice. </p>
            <p><b>You will not see which animal you found, but try to get to the one that will give you the most treasure.</b></p>","","instructions","","","","","","","","","","","","","",""
"revaluation","94","526365","0.0-3.0-13.0-8.0","spark_pilot_2","7279","3","10","Male","","false","","","","","[1660.1000001430511]","./assets/img/space/15.jpg","[""ArrowDown""]","practice block","space","0","{""ArrowUp,ArrowLeft"":3,""ArrowUp,ArrowRight"":36,""ArrowDown,ArrowLeft"":15,""ArrowDown,ArrowRight"":23}","false","ArrowDown","false","","","","","","","",""
"html-keyboard-response","95","526866","0.0-3.0-13.0-9.0","spark_pilot_2","7279","3","10","Male","","","","","","","null","<div style=""font-size:60px;"">+</div>","null","fixation","","","","","","","","","","","","","",""
"learning-instructions","96","541209","0.0-3.0-13.0-10.0-0.0","spark_pilot_2","7279","3","10","Male","","","","","","","2940.7000000476837","<p> Now you will see the animals again and can search their chests for treasure. </p>
            <p> This time, you will not see how much treasure you earned, but you will earn more bonus money for making better choices. </p>","","instructions","","","","","","","","","","","","","",""
"revaluation","97","542299","0.0-3.0-13.0-11.0-0.0","spark_pilot_2","7279","3","10","Male","","false","","","","","[1088.2999999523163]","./assets/img/space/animals/cat.jpg","[""ArrowRight""]","practice block","space","0","{""ArrowUp,ArrowLeft"":3,""ArrowUp,ArrowRight"":36,""ArrowDown,ArrowLeft"":15,""ArrowDown,ArrowRight"":23}","true","ArrowUp,ArrowRight","","","","","","","","",""
"html-keyboard-response","98","542801","0.0-3.0-13.0-11.0-1.0","spark_pilot_2","7279","3","10","Male","","","","","","","null","<div style=""font-size:60px;"">+</div>","null","fixation","","","","","","","","","","","","","",""
"revaluation","99","543283","0.0-3.0-13.0-11.0-0.1","spark_pilot_2","7279","3","10","Male","","false","","","","","[480.19999980926514]","./assets/img/space/animals/rabbit.jpg","[""ArrowRight""]","practice block","space","0","{""ArrowUp,ArrowLeft"":3,""ArrowUp,ArrowRight"":36,""ArrowDown,ArrowLeft"":15,""ArrowDown,ArrowRight"":23}","true","ArrowDown,ArrowRight","","","","","","","","",""
"html-keyboard-response","100","543785","0.0-3.0-13.0-11.0-1.1","spark_pilot_2","7279","3","10","Male","","","","","","","null","<div style=""font-size:60px;"">+</div>","null","fixation","","","","","","","","","","","","","",""
"learning-instructions","101","554396","0.0-3.0-14.0-0.0","spark_pilot_2","7279","3","10","Male","","","","","","","6015.399999856949","<p> Before you start, we're going to ask you a few questions about how the game works. </p>","","instructions","","","","","","","","","","","","","",""
"comp-q","102","561866","0.0-3.0-15.0-0.0-0.0","spark_pilot_2","7279","3","10","Male","","","","","","","1865.7000000476837","<p> <b> True or False? </b> </p>
            <p> There can be 50 pieces of treasure in a given animal's chest. </p>","0","comp_question","","","","false","","","","","","","","","",""
"comp-q","103","570042","0.0-3.0-15.0-0.0-1.0","spark_pilot_2","7279","3","10","Male","","","","","","","1628.0999999046326","<p> <b>Incorrect.</b> The amount of treasure in each chest can range from 0 to 40 pieces. </p>","0","comp_answer","","","","","","","","","","","","","",""
"comp-q","104","576642","0.0-3.0-15.0-0.1-0.1","spark_pilot_2","7279","3","10","Male","","","","","","","1028.5999999046326","<p> <b> True or False? </b> </p>
            <p> There can be 50 pieces of treasure in a given animal's chest. </p>","1","comp_question","","","","true","","","","","","","","","",""
"comp-q","105","584836","0.0-3.0-15.0-0.1-1.1","spark_pilot_2","7279","3","10","Male","","","","","","","1521.1000001430511","<p> <b> That's right! </b> The amount of treasure in each chest can range from 0 to 40 pieces. </p>","0","comp_answer","","","","","","","","","","","","","",""
"comp-q","106","593603","0.0-3.0-15.0-0.2-0.2","spark_pilot_2","7279","3","10","Male","","","","","","","1637.0999999046326","<p> <b> True or False? </b> </p><p> In this game, all animals have the same amount of treasure in their left and right chests. </p>","1","comp_question","","","","true","","","","","","","","","",""
"comp-q","107","600036","0.0-3.0-15.0-0.2-1.2","spark_pilot_2","7279","3","10","Male","","","","","","","1189.4000000953674","<p> <b> That's right! </b> Animals have different amounts of treasure in their treasure chests. </p>","0","comp_answer","","","","","","","","","","","","","",""
"comp-q","108","607108","0.0-3.0-15.0-0.3-0.3","spark_pilot_2","7279","3","10","Male","","","","","","","1221","<p> <b> True or False? </b> </p><p> The same animal will always be there if you go up in the same place. </p>","1","comp_question","","","","false","","","","","","","","","",""
"comp-q","109","615078","0.0-3.0-15.0-0.3-1.3","spark_pilot_2","7279","3","10","Male","","","","","","","1650.0999999046326","<p> <b>Incorrect.</b> One animal lives in the upper part and one lives in the lower part of every place. </p>","0","comp_answer","","","","","","","","","","","","","",""
"comp-q","110","624588","0.0-3.0-15.0-0.4-0.4","spark_pilot_2","7279","3","10","Male","","","","","","","3692.5","<p> <b> True or False? </b> </p><p> The same animal will always be there if you go up in the same place. </p>","1","comp_question","","","","false","","","","","","","","","",""
"comp-q","111","633095","0.0-3.0-15.0-0.4-1.4","spark_pilot_2","7279","3","10","Male","","","","","","","2226.4000000953674","<p> <b>Incorrect.</b> One animal lives in the upper part and one lives in the lower part of every place. </p>","0","comp_answer","","","","","","","","","","","","","",""
"comp-q","112","641193","0.0-3.0-15.0-0.5-0.5","spark_pilot_2","7279","3","10","Male","","","","","","","2282.4000000953674","<p> <b> True or False? </b> </p><p> The same animal will always be there if you go up in the same place. </p>","0","comp_question","","","","true","","","","","","","","","",""
"comp-q","113","650293","0.0-3.0-15.0-0.5-1.5","spark_pilot_2","7279","3","10","Male","","","","","","","2645.5999999046326","<p> <b> That's right! </b> One animal lives in the upper part and one lives in the lower part of every place. </p>","0","comp_answer","","","","","","","","","","","","","",""
"comp-q","114","657379","0.0-3.0-15.0-0.6-0.6","spark_pilot_2","7279","3","10","Male","","","","","","","1551.1000001430511","<p> <b> True or False? </b> </p><p> If you see a different picture, it means you are in a new place. </p>","1","comp_question","","","","true","","","","","","","","","",""
"comp-q","115","670825","0.0-3.0-15.0-0.6-1.6","spark_pilot_2","7279","3","10","Male","","","","","","","2195.600000143051","<p> <b> That's right! </b> Lots of different images may show the same place. For example,  you may see three different images that all remind you that you are in outer space. </p>","0","comp_answer","","","","","","","","","","","","","",""
"learning-instructions","116","683014","0.0-3.0-16.0-0.0","spark_pilot_2","7279","3","10","Male","","","","","","","2320.7000000476837","<p> Good job. Remember to do your best because the amount of treasure you earn will be converted into bonus money. </p>
            <p> It’s time to start the real game! </p>","","instructions","","","","","","","","","","","","","",""
"learning-instructions","117","687258","0.0-4.0-0.0-0.0","spark_pilot_2","7279","3","10","Male","","","","","","","1530.4000000953674","<p> This time you are searching for treasure in the <b>ocean</b>.</p>","","instructions","","","","","","","","","","","","","",""
"learning-instructions","118","706171","0.0-4.0-0.0-0.1","spark_pilot_2","7279","3","10","Male","","","","","","","1572.5999999046326","<p><b>New</b> animals with <b>new</b> treasure chests live here. You need to explore to discover where the animal with the best treasure chest is.</p>
                    <p> Like before, once you figure out which animal has the chest with the most treasure, you should try to get to that animal and select that chest! </p>","","instructions","","","","","","","","","","","","","",""
"learning-instructions","119","724516","0.0-4.0-1.0-0.0","spark_pilot_2","7279","3","10","Male","","","","","","","3616.699999809265","<p> Remember, when you see a picture of the place, use the up and down keys to <b>find an animal</b>.</p>
            <p> When you encounter an animal, you should use the left and right keys to <b>select a treasure chest</b>.</p>
            <p> Don't forget to look out for the robber! </p>","","instructions","","","","","","","","","","","","","",""
"revaluation","120","730520","0.0-4.0-2.0-0.0","spark_pilot_2","7279","3","10","Male","","false","","","","","[1993.6000001430511,793.1000001430511]","./assets/img/ocean/memory/7.jpg","[""ArrowDown"",""ArrowRight""]","value training","ocean","30","{""ArrowUp,ArrowLeft"":23,""ArrowUp,ArrowRight"":10,""ArrowDown,ArrowLeft"":8,""ArrowDown,ArrowRight"":30}","true","ArrowDown,ArrowRight","false","","","original","1","0","","",""
"html-keyboard-response","121","731025","0.0-4.0-2.0-1.0","spark_pilot_2","7279","3","10","Male","","","","","","","null","<div style=""font-size:60px;"">+</div>","null","fixation","","","","","","","","","","","1","","",""
"revaluation","122","737032","0.0-4.0-2.0-0.1","spark_pilot_2","7279","3","10","Male","","false","","","","","[502.7000000476837,688.2000000476837]","./assets/img/ocean/memory/17.jpg","[""ArrowUp"",""ArrowRight""]","value training","ocean","10","{""ArrowUp,ArrowLeft"":23,""ArrowUp,ArrowRight"":10,""ArrowDown,ArrowLeft"":8,""ArrowDown,ArrowRight"":30}","false","ArrowUp,ArrowRight","false","","","original","1","2","","",""
"html-keyboard-response","123","737535","0.0-4.0-2.0-1.1","spark_pilot_2","7279","3","10","Male","","","","","","","null","<div style=""font-size:60px;"">+</div>","null","fixation","","","","","","","","","","","3","","",""
"revaluation","124","743540","0.0-4.0-2.0-0.2","spark_pilot_2","7279","3","10","Male","","false","","","","","[336.09999990463257,490.90000009536743]","./assets/img/ocean/memory/40.jpg","[""ArrowDown"",""ArrowLeft""]","value training","ocean","8","{""ArrowUp,ArrowLeft"":23,""ArrowUp,ArrowRight"":10,""ArrowDown,ArrowLeft"":8,""ArrowDown,ArrowRight"":30}","false","ArrowDown,ArrowLeft","false","","","original","1","4","","",""
"html-keyboard-response","125","744042","0.0-4.0-2.0-1.2","spark_pilot_2","7279","3","10","Male","","","","","","","null","<div style=""font-size:60px;"">+</div>","null","fixation","","","","","","","","","","","5","","",""
"revaluation","126","750046","0.0-4.0-2.0-0.3","spark_pilot_2","7279","3","10","Male","","false","","","","","[708.5,1473.7999999523163]","./assets/img/ocean/memory/14.jpg","[""ArrowUp"",""ArrowLeft""]","value training","ocean","23","{""ArrowUp,ArrowLeft"":23,""ArrowUp,ArrowRight"":10,""ArrowDown,ArrowLeft"":8,""ArrowDown,ArrowRight"":30}","false","ArrowUp,ArrowLeft","false","","","original","1","6","","",""
"html-keyboard-response","127","750548","0.0-4.0-2.0-1.3","spark_pilot_2","7279","3","10","Male","","","","","","","null","<div style=""font-size:60px;"">+</div>","null","fixation","","","","","","","","","","","7","","",""
"revaluation","128","756552","0.0-4.0-2.0-0.4","spark_pilot_2","7279","3","10","Male","","false","","","","","[511.19999980926514,352.60000014305115]","./assets/img/ocean/memory/41.jpg","[""ArrowUp"",""ArrowLeft""]","value training","ocean","23","{""ArrowUp,ArrowLeft"":23,""ArrowUp,ArrowRight"":10,""ArrowDown,ArrowLeft"":8,""ArrowDown,ArrowRight"":30}","false","ArrowUp,ArrowLeft","false","","","original","1","8","","",""
"html-keyboard-response","129","757054","0.0-4.0-2.0-1.4","spark_pilot_2","7279","3","10","Male","","","","","","","null","<div style=""font-size:60px;"">+</div>","null","fixation","","","","","","","","","","","9","","",""
"revaluation","130","763059","0.0-4.0-2.0-0.5","spark_pilot_2","7279","3","10","Male","","false","","","","","[464.2999999523163,284.90000009536743]","./assets/img/ocean/memory/25.jpg","[""ArrowDown"",""ArrowRight""]","value training","ocean","30","{""ArrowUp,ArrowLeft"":23,""ArrowUp,ArrowRight"":10,""ArrowDown,ArrowLeft"":8,""ArrowDown,ArrowRight"":30}","true","ArrowDown,ArrowRight","false","","","original","1","10","","",""
"html-keyboard-response","131","763560","0.0-4.0-2.0-1.5","spark_pilot_2","7279","3","10","Male","","","","","","","null","<div style=""font-size:60px;"">+</div>","null","fixation","","","","","","","","","","","11","","",""
"revaluation","132","769566","0.0-4.0-2.0-0.6","spark_pilot_2","7279","3","10","Male","","false","","","","","[314.7000000476837,425.2999999523163]","./assets/img/ocean/memory/0.jpg","[""ArrowDown"",""ArrowRight""]","value training","ocean","30","{""ArrowUp,ArrowLeft"":23,""ArrowUp,ArrowRight"":10,""ArrowDown,ArrowLeft"":8,""ArrowDown,ArrowRight"":30}","true","ArrowDown,ArrowRight","false","","","original","1","12","","",""
"html-keyboard-response","133","770068","0.0-4.0-2.0-1.6","spark_pilot_2","7279","3","10","Male","","","","","","","null","<div style=""font-size:60px;"">+</div>","null","fixation","","","","","","","","","","","13","","",""
"revaluation","134","776073","0.0-4.0-2.0-0.7","spark_pilot_2","7279","3","10","Male","","false","","","","","[516.3000001907349,344]","./assets/img/ocean/memory/5.jpg","[""ArrowDown"",""ArrowRight""]","value training","ocean","30","{""ArrowUp,ArrowLeft"":23,""ArrowUp,ArrowRight"":10,""ArrowDown,ArrowLeft"":8,""ArrowDown,ArrowRight"":30}","true","ArrowDown,ArrowRight","false","","","original","1","14","","",""
"html-keyboard-response","135","776576","0.0-4.0-2.0-1.7","spark_pilot_2","7279","3","10","Male","","","","","","","null","<div style=""font-size:60px;"">+</div>","null","fixation","","","","","","","","","","","15","","",""
"revaluation","136","782580","0.0-4.0-2.0-0.8","spark_pilot_2","7279","3","10","Male","","false","","","","","[521.5999999046326,420.5]","./assets/img/ocean/memory/26.jpg","[""ArrowDown"",""ArrowRight""]","value training","ocean","30","{""ArrowUp,ArrowLeft"":23,""ArrowUp,ArrowRight"":10,""ArrowDown,ArrowLeft"":8,""ArrowDown,ArrowRight"":30}","true","ArrowDown,ArrowRight","false","","","original","1","16","","",""
"html-keyboard-response","137","783082","0.0-4.0-2.0-1.8","spark_pilot_2","7279","3","10","Male","","","","","","","null","<div style=""font-size:60px;"">+</div>","null","fixation","","","","","","","","","","","17","","",""
"revaluation","138","789087","0.0-4.0-2.0-0.9","spark_pilot_2","7279","3","10","Male","","false","","","","","[1115.5,409.7000000476837]","./assets/img/ocean/memory/7.jpg","[""ArrowDown"",""ArrowRight""]","value training","ocean","30","{""ArrowUp,ArrowLeft"":23,""ArrowUp,ArrowRight"":10,""ArrowDown,ArrowLeft"":8,""ArrowDown,ArrowRight"":30}","true","ArrowDown,ArrowRight","false","","","original","1","18","","",""
"html-keyboard-response","139","789587","0.0-4.0-2.0-1.9","spark_pilot_2","7279","3","10","Male","","","","","","","null","<div style=""font-size:60px;"">+</div>","null","fixation","","","","","","","","","","","19","","",""
"revaluation","140","793590","0.0-4.0-2.0-0.10","spark_pilot_2","7279","3","10","Male","","false","","","","","[676.9000000953674]","./assets/img/ocean/catch/2.jpg","[""spaceBar""]","value training","ocean","0","{""ArrowUp,ArrowLeft"":23,""ArrowUp,ArrowRight"":10,""ArrowDown,ArrowLeft"":8,""ArrowDown,ArrowRight"":30}","true","spaceBar","true","","","original","1","20","","",""
"html-keyboard-response","141","794091","0.0-4.0-2.0-1.10","spark_pilot_2","7279","3","10","Male","","","","","","","null","<div style=""font-size:60px;"">+</div>","null","fixation","","","","","","","","","","","21","","",""
"revaluation","142","800097","0.0-4.0-2.0-0.11","spark_pilot_2","7279","3","10","Male","","false","","","","","[740,305.2999999523163]","./assets/img/ocean/memory/36.jpg","[""ArrowDown"",""ArrowRight""]","value training","ocean","30","{""ArrowUp,ArrowLeft"":23,""ArrowUp,ArrowRight"":10,""ArrowDown,ArrowLeft"":8,""ArrowDown,ArrowRight"":30}","true","ArrowDown,ArrowRight","false","","","original","1","22","","",""
"html-keyboard-response","143","800598","0.0-4.0-2.0-1.11","spark_pilot_2","7279","3","10","Male","","","","","","","null","<div style=""font-size:60px;"">+</div>","null","fixation","","","","","","","","","","","23","","",""
"revaluation","144","806606","0.0-4.0-2.0-0.12","spark_pilot_2","7279","3","10","Male","","false","","","","","[896.8999998569489,366]","./assets/img/ocean/memory/0.jpg","[""ArrowDown"",""ArrowRight""]","value training","ocean","30","{""ArrowUp,ArrowLeft"":23,""ArrowUp,ArrowRight"":10,""ArrowDown,ArrowLeft"":8,""ArrowDown,ArrowRight"":30}","true","ArrowDown,ArrowRight","false","","","original","1","24","","",""
"html-keyboard-response","145","807107","0.0-4.0-2.0-1.12","spark_pilot_2","7279","3","10","Male","","","","","","","null","<div style=""font-size:60px;"">+</div>","null","fixation","","","","","","","","","","","25","","",""
"revaluation","146","813113","0.0-4.0-2.0-0.13","spark_pilot_2","7279","3","10","Male","","false","","","","","[496.5,454.60000014305115]","./assets/img/ocean/memory/18.jpg","[""ArrowDown"",""ArrowRight""]","value training","ocean","30","{""ArrowUp,ArrowLeft"":23,""ArrowUp,ArrowRight"":10,""ArrowDown,ArrowLeft"":8,""ArrowDown,ArrowRight"":30}","true","ArrowDown,ArrowRight","false","","","original","1","26","","",""
"html-keyboard-response","147","813614","0.0-4.0-2.0-1.13","spark_pilot_2","7279","3","10","Male","","","","","","","null","<div style=""font-size:60px;"">+</div>","null","fixation","","","","","","","","","","","27","","",""
"revaluation","148","819618","0.0-4.0-2.0-0.14","spark_pilot_2","7279","3","10","Male","","false","","","","","[612.7000000476837,302.2000000476837]","./assets/img/ocean/memory/16.jpg","[""ArrowDown"",""ArrowRight""]","value training","ocean","30","{""ArrowUp,ArrowLeft"":23,""ArrowUp,ArrowRight"":10,""ArrowDown,ArrowLeft"":8,""ArrowDown,ArrowRight"":30}","true","ArrowDown,ArrowRight","false","","","original","1","28","","",""
"html-keyboard-response","149","820120","0.0-4.0-2.0-1.14","spark_pilot_2","7279","3","10","Male","","","","","","","null","<div style=""font-size:60px;"">+</div>","null","fixation","","","","","","","","","","","29","","",""
"revaluation","150","824125","0.0-4.0-2.0-0.15","spark_pilot_2","7279","3","10","Male","","false","","","","","[1312.4000000953674]","./assets/img/ocean/catch/7.jpg","[""spaceBar""]","value training","ocean","0","{""ArrowUp,ArrowLeft"":23,""ArrowUp,ArrowRight"":10,""ArrowDown,ArrowLeft"":8,""ArrowDown,ArrowRight"":30}","true","spaceBar","true","","","original","1","30","","",""
"html-keyboard-response","151","824626","0.0-4.0-2.0-1.15","spark_pilot_2","7279","3","10","Male","","","","","","","null","<div style=""font-size:60px;"">+</div>","null","fixation","","","","","","","","","","","31","","",""
"revaluation","152","830632","0.0-4.0-2.0-0.16","spark_pilot_2","7279","3","10","Male","","false","","","","","[916.2999999523163,538.2999999523163]","./assets/img/ocean/memory/11.jpg","[""ArrowDown"",""ArrowRight""]","value training","ocean","30","{""ArrowUp,ArrowLeft"":23,""ArrowUp,ArrowRight"":10,""ArrowDown,ArrowLeft"":8,""ArrowDown,ArrowRight"":30}","true","ArrowDown,ArrowRight","false","","","original","1","32","","",""
"html-keyboard-response","153","831133","0.0-4.0-2.0-1.16","spark_pilot_2","7279","3","10","Male","","","","","","","null","<div style=""font-size:60px;"">+</div>","null","fixation","","","","","","","","","","","33","","",""
"revaluation","154","837139","0.0-4.0-2.0-0.17","spark_pilot_2","7279","3","10","Male","","false","","","","","[513.4000000953674,324.40000009536743]","./assets/img/ocean/memory/10.jpg","[""ArrowDown"",""ArrowRight""]","value training","ocean","30","{""ArrowUp,ArrowLeft"":23,""ArrowUp,ArrowRight"":10,""ArrowDown,ArrowLeft"":8,""ArrowDown,ArrowRight"":30}","true","ArrowDown,ArrowRight","false","","","original","1","34","","",""
"html-keyboard-response","155","837640","0.0-4.0-2.0-1.17","spark_pilot_2","7279","3","10","Male","","","","","","","null","<div style=""font-size:60px;"">+</div>","null","fixation","","","","","","","","","","","35","","",""
"revaluation","156","843645","0.0-4.0-2.0-0.18","spark_pilot_2","7279","3","10","Male","","false","","","","","[489.7000000476837,1849.2000000476837]","./assets/img/ocean/memory/23.jpg","[""ArrowDown"",""ArrowRight""]","value training","ocean","30","{""ArrowUp,ArrowLeft"":23,""ArrowUp,ArrowRight"":10,""ArrowDown,ArrowLeft"":8,""ArrowDown,ArrowRight"":30}","true","ArrowDown,ArrowRight","false","","","original","1","36","","",""
"html-keyboard-response","157","844148","0.0-4.0-2.0-1.18","spark_pilot_2","7279","3","10","Male","","","","","","","null","<div style=""font-size:60px;"">+</div>","null","fixation","","","","","","","","","","","37","","",""
"revaluation","158","850153","0.0-4.0-2.0-0.19","spark_pilot_2","7279","3","10","Male","","false","","","","","[505,414.59999990463257]","./assets/img/ocean/memory/23.jpg","[""ArrowDown"",""ArrowRight""]","value training","ocean","30","{""ArrowUp,ArrowLeft"":23,""ArrowUp,ArrowRight"":10,""ArrowDown,ArrowLeft"":8,""ArrowDown,ArrowRight"":30}","true","ArrowDown,ArrowRight","false","","","original","1","38","","",""
"html-keyboard-response","159","850654","0.0-4.0-2.0-1.19","spark_pilot_2","7279","3","10","Male","","","","","","","null","<div style=""font-size:60px;"">+</div>","null","fixation","","","","","","","","","","","39","","",""
"revaluation","160","856660","0.0-4.0-2.0-0.20","spark_pilot_2","7279","3","10","Male","","false","","","","","[836.9000000953674,381.09999990463257]","./assets/img/ocean/memory/36.jpg","[""ArrowDown"",""ArrowRight""]","value training","ocean","30","{""ArrowUp,ArrowLeft"":23,""ArrowUp,ArrowRight"":10,""ArrowDown,ArrowLeft"":8,""ArrowDown,ArrowRight"":30}","true","ArrowDown,ArrowRight","false","","","original","1","40","","",""
"html-keyboard-response","161","857162","0.0-4.0-2.0-1.20","spark_pilot_2","7279","3","10","Male","","","","","","","null","<div style=""font-size:60px;"">+</div>","null","fixation","","","","","","","","","","","41","","",""
"revaluation","162","863168","0.0-4.0-2.0-0.21","spark_pilot_2","7279","3","10","Male","","false","","","","","[574.5,427.7000000476837]","./assets/img/ocean/memory/16.jpg","[""ArrowDown"",""ArrowRight""]","value training","ocean","30","{""ArrowUp,ArrowLeft"":23,""ArrowUp,ArrowRight"":10,""ArrowDown,ArrowLeft"":8,""ArrowDown,ArrowRight"":30}","true","ArrowDown,ArrowRight","false","","","original","1","42","","",""
"html-keyboard-response","163","863669","0.0-4.0-2.0-1.21","spark_pilot_2","7279","3","10","Male","","","","","","","null","<div style=""font-size:60px;"">+</div>","null","fixation","","","","","","","","","","","43","","",""
"revaluation","164","869674","0.0-4.0-2.0-0.22","spark_pilot_2","7279","3","10","Male","","false","","","","","[520.6999998092651,577.2999999523163]","./assets/img/ocean/memory/17.jpg","[""ArrowDown"",""ArrowRight""]","value training","ocean","30","{""ArrowUp,ArrowLeft"":23,""ArrowUp,ArrowRight"":10,""ArrowDown,ArrowLeft"":8,""ArrowDown,ArrowRight"":30}","true","ArrowDown,ArrowRight","false","","","original","1","44","","",""
"html-keyboard-response","165","870176","0.0-4.0-2.0-1.22","spark_pilot_2","7279","3","10","Male","","","","","","","null","<div style=""font-size:60px;"">+</div>","null","fixation","","","","","","","","","","","45","","",""
"revaluation","166","874182","0.0-4.0-2.0-0.23","spark_pilot_2","7279","3","10","Male","","false","","","","","[1073.7999999523163]","./assets/img/ocean/catch/5.jpg","[""spaceBar""]","value training","ocean","0","{""ArrowUp,ArrowLeft"":23,""ArrowUp,ArrowRight"":10,""ArrowDown,ArrowLeft"":8,""ArrowDown,ArrowRight"":30}","true","spaceBar","true","","","original","1","46","","",""
"html-keyboard-response","167","874684","0.0-4.0-2.0-1.23","spark_pilot_2","7279","3","10","Male","","","","","","","null","<div style=""font-size:60px;"">+</div>","null","fixation","","","","","","","","","","","47","","",""
"revaluation","168","880689","0.0-4.0-2.0-0.24","spark_pilot_2","7279","3","10","Male","","false","","","","","[771.3999998569489,507]","./assets/img/ocean/memory/3.jpg","[""ArrowDown"",""ArrowRight""]","value training","ocean","30","{""ArrowUp,ArrowLeft"":23,""ArrowUp,ArrowRight"":10,""ArrowDown,ArrowLeft"":8,""ArrowDown,ArrowRight"":30}","true","ArrowDown,ArrowRight","false","","","original","1","48","","",""
"html-keyboard-response","169","881190","0.0-4.0-2.0-1.24","spark_pilot_2","7279","3","10","Male","","","","","","","null","<div style=""font-size:60px;"">+</div>","null","fixation","","","","","","","","","","","49","","",""
"revaluation","170","885195","0.0-4.0-2.0-0.25","spark_pilot_2","7279","3","10","Male","","false","","","","","[1231.0999999046326]","./assets/img/ocean/catch/3.jpg","[""spaceBar""]","value training","ocean","0","{""ArrowUp,ArrowLeft"":23,""ArrowUp,ArrowRight"":10,""ArrowDown,ArrowLeft"":8,""ArrowDown,ArrowRight"":30}","true","spaceBar","true","","","original","1","50","","",""
"html-keyboard-response","171","885697","0.0-4.0-2.0-1.25","spark_pilot_2","7279","3","10","Male","","","","","","","null","<div style=""font-size:60px;"">+</div>","null","fixation","","","","","","","","","","","51","","",""
"revaluation","172","891702","0.0-4.0-2.0-0.26","spark_pilot_2","7279","3","10","Male","","false","","","","","[766.2000000476837,339.09999990463257]","./assets/img/ocean/memory/3.jpg","[""ArrowDown"",""ArrowRight""]","value training","ocean","30","{""ArrowUp,ArrowLeft"":23,""ArrowUp,ArrowRight"":10,""ArrowDown,ArrowLeft"":8,""ArrowDown,ArrowRight"":30}","true","ArrowDown,ArrowRight","false","","","original","1","52","","",""
"html-keyboard-response","173","892203","0.0-4.0-2.0-1.26","spark_pilot_2","7279","3","10","Male","","","","","","","null","<div style=""font-size:60px;"">+</div>","null","fixation","","","","","","","","","","","53","","",""
"revaluation","174","898210","0.0-4.0-2.0-0.27","spark_pilot_2","7279","3","10","Male","","false","","","","","[700.2000000476837,127.80000019073486]","./assets/img/ocean/memory/14.jpg","[""ArrowDown"",""ArrowRight""]","value training","ocean","30","{""ArrowUp,ArrowLeft"":23,""ArrowUp,ArrowRight"":10,""ArrowDown,ArrowLeft"":8,""ArrowDown,ArrowRight"":30}","true","ArrowDown,ArrowRight","false","","","original","1","54","","",""
"html-keyboard-response","175","898711","0.0-4.0-2.0-1.27","spark_pilot_2","7279","3","10","Male","","","","","","","null","<div style=""font-size:60px;"">+</div>","null","fixation","","","","","","","","","","","55","","",""
"revaluation","176","904715","0.0-4.0-2.0-0.28","spark_pilot_2","7279","3","10","Male","","false","","","","","[388.2000000476837,96.5]","./assets/img/ocean/memory/19.jpg","[""ArrowDown"",""ArrowRight""]","value training","ocean","30","{""ArrowUp,ArrowLeft"":23,""ArrowUp,ArrowRight"":10,""ArrowDown,ArrowLeft"":8,""ArrowDown,ArrowRight"":30}","true","ArrowDown,ArrowRight","false","","","original","1","56","","",""
"html-keyboard-response","177","905216","0.0-4.0-2.0-1.28","spark_pilot_2","7279","3","10","Male","","","","","","","null","<div style=""font-size:60px;"">+</div>","null","fixation","","","","","","","","","","","57","","",""
"revaluation","178","911220","0.0-4.0-2.0-0.29","spark_pilot_2","7279","3","10","Male","","false","","","","","[481.80000019073486,293.09999990463257]","./assets/img/ocean/memory/40.jpg","[""ArrowDown"",""ArrowRight""]","value training","ocean","30","{""ArrowUp,ArrowLeft"":23,""ArrowUp,ArrowRight"":10,""ArrowDown,ArrowLeft"":8,""ArrowDown,ArrowRight"":30}","true","ArrowDown,ArrowRight","false","","","original","1","58","","",""
"html-keyboard-response","179","911722","0.0-4.0-2.0-1.29","spark_pilot_2","7279","3","10","Male","","","","","","","null","<div style=""font-size:60px;"">+</div>","null","fixation","","","","","","","","","","","59","","",""
"revaluation","180","917727","0.0-4.0-2.0-0.30","spark_pilot_2","7279","3","10","Male","","false","","","","","[422.2000000476837,379.5]","./assets/img/ocean/memory/15.jpg","[""ArrowDown"",""ArrowRight""]","value training","ocean","30","{""ArrowUp,ArrowLeft"":23,""ArrowUp,ArrowRight"":10,""ArrowDown,ArrowLeft"":8,""ArrowDown,ArrowRight"":30}","true","ArrowDown,ArrowRight","false","","","original","1","60","","",""
"html-keyboard-response","181","918230","0.0-4.0-2.0-1.30","spark_pilot_2","7279","3","10","Male","","","","","","","null","<div style=""font-size:60px;"">+</div>","null","fixation","","","","","","","","","","","61","","",""
"revaluation","182","924237","0.0-4.0-2.0-0.31","spark_pilot_2","7279","3","10","Male","","false","","","","","[374.2000000476837,1171.8999998569489]","./assets/img/ocean/memory/11.jpg","[""ArrowDown"",""ArrowRight""]","value training","ocean","30","{""ArrowUp,ArrowLeft"":23,""ArrowUp,ArrowRight"":10,""ArrowDown,ArrowLeft"":8,""ArrowDown,ArrowRight"":30}","true","ArrowDown,ArrowRight","false","","","original","1","62","","",""
"html-keyboard-response","183","924739","0.0-4.0-2.0-1.31","spark_pilot_2","7279","3","10","Male","","","","","","","null","<div style=""font-size:60px;"">+</div>","null","fixation","","","","","","","","","","","63","","",""
"revaluation","184","930746","0.0-4.0-2.0-0.32","spark_pilot_2","7279","3","10","Male","","false","","","","","[567.7000000476837,450.19999980926514]","./assets/img/ocean/memory/5.jpg","[""ArrowDown"",""ArrowRight""]","value training","ocean","30","{""ArrowUp,ArrowLeft"":23,""ArrowUp,ArrowRight"":10,""ArrowDown,ArrowLeft"":8,""ArrowDown,ArrowRight"":30}","true","ArrowDown,ArrowRight","false","","","original","1","64","","",""
"html-keyboard-response","185","931247","0.0-4.0-2.0-1.32","spark_pilot_2","7279","3","10","Male","","","","","","","null","<div style=""font-size:60px;"">+</div>","null","fixation","","","","","","","","","","","65","","",""
"revaluation","186","937251","0.0-4.0-2.0-0.33","spark_pilot_2","7279","3","10","Male","","false","","","","","[657.9000000953674,435.39999985694885]","./assets/img/ocean/memory/26.jpg","[""ArrowDown"",""ArrowRight""]","value training","ocean","30","{""ArrowUp,ArrowLeft"":23,""ArrowUp,ArrowRight"":10,""ArrowDown,ArrowLeft"":8,""ArrowDown,ArrowRight"":30}","true","ArrowDown,ArrowRight","false","","","original","1","66","","",""
"html-keyboard-response","187","937752","0.0-4.0-2.0-1.33","spark_pilot_2","7279","3","10","Male","","","","","","","null","<div style=""font-size:60px;"">+</div>","null","fixation","","","","","","","","","","","67","","",""
"revaluation","188","941758","0.0-4.0-2.0-0.34","spark_pilot_2","7279","3","10","Male","","false","","","","","[972.3999998569489]","./assets/img/ocean/catch/1.jpg","[""spaceBar""]","value training","ocean","0","{""ArrowUp,ArrowLeft"":23,""ArrowUp,ArrowRight"":10,""ArrowDown,ArrowLeft"":8,""ArrowDown,ArrowRight"":30}","true","spaceBar","true","","","original","1","68","","",""
"html-keyboard-response","189","942259","0.0-4.0-2.0-1.34","spark_pilot_2","7279","3","10","Male","","","","","","","null","<div style=""font-size:60px;"">+</div>","null","fixation","","","","","","","","","","","69","","",""
"revaluation","190","948264","0.0-4.0-2.0-0.35","spark_pilot_2","7279","3","10","Male","","false","","","","","[730.4000000953674,690.1000001430511]","./assets/img/ocean/memory/19.jpg","[""ArrowDown"",""ArrowRight""]","value training","ocean","30","{""ArrowUp,ArrowLeft"":23,""ArrowUp,ArrowRight"":10,""ArrowDown,ArrowLeft"":8,""ArrowDown,ArrowRight"":30}","true","ArrowDown,ArrowRight","false","","","original","1","70","","",""
"html-keyboard-response","191","948766","0.0-4.0-2.0-1.35","spark_pilot_2","7279","3","10","Male","","","","","","","null","<div style=""font-size:60px;"">+</div>","null","fixation","","","","","","","","","","","71","","",""
"revaluation","192","954770","0.0-4.0-2.0-0.36","spark_pilot_2","7279","3","10","Male","","false","","","","","[594.6999998092651,407.60000014305115]","./assets/img/ocean/memory/6.jpg","[""ArrowDown"",""ArrowRight""]","value training","ocean","30","{""ArrowUp,ArrowLeft"":23,""ArrowUp,ArrowRight"":10,""ArrowDown,ArrowLeft"":8,""ArrowDown,ArrowRight"":30}","true","ArrowDown,ArrowRight","false","","","original","1","72","","",""
"html-keyboard-response","193","955272","0.0-4.0-2.0-1.36","spark_pilot_2","7279","3","10","Male","","","","","","","null","<div style=""font-size:60px;"">+</div>","null","fixation","","","","","","","","","","","73","","",""
"revaluation","194","961278","0.0-4.0-2.0-0.37","spark_pilot_2","7279","3","10","Male","","false","","","","","[460.09999990463257,520]","./assets/img/ocean/memory/41.jpg","[""ArrowDown"",""ArrowRight""]","value training","ocean","30","{""ArrowUp,ArrowLeft"":23,""ArrowUp,ArrowRight"":10,""ArrowDown,ArrowLeft"":8,""ArrowDown,ArrowRight"":30}","true","ArrowDown,ArrowRight","false","","","original","1","74","","",""
"html-keyboard-response","195","961779","0.0-4.0-2.0-1.37","spark_pilot_2","7279","3","10","Male","","","","","","","null","<div style=""font-size:60px;"">+</div>","null","fixation","","","","","","","","","","","75","","",""
"revaluation","196","967783","0.0-4.0-2.0-0.38","spark_pilot_2","7279","3","10","Male","","false","","","","","[525.9000000953674,144.39999985694885]","./assets/img/ocean/memory/18.jpg","[""ArrowDown"",""ArrowRight""]","value training","ocean","30","{""ArrowUp,ArrowLeft"":23,""ArrowUp,ArrowRight"":10,""ArrowDown,ArrowLeft"":8,""ArrowDown,ArrowRight"":30}","true","ArrowDown,ArrowRight","false","","","original","1","76","","",""
"html-keyboard-response","197","968286","0.0-4.0-2.0-1.38","spark_pilot_2","7279","3","10","Male","","","","","","","null","<div style=""font-size:60px;"">+</div>","null","fixation","","","","","","","","","","","77","","",""
"revaluation","198","974291","0.0-4.0-2.0-0.39","spark_pilot_2","7279","3","10","Male","","false","","","","","[588.2000000476837,422.2999999523163]","./assets/img/ocean/memory/27.jpg","[""ArrowDown"",""ArrowRight""]","value training","ocean","30","{""ArrowUp,ArrowLeft"":23,""ArrowUp,ArrowRight"":10,""ArrowDown,ArrowLeft"":8,""ArrowDown,ArrowRight"":30}","true","ArrowDown,ArrowRight","false","","","original","1","78","","",""
"html-keyboard-response","199","974794","0.0-4.0-2.0-1.39","spark_pilot_2","7279","3","10","Male","","","","","","","null","<div style=""font-size:60px;"">+</div>","null","fixation","","","","","","","","","","","79","","",""
"revaluation","200","978799","0.0-4.0-2.0-0.40","spark_pilot_2","7279","3","10","Male","","false","","","","","[1342.5]","./assets/img/ocean/catch/6.jpg","[""spaceBar""]","value training","ocean","0","{""ArrowUp,ArrowLeft"":23,""ArrowUp,ArrowRight"":10,""ArrowDown,ArrowLeft"":8,""ArrowDown,ArrowRight"":30}","true","spaceBar","true","","","original","1","80","","",""
"html-keyboard-response","201","979300","0.0-4.0-2.0-1.40","spark_pilot_2","7279","3","10","Male","","","","","","","null","<div style=""font-size:60px;"">+</div>","null","fixation","","","","","","","","","","","81","","",""
"revaluation","202","985306","0.0-4.0-2.0-0.41","spark_pilot_2","7279","3","10","Male","","false","","","","","[506.39999985694885,373.89999985694885]","./assets/img/ocean/memory/12.jpg","[""ArrowDown"",""ArrowRight""]","value training","ocean","30","{""ArrowUp,ArrowLeft"":23,""ArrowUp,ArrowRight"":10,""ArrowDown,ArrowLeft"":8,""ArrowDown,ArrowRight"":30}","true","ArrowDown,ArrowRight","false","","","original","1","82","","",""
"html-keyboard-response","203","985807","0.0-4.0-2.0-1.41","spark_pilot_2","7279","3","10","Male","","","","","","","null","<div style=""font-size:60px;"">+</div>","null","fixation","","","","","","","","","","","83","","",""
"revaluation","204","991812","0.0-4.0-2.0-0.42","spark_pilot_2","7279","3","10","Male","","false","","","","","[585.5,300.2000000476837]","./assets/img/ocean/memory/10.jpg","[""ArrowDown"",""ArrowRight""]","value training","ocean","30","{""ArrowUp,ArrowLeft"":23,""ArrowUp,ArrowRight"":10,""ArrowDown,ArrowLeft"":8,""ArrowDown,ArrowRight"":30}","true","ArrowDown,ArrowRight","false","","","original","1","84","","",""
"html-keyboard-response","205","992314","0.0-4.0-2.0-1.42","spark_pilot_2","7279","3","10","Male","","","","","","","null","<div style=""font-size:60px;"">+</div>","null","fixation","","","","","","","","","","","85","","",""
"revaluation","206","996321","0.0-4.0-2.0-0.43","spark_pilot_2","7279","3","10","Male","","false","","","","","[1112.2000000476837]","./assets/img/ocean/catch/0.jpg","[""spaceBar""]","value training","ocean","0","{""ArrowUp,ArrowLeft"":23,""ArrowUp,ArrowRight"":10,""ArrowDown,ArrowLeft"":8,""ArrowDown,ArrowRight"":30}","true","spaceBar","true","","","original","1","86","","",""
"html-keyboard-response","207","996823","0.0-4.0-2.0-1.43","spark_pilot_2","7279","3","10","Male","","","","","","","null","<div style=""font-size:60px;"">+</div>","null","fixation","","","","","","","","","","","87","","",""
"revaluation","208","1002829","0.0-4.0-2.0-0.44","spark_pilot_2","7279","3","10","Male","","false","","","","","[770.1999998092651,1019.7999999523163]","./assets/img/ocean/memory/25.jpg","[""ArrowDown"",""ArrowRight""]","value training","ocean","30","{""ArrowUp,ArrowLeft"":23,""ArrowUp,ArrowRight"":10,""ArrowDown,ArrowLeft"":8,""ArrowDown,ArrowRight"":30}","true","ArrowDown,ArrowRight","false","","","original","1","88","","",""
"html-keyboard-response","209","1003331","0.0-4.0-2.0-1.44","spark_pilot_2","7279","3","10","Male","","","","","","","null","<div style=""font-size:60px;"">+</div>","null","fixation","","","","","","","","","","","89","","",""
"revaluation","210","1009338","0.0-4.0-2.0-0.45","spark_pilot_2","7279","3","10","Male","","false","","","","","[722.8000001907349,1293.1000001430511]","./assets/img/ocean/memory/27.jpg","[""ArrowDown"",""ArrowRight""]","value training","ocean","30","{""ArrowUp,ArrowLeft"":23,""ArrowUp,ArrowRight"":10,""ArrowDown,ArrowLeft"":8,""ArrowDown,ArrowRight"":30}","true","ArrowDown,ArrowRight","false","","","original","1","90","","",""
"html-keyboard-response","211","1009840","0.0-4.0-2.0-1.45","spark_pilot_2","7279","3","10","Male","","","","","","","null","<div style=""font-size:60px;"">+</div>","null","fixation","","","","","","","","","","","91","","",""
"revaluation","212","1015844","0.0-4.0-2.0-0.46","spark_pilot_2","7279","3","10","Male","","false","","","","","[794.5999999046326,600]","./assets/img/ocean/memory/15.jpg","[""ArrowDown"",""ArrowRight""]","value training","ocean","30","{""ArrowUp,ArrowLeft"":23,""ArrowUp,ArrowRight"":10,""ArrowDown,ArrowLeft"":8,""ArrowDown,ArrowRight"":30}","true","ArrowDown,ArrowRight","false","","","original","1","92","","",""
"html-keyboard-response","213","1016346","0.0-4.0-2.0-1.46","spark_pilot_2","7279","3","10","Male","","","","","","","null","<div style=""font-size:60px;"">+</div>","null","fixation","","","","","","","","","","","93","","",""
"revaluation","214","1020350","0.0-4.0-2.0-0.47","spark_pilot_2","7279","3","10","Male","","false","","","","","[1341.4000000953674]","./assets/img/ocean/catch/4.jpg","[""spaceBar""]","value training","ocean","0","{""ArrowUp,ArrowLeft"":23,""ArrowUp,ArrowRight"":10,""ArrowDown,ArrowLeft"":8,""ArrowDown,ArrowRight"":30}","true","spaceBar","true","","","original","1","94","","",""
"html-keyboard-response","215","1020852","0.0-4.0-2.0-1.47","spark_pilot_2","7279","3","10","Male","","","","","","","null","<div style=""font-size:60px;"">+</div>","null","fixation","","","","","","","","","","","95","","",""
"revaluation","216","1026858","0.0-4.0-2.0-0.48","spark_pilot_2","7279","3","10","Male","","false","","","","","[518.1999998092651,466.2000000476837]","./assets/img/ocean/memory/12.jpg","[""ArrowDown"",""ArrowRight""]","value training","ocean","30","{""ArrowUp,ArrowLeft"":23,""ArrowUp,ArrowRight"":10,""ArrowDown,ArrowLeft"":8,""ArrowDown,ArrowRight"":30}","true","ArrowDown,ArrowRight","false","","","original","1","96","","",""
"html-keyboard-response","217","1027361","0.0-4.0-2.0-1.48","spark_pilot_2","7279","3","10","Male","","","","","","","null","<div style=""font-size:60px;"">+</div>","null","fixation","","","","","","","","","","","97","","",""
"revaluation","218","1033369","0.0-4.0-2.0-0.49","spark_pilot_2","7279","3","10","Male","","false","","","","","[587.5,1213.6000001430511]","./assets/img/ocean/memory/6.jpg","[""ArrowDown"",""ArrowRight""]","value training","ocean","30","{""ArrowUp,ArrowLeft"":23,""ArrowUp,ArrowRight"":10,""ArrowDown,ArrowLeft"":8,""ArrowDown,ArrowRight"":30}","true","ArrowDown,ArrowRight","false","","","original","1","98","","",""
"html-keyboard-response","219","1033870","0.0-4.0-2.0-1.49","spark_pilot_2","7279","3","10","Male","","","","","","","null","<div style=""font-size:60px;"">+</div>","null","fixation","","","","","","","","","","","99","","",""
"learning-instructions","220","1050533","0.0-4.0-3.0-0.0","spark_pilot_2","7279","3","10","Male","","","","","","","3314.7999999523163","<p> Now, you will travel with a friend who will choose whether you go up or down first. </p>
            <p> On these turns, you will just see the animal that they found. You will still get to choose which chest to search for treasure.</p>","","instructions","","","","","","","","","","","","","",""
"revaluation","221","1054538","0.0-4.0-4.0-0.0","spark_pilot_2","7279","3","10","Male","","false","","","","","[971.7999999523163]","./assets/img/ocean/animals/seahorse.jpg","[""ArrowRight""]","revaluation","ocean","10","{""ArrowUp,ArrowLeft"":23,""ArrowUp,ArrowRight"":10,""ArrowDown,ArrowLeft"":8,""ArrowDown,ArrowRight"":30}","false","ArrowUp,ArrowRight","","","","original","1","0","","",""
"html-keyboard-response","222","1055042","0.0-4.0-4.0-1.0","spark_pilot_2","7279","3","10","Male","","","","","","","null","<div style=""font-size:60px;"">+</div>","null","fixation","","","","","","","","","","","1","","",""
"revaluation","223","1059048","0.0-4.0-4.0-0.1","spark_pilot_2","7279","3","10","Male","","false","","","","","[773]","./assets/img/ocean/animals/octopus.jpg","[""ArrowRight""]","revaluation","ocean","30","{""ArrowUp,ArrowLeft"":23,""ArrowUp,ArrowRight"":10,""ArrowDown,ArrowLeft"":8,""ArrowDown,ArrowRight"":30}","true","ArrowDown,ArrowRight","","","","original","1","2","","",""
"html-keyboard-response","224","1059551","0.0-4.0-4.0-1.1","spark_pilot_2","7279","3","10","Male","","","","","","","null","<div style=""font-size:60px;"">+</div>","null","fixation","","","","","","","","","","","3","","",""
"revaluation","225","1063555","0.0-4.0-4.0-0.2","spark_pilot_2","7279","3","10","Male","","false","","","","","[453.7000000476837]","./assets/img/ocean/animals/seahorse.jpg","[""ArrowLeft""]","revaluation","ocean","23","{""ArrowUp,ArrowLeft"":23,""ArrowUp,ArrowRight"":10,""ArrowDown,ArrowLeft"":8,""ArrowDown,ArrowRight"":30}","true","ArrowUp,ArrowLeft","","","","original","1","4","","",""
"html-keyboard-response","226","1064056","0.0-4.0-4.0-1.2","spark_pilot_2","7279","3","10","Male","","","","","","","null","<div style=""font-size:60px;"">+</div>","null","fixation","","","","","","","","","","","5","","",""
"revaluation","227","1068060","0.0-4.0-4.0-0.3","spark_pilot_2","7279","3","10","Male","","false","","","","","[643.3999998569489]","./assets/img/ocean/animals/seahorse.jpg","[""ArrowLeft""]","revaluation","ocean","23","{""ArrowUp,ArrowLeft"":23,""ArrowUp,ArrowRight"":10,""ArrowDown,ArrowLeft"":8,""ArrowDown,ArrowRight"":30}","true","ArrowUp,ArrowLeft","","","","original","1","6","","",""
"html-keyboard-response","228","1068562","0.0-4.0-4.0-1.3","spark_pilot_2","7279","3","10","Male","","","","","","","null","<div style=""font-size:60px;"">+</div>","null","fixation","","","","","","","","","","","7","","",""
"revaluation","229","1072567","0.0-4.0-4.0-0.4","spark_pilot_2","7279","3","10","Male","","false","","","","","[520.8999998569489]","./assets/img/ocean/animals/octopus.jpg","[""ArrowLeft""]","revaluation","ocean","8","{""ArrowUp,ArrowLeft"":23,""ArrowUp,ArrowRight"":10,""ArrowDown,ArrowLeft"":8,""ArrowDown,ArrowRight"":30}","false","ArrowDown,ArrowLeft","","","","original","1","8","","",""
"html-keyboard-response","230","1073068","0.0-4.0-4.0-1.4","spark_pilot_2","7279","3","10","Male","","","","","","","null","<div style=""font-size:60px;"">+</div>","null","fixation","","","","","","","","","","","9","","",""
"revaluation","231","1077073","0.0-4.0-4.0-0.5","spark_pilot_2","7279","3","10","Male","","false","","","","","[696.7999999523163]","./assets/img/ocean/animals/octopus.jpg","[""ArrowRight""]","revaluation","ocean","30","{""ArrowUp,ArrowLeft"":23,""ArrowUp,ArrowRight"":10,""ArrowDown,ArrowLeft"":8,""ArrowDown,ArrowRight"":30}","true","ArrowDown,ArrowRight","","","","original","1","10","","",""
"html-keyboard-response","232","1077574","0.0-4.0-4.0-1.5","spark_pilot_2","7279","3","10","Male","","","","","","","null","<div style=""font-size:60px;"">+</div>","null","fixation","","","","","","","","","","","11","","",""
"revaluation","233","1081582","0.0-4.0-4.0-0.6","spark_pilot_2","7279","3","10","Male","","false","","","","","[493.2999999523163]","./assets/img/ocean/animals/seahorse.jpg","[""ArrowLeft""]","revaluation","ocean","23","{""ArrowUp,ArrowLeft"":23,""ArrowUp,ArrowRight"":10,""ArrowDown,ArrowLeft"":8,""ArrowDown,ArrowRight"":30}","true","ArrowUp,ArrowLeft","","","","original","1","12","","",""
"html-keyboard-response","234","1082083","0.0-4.0-4.0-1.6","spark_pilot_2","7279","3","10","Male","","","","","","","null","<div style=""font-size:60px;"">+</div>","null","fixation","","","","","","","","","","","13","","",""
"revaluation","235","1086088","0.0-4.0-4.0-0.7","spark_pilot_2","7279","3","10","Male","","false","","","","","[470.69999980926514]","./assets/img/ocean/animals/octopus.jpg","[""ArrowRight""]","revaluation","ocean","30","{""ArrowUp,ArrowLeft"":23,""ArrowUp,ArrowRight"":10,""ArrowDown,ArrowLeft"":8,""ArrowDown,ArrowRight"":30}","true","ArrowDown,ArrowRight","","","","original","1","14","","",""
"html-keyboard-response","236","1086591","0.0-4.0-4.0-1.7","spark_pilot_2","7279","3","10","Male","","","","","","","null","<div style=""font-size:60px;"">+</div>","null","fixation","","","","","","","","","","","15","","",""
"revaluation","237","1090595","0.0-4.0-4.0-0.8","spark_pilot_2","7279","3","10","Male","","false","","","","","[514.2000000476837]","./assets/img/ocean/animals/octopus.jpg","[""ArrowLeft""]","revaluation","ocean","8","{""ArrowUp,ArrowLeft"":23,""ArrowUp,ArrowRight"":10,""ArrowDown,ArrowLeft"":8,""ArrowDown,ArrowRight"":30}","false","ArrowDown,ArrowLeft","","","","original","1","16","","",""
"html-keyboard-response","238","1091097","0.0-4.0-4.0-1.8","spark_pilot_2","7279","3","10","Male","","","","","","","null","<div style=""font-size:60px;"">+</div>","null","fixation","","","","","","","","","","","17","","",""
"revaluation","239","1095104","0.0-4.0-4.0-0.9","spark_pilot_2","7279","3","10","Male","","false","","","","","[1089.5]","./assets/img/ocean/animals/seahorse.jpg","[""ArrowLeft""]","revaluation","ocean","23","{""ArrowUp,ArrowLeft"":23,""ArrowUp,ArrowRight"":10,""ArrowDown,ArrowLeft"":8,""ArrowDown,ArrowRight"":30}","true","ArrowUp,ArrowLeft","","","","original","1","18","","",""
"html-keyboard-response","240","1095605","0.0-4.0-4.0-1.9","spark_pilot_2","7279","3","10","Male","","","","","","","null","<div style=""font-size:60px;"">+</div>","null","fixation","","","","","","","","","","","19","","",""
"revaluation","241","1099609","0.0-4.0-4.0-0.10","spark_pilot_2","7279","3","10","Male","","false","","","","","[889.6999998092651]","./assets/img/ocean/animals/seahorse.jpg","[""ArrowLeft""]","revaluation","ocean","23","{""ArrowUp,ArrowLeft"":23,""ArrowUp,ArrowRight"":10,""ArrowDown,ArrowLeft"":8,""ArrowDown,ArrowRight"":30}","true","ArrowUp,ArrowLeft","","","","original","1","20","","",""
"html-keyboard-response","242","1100111","0.0-4.0-4.0-1.10","spark_pilot_2","7279","3","10","Male","","","","","","","null","<div style=""font-size:60px;"">+</div>","null","fixation","","","","","","","","","","","21","","",""
"revaluation","243","1104116","0.0-4.0-4.0-0.11","spark_pilot_2","7279","3","10","Male","","false","","","","","[375.7999999523163]","./assets/img/ocean/animals/seahorse.jpg","[""ArrowRight""]","revaluation","ocean","10","{""ArrowUp,ArrowLeft"":23,""ArrowUp,ArrowRight"":10,""ArrowDown,ArrowLeft"":8,""ArrowDown,ArrowRight"":30}","false","ArrowUp,ArrowRight","","","","original","1","22","","",""
"html-keyboard-response","244","1104617","0.0-4.0-4.0-1.11","spark_pilot_2","7279","3","10","Male","","","","","","","null","<div style=""font-size:60px;"">+</div>","null","fixation","","","","","","","","","","","23","","",""
"revaluation","245","1108622","0.0-4.0-4.0-0.12","spark_pilot_2","7279","3","10","Male","","false","","","","","[1450.1999998092651]","./assets/img/ocean/animals/octopus.jpg","[""ArrowRight""]","revaluation","ocean","30","{""ArrowUp,ArrowLeft"":23,""ArrowUp,ArrowRight"":10,""ArrowDown,ArrowLeft"":8,""ArrowDown,ArrowRight"":30}","true","ArrowDown,ArrowRight","","","","original","1","24","","",""
"html-keyboard-response","246","1109123","0.0-4.0-4.0-1.12","spark_pilot_2","7279","3","10","Male","","","","","","","null","<div style=""font-size:60px;"">+</div>","null","fixation","","","","","","","","","","","25","","",""
"revaluation","247","1113127","0.0-4.0-4.0-0.13","spark_pilot_2","7279","3","10","Male","","false","","","","","[658.3999998569489]","./assets/img/ocean/animals/octopus.jpg","[""ArrowRight""]","revaluation","ocean","30","{""ArrowUp,ArrowLeft"":23,""ArrowUp,ArrowRight"":10,""ArrowDown,ArrowLeft"":8,""ArrowDown,ArrowRight"":30}","true","ArrowDown,ArrowRight","","","","original","1","26","","",""
"html-keyboard-response","248","1113628","0.0-4.0-4.0-1.13","spark_pilot_2","7279","3","10","Male","","","","","","","null","<div style=""font-size:60px;"">+</div>","null","fixation","","","","","","","","","","","27","","",""
"revaluation","249","1117632","0.0-4.0-4.0-0.14","spark_pilot_2","7279","3","10","Male","","false","","","","","[810.5]","./assets/img/ocean/animals/octopus.jpg","[""ArrowRight""]","revaluation","ocean","30","{""ArrowUp,ArrowLeft"":23,""ArrowUp,ArrowRight"":10,""ArrowDown,ArrowLeft"":8,""ArrowDown,ArrowRight"":30}","true","ArrowDown,ArrowRight","","","","original","1","28","","",""
"html-keyboard-response","250","1118133","0.0-4.0-4.0-1.14","spark_pilot_2","7279","3","10","Male","","","","","","","null","<div style=""font-size:60px;"">+</div>","null","fixation","","","","","","","","","","","29","","",""
"revaluation","251","1122138","0.0-4.0-4.0-0.15","spark_pilot_2","7279","3","10","Male","","false","","","","","[665.8000001907349]","./assets/img/ocean/animals/octopus.jpg","[""ArrowRight""]","revaluation","ocean","30","{""ArrowUp,ArrowLeft"":23,""ArrowUp,ArrowRight"":10,""ArrowDown,ArrowLeft"":8,""ArrowDown,ArrowRight"":30}","true","ArrowDown,ArrowRight","","","","original","1","30","","",""
"html-keyboard-response","252","1122639","0.0-4.0-4.0-1.15","spark_pilot_2","7279","3","10","Male","","","","","","","null","<div style=""font-size:60px;"">+</div>","null","fixation","","","","","","","","","","","31","","",""
"revaluation","253","1126644","0.0-4.0-4.0-0.16","spark_pilot_2","7279","3","10","Male","","false","","","","","[475]","./assets/img/ocean/animals/seahorse.jpg","[""ArrowLeft""]","revaluation","ocean","23","{""ArrowUp,ArrowLeft"":23,""ArrowUp,ArrowRight"":10,""ArrowDown,ArrowLeft"":8,""ArrowDown,ArrowRight"":30}","true","ArrowUp,ArrowLeft","","","","original","1","32","","",""
"html-keyboard-response","254","1127147","0.0-4.0-4.0-1.16","spark_pilot_2","7279","3","10","Male","","","","","","","null","<div style=""font-size:60px;"">+</div>","null","fixation","","","","","","","","","","","33","","",""
"revaluation","255","1131151","0.0-4.0-4.0-0.17","spark_pilot_2","7279","3","10","Male","","false","","","","","[752.8999998569489]","./assets/img/ocean/animals/seahorse.jpg","[""ArrowLeft""]","revaluation","ocean","23","{""ArrowUp,ArrowLeft"":23,""ArrowUp,ArrowRight"":10,""ArrowDown,ArrowLeft"":8,""ArrowDown,ArrowRight"":30}","true","ArrowUp,ArrowLeft","","","","original","1","34","","",""
"html-keyboard-response","256","1131653","0.0-4.0-4.0-1.17","spark_pilot_2","7279","3","10","Male","","","","","","","null","<div style=""font-size:60px;"">+</div>","null","fixation","","","","","","","","","","","35","","",""
"learning-instructions","257","1146763","0.0-4.0-5.0-0.0","spark_pilot_2","7279","3","10","Male","","","","","","","3315.5999999046326","<p> Time to play the dot game! </p>
            <p> For one minute, click the red dots on the following screen as they appear. </p>
            <p><b> Don't look away, as you will earn bonus for clicking dots</b>. </p>","","instructions","","","","","","","","","","","","","",""
"revaluation","258","1206766","0.0-4.0-6.0-0.0","spark_pilot_2","7279","3","10","Male","","","","","","","[84,177,125,76,89,96]","","","rest","","60","","","","","0","60000","","","","","",""
"learning-instructions","259","1219616","0.0-4.0-7.0-0.0","spark_pilot_2","7279","3","10","Male","","","","","","","6278.099999904633","<p> You have almost finished this part of the game! </p>
            <p> We are going to ask you to make a few more choices. </p>","","instructions","","","","","","","","","","","","","",""
"learning-instructions","260","1235349","0.0-4.0-7.0-0.1","spark_pilot_2","7279","3","10","Male","","","","","","","1766","<p> First, you need to decide whether to go up or down. When you see each picture, use the arrow keys to make your choice. </p>
            <p><b>You will not see which animal you found, but try to get to the one that will give you the most treasure.</b></p>","","instructions","","","","","","","","","","","","","",""
"revaluation","261","1237212","0.0-4.0-8.0-0.0","spark_pilot_2","7279","3","10","Male","","false","","","","","[1859.7000000476837]","./assets/img/ocean/test/1.jpg","[""ArrowDown""]","first stage test","ocean","0","{""ArrowUp,ArrowLeft"":23,""ArrowUp,ArrowRight"":10,""ArrowDown,ArrowLeft"":8,""ArrowDown,ArrowRight"":30}","true","ArrowDown","false","","","original","1","","","",""
"html-keyboard-response","262","1237713","0.0-4.0-8.0-1.0","spark_pilot_2","7279","3","10","Male","","","","","","","null","<div style=""font-size:60px;"">+</div>","null","fixation","","","","","","","","","","","","","",""
"revaluation","263","1238524","0.0-4.0-8.0-0.1","spark_pilot_2","7279","3","10","Male","","false","","","","","[808.5]","./assets/img/ocean/test/3.jpg","[""ArrowDown""]","first stage test","ocean","0","{""ArrowUp,ArrowLeft"":23,""ArrowUp,ArrowRight"":10,""ArrowDown,ArrowLeft"":8,""ArrowDown,ArrowRight"":30}","true","ArrowDown","false","","","original","1","","","",""
"html-keyboard-response","264","1239025","0.0-4.0-8.0-1.1","spark_pilot_2","7279","3","10","Male","","","","","","","null","<div style=""font-size:60px;"">+</div>","null","fixation","","","","","","","","","","","","","",""
"revaluation","265","1239867","0.0-4.0-8.0-0.2","spark_pilot_2","7279","3","10","Male","","false","","","","","[839.5]","./assets/img/ocean/test/0.jpg","[""ArrowUp""]","first stage test","ocean","0","{""ArrowUp,ArrowLeft"":23,""ArrowUp,ArrowRight"":10,""ArrowDown,ArrowLeft"":8,""ArrowDown,ArrowRight"":30}","false","ArrowUp","false","","","original","1","","","",""
"html-keyboard-response","266","1240368","0.0-4.0-8.0-1.2","spark_pilot_2","7279","3","10","Male","","","","","","","null","<div style=""font-size:60px;"">+</div>","null","fixation","","","","","","","","","","","","","",""
"revaluation","267","1241045","0.0-4.0-8.0-0.3","spark_pilot_2","7279","3","10","Male","","false","","","","","[674.2000000476837]","./assets/img/ocean/test/2.jpg","[""ArrowDown""]","first stage test","ocean","0","{""ArrowUp,ArrowLeft"":23,""ArrowUp,ArrowRight"":10,""ArrowDown,ArrowLeft"":8,""ArrowDown,ArrowRight"":30}","true","ArrowDown","false","","","original","1","","","",""
"html-keyboard-response","268","1241546","0.0-4.0-8.0-1.3","spark_pilot_2","7279","3","10","Male","","","","","","","null","<div style=""font-size:60px;"">+</div>","null","fixation","","","","","","","","","","","","","",""
"learning-instructions","269","1261895","0.0-4.0-9.0-0.0","spark_pilot_2","7279","3","10","Male","","","","","","","9004","<p> Now you will see the animals again and can search their chests for treasure. </p>
            <p> This time, you will not see how much treasure you earned, but you will earn more bonus money for making better choices. </p>","","instructions","","","","","","","","","","","","","",""
"revaluation","270","1263060","0.0-4.0-10.0-0.0","spark_pilot_2","7279","3","10","Male","","false","","","","","[1163.2000000476837]","./assets/img/ocean/animals/seahorse.jpg","[""ArrowRight""]","second stage test","ocean","0","{""ArrowUp,ArrowLeft"":23,""ArrowUp,ArrowRight"":10,""ArrowDown,ArrowLeft"":8,""ArrowDown,ArrowRight"":30}","false","ArrowUp,ArrowRight","","","","original","1","","","",""
"html-keyboard-response","271","1263562","0.0-4.0-10.0-1.0","spark_pilot_2","7279","3","10","Male","","","","","","","null","<div style=""font-size:60px;"">+</div>","null","fixation","","","","","","","","","","","","","",""
"revaluation","272","1264206","0.0-4.0-10.0-0.1","spark_pilot_2","7279","3","10","Male","","false","","","","","[642]","./assets/img/ocean/animals/seahorse.jpg","[""ArrowLeft""]","second stage test","ocean","0","{""ArrowUp,ArrowLeft"":23,""ArrowUp,ArrowRight"":10,""ArrowDown,ArrowLeft"":8,""ArrowDown,ArrowRight"":30}","true","ArrowUp,ArrowLeft","","","","original","1","","","",""
"html-keyboard-response","273","1264708","0.0-4.0-10.0-1.1","spark_pilot_2","7279","3","10","Male","","","","","","","null","<div style=""font-size:60px;"">+</div>","null","fixation","","","","","","","","","","","","","",""
"revaluation","274","1265261","0.0-4.0-10.0-0.2","spark_pilot_2","7279","3","10","Male","","false","","","","","[549.8999998569489]","./assets/img/ocean/animals/seahorse.jpg","[""ArrowLeft""]","second stage test","ocean","0","{""ArrowUp,ArrowLeft"":23,""ArrowUp,ArrowRight"":10,""ArrowDown,ArrowLeft"":8,""ArrowDown,ArrowRight"":30}","true","ArrowUp,ArrowLeft","","","","original","1","","","",""
"html-keyboard-response","275","1265762","0.0-4.0-10.0-1.2","spark_pilot_2","7279","3","10","Male","","","","","","","null","<div style=""font-size:60px;"">+</div>","null","fixation","","","","","","","","","","","","","",""
"revaluation","276","1266235","0.0-4.0-10.0-0.3","spark_pilot_2","7279","3","10","Male","","false","","","","","[470.10000014305115]","./assets/img/ocean/animals/seahorse.jpg","[""ArrowLeft""]","second stage test","ocean","0","{""ArrowUp,ArrowLeft"":23,""ArrowUp,ArrowRight"":10,""ArrowDown,ArrowLeft"":8,""ArrowDown,ArrowRight"":30}","true","ArrowUp,ArrowLeft","","","","original","1","","","",""
"html-keyboard-response","277","1266736","0.0-4.0-10.0-1.3","spark_pilot_2","7279","3","10","Male","","","","","","","null","<div style=""font-size:60px;"">+</div>","null","fixation","","","","","","","","","","","","","",""
"revaluation","278","1267312","0.0-4.0-10.0-0.4","spark_pilot_2","7279","3","10","Male","","false","","","","","[573.0999999046326]","./assets/img/ocean/animals/octopus.jpg","[""ArrowRight""]","second stage test","ocean","0","{""ArrowUp,ArrowLeft"":23,""ArrowUp,ArrowRight"":10,""ArrowDown,ArrowLeft"":8,""ArrowDown,ArrowRight"":30}","true","ArrowDown,ArrowRight","","","","original","1","","","",""
"html-keyboard-response","279","1267815","0.0-4.0-10.0-1.4","spark_pilot_2","7279","3","10","Male","","","","","","","null","<div style=""font-size:60px;"">+</div>","null","fixation","","","","","","","","","","","","","",""
"revaluation","280","1268161","0.0-4.0-10.0-0.5","spark_pilot_2","7279","3","10","Male","","false","","","","","[343.59999990463257]","./assets/img/ocean/animals/octopus.jpg","[""ArrowRight""]","second stage test","ocean","0","{""ArrowUp,ArrowLeft"":23,""ArrowUp,ArrowRight"":10,""ArrowDown,ArrowLeft"":8,""ArrowDown,ArrowRight"":30}","true","ArrowDown,ArrowRight","","","","original","1","","","",""
"html-keyboard-response","281","1268662","0.0-4.0-10.0-1.5","spark_pilot_2","7279","3","10","Male","","","","","","","null","<div style=""font-size:60px;"">+</div>","null","fixation","","","","","","","","","","","","","",""
"revaluation","282","1269118","0.0-4.0-10.0-0.6","spark_pilot_2","7279","3","10","Male","","false","","","","","[453.7999999523163]","./assets/img/ocean/animals/octopus.jpg","[""ArrowRight""]","second stage test","ocean","0","{""ArrowUp,ArrowLeft"":23,""ArrowUp,ArrowRight"":10,""ArrowDown,ArrowLeft"":8,""ArrowDown,ArrowRight"":30}","true","ArrowDown,ArrowRight","","","","original","1","","","",""
"html-keyboard-response","283","1269619","0.0-4.0-10.0-1.6","spark_pilot_2","7279","3","10","Male","","","","","","","null","<div style=""font-size:60px;"">+</div>","null","fixation","","","","","","","","","","","","","",""
"revaluation","284","1270144","0.0-4.0-10.0-0.7","spark_pilot_2","7279","3","10","Male","","false","","","","","[522.5]","./assets/img/ocean/animals/octopus.jpg","[""ArrowRight""]","second stage test","ocean","0","{""ArrowUp,ArrowLeft"":23,""ArrowUp,ArrowRight"":10,""ArrowDown,ArrowLeft"":8,""ArrowDown,ArrowRight"":30}","true","ArrowDown,ArrowRight","","","","original","1","","","",""
"html-keyboard-response","285","1270645","0.0-4.0-10.0-1.7","spark_pilot_2","7279","3","10","Male","","","","","","","null","<div style=""font-size:60px;"">+</div>","null","fixation","","","","","","","","","","","","","",""
"learning-instructions","286","1274861","0.0-4.0-0.1-0.2","spark_pilot_2","7279","3","10","Male","","","","","","","1447.0999999046326","<p> This time you are searching for treasure in the <b>canyon</b>.</p>","","instructions","","","","","","","","","","","","","",""
"learning-instructions","287","1294934","0.0-4.0-0.1-0.3","spark_pilot_2","7279","3","10","Male","","","","","","","2821.100000143051","<p><b>New</b> animals with <b>new</b> treasure chests live here. You need to explore to discover where the animal with the best treasure chest is.</p>
                    <p> Like before, once you figure out which animal has the chest with the most treasure, you should try to get to that animal and select that chest! </p>","","instructions","","","","","","","","","","","","","",""
"learning-instructions","288","1310541","0.0-4.0-1.1-0.1","spark_pilot_2","7279","3","10","Male","","","","","","","880.4000000953674","<p> Remember, when you see a picture of the place, use the up and down keys to <b>find an animal</b>.</p>
            <p> When you encounter an animal, you should use the left and right keys to <b>select a treasure chest</b>.</p>
            <p> Don't forget to look out for the robber! </p>","","instructions","","","","","","","","","","","","","",""
"revaluation","289","1316547","0.0-4.0-2.1-0.50","spark_pilot_2","7279","3","10","Male","","false","","","","","[1256.8999998569489,611.7000000476837]","./assets/img/canyon/memory/6.jpg","[""ArrowDown"",""ArrowRight""]","value training","canyon","17","{""ArrowUp,ArrowLeft"":26,""ArrowUp,ArrowRight"":10,""ArrowDown,ArrowLeft"":5,""ArrowDown,ArrowRight"":17}","false","ArrowDown,ArrowRight","false","","","revaluation","2","0","","",""
"html-keyboard-response","290","1317049","0.0-4.0-2.1-1.50","spark_pilot_2","7279","3","10","Male","","","","","","","null","<div style=""font-size:60px;"">+</div>","null","fixation","","","","","","","","","","","1","","",""
"revaluation","291","1323056","0.0-4.0-2.1-0.51","spark_pilot_2","7279","3","10","Male","","false","","","","","[329.30000019073486,315.59999990463257]","./assets/img/canyon/memory/17.jpg","[""ArrowDown"",""ArrowLeft""]","value training","canyon","5","{""ArrowUp,ArrowLeft"":26,""ArrowUp,ArrowRight"":10,""ArrowDown,ArrowLeft"":5,""ArrowDown,ArrowRight"":17}","false","ArrowDown,ArrowLeft","false","","","revaluation","2","2","","",""
"html-keyboard-response","292","1323557","0.0-4.0-2.1-1.51","spark_pilot_2","7279","3","10","Male","","","","","","","null","<div style=""font-size:60px;"">+</div>","null","fixation","","","","","","","","","","","3","","",""
"revaluation","293","1329561","0.0-4.0-2.1-0.52","spark_pilot_2","7279","3","10","Male","","false","","","","","[275.2999999523163,381.09999990463257]","./assets/img/canyon/memory/6.jpg","[""ArrowUp"",""ArrowRight""]","value training","canyon","10","{""ArrowUp,ArrowLeft"":26,""ArrowUp,ArrowRight"":10,""ArrowDown,ArrowLeft"":5,""ArrowDown,ArrowRight"":17}","false","ArrowUp,ArrowRight","false","","","revaluation","2","4","","",""
"html-keyboard-response","294","1330064","0.0-4.0-2.1-1.52","spark_pilot_2","7279","3","10","Male","","","","","","","null","<div style=""font-size:60px;"">+</div>","null","fixation","","","","","","","","","","","5","","",""
"revaluation","295","1336069","0.0-4.0-2.1-0.53","spark_pilot_2","7279","3","10","Male","","false","","","","","[330.09999990463257,494.89999985694885]","./assets/img/canyon/memory/16.jpg","[""ArrowUp"",""ArrowLeft""]","value training","canyon","26","{""ArrowUp,ArrowLeft"":26,""ArrowUp,ArrowRight"":10,""ArrowDown,ArrowLeft"":5,""ArrowDown,ArrowRight"":17}","true","ArrowUp,ArrowLeft","false","","","revaluation","2","6","","",""
"html-keyboard-response","296","1336570","0.0-4.0-2.1-1.53","spark_pilot_2","7279","3","10","Male","","","","","","","null","<div style=""font-size:60px;"">+</div>","null","fixation","","","","","","","","","","","7","","",""
"revaluation","297","1342576","0.0-4.0-2.1-0.54","spark_pilot_2","7279","3","10","Male","","false","","","","","[301.7999999523163,289.7999999523163]","./assets/img/canyon/memory/36.jpg","[""ArrowUp"",""ArrowLeft""]","value training","canyon","26","{""ArrowUp,ArrowLeft"":26,""ArrowUp,ArrowRight"":10,""ArrowDown,ArrowLeft"":5,""ArrowDown,ArrowRight"":17}","true","ArrowUp,ArrowLeft","false","","","revaluation","2","8","","",""
"html-keyboard-response","298","1343077","0.0-4.0-2.1-1.54","spark_pilot_2","7279","3","10","Male","","","","","","","null","<div style=""font-size:60px;"">+</div>","null","fixation","","","","","","","","","","","9","","",""
"revaluation","299","1349081","0.0-4.0-2.1-0.55","spark_pilot_2","7279","3","10","Male","","false","","","","","[594.7000000476837,754]","./assets/img/canyon/memory/25.jpg","[""ArrowUp"",""ArrowLeft""]","value training","canyon","26","{""ArrowUp,ArrowLeft"":26,""ArrowUp,ArrowRight"":10,""ArrowDown,ArrowLeft"":5,""ArrowDown,ArrowRight"":17}","true","ArrowUp,ArrowLeft","false","","","revaluation","2","10","","",""
"html-keyboard-response","300","1349583","0.0-4.0-2.1-1.55","spark_pilot_2","7279","3","10","Male","","","","","","","null","<div style=""font-size:60px;"">+</div>","null","fixation","","","","","","","","","","","11","","",""
"revaluation","301","1355588","0.0-4.0-2.1-0.56","spark_pilot_2","7279","3","10","Male","","false","","","","","[259,467.2000000476837]","./assets/img/canyon/memory/40.jpg","[""ArrowUp"",""ArrowLeft""]","value training","canyon","26","{""ArrowUp,ArrowLeft"":26,""ArrowUp,ArrowRight"":10,""ArrowDown,ArrowLeft"":5,""ArrowDown,ArrowRight"":17}","true","ArrowUp,ArrowLeft","false","","","revaluation","2","12","","",""
"html-keyboard-response","302","1356090","0.0-4.0-2.1-1.56","spark_pilot_2","7279","3","10","Male","","","","","","","null","<div style=""font-size:60px;"">+</div>","null","fixation","","","","","","","","","","","13","","",""
"revaluation","303","1362097","0.0-4.0-2.1-0.57","spark_pilot_2","7279","3","10","Male","","false","","","","","[1228.3999998569489,530.9000000953674]","./assets/img/canyon/memory/3.jpg","[""ArrowUp"",""ArrowLeft""]","value training","canyon","26","{""ArrowUp,ArrowLeft"":26,""ArrowUp,ArrowRight"":10,""ArrowDown,ArrowLeft"":5,""ArrowDown,ArrowRight"":17}","true","ArrowUp,ArrowLeft","false","","","revaluation","2","14","","",""
"html-keyboard-response","304","1362599","0.0-4.0-2.1-1.57","spark_pilot_2","7279","3","10","Male","","","","","","","null","<div style=""font-size:60px;"">+</div>","null","fixation","","","","","","","","","","","15","","",""
"revaluation","305","1368605","0.0-4.0-2.1-0.58","spark_pilot_2","7279","3","10","Male","","false","","","","","[1015.4000000953674,418.2999999523163]","./assets/img/canyon/memory/41.jpg","[""ArrowUp"",""ArrowLeft""]","value training","canyon","26","{""ArrowUp,ArrowLeft"":26,""ArrowUp,ArrowRight"":10,""ArrowDown,ArrowLeft"":5,""ArrowDown,ArrowRight"":17}","true","ArrowUp,ArrowLeft","false","","","revaluation","2","16","","",""
"html-keyboard-response","306","1369107","0.0-4.0-2.1-1.58","spark_pilot_2","7279","3","10","Male","","","","","","","null","<div style=""font-size:60px;"">+</div>","null","fixation","","","","","","","","","","","17","","",""
"revaluation","307","1375110","0.0-4.0-2.1-0.59","spark_pilot_2","7279","3","10","Male","","false","","","","","[485.5,447]","./assets/img/canyon/memory/16.jpg","[""ArrowUp"",""ArrowLeft""]","value training","canyon","26","{""ArrowUp,ArrowLeft"":26,""ArrowUp,ArrowRight"":10,""ArrowDown,ArrowLeft"":5,""ArrowDown,ArrowRight"":17}","true","ArrowUp,ArrowLeft","false","","","revaluation","2","18","","",""
"html-keyboard-response","308","1375612","0.0-4.0-2.1-1.59","spark_pilot_2","7279","3","10","Male","","","","","","","null","<div style=""font-size:60px;"">+</div>","null","fixation","","","","","","","","","","","19","","",""
