"trial_type","trial_index","time_elapsed","internal_node_id","task_version","subject_id","assigned_condition","age","gender","browser_interaction","success","timeout","failed_images","failed_audio","failed_video","rt","stimulus","response","task_part","environment","score","rewardMap","correct","fullState","isCatch","numberMissed","duration","condition","order","trial_num","key_press","ground_truth","bonus"
"pavlovia","0","1208","0.0-0.0","spark_pilot_2","7798","5","23","Female","[{""event"":""blur"",""trial"":0,""time"":196},{""event"":""focus"",""trial"":0,""time"":666},{""event"":""blur"",""trial"":1,""time"":1532},{""event"":""focus"",""trial"":1,""time"":2380},{""event"":""blur"",""trial"":1,""time"":2971},{""event"":""focus"",""trial"":1,""time"":4025},{""event"":""blur"",""trial"":1,""time"":5517},{""event"":""focus"",""trial"":1,""time"":6485},{""event"":""blur"",""trial"":1,""time"":7859},{""event"":""focus"",""trial"":1,""time"":8278},{""event"":""blur"",""trial"":1,""time"":10732},{""event"":""focus"",""trial"":1,""time"":12227},{""event"":""fullscreenenter"",""trial"":2,""time"":30984}]","","","","","","","","","","","","","","","","","","","","","","",""
"preload","1","28370","0.0-1.0","spark_pilot_2","7798","5","23","Female","[{""event"":""blur"",""trial"":0,""time"":196},{""event"":""focus"",""trial"":0,""time"":666},{""event"":""blur"",""trial"":1,""time"":1532},{""event"":""focus"",""trial"":1,""time"":2380},{""event"":""blur"",""trial"":1,""time"":2971},{""event"":""focus"",""trial"":1,""time"":4025},{""event"":""blur"",""trial"":1,""time"":5517},{""event"":""focus"",""trial"":1,""time"":6485},{""event"":""blur"",""trial"":1,""time"":7859},{""event"":""focus"",""trial"":1,""time"":8278},{""event"":""blur"",""trial"":1,""time"":10732},{""event"":""focus"",""trial"":1,""time"":12227},{""event"":""fullscreenenter"",""trial"":2,""time"":30984}]","true","false","[]","[]","[]","","","","","","","","","","","","","","","","","",""
"fullscreen","2","31940","0.0-2.0","spark_pilot_2","7798","5","23","Female","","true","","","","","","","","","","","","","","","","","","","","","",""
"audio-button-response","3","34211","0.0-3.0-0.0-0.0","spark_pilot_2","7798","5","23","Female","","","","","","","2211","./assets/audio/audiotest/turtle.mp3","2","audio_test","","","","","","","","","","","","","",""
"learning-instructions","4","47284","0.0-3.0-1.0-0.0","spark_pilot_2","7798","5","23","Female","","","","","","","6083.599999904633","<p> Welcome! Please remember to stay in fullscreen mode and don't click away from the experiment. </p>","","instructions","","","","","","","","","","","","","",""
"learning-instructions","5","67908","0.0-3.0-1.0-0.1","spark_pilot_2","7798","5","23","Female","","","","","","","12187.60000038147","<p> Today you will be playing a game to earn treasure. </p>
            <p> At the end of the experiment, you will earn a bonus based on how much treasure you find. </p>
            <img src='./assets/img/instructions/treasure.jpg' class='instructions-image'>","","instructions","","","","","","","","","","","","","",""
"learning-instructions","6","83836","0.0-3.0-1.0-0.2","spark_pilot_2","7798","5","23","Female","","","","","","","7654.89999961853","<p> Animals have hidden treasure in treasure chests. </p>
            <p> You need to first find an animal and then choose which of their treasure chests to search. </p>
            <img src='./assets/img/space/animals/cat.jpg' class='instructions-image'>","","instructions","","","","","","","","","","","","","",""
"learning-instructions","7","104980","0.0-3.0-1.0-0.3","spark_pilot_2","7798","5","23","Female","","","","","","","7969","<p> In each round, you will search for treasure in a different place. In the real game, there will be two rounds. </p>
            <p> You will begin with a separate, practice round where you will search for treasure in outer space. </p>
            <img src='./assets/img/space/0.jpg' class='instructions-image'>","","instructions","","","","","","","","","","","","","",""
"learning-instructions","8","123035","0.0-3.0-1.0-0.4","spark_pilot_2","7798","5","23","Female","","","","","","","6615","<p> On every turn, you will see a picture of the place that you are in, but the specific image may be different each time. </p>
            <p> For example, both of these images mean you are in outer space. </p>
            <img src='./assets/img/instructions/outerspace.jpg' class='instructions-image'>","","instructions","","","","","","","","","","","","","",""
"learning-instructions","9","136883","0.0-3.0-1.0-0.5","spark_pilot_2","7798","5","23","Female","","","","","","","6002.5","<p> You need to decide which direction to travel in. </p>
            <p> You can choose between going <b>up or down</b> by using the arrow keys. </p>
            <img src='./assets/img/instructions/updown.jpg' class='instructions-image'>","","instructions","","","","","","","","","","","","","",""
"learning-instructions","10","151035","0.0-3.0-1.0-0.6","spark_pilot_2","7798","5","23","Female","","","","","","","5314.200000286102","<p> You will have <b>2 seconds</b> to make your choice. </p>
            <p> If you do not make a choice within 2 seconds, you will not find an animal or earn treasure. </p>
            <img src='./assets/img/instructions/2seconds.jpg' class='instructions-image'>","","instructions","","","","","","","","","","","","","",""
"learning-instructions","11","159891","0.0-3.0-1.0-0.7","spark_pilot_2","7798","5","23","Female","","","","","","","1810.4000000953674","<p> Let’s try practicing that now! </p>
            <p> When you see a picture of the place you are in, press the <b>up</b> key to travel up. </p>
            <img src='./assets/img/instructions/pressUp.jpg' class='instructions-image'>","","instructions","","","","","","","","","","","","","",""
"revaluation","12","163912","0.0-3.0-2.0-0.0","spark_pilot_2","7798","5","23","Female","","","false","","","","[1258.4000000953674]","./assets/img/space/0.jpg","[""ArrowUp""]","first stage practice","space","0","null","null","ArrowUp","false","","","","","","","",""
"html-keyboard-response","13","164415","0.0-3.0-2.0-1.0","spark_pilot_2","7798","5","23","Female","","","","","","","null","<div style=""font-size:60px;"">+</div>","null","fixation","","","","","","","","","","","","","",""
"revaluation","14","168428","0.0-3.0-2.0-0.1","spark_pilot_2","7798","5","23","Female","","","false","","","","[622.2999997138977]","./assets/img/space/1.jpg","[""ArrowUp""]","first stage practice","space","0","null","null","ArrowUp","false","","","","","","","",""
"html-keyboard-response","15","168930","0.0-3.0-2.0-1.1","spark_pilot_2","7798","5","23","Female","","","","","","","null","<div style=""font-size:60px;"">+</div>","null","fixation","","","","","","","","","","","","","",""
"revaluation","16","172943","0.0-3.0-2.0-0.2","spark_pilot_2","7798","5","23","Female","","","false","","","","[689.3000001907349]","./assets/img/space/2.jpg","[""ArrowUp""]","first stage practice","space","0","null","null","ArrowUp","false","","","","","","","",""
"html-keyboard-response","17","173445","0.0-3.0-2.0-1.2","spark_pilot_2","7798","5","23","Female","","","","","","","null","<div style=""font-size:60px;"">+</div>","null","fixation","","","","","","","","","","","","","",""
"learning-instructions","18","182127","0.0-3.0-3.0-0.0","spark_pilot_2","7798","5","23","Female","","","","","","","3976.800000190735","<p> Great job! Now try pressing the <b>down</b> key to travel down. </p>
            <img src='./assets/img/instructions/pressDown.jpg' class='instructions-image'>","","instructions","","","","","","","","","","","","","",""
"revaluation","19","186133","0.0-3.0-4.0-0.0","spark_pilot_2","7798","5","23","Female","","","false","","","","[903.3000001907349]","./assets/img/space/3.jpg","[""ArrowDown""]","first stage practice","space","0","null","null","ArrowDown","false","","","","","","","",""
"html-keyboard-response","20","186639","0.0-3.0-4.0-1.0","spark_pilot_2","7798","5","23","Female","","","","","","","null","<div style=""font-size:60px;"">+</div>","null","fixation","","","","","","","","","","","","","",""
"revaluation","21","190656","0.0-3.0-4.0-0.1","spark_pilot_2","7798","5","23","Female","","","false","","","","[1093.0999999046326]","./assets/img/space/4.jpg","[""ArrowDown""]","first stage practice","space","0","null","null","ArrowDown","false","","","","","","","",""
"html-keyboard-response","22","191158","0.0-3.0-4.0-1.1","spark_pilot_2","7798","5","23","Female","","","","","","","null","<div style=""font-size:60px;"">+</div>","null","fixation","","","","","","","","","","","","","",""
"revaluation","23","195170","0.0-3.0-4.0-0.2","spark_pilot_2","7798","5","23","Female","","","false","","","","[1446.7000002861023]","./assets/img/space/5.jpg","[""ArrowDown""]","first stage practice","space","0","null","null","ArrowDown","false","","","","","","","",""
"html-keyboard-response","24","195672","0.0-3.0-4.0-1.2","spark_pilot_2","7798","5","23","Female","","","","","","","null","<div style=""font-size:60px;"">+</div>","null","fixation","","","","","","","","","","","","","",""
"learning-instructions","25","208563","0.0-3.0-5.0-0.0","spark_pilot_2","7798","5","23","Female","","","","","","","2993.800000190735","<p> The animals don’t move, so the animal in the upper part of a place will stay in the upper part of a place, and the animal in the lower part of a place will stay in the lower part of a place. </p>","","instructions","","","","","","","","","","","","","",""
"learning-instructions","26","225371","0.0-3.0-5.0-0.1","spark_pilot_2","7798","5","23","Female","","","","","","","7671","<p> Each animal has two treasure chests for you to choose from. </p>
            <p> The amount of treasure in each chest can range from <b> 0 to 40 pieces.</b></p>","","instructions","","","","","","","","","","","","","",""
"learning-instructions","27","240163","0.0-3.0-5.0-0.2","spark_pilot_2","7798","5","23","Female","","","","","","","3582.699999809265","<p> You should decide which chest to search for treasure by using the <b>left</b> and <b>right</b> arrow keys. </p>
            <p><b> Pay attention to which animal is on the screen, as the animals have different treasure chests. </b></p>
            <img src='./assets/img/instructions/leftright.jpg' class='instructions-image'>","","instructions","","","","","","","","","","","","","",""
"learning-instructions","28","251539","0.0-3.0-5.0-0.3","spark_pilot_2","7798","5","23","Female","","","","","","","4999.300000190735","<p> Let’s try practicing that now. </p>
            <p> When you see an animal, choose which chest to search for treasure. </p>
            <img src='./assets/img/instructions/chooseChest.jpg' class='instructions-image'>","","instructions","","","","","","","","","","","","","",""
"revaluation","29","255544","0.0-3.0-6.0-0.0","spark_pilot_2","7798","5","23","Female","","","true","","","","[]","./assets/img/space/animals/cat.jpg","[]","second stage practice","space","-5","{""ArrowUp,ArrowLeft"":3,""ArrowUp,ArrowRight"":36,""ArrowDown,ArrowLeft"":15,""ArrowDown,ArrowRight"":23}","false","ArrowUp","","","","","","","","",""
"html-keyboard-response","30","256047","0.0-3.0-6.0-1.0","spark_pilot_2","7798","5","23","Female","","","","","","","null","<div style=""font-size:60px;"">+</div>","null","fixation","","","","","","","","","","","","","",""
"revaluation","31","260055","0.0-3.0-6.0-0.1","spark_pilot_2","7798","5","23","Female","","","false","","","","[1069.5]","./assets/img/space/animals/cat.jpg","[""ArrowLeft""]","second stage practice","space","3","{""ArrowUp,ArrowLeft"":3,""ArrowUp,ArrowRight"":36,""ArrowDown,ArrowLeft"":15,""ArrowDown,ArrowRight"":23}","false","ArrowUp,ArrowLeft","","","","","","","","",""
"html-keyboard-response","32","260558","0.0-3.0-6.0-1.1","spark_pilot_2","7798","5","23","Female","","","","","","","null","<div style=""font-size:60px;"">+</div>","null","fixation","","","","","","","","","","","","","",""
"revaluation","33","264566","0.0-3.0-6.0-0.2","spark_pilot_2","7798","5","23","Female","","","false","","","","[770.5]","./assets/img/space/animals/rabbit.jpg","[""ArrowRight""]","second stage practice","space","23","{""ArrowUp,ArrowLeft"":3,""ArrowUp,ArrowRight"":36,""ArrowDown,ArrowLeft"":15,""ArrowDown,ArrowRight"":23}","true","ArrowDown,ArrowRight","","","","","","","","",""
"html-keyboard-response","34","265068","0.0-3.0-6.0-1.2","spark_pilot_2","7798","5","23","Female","","","","","","","null","<div style=""font-size:60px;"">+</div>","null","fixation","","","","","","","","","","","","","",""
"revaluation","35","269076","0.0-3.0-6.0-0.3","spark_pilot_2","7798","5","23","Female","","","false","","","","[601.5]","./assets/img/space/animals/rabbit.jpg","[""ArrowRight""]","second stage practice","space","23","{""ArrowUp,ArrowLeft"":3,""ArrowUp,ArrowRight"":36,""ArrowDown,ArrowLeft"":15,""ArrowDown,ArrowRight"":23}","true","ArrowDown,ArrowRight","","","","","","","","",""
"html-keyboard-response","36","269579","0.0-3.0-6.0-1.3","spark_pilot_2","7798","5","23","Female","","","","","","","null","<div style=""font-size:60px;"">+</div>","null","fixation","","","","","","","","","","","","","",""
"learning-instructions","37","289659","0.0-3.0-7.0-0.0","spark_pilot_2","7798","5","23","Female","","","","","","","3219","<p> Great job. Now let’s try putting it together. </p>
            <p> On each turn, you will first see a picture to remind you of the place you are in, and you need to choose whether to go up or down. </p>
            <p> Then you will see an animal and choose which of its chests to search for treasure. </p>","","instructions","","","","","","","","","","","","","",""
"learning-instructions","38","298899","0.0-3.0-7.0-0.1","spark_pilot_2","7798","5","23","Female","","","","","","","959.5","<p> When you choose whether to go up or down, try to go to the animal with the chest with the most treasure. </p>
            <p> Try practicing that now! </p>","","instructions","","","","","","","","","","","","","",""
"revaluation","39","304904","0.0-3.0-8.0-0.0","spark_pilot_2","7798","5","23","Female","","","false","","","","[1020.4000000953674,1030.0999999046326]","./assets/img/space/6.jpg","[""ArrowDown"",""ArrowRight""]","full practice","space","23","{""ArrowUp,ArrowLeft"":3,""ArrowUp,ArrowRight"":36,""ArrowDown,ArrowLeft"":15,""ArrowDown,ArrowRight"":23}","false","ArrowDown,ArrowRight","false","","","","","","","",""
"html-keyboard-response","40","305405","0.0-3.0-8.0-1.0","spark_pilot_2","7798","5","23","Female","","","","","","","null","<div style=""font-size:60px;"">+</div>","null","fixation","","","","","","","","","","","","","",""
"revaluation","41","311418","0.0-3.0-8.0-0.1","spark_pilot_2","7798","5","23","Female","","","false","","","","[1334.3999996185303,758.4000000953674]","./assets/img/space/7.jpg","[""ArrowDown"",""ArrowRight""]","full practice","space","23","{""ArrowUp,ArrowLeft"":3,""ArrowUp,ArrowRight"":36,""ArrowDown,ArrowLeft"":15,""ArrowDown,ArrowRight"":23}","false","ArrowDown,ArrowRight","false","","","","","","","",""
"html-keyboard-response","42","311924","0.0-3.0-8.0-1.1","spark_pilot_2","7798","5","23","Female","","","","","","","null","<div style=""font-size:60px;"">+</div>","null","fixation","","","","","","","","","","","","","",""
"revaluation","43","317941","0.0-3.0-8.0-0.2","spark_pilot_2","7798","5","23","Female","","","false","","","","[925.5,651]","./assets/img/space/8.jpg","[""ArrowUp"",""ArrowLeft""]","full practice","space","3","{""ArrowUp,ArrowLeft"":3,""ArrowUp,ArrowRight"":36,""ArrowDown,ArrowLeft"":15,""ArrowDown,ArrowRight"":23}","false","ArrowUp,ArrowLeft","false","","","","","","","",""
"html-keyboard-response","44","318443","0.0-3.0-8.0-1.2","spark_pilot_2","7798","5","23","Female","","","","","","","null","<div style=""font-size:60px;"">+</div>","null","fixation","","","","","","","","","","","","","",""
"revaluation","45","324453","0.0-3.0-8.0-0.3","spark_pilot_2","7798","5","23","Female","","","false","","","","[415.69999980926514,340.40000009536743]","./assets/img/space/9.jpg","[""ArrowDown"",""ArrowRight""]","full practice","space","23","{""ArrowUp,ArrowLeft"":3,""ArrowUp,ArrowRight"":36,""ArrowDown,ArrowLeft"":15,""ArrowDown,ArrowRight"":23}","false","ArrowDown,ArrowRight","false","","","","","","","",""
"html-keyboard-response","46","324954","0.0-3.0-8.0-1.3","spark_pilot_2","7798","5","23","Female","","","","","","","null","<div style=""font-size:60px;"">+</div>","null","fixation","","","","","","","","","","","","","",""
"revaluation","47","330969","0.0-3.0-8.0-0.4","spark_pilot_2","7798","5","23","Female","","","false","","","","[794.0999999046326,344]","./assets/img/space/10.jpg","[""ArrowDown"",""ArrowLeft""]","full practice","space","15","{""ArrowUp,ArrowLeft"":3,""ArrowUp,ArrowRight"":36,""ArrowDown,ArrowLeft"":15,""ArrowDown,ArrowRight"":23}","false","ArrowDown,ArrowLeft","false","","","","","","","",""
"html-keyboard-response","48","331472","0.0-3.0-8.0-1.4","spark_pilot_2","7798","5","23","Female","","","","","","","null","<div style=""font-size:60px;"">+</div>","null","fixation","","","","","","","","","","","","","",""
"learning-instructions","49","345740","0.0-3.0-9.0-0.0","spark_pilot_2","7798","5","23","Female","","","","","","","3920.2000002861023","<p> One last thing: sometimes, you will see a robber. The robber can be anywhere in the picture. </p>
            <p> If you do not stop them, you will lose treasure. </p>
            <img src='./assets/img/instructions/robber.jpg' class='instructions-image'>","","instructions","","","","","","","","","","","","","",""
"learning-instructions","50","353931","0.0-3.0-9.0-0.1","spark_pilot_2","7798","5","23","Female","","","","","","","1010.6999998092651","<p> If you see the robber, you should <b>press the space bar</b> rather than using the arrow keys. </p>
            <p> Try practicing that now! </p>","","instructions","","","","","","","","","","","","","",""
"revaluation","51","357934","0.0-3.0-10.0-0.0","spark_pilot_2","7798","5","23","Female","","","false","","","","[1051.8999996185303]","./assets/img/space/catch/0.jpg","[""ArrowDown""]","catch practice","space","-10","{""ArrowUp,ArrowLeft"":3,""ArrowUp,ArrowRight"":36,""ArrowDown,ArrowLeft"":15,""ArrowDown,ArrowRight"":23}","false","ArrowDown","true","","","","","","","",""
"html-keyboard-response","52","358436","0.0-3.0-10.0-1.0","spark_pilot_2","7798","5","23","Female","","","","","","","null","<div style=""font-size:60px;"">+</div>","null","fixation","","","","","","","","","","","","","",""
"revaluation","53","362444","0.0-3.0-10.0-0.1","spark_pilot_2","7798","5","23","Female","","","false","","","","[552.2000002861023]","./assets/img/space/catch/1.jpg","[""spaceBar""]","catch practice","space","0","{""ArrowUp,ArrowLeft"":3,""ArrowUp,ArrowRight"":36,""ArrowDown,ArrowLeft"":15,""ArrowDown,ArrowRight"":23}","true","spaceBar","true","","","","","","","",""
"html-keyboard-response","54","362946","0.0-3.0-10.0-1.1","spark_pilot_2","7798","5","23","Female","","","","","","","null","<div style=""font-size:60px;"">+</div>","null","fixation","","","","","","","","","","","","","",""
"revaluation","55","366954","0.0-3.0-10.0-0.2","spark_pilot_2","7798","5","23","Female","","","false","","","","[477.2000002861023]","./assets/img/space/catch/2.jpg","[""spaceBar""]","catch practice","space","0","{""ArrowUp,ArrowLeft"":3,""ArrowUp,ArrowRight"":36,""ArrowDown,ArrowLeft"":15,""ArrowDown,ArrowRight"":23}","true","spaceBar","true","","","","","","","",""
"html-keyboard-response","56","367456","0.0-3.0-10.0-1.2","spark_pilot_2","7798","5","23","Female","","","","","","","null","<div style=""font-size:60px;"">+</div>","null","fixation","","","","","","","","","","","","","",""
"learning-instructions","57","383027","0.0-3.0-11.0-0.0","spark_pilot_2","7798","5","23","Female","","","","","","","1926.2999997138977","<p> After you explore a place to find treasure, it will be time to play a different game. </p>
            <p> During this game, red dots will appear on the screen and fall down slowly. </p>
            <p><b> You must click on them before they reach the bottom. </b></p>
            <img src='./assets/img/instructions/dotGame.jpg' class='instructions-image'>","","instructions","","","","","","","","","","","","","",""
"learning-instructions","58","389747","0.0-3.0-11.0-0.1","spark_pilot_2","7798","5","23","Female","","","","","","","1047","<p> For every dot you click, you will earn additional treasure. </p>
            <p> Let’s try practicing that now. </p>","","instructions","","","","","","","","","","","","","",""
"revaluation","59","404760","0.0-3.0-12.0-0.0","spark_pilot_2","7798","5","23","Female","","","","","","","[77]","","","rest practice","","10","","","","","0","15000","","","","","",""
"learning-instructions","60","413723","0.0-3.0-13.0-0.0-0.0","spark_pilot_2","7798","5","23","Female","","","","","","","3662.6000003814697","<p> Now, you will practice a shortened version of the game to get a sense of how it all fits together. </p>","","instructions","","","","","","","","","","","","","",""
"learning-instructions","61","420819","0.0-3.0-13.0-0.0-0.1","spark_pilot_2","7798","5","23","Female","","","","","","","3898.800000190735","<p>This time you are searching for treasure in outer space.</p>","","instructions","","","","","","","","","","","","","",""
"learning-instructions","62","438139","0.0-3.0-13.0-1.0-0.0","spark_pilot_2","7798","5","23","Female","","","","","","","2518.6000003814697","<p> Remember, when you see a picture of the place, use the up and down keys to <b>find an animal</b>.</p>
            <p> When you encounter an animal, you should use the left and right keys to <b>select a treasure chest</b>.</p>
            <p> Don't forget to look out for the robber! </p>","","instructions","","","","","","","","","","","","","",""
"revaluation","63","444145","0.0-3.0-13.0-2.0-0.0","spark_pilot_2","7798","5","23","Female","","","false","","","","[1012.9000000953674,348.59999990463257]","./assets/img/space/11.jpg","[""ArrowDown"",""ArrowRight""]","practice block","space","23","{""ArrowUp,ArrowLeft"":3,""ArrowUp,ArrowRight"":36,""ArrowDown,ArrowLeft"":15,""ArrowDown,ArrowRight"":23}","false","ArrowDown,ArrowRight","false","","","","","","","",""
"html-keyboard-response","64","444647","0.0-3.0-13.0-2.0-1.0","spark_pilot_2","7798","5","23","Female","","","","","","","null","<div style=""font-size:60px;"">+</div>","null","fixation","","","","","","","","","","","","","",""
"revaluation","65","450656","0.0-3.0-13.0-2.0-0.1","spark_pilot_2","7798","5","23","Female","","","false","","","","[1381.5999999046326,391.80000019073486]","./assets/img/space/12.jpg","[""ArrowDown"",""ArrowRight""]","practice block","space","23","{""ArrowUp,ArrowLeft"":3,""ArrowUp,ArrowRight"":36,""ArrowDown,ArrowLeft"":15,""ArrowDown,ArrowRight"":23}","false","ArrowDown,ArrowRight","false","","","","","","","",""
"html-keyboard-response","66","451158","0.0-3.0-13.0-2.0-1.1","spark_pilot_2","7798","5","23","Female","","","","","","","null","<div style=""font-size:60px;"">+</div>","null","fixation","","","","","","","","","","","","","",""
"revaluation","67","457167","0.0-3.0-13.0-2.0-0.2","spark_pilot_2","7798","5","23","Female","","","false","","","","[719.0999999046326,251.2999997138977]","./assets/img/space/13.jpg","[""ArrowDown"",""ArrowRight""]","practice block","space","23","{""ArrowUp,ArrowLeft"":3,""ArrowUp,ArrowRight"":36,""ArrowDown,ArrowLeft"":15,""ArrowDown,ArrowRight"":23}","false","ArrowDown,ArrowRight","false","","","","","","","",""
"html-keyboard-response","68","457669","0.0-3.0-13.0-2.0-1.2","spark_pilot_2","7798","5","23","Female","","","","","","","null","<div style=""font-size:60px;"">+</div>","null","fixation","","","","","","","","","","","","","",""
"revaluation","69","463678","0.0-3.0-13.0-2.0-0.3","spark_pilot_2","7798","5","23","Female","","","false","","","","[710.9000000953674,287]","./assets/img/space/14.jpg","[""ArrowDown"",""ArrowRight""]","practice block","space","23","{""ArrowUp,ArrowLeft"":3,""ArrowUp,ArrowRight"":36,""ArrowDown,ArrowLeft"":15,""ArrowDown,ArrowRight"":23}","false","ArrowDown,ArrowRight","false","","","","","","","",""
"html-keyboard-response","70","464180","0.0-3.0-13.0-2.0-1.3","spark_pilot_2","7798","5","23","Female","","","","","","","null","<div style=""font-size:60px;"">+</div>","null","fixation","","","","","","","","","","","","","",""
"revaluation","71","470189","0.0-3.0-13.0-2.0-0.4","spark_pilot_2","7798","5","23","Female","","","false","","","","[767.1999998092651,234]","./assets/img/space/11.jpg","[""ArrowDown"",""ArrowRight""]","practice block","space","23","{""ArrowUp,ArrowLeft"":3,""ArrowUp,ArrowRight"":36,""ArrowDown,ArrowLeft"":15,""ArrowDown,ArrowRight"":23}","false","ArrowDown,ArrowRight","false","","","","","","","",""
"html-keyboard-response","72","470691","0.0-3.0-13.0-2.0-1.4","spark_pilot_2","7798","5","23","Female","","","","","","","null","<div style=""font-size:60px;"">+</div>","null","fixation","","","","","","","","","","","","","",""
"revaluation","73","476700","0.0-3.0-13.0-2.0-0.5","spark_pilot_2","7798","5","23","Female","","","false","","","","[475.3999996185303,355.80000019073486]","./assets/img/space/12.jpg","[""ArrowUp"",""ArrowRight""]","practice block","space","36","{""ArrowUp,ArrowLeft"":3,""ArrowUp,ArrowRight"":36,""ArrowDown,ArrowLeft"":15,""ArrowDown,ArrowRight"":23}","true","ArrowUp,ArrowRight","false","","","","","","","",""
"html-keyboard-response","74","477201","0.0-3.0-13.0-2.0-1.5","spark_pilot_2","7798","5","23","Female","","","","","","","null","<div style=""font-size:60px;"">+</div>","null","fixation","","","","","","","","","","","","","",""
"revaluation","75","483212","0.0-3.0-13.0-2.0-0.6","spark_pilot_2","7798","5","23","Female","","","false","","","","[554,398.30000019073486]","./assets/img/space/13.jpg","[""ArrowUp"",""ArrowRight""]","practice block","space","36","{""ArrowUp,ArrowLeft"":3,""ArrowUp,ArrowRight"":36,""ArrowDown,ArrowLeft"":15,""ArrowDown,ArrowRight"":23}","true","ArrowUp,ArrowRight","false","","","","","","","",""
"html-keyboard-response","76","483714","0.0-3.0-13.0-2.0-1.6","spark_pilot_2","7798","5","23","Female","","","","","","","null","<div style=""font-size:60px;"">+</div>","null","fixation","","","","","","","","","","","","","",""
"revaluation","77","489724","0.0-3.0-13.0-2.0-0.7","spark_pilot_2","7798","5","23","Female","","","false","","","","[1336.1999998092651,629]","./assets/img/space/14.jpg","[""ArrowUp"",""ArrowRight""]","practice block","space","36","{""ArrowUp,ArrowLeft"":3,""ArrowUp,ArrowRight"":36,""ArrowDown,ArrowLeft"":15,""ArrowDown,ArrowRight"":23}","true","ArrowUp,ArrowRight","false","","","","","","","",""
"html-keyboard-response","78","490227","0.0-3.0-13.0-2.0-1.7","spark_pilot_2","7798","5","23","Female","","","","","","","null","<div style=""font-size:60px;"">+</div>","null","fixation","","","","","","","","","","","","","",""
"revaluation","79","494238","0.0-3.0-13.0-2.0-0.8","spark_pilot_2","7798","5","23","Female","","","false","","","","[388.30000019073486]","./assets/img/space/catch/3.jpg","[""ArrowUp""]","practice block","space","-10","{""ArrowUp,ArrowLeft"":3,""ArrowUp,ArrowRight"":36,""ArrowDown,ArrowLeft"":15,""ArrowDown,ArrowRight"":23}","false","ArrowUp","true","","","","","","","",""
"html-keyboard-response","80","494739","0.0-3.0-13.0-2.0-1.8","spark_pilot_2","7798","5","23","Female","","","","","","","null","<div style=""font-size:60px;"">+</div>","null","fixation","","","","","","","","","","","","","",""
"learning-instructions","81","510555","0.0-3.0-13.0-3.0-0.0","spark_pilot_2","7798","5","23","Female","","","","","","","2879","<p> Now, you will travel with a friend who will choose whether you go up or down first. </p>
            <p> On these turns, you will just see the animal that they found. You will still get to choose which chest to search for treasure.</p>","","instructions","","","","","","","","","","","","","",""
"revaluation","82","514559","0.0-3.0-13.0-4.0-0.0","spark_pilot_2","7798","5","23","Female","","","false","","","","[1027.0999999046326]","./assets/img/space/animals/rabbit.jpg","[""ArrowRight""]","practice block","space","23","{""ArrowUp,ArrowLeft"":3,""ArrowUp,ArrowRight"":36,""ArrowDown,ArrowLeft"":15,""ArrowDown,ArrowRight"":23}","true","ArrowDown,ArrowRight","","","","","","","","",""
"html-keyboard-response","83","515061","0.0-3.0-13.0-4.0-1.0","spark_pilot_2","7798","5","23","Female","","","","","","","null","<div style=""font-size:60px;"">+</div>","null","fixation","","","","","","","","","","","","","",""
"revaluation","84","519067","0.0-3.0-13.0-4.0-0.1","spark_pilot_2","7798","5","23","Female","","","false","","","","[657.8000001907349]","./assets/img/space/animals/rabbit.jpg","[""ArrowLeft""]","practice block","space","15","{""ArrowUp,ArrowLeft"":3,""ArrowUp,ArrowRight"":36,""ArrowDown,ArrowLeft"":15,""ArrowDown,ArrowRight"":23}","false","ArrowDown,ArrowLeft","","","","","","","","",""
"html-keyboard-response","85","519569","0.0-3.0-13.0-4.0-1.1","spark_pilot_2","7798","5","23","Female","","","","","","","null","<div style=""font-size:60px;"">+</div>","null","fixation","","","","","","","","","","","","","",""
"revaluation","86","523579","0.0-3.0-13.0-4.0-0.2","spark_pilot_2","7798","5","23","Female","","","false","","","","[706.6999998092651]","./assets/img/space/animals/cat.jpg","[""ArrowRight""]","practice block","space","36","{""ArrowUp,ArrowLeft"":3,""ArrowUp,ArrowRight"":36,""ArrowDown,ArrowLeft"":15,""ArrowDown,ArrowRight"":23}","true","ArrowUp,ArrowRight","","","","","","","","",""
"html-keyboard-response","87","524081","0.0-3.0-13.0-4.0-1.2","spark_pilot_2","7798","5","23","Female","","","","","","","null","<div style=""font-size:60px;"">+</div>","null","fixation","","","","","","","","","","","","","",""
"revaluation","88","528090","0.0-3.0-13.0-4.0-0.3","spark_pilot_2","7798","5","23","Female","","","false","","","","[315.6000003814697]","./assets/img/space/animals/cat.jpg","[""ArrowRight""]","practice block","space","36","{""ArrowUp,ArrowLeft"":3,""ArrowUp,ArrowRight"":36,""ArrowDown,ArrowLeft"":15,""ArrowDown,ArrowRight"":23}","true","ArrowUp,ArrowRight","","","","","","","","",""
"html-keyboard-response","89","528591","0.0-3.0-13.0-4.0-1.3","spark_pilot_2","7798","5","23","Female","","","","","","","null","<div style=""font-size:60px;"">+</div>","null","fixation","","","","","","","","","","","","","",""
"learning-instructions","90","539675","0.0-3.0-13.0-5.0-0.0","spark_pilot_2","7798","5","23","Female","","","","","","","3660.2999997138977","<p> Time to play the dot game! </p>
            <p> For 15 seconds, click the red dots on the following screen as they appear. </p>","","instructions","","","","","","","","","","","","","",""
"revaluation","91","554677","0.0-3.0-13.0-6.0-0.0","spark_pilot_2","7798","5","23","Female","","","","","","","[133]","","","rest practice","","10","","","","","0","15000","","","","","",""
"learning-instructions","92","563075","0.0-3.0-13.0-7.0-0.0","spark_pilot_2","7798","5","23","Female","","","","","","","2249.5","<p> You have almost finished this part of the game! </p>
            <p> We are going to ask you to make a few more choices. </p>","","instructions","","","","","","","","","","","","","",""
"learning-instructions","93","578475","0.0-3.0-13.0-7.0-0.1","spark_pilot_2","7798","5","23","Female","","","","","","","1369.1999998092651","<p> First, you need to decide whether to go up or down. When you see each picture, use the arrow keys to make your choice. </p>
            <p><b>You will not see which animal you found, but try to get to the one that will give you the most treasure.</b></p>","","instructions","","","","","","","","","","","","","",""
"revaluation","94","580645","0.0-3.0-13.0-8.0","spark_pilot_2","7798","5","23","Female","","","false","","","","[2168]","./assets/img/space/15.jpg","[""ArrowDown""]","practice block","space","0","{""ArrowUp,ArrowLeft"":3,""ArrowUp,ArrowRight"":36,""ArrowDown,ArrowLeft"":15,""ArrowDown,ArrowRight"":23}","false","ArrowDown","false","","","","","","","",""
"html-keyboard-response","95","581148","0.0-3.0-13.0-9.0","spark_pilot_2","7798","5","23","Female","","","","","","","null","<div style=""font-size:60px;"">+</div>","null","fixation","","","","","","","","","","","","","",""
"learning-instructions","96","596043","0.0-3.0-13.0-10.0-0.0","spark_pilot_2","7798","5","23","Female","","","","","","","3487.199999809265","<p> Now you will see the animals again and can search their chests for treasure. </p>
            <p> This time, you will not see how much treasure you earned, but you will earn more bonus money for making better choices. </p>","","instructions","","","","","","","","","","","","","",""
"revaluation","97","597112","0.0-3.0-13.0-11.0-0.0","spark_pilot_2","7798","5","23","Female","","","false","","","","[1066.5]","./assets/img/space/animals/cat.jpg","[""ArrowRight""]","practice block","space","0","{""ArrowUp,ArrowLeft"":3,""ArrowUp,ArrowRight"":36,""ArrowDown,ArrowLeft"":15,""ArrowDown,ArrowRight"":23}","true","ArrowUp,ArrowRight","","","","","","","","",""
"html-keyboard-response","98","597614","0.0-3.0-13.0-11.0-1.0","spark_pilot_2","7798","5","23","Female","","","","","","","null","<div style=""font-size:60px;"">+</div>","null","fixation","","","","","","","","","","","","","",""
"revaluation","99","599078","0.0-3.0-13.0-11.0-0.1","spark_pilot_2","7798","5","23","Female","","","false","","","","[1457.4000000953674]","./assets/img/space/animals/rabbit.jpg","[""ArrowRight""]","practice block","space","0","{""ArrowUp,ArrowLeft"":3,""ArrowUp,ArrowRight"":36,""ArrowDown,ArrowLeft"":15,""ArrowDown,ArrowRight"":23}","true","ArrowDown,ArrowRight","","","","","","","","",""
"html-keyboard-response","100","599581","0.0-3.0-13.0-11.0-1.1","spark_pilot_2","7798","5","23","Female","","","","","","","null","<div style=""font-size:60px;"">+</div>","null","fixation","","","","","","","","","","","","","",""
"learning-instructions","101","605827","0.0-3.0-14.0-0.0","spark_pilot_2","7798","5","23","Female","","","","","","","1632","<p> Before you start, we're going to ask you a few questions about how the game works. </p>","","instructions","","","","","","","","","","","","","",""
"comp-q","102","612771","0.0-3.0-15.0-0.0-0.0","spark_pilot_2","7798","5","23","Female","","","","","","","1349.0999999046326","<p> <b> True or False? </b> </p>
            <p> There can be 50 pieces of treasure in a given animal's chest. </p>","1","comp_question","","","","true","","","","","","","","","",""
"comp-q","103","621755","0.0-3.0-15.0-0.0-1.0","spark_pilot_2","7798","5","23","Female","","","","","","","2319.6000003814697","<p> <b> That's right! </b> The amount of treasure in each chest can range from 0 to 40 pieces. </p>","0","comp_answer","","","","","","","","","","","","","",""
"comp-q","104","630483","0.0-3.0-15.0-0.1-0.1","spark_pilot_2","7798","5","23","Female","","","","","","","1586.9000000953674","<p> <b> True or False? </b> </p><p> In this game, all animals have the same amount of treasure in their left and right chests. </p>","1","comp_question","","","","true","","","","","","","","","",""
"comp-q","105","637795","0.0-3.0-15.0-0.1-1.1","spark_pilot_2","7798","5","23","Female","","","","","","","2020","<p> <b> That's right! </b> Animals have different amounts of treasure in their treasure chests. </p>","0","comp_answer","","","","","","","","","","","","","",""
"comp-q","106","645227","0.0-3.0-15.0-0.2-0.2","spark_pilot_2","7798","5","23","Female","","","","","","","1571.2000002861023","<p> <b> True or False? </b> </p><p> The same animal will always be there if you go up in the same place. </p>","0","comp_question","","","","true","","","","","","","","","",""
"comp-q","107","653859","0.0-3.0-15.0-0.2-1.2","spark_pilot_2","7798","5","23","Female","","","","","","","2153.5999999046326","<p> <b> That's right! </b> One animal lives in the upper part and one lives in the lower part of every place. </p>","0","comp_answer","","","","","","","","","","","","","",""
"comp-q","108","660371","0.0-3.0-15.0-0.3-0.3","spark_pilot_2","7798","5","23","Female","","","","","","","984.5999999046326","<p> <b> True or False? </b> </p><p> If you see a different picture, it means you are in a new place. </p>","0","comp_question","","","","false","","","","","","","","","",""
"comp-q","109","673539","0.0-3.0-15.0-0.3-1.3","spark_pilot_2","7798","5","23","Female","","","","","","","2063.7999997138977","<p> <b>Incorrect.</b> Lots of different images may show the same place. For example,  you may see three different images that all remind you that you are in outer space. </p>","0","comp_answer","","","","","","","","","","","","","",""
"comp-q","110","679660","0.0-3.0-15.0-0.4-0.4","spark_pilot_2","7798","5","23","Female","","","","","","","625","<p> <b> True or False? </b> </p><p> If you see a different picture, it means you are in a new place. </p>","1","comp_question","","","","true","","","","","","","","","",""
"comp-q","111","692051","0.0-3.0-15.0-0.4-1.4","spark_pilot_2","7798","5","23","Female","","","","","","","1145.7999997138977","<p> <b> That's right! </b> Lots of different images may show the same place. For example,  you may see three different images that all remind you that you are in outer space. </p>","0","comp_answer","","","","","","","","","","","","","",""
"learning-instructions","112","704467","0.0-3.0-16.0-0.0","spark_pilot_2","7798","5","23","Female","","","","","","","2551.4000000953674","<p> Good job. Remember to do your best because the amount of treasure you earn will be converted into bonus money. </p>
            <p> It’s time to start the real game! </p>","","instructions","","","","","","","","","","","","","",""
"learning-instructions","113","709715","0.0-4.0-0.0-0.0","spark_pilot_2","7798","5","23","Female","","","","","","","2479.5999999046326","<p> This time you are searching for treasure in the <b>canyon</b>.</p>","","instructions","","","","","","","","","","","","","",""
"learning-instructions","114","728995","0.0-4.0-0.0-0.1","spark_pilot_2","7798","5","23","Female","","","","","","","1939.6999998092651","<p><b>New</b> animals with <b>new</b> treasure chests live here. You need to explore to discover where the animal with the best treasure chest is.</p>
                    <p> Like before, once you figure out which animal has the chest with the most treasure, you should try to get to that animal and select that chest! </p>","","instructions","","","","","","","","","","","","","",""
"learning-instructions","115","747659","0.0-4.0-1.0-0.0","spark_pilot_2","7798","5","23","Female","","","","","","","3922.9000000953674","<p> Remember, when you see a picture of the place, use the up and down keys to <b>find an animal</b>.</p>
            <p> When you encounter an animal, you should use the left and right keys to <b>select a treasure chest</b>.</p>
            <p> Don't forget to look out for the robber! </p>","","instructions","","","","","","","","","","","","","",""
"revaluation","116","753663","0.0-4.0-2.0-0.0","spark_pilot_2","7798","5","23","Female","","","false","","","","[1082,462.7999997138977]","./assets/img/canyon/memory/1.jpg","[""ArrowDown"",""ArrowRight""]","value training","canyon","17","{""ArrowUp,ArrowLeft"":26,""ArrowUp,ArrowRight"":10,""ArrowDown,ArrowLeft"":5,""ArrowDown,ArrowRight"":17}","false","ArrowDown,ArrowRight","false","","","original","1","0","","",""
"html-keyboard-response","117","754172","0.0-4.0-2.0-1.0","spark_pilot_2","7798","5","23","Female","","","","","","","null","<div style=""font-size:60px;"">+</div>","null","fixation","","","","","","","","","","","1","","",""
"revaluation","118","760186","0.0-4.0-2.0-0.1","spark_pilot_2","7798","5","23","Female","","","false","","","","[720.1999998092651,338.59999990463257]","./assets/img/canyon/memory/31.jpg","[""ArrowDown"",""ArrowLeft""]","value training","canyon","5","{""ArrowUp,ArrowLeft"":26,""ArrowUp,ArrowRight"":10,""ArrowDown,ArrowLeft"":5,""ArrowDown,ArrowRight"":17}","false","ArrowDown,ArrowLeft","false","","","original","1","2","","",""
"html-keyboard-response","119","760688","0.0-4.0-2.0-1.1","spark_pilot_2","7798","5","23","Female","","","","","","","null","<div style=""font-size:60px;"">+</div>","null","fixation","","","","","","","","","","","3","","",""
"revaluation","120","764695","0.0-4.0-2.0-0.2","spark_pilot_2","7798","5","23","Female","","","false","","","","[555.6999998092651]","./assets/img/canyon/catch/3.jpg","[""spaceBar""]","value training","canyon","0","{""ArrowUp,ArrowLeft"":26,""ArrowUp,ArrowRight"":10,""ArrowDown,ArrowLeft"":5,""ArrowDown,ArrowRight"":17}","true","spaceBar","true","","","original","1","4","","",""
"html-keyboard-response","121","765197","0.0-4.0-2.0-1.2","spark_pilot_2","7798","5","23","Female","","","","","","","null","<div style=""font-size:60px;"">+</div>","null","fixation","","","","","","","","","","","5","","",""
"revaluation","122","771206","0.0-4.0-2.0-0.3","spark_pilot_2","7798","5","23","Female","","","false","","","","[356.69999980926514,414.2000002861023]","./assets/img/canyon/memory/10.jpg","[""ArrowUp"",""ArrowRight""]","value training","canyon","10","{""ArrowUp,ArrowLeft"":26,""ArrowUp,ArrowRight"":10,""ArrowDown,ArrowLeft"":5,""ArrowDown,ArrowRight"":17}","false","ArrowUp,ArrowRight","false","","","original","1","6","","",""
"html-keyboard-response","123","771711","0.0-4.0-2.0-1.3","spark_pilot_2","7798","5","23","Female","","","","","","","null","<div style=""font-size:60px;"">+</div>","null","fixation","","","","","","","","","","","7","","",""
"revaluation","124","775728","0.0-4.0-2.0-0.4","spark_pilot_2","7798","5","23","Female","","","false","","","","[594.4000000953674]","./assets/img/canyon/catch/6.jpg","[""spaceBar""]","value training","canyon","0","{""ArrowUp,ArrowLeft"":26,""ArrowUp,ArrowRight"":10,""ArrowDown,ArrowLeft"":5,""ArrowDown,ArrowRight"":17}","true","spaceBar","true","","","original","1","8","","",""
"html-keyboard-response","125","776229","0.0-4.0-2.0-1.4","spark_pilot_2","7798","5","23","Female","","","","","","","null","<div style=""font-size:60px;"">+</div>","null","fixation","","","","","","","","","","","9","","",""
"revaluation","126","782238","0.0-4.0-2.0-0.5","spark_pilot_2","7798","5","23","Female","","","false","","","","[461.2999997138977,297.90000009536743]","./assets/img/canyon/memory/16.jpg","[""ArrowUp"",""ArrowLeft""]","value training","canyon","26","{""ArrowUp,ArrowLeft"":26,""ArrowUp,ArrowRight"":10,""ArrowDown,ArrowLeft"":5,""ArrowDown,ArrowRight"":17}","true","ArrowUp,ArrowLeft","false","","","original","1","10","","",""
"html-keyboard-response","127","782741","0.0-4.0-2.0-1.5","spark_pilot_2","7798","5","23","Female","","","","","","","null","<div style=""font-size:60px;"">+</div>","null","fixation","","","","","","","","","","","11","","",""
"revaluation","128","788751","0.0-4.0-2.0-0.6","spark_pilot_2","7798","5","23","Female","","","false","","","","[434.1000003814697,291.2000002861023]","./assets/img/canyon/memory/23.jpg","[""ArrowUp"",""ArrowLeft""]","value training","canyon","26","{""ArrowUp,ArrowLeft"":26,""ArrowUp,ArrowRight"":10,""ArrowDown,ArrowLeft"":5,""ArrowDown,ArrowRight"":17}","true","ArrowUp,ArrowLeft","false","","","original","1","12","","",""
"html-keyboard-response","129","789253","0.0-4.0-2.0-1.6","spark_pilot_2","7798","5","23","Female","","","","","","","null","<div style=""font-size:60px;"">+</div>","null","fixation","","","","","","","","","","","13","","",""
"revaluation","130","795263","0.0-4.0-2.0-0.7","spark_pilot_2","7798","5","23","Female","","","false","","","","[404.2000002861023,478.19999980926514]","./assets/img/canyon/memory/9.jpg","[""ArrowUp"",""ArrowLeft""]","value training","canyon","26","{""ArrowUp,ArrowLeft"":26,""ArrowUp,ArrowRight"":10,""ArrowDown,ArrowLeft"":5,""ArrowDown,ArrowRight"":17}","true","ArrowUp,ArrowLeft","false","","","original","1","14","","",""
"html-keyboard-response","131","795765","0.0-4.0-2.0-1.7","spark_pilot_2","7798","5","23","Female","","","","","","","null","<div style=""font-size:60px;"">+</div>","null","fixation","","","","","","","","","","","15","","",""
"revaluation","132","799776","0.0-4.0-2.0-0.8","spark_pilot_2","7798","5","23","Female","","","false","","","","[1016.3000001907349]","./assets/img/canyon/catch/2.jpg","[""spaceBar""]","value training","canyon","0","{""ArrowUp,ArrowLeft"":26,""ArrowUp,ArrowRight"":10,""ArrowDown,ArrowLeft"":5,""ArrowDown,ArrowRight"":17}","true","spaceBar","true","","","original","1","16","","",""
"html-keyboard-response","133","800277","0.0-4.0-2.0-1.8","spark_pilot_2","7798","5","23","Female","","","","","","","null","<div style=""font-size:60px;"">+</div>","null","fixation","","","","","","","","","","","17","","",""
"revaluation","134","806286","0.0-4.0-2.0-0.9","spark_pilot_2","7798","5","23","Female","","","false","","","","[398.1000003814697,407.80000019073486]","./assets/img/canyon/memory/3.jpg","[""ArrowUp"",""ArrowLeft""]","value training","canyon","26","{""ArrowUp,ArrowLeft"":26,""ArrowUp,ArrowRight"":10,""ArrowDown,ArrowLeft"":5,""ArrowDown,ArrowRight"":17}","true","ArrowUp,ArrowLeft","false","","","original","1","18","","",""
"html-keyboard-response","135","806789","0.0-4.0-2.0-1.9","spark_pilot_2","7798","5","23","Female","","","","","","","null","<div style=""font-size:60px;"">+</div>","null","fixation","","","","","","","","","","","19","","",""
"revaluation","136","812805","0.0-4.0-2.0-0.10","spark_pilot_2","7798","5","23","Female","","","false","","","","[559.5999999046326,524.7999997138977]","./assets/img/canyon/memory/27.jpg","[""ArrowUp"",""ArrowLeft""]","value training","canyon","26","{""ArrowUp,ArrowLeft"":26,""ArrowUp,ArrowRight"":10,""ArrowDown,ArrowLeft"":5,""ArrowDown,ArrowRight"":17}","true","ArrowUp,ArrowLeft","false","","","original","1","20","","",""
"html-keyboard-response","137","813307","0.0-4.0-2.0-1.10","spark_pilot_2","7798","5","23","Female","","","","","","","null","<div style=""font-size:60px;"">+</div>","null","fixation","","","","","","","","","","","21","","",""
"revaluation","138","819318","0.0-4.0-2.0-0.11","spark_pilot_2","7798","5","23","Female","","","false","","","","[549.8000001907349,384.59999990463257]","./assets/img/canyon/memory/28.jpg","[""ArrowUp"",""ArrowLeft""]","value training","canyon","26","{""ArrowUp,ArrowLeft"":26,""ArrowUp,ArrowRight"":10,""ArrowDown,ArrowLeft"":5,""ArrowDown,ArrowRight"":17}","true","ArrowUp,ArrowLeft","false","","","original","1","22","","",""
"html-keyboard-response","139","819820","0.0-4.0-2.0-1.11","spark_pilot_2","7798","5","23","Female","","","","","","","null","<div style=""font-size:60px;"">+</div>","null","fixation","","","","","","","","","","","23","","",""
"revaluation","140","825830","0.0-4.0-2.0-0.12","spark_pilot_2","7798","5","23","Female","","","false","","","","[562.5,440.5]","./assets/img/canyon/memory/28.jpg","[""ArrowUp"",""ArrowLeft""]","value training","canyon","26","{""ArrowUp,ArrowLeft"":26,""ArrowUp,ArrowRight"":10,""ArrowDown,ArrowLeft"":5,""ArrowDown,ArrowRight"":17}","true","ArrowUp,ArrowLeft","false","","","original","1","24","","",""
"html-keyboard-response","141","826331","0.0-4.0-2.0-1.12","spark_pilot_2","7798","5","23","Female","","","","","","","null","<div style=""font-size:60px;"">+</div>","null","fixation","","","","","","","","","","","25","","",""
"revaluation","142","832340","0.0-4.0-2.0-0.13","spark_pilot_2","7798","5","23","Female","","","false","","","","[902.5,410.59999990463257]","./assets/img/canyon/memory/26.jpg","[""ArrowUp"",""ArrowLeft""]","value training","canyon","26","{""ArrowUp,ArrowLeft"":26,""ArrowUp,ArrowRight"":10,""ArrowDown,ArrowLeft"":5,""ArrowDown,ArrowRight"":17}","true","ArrowUp,ArrowLeft","false","","","original","1","26","","",""
"html-keyboard-response","143","832842","0.0-4.0-2.0-1.13","spark_pilot_2","7798","5","23","Female","","","","","","","null","<div style=""font-size:60px;"">+</div>","null","fixation","","","","","","","","","","","27","","",""
"revaluation","144","838854","0.0-4.0-2.0-0.14","spark_pilot_2","7798","5","23","Female","","","false","","","","[676.7000002861023,466.59999990463257]","./assets/img/canyon/memory/13.jpg","[""ArrowUp"",""ArrowLeft""]","value training","canyon","26","{""ArrowUp,ArrowLeft"":26,""ArrowUp,ArrowRight"":10,""ArrowDown,ArrowLeft"":5,""ArrowDown,ArrowRight"":17}","true","ArrowUp,ArrowLeft","false","","","original","1","28","","",""
"html-keyboard-response","145","839355","0.0-4.0-2.0-1.14","spark_pilot_2","7798","5","23","Female","","","","","","","null","<div style=""font-size:60px;"">+</div>","null","fixation","","","","","","","","","","","29","","",""
"revaluation","146","845365","0.0-4.0-2.0-0.15","spark_pilot_2","7798","5","23","Female","","","false","","","","[971.2000002861023,369.5]","./assets/img/canyon/memory/37.jpg","[""ArrowUp"",""ArrowLeft""]","value training","canyon","26","{""ArrowUp,ArrowLeft"":26,""ArrowUp,ArrowRight"":10,""ArrowDown,ArrowLeft"":5,""ArrowDown,ArrowRight"":17}","true","ArrowUp,ArrowLeft","false","","","original","1","30","","",""
"html-keyboard-response","147","845867","0.0-4.0-2.0-1.15","spark_pilot_2","7798","5","23","Female","","","","","","","null","<div style=""font-size:60px;"">+</div>","null","fixation","","","","","","","","","","","31","","",""
"revaluation","148","851878","0.0-4.0-2.0-0.16","spark_pilot_2","7798","5","23","Female","","","false","","","","[548.9000000953674,512.6999998092651]","./assets/img/canyon/memory/0.jpg","[""ArrowUp"",""ArrowLeft""]","value training","canyon","26","{""ArrowUp,ArrowLeft"":26,""ArrowUp,ArrowRight"":10,""ArrowDown,ArrowLeft"":5,""ArrowDown,ArrowRight"":17}","true","ArrowUp,ArrowLeft","false","","","original","1","32","","",""
"html-keyboard-response","149","852379","0.0-4.0-2.0-1.16","spark_pilot_2","7798","5","23","Female","","","","","","","null","<div style=""font-size:60px;"">+</div>","null","fixation","","","","","","","","","","","33","","",""
"revaluation","150","858388","0.0-4.0-2.0-0.17","spark_pilot_2","7798","5","23","Female","","","false","","","","[907.8000001907349,763.5999999046326]","./assets/img/canyon/memory/24.jpg","[""ArrowUp"",""ArrowLeft""]","value training","canyon","26","{""ArrowUp,ArrowLeft"":26,""ArrowUp,ArrowRight"":10,""ArrowDown,ArrowLeft"":5,""ArrowDown,ArrowRight"":17}","true","ArrowUp,ArrowLeft","false","","","original","1","34","","",""
"html-keyboard-response","151","858890","0.0-4.0-2.0-1.17","spark_pilot_2","7798","5","23","Female","","","","","","","null","<div style=""font-size:60px;"">+</div>","null","fixation","","","","","","","","","","","35","","",""
"revaluation","152","864900","0.0-4.0-2.0-0.18","spark_pilot_2","7798","5","23","Female","","","false","","","","[767.2000002861023,1777.6000003814697]","./assets/img/canyon/memory/13.jpg","[""ArrowUp"",""ArrowLeft""]","value training","canyon","26","{""ArrowUp,ArrowLeft"":26,""ArrowUp,ArrowRight"":10,""ArrowDown,ArrowLeft"":5,""ArrowDown,ArrowRight"":17}","true","ArrowUp,ArrowLeft","false","","","original","1","36","","",""
"html-keyboard-response","153","865401","0.0-4.0-2.0-1.18","spark_pilot_2","7798","5","23","Female","","","","","","","null","<div style=""font-size:60px;"">+</div>","null","fixation","","","","","","","","","","","37","","",""
"revaluation","154","871413","0.0-4.0-2.0-0.19","spark_pilot_2","7798","5","23","Female","","","false","","","","[1498.5999999046326,461.90000009536743]","./assets/img/canyon/memory/40.jpg","[""ArrowUp"",""ArrowLeft""]","value training","canyon","26","{""ArrowUp,ArrowLeft"":26,""ArrowUp,ArrowRight"":10,""ArrowDown,ArrowLeft"":5,""ArrowDown,ArrowRight"":17}","true","ArrowUp,ArrowLeft","false","","","original","1","38","","",""
"html-keyboard-response","155","871915","0.0-4.0-2.0-1.19","spark_pilot_2","7798","5","23","Female","","","","","","","null","<div style=""font-size:60px;"">+</div>","null","fixation","","","","","","","","","","","39","","",""
"revaluation","156","877950","0.0-4.0-2.0-0.20","spark_pilot_2","7798","5","23","Female","","","false","","","","[964.1999998092651,383.7999997138977]","./assets/img/canyon/memory/31.jpg","[""ArrowUp"",""ArrowLeft""]","value training","canyon","26","{""ArrowUp,ArrowLeft"":26,""ArrowUp,ArrowRight"":10,""ArrowDown,ArrowLeft"":5,""ArrowDown,ArrowRight"":17}","true","ArrowUp,ArrowLeft","false","","","original","1","40","","",""
"html-keyboard-response","157","878452","0.0-4.0-2.0-1.20","spark_pilot_2","7798","5","23","Female","","","","","","","null","<div style=""font-size:60px;"">+</div>","null","fixation","","","","","","","","","","","41","","",""
"revaluation","158","884461","0.0-4.0-2.0-0.21","spark_pilot_2","7798","5","23","Female","","","false","","","","[1106.2999997138977,483.7999997138977]","./assets/img/canyon/memory/14.jpg","[""ArrowUp"",""ArrowLeft""]","value training","canyon","26","{""ArrowUp,ArrowLeft"":26,""ArrowUp,ArrowRight"":10,""ArrowDown,ArrowLeft"":5,""ArrowDown,ArrowRight"":17}","true","ArrowUp,ArrowLeft","false","","","original","1","42","","",""
"html-keyboard-response","159","884963","0.0-4.0-2.0-1.21","spark_pilot_2","7798","5","23","Female","","","","","","","null","<div style=""font-size:60px;"">+</div>","null","fixation","","","","","","","","","","","43","","",""
"revaluation","160","890974","0.0-4.0-2.0-0.22","spark_pilot_2","7798","5","23","Female","","","false","","","","[1007.7999997138977,1493.8999996185303]","./assets/img/canyon/memory/18.jpg","[""ArrowUp"",""ArrowLeft""]","value training","canyon","26","{""ArrowUp,ArrowLeft"":26,""ArrowUp,ArrowRight"":10,""ArrowDown,ArrowLeft"":5,""ArrowDown,ArrowRight"":17}","true","ArrowUp,ArrowLeft","false","","","original","1","44","","",""
"html-keyboard-response","161","891476","0.0-4.0-2.0-1.22","spark_pilot_2","7798","5","23","Female","","","","","","","null","<div style=""font-size:60px;"">+</div>","null","fixation","","","","","","","","","","","45","","",""
"revaluation","162","897485","0.0-4.0-2.0-0.23","spark_pilot_2","7798","5","23","Female","","","false","","","","[1061.6999998092651,1288.0999999046326]","./assets/img/canyon/memory/41.jpg","[""ArrowUp"",""ArrowLeft""]","value training","canyon","26","{""ArrowUp,ArrowLeft"":26,""ArrowUp,ArrowRight"":10,""ArrowDown,ArrowLeft"":5,""ArrowDown,ArrowRight"":17}","true","ArrowUp,ArrowLeft","false","","","original","1","46","","",""
"html-keyboard-response","163","897987","0.0-4.0-2.0-1.23","spark_pilot_2","7798","5","23","Female","","","","","","","null","<div style=""font-size:60px;"">+</div>","null","fixation","","","","","","","","","","","47","","",""
"revaluation","164","903998","0.0-4.0-2.0-0.24","spark_pilot_2","7798","5","23","Female","","","false","","","","[530.7999997138977,886.5999999046326]","./assets/img/canyon/memory/3.jpg","[""ArrowUp"",""ArrowLeft""]","value training","canyon","26","{""ArrowUp,ArrowLeft"":26,""ArrowUp,ArrowRight"":10,""ArrowDown,ArrowLeft"":5,""ArrowDown,ArrowRight"":17}","true","ArrowUp,ArrowLeft","false","","","original","1","48","","",""
"html-keyboard-response","165","904500","0.0-4.0-2.0-1.24","spark_pilot_2","7798","5","23","Female","","","","","","","null","<div style=""font-size:60px;"">+</div>","null","fixation","","","","","","","","","","","49","","",""
"revaluation","166","910511","0.0-4.0-2.0-0.25","spark_pilot_2","7798","5","23","Female","","","false","","","","[1128.4000000953674,296]","./assets/img/canyon/memory/18.jpg","[""ArrowUp"",""ArrowLeft""]","value training","canyon","26","{""ArrowUp,ArrowLeft"":26,""ArrowUp,ArrowRight"":10,""ArrowDown,ArrowLeft"":5,""ArrowDown,ArrowRight"":17}","true","ArrowUp,ArrowLeft","false","","","original","1","50","","",""
"html-keyboard-response","167","911013","0.0-4.0-2.0-1.25","spark_pilot_2","7798","5","23","Female","","","","","","","null","<div style=""font-size:60px;"">+</div>","null","fixation","","","","","","","","","","","51","","",""
"revaluation","168","917022","0.0-4.0-2.0-0.26","spark_pilot_2","7798","5","23","Female","","","false","","","","[366,287.40000009536743]","./assets/img/canyon/memory/9.jpg","[""ArrowUp"",""ArrowLeft""]","value training","canyon","26","{""ArrowUp,ArrowLeft"":26,""ArrowUp,ArrowRight"":10,""ArrowDown,ArrowLeft"":5,""ArrowDown,ArrowRight"":17}","true","ArrowUp,ArrowLeft","false","","","original","1","52","","",""
"html-keyboard-response","169","917525","0.0-4.0-2.0-1.26","spark_pilot_2","7798","5","23","Female","","","","","","","null","<div style=""font-size:60px;"">+</div>","null","fixation","","","","","","","","","","","53","","",""
"revaluation","170","923535","0.0-4.0-2.0-0.27","spark_pilot_2","7798","5","23","Female","","","false","","","","[770.5999999046326,430.59999990463257]","./assets/img/canyon/memory/14.jpg","[""ArrowUp"",""ArrowLeft""]","value training","canyon","26","{""ArrowUp,ArrowLeft"":26,""ArrowUp,ArrowRight"":10,""ArrowDown,ArrowLeft"":5,""ArrowDown,ArrowRight"":17}","true","ArrowUp,ArrowLeft","false","","","original","1","54","","",""
"html-keyboard-response","171","924037","0.0-4.0-2.0-1.27","spark_pilot_2","7798","5","23","Female","","","","","","","null","<div style=""font-size:60px;"">+</div>","null","fixation","","","","","","","","","","","55","","",""
"revaluation","172","928045","0.0-4.0-2.0-0.28","spark_pilot_2","7798","5","23","Female","","","false","","","","[837]","./assets/img/canyon/catch/4.jpg","[""spaceBar""]","value training","canyon","0","{""ArrowUp,ArrowLeft"":26,""ArrowUp,ArrowRight"":10,""ArrowDown,ArrowLeft"":5,""ArrowDown,ArrowRight"":17}","true","spaceBar","true","","","original","1","56","","",""
"html-keyboard-response","173","928546","0.0-4.0-2.0-1.28","spark_pilot_2","7798","5","23","Female","","","","","","","null","<div style=""font-size:60px;"">+</div>","null","fixation","","","","","","","","","","","57","","",""
"revaluation","174","934555","0.0-4.0-2.0-0.29","spark_pilot_2","7798","5","23","Female","","","false","","","","[940.0999999046326,272.90000009536743]","./assets/img/canyon/memory/30.jpg","[""ArrowUp"",""ArrowLeft""]","value training","canyon","26","{""ArrowUp,ArrowLeft"":26,""ArrowUp,ArrowRight"":10,""ArrowDown,ArrowLeft"":5,""ArrowDown,ArrowRight"":17}","true","ArrowUp,ArrowLeft","false","","","original","1","58","","",""
"html-keyboard-response","175","935057","0.0-4.0-2.0-1.29","spark_pilot_2","7798","5","23","Female","","","","","","","null","<div style=""font-size:60px;"">+</div>","null","fixation","","","","","","","","","","","59","","",""
"revaluation","176","941067","0.0-4.0-2.0-0.30","spark_pilot_2","7798","5","23","Female","","","false","","","","[997,242.19999980926514]","./assets/img/canyon/memory/24.jpg","[""ArrowUp"",""ArrowLeft""]","value training","canyon","26","{""ArrowUp,ArrowLeft"":26,""ArrowUp,ArrowRight"":10,""ArrowDown,ArrowLeft"":5,""ArrowDown,ArrowRight"":17}","true","ArrowUp,ArrowLeft","false","","","original","1","60","","",""
"html-keyboard-response","177","941569","0.0-4.0-2.0-1.30","spark_pilot_2","7798","5","23","Female","","","","","","","null","<div style=""font-size:60px;"">+</div>","null","fixation","","","","","","","","","","","61","","",""
"revaluation","178","945578","0.0-4.0-2.0-0.31","spark_pilot_2","7798","5","23","Female","","","false","","","","[955.2000002861023]","./assets/img/canyon/catch/7.jpg","[""spaceBar""]","value training","canyon","0","{""ArrowUp,ArrowLeft"":26,""ArrowUp,ArrowRight"":10,""ArrowDown,ArrowLeft"":5,""ArrowDown,ArrowRight"":17}","true","spaceBar","true","","","original","1","62","","",""
"html-keyboard-response","179","946081","0.0-4.0-2.0-1.31","spark_pilot_2","7798","5","23","Female","","","","","","","null","<div style=""font-size:60px;"">+</div>","null","fixation","","","","","","","","","","","63","","",""
"revaluation","180","952089","0.0-4.0-2.0-0.32","spark_pilot_2","7798","5","23","Female","","","false","","","","[1012.8000001907349,259.59999990463257]","./assets/img/canyon/memory/1.jpg","[""ArrowUp"",""ArrowLeft""]","value training","canyon","26","{""ArrowUp,ArrowLeft"":26,""ArrowUp,ArrowRight"":10,""ArrowDown,ArrowLeft"":5,""ArrowDown,ArrowRight"":17}","true","ArrowUp,ArrowLeft","false","","","original","1","64","","",""
"html-keyboard-response","181","952591","0.0-4.0-2.0-1.32","spark_pilot_2","7798","5","23","Female","","","","","","","null","<div style=""font-size:60px;"">+</div>","null","fixation","","","","","","","","","","","65","","",""
"revaluation","182","956604","0.0-4.0-2.0-0.33","spark_pilot_2","7798","5","23","Female","","","false","","","","[773.4000000953674]","./assets/img/canyon/catch/0.jpg","[""spaceBar""]","value training","canyon","0","{""ArrowUp,ArrowLeft"":26,""ArrowUp,ArrowRight"":10,""ArrowDown,ArrowLeft"":5,""ArrowDown,ArrowRight"":17}","true","spaceBar","true","","","original","1","66","","",""
"html-keyboard-response","183","957106","0.0-4.0-2.0-1.33","spark_pilot_2","7798","5","23","Female","","","","","","","null","<div style=""font-size:60px;"">+</div>","null","fixation","","","","","","","","","","","67","","",""
"revaluation","184","961113","0.0-4.0-2.0-0.34","spark_pilot_2","7798","5","23","Female","","","false","","","","[1364.9000000953674]","./assets/img/canyon/catch/1.jpg","[""spaceBar""]","value training","canyon","0","{""ArrowUp,ArrowLeft"":26,""ArrowUp,ArrowRight"":10,""ArrowDown,ArrowLeft"":5,""ArrowDown,ArrowRight"":17}","true","spaceBar","true","","","original","1","68","","",""
"html-keyboard-response","185","961616","0.0-4.0-2.0-1.34","spark_pilot_2","7798","5","23","Female","","","","","","","null","<div style=""font-size:60px;"">+</div>","null","fixation","","","","","","","","","","","69","","",""
"revaluation","186","967625","0.0-4.0-2.0-0.35","spark_pilot_2","7798","5","23","Female","","","false","","","","[789.6999998092651,277.3999996185303]","./assets/img/canyon/memory/16.jpg","[""ArrowUp"",""ArrowLeft""]","value training","canyon","26","{""ArrowUp,ArrowLeft"":26,""ArrowUp,ArrowRight"":10,""ArrowDown,ArrowLeft"":5,""ArrowDown,ArrowRight"":17}","true","ArrowUp,ArrowLeft","false","","","original","1","70","","",""
"html-keyboard-response","187","968128","0.0-4.0-2.0-1.35","spark_pilot_2","7798","5","23","Female","","","","","","","null","<div style=""font-size:60px;"">+</div>","null","fixation","","","","","","","","","","","71","","",""
"revaluation","188","974136","0.0-4.0-2.0-0.36","spark_pilot_2","7798","5","23","Female","","","false","","","","[739.3000001907349,247.69999980926514]","./assets/img/canyon/memory/41.jpg","[""ArrowUp"",""ArrowLeft""]","value training","canyon","26","{""ArrowUp,ArrowLeft"":26,""ArrowUp,ArrowRight"":10,""ArrowDown,ArrowLeft"":5,""ArrowDown,ArrowRight"":17}","true","ArrowUp,ArrowLeft","false","","","original","1","72","","",""
"html-keyboard-response","189","974639","0.0-4.0-2.0-1.36","spark_pilot_2","7798","5","23","Female","","","","","","","null","<div style=""font-size:60px;"">+</div>","null","fixation","","","","","","","","","","","73","","",""
"revaluation","190","980653","0.0-4.0-2.0-0.37","spark_pilot_2","7798","5","23","Female","","","false","","","","[878.1999998092651,363.40000009536743]","./assets/img/canyon/memory/20.jpg","[""ArrowUp"",""ArrowLeft""]","value training","canyon","26","{""ArrowUp,ArrowLeft"":26,""ArrowUp,ArrowRight"":10,""ArrowDown,ArrowLeft"":5,""ArrowDown,ArrowRight"":17}","true","ArrowUp,ArrowLeft","false","","","original","1","74","","",""
"html-keyboard-response","191","981156","0.0-4.0-2.0-1.37","spark_pilot_2","7798","5","23","Female","","","","","","","null","<div style=""font-size:60px;"">+</div>","null","fixation","","","","","","","","","","","75","","",""
"revaluation","192","987166","0.0-4.0-2.0-0.38","spark_pilot_2","7798","5","23","Female","","","false","","","","[1283.5999999046326,835.0999999046326]","./assets/img/canyon/memory/27.jpg","[""ArrowUp"",""ArrowLeft""]","value training","canyon","26","{""ArrowUp,ArrowLeft"":26,""ArrowUp,ArrowRight"":10,""ArrowDown,ArrowLeft"":5,""ArrowDown,ArrowRight"":17}","true","ArrowUp,ArrowLeft","false","","","original","1","76","","",""
"html-keyboard-response","193","987667","0.0-4.0-2.0-1.38","spark_pilot_2","7798","5","23","Female","","","","","","","null","<div style=""font-size:60px;"">+</div>","null","fixation","","","","","","","","","","","77","","",""
"revaluation","194","993679","0.0-4.0-2.0-0.39","spark_pilot_2","7798","5","23","Female","","","false","","","","[1012.2000002861023,302.5]","./assets/img/canyon/memory/26.jpg","[""ArrowUp"",""ArrowLeft""]","value training","canyon","26","{""ArrowUp,ArrowLeft"":26,""ArrowUp,ArrowRight"":10,""ArrowDown,ArrowLeft"":5,""ArrowDown,ArrowRight"":17}","true","ArrowUp,ArrowLeft","false","","","original","1","78","","",""
"html-keyboard-response","195","994180","0.0-4.0-2.0-1.39","spark_pilot_2","7798","5","23","Female","","","","","","","null","<div style=""font-size:60px;"">+</div>","null","fixation","","","","","","","","","","","79","","",""
"revaluation","196","998193","0.0-4.0-2.0-0.40","spark_pilot_2","7798","5","23","Female","","","true","","","","[]","./assets/img/canyon/memory/2.jpg","[]","value training","canyon","-5","{""ArrowUp,ArrowLeft"":26,""ArrowUp,ArrowRight"":10,""ArrowDown,ArrowLeft"":5,""ArrowDown,ArrowRight"":17}","false","","false","","","original","1","80","","",""
"html-keyboard-response","197","998695","0.0-4.0-2.0-1.40","spark_pilot_2","7798","5","23","Female","","","","","","","null","<div style=""font-size:60px;"">+</div>","null","fixation","","","","","","","","","","","81","","",""
"revaluation","198","1004703","0.0-4.0-2.0-0.41","spark_pilot_2","7798","5","23","Female","","","false","","","","[723.5,580.5]","./assets/img/canyon/memory/0.jpg","[""ArrowUp"",""ArrowLeft""]","value training","canyon","26","{""ArrowUp,ArrowLeft"":26,""ArrowUp,ArrowRight"":10,""ArrowDown,ArrowLeft"":5,""ArrowDown,ArrowRight"":17}","true","ArrowUp,ArrowLeft","false","","","original","1","82","","",""
"html-keyboard-response","199","1005205","0.0-4.0-2.0-1.41","spark_pilot_2","7798","5","23","Female","","","","","","","null","<div style=""font-size:60px;"">+</div>","null","fixation","","","","","","","","","","","83","","",""
"revaluation","200","1011214","0.0-4.0-2.0-0.42","spark_pilot_2","7798","5","23","Female","","","false","","","","[935.4000000953674,292.19999980926514]","./assets/img/canyon/memory/20.jpg","[""ArrowUp"",""ArrowLeft""]","value training","canyon","26","{""ArrowUp,ArrowLeft"":26,""ArrowUp,ArrowRight"":10,""ArrowDown,ArrowLeft"":5,""ArrowDown,ArrowRight"":17}","true","ArrowUp,ArrowLeft","false","","","original","1","84","","",""
"html-keyboard-response","201","1011717","0.0-4.0-2.0-1.42","spark_pilot_2","7798","5","23","Female","","","","","","","null","<div style=""font-size:60px;"">+</div>","null","fixation","","","","","","","","","","","85","","",""
"revaluation","202","1017745","0.0-4.0-2.0-0.43","spark_pilot_2","7798","5","23","Female","","","false","","","","[427.7999997138977,307.3999996185303]","./assets/img/canyon/memory/40.jpg","[""ArrowUp"",""ArrowLeft""]","value training","canyon","26","{""ArrowUp,ArrowLeft"":26,""ArrowUp,ArrowRight"":10,""ArrowDown,ArrowLeft"":5,""ArrowDown,ArrowRight"":17}","true","ArrowUp,ArrowLeft","false","","","original","1","86","","",""
"html-keyboard-response","203","1018248","0.0-4.0-2.0-1.43","spark_pilot_2","7798","5","23","Female","","","","","","","null","<div style=""font-size:60px;"">+</div>","null","fixation","","","","","","","","","","","87","","",""
"revaluation","204","1024260","0.0-4.0-2.0-0.44","spark_pilot_2","7798","5","23","Female","","","false","","","","[833.5999999046326,253.19999980926514]","./assets/img/canyon/memory/37.jpg","[""ArrowUp"",""ArrowLeft""]","value training","canyon","26","{""ArrowUp,ArrowLeft"":26,""ArrowUp,ArrowRight"":10,""ArrowDown,ArrowLeft"":5,""ArrowDown,ArrowRight"":17}","true","ArrowUp,ArrowLeft","false","","","original","1","88","","",""
"html-keyboard-response","205","1024762","0.0-4.0-2.0-1.44","spark_pilot_2","7798","5","23","Female","","","","","","","null","<div style=""font-size:60px;"">+</div>","null","fixation","","","","","","","","","","","89","","",""
"revaluation","206","1030768","0.0-4.0-2.0-0.45","spark_pilot_2","7798","5","23","Female","","","false","","","","[387.90000009536743,309.7000002861023]","./assets/img/canyon/memory/30.jpg","[""ArrowUp"",""ArrowLeft""]","value training","canyon","26","{""ArrowUp,ArrowLeft"":26,""ArrowUp,ArrowRight"":10,""ArrowDown,ArrowLeft"":5,""ArrowDown,ArrowRight"":17}","true","ArrowUp,ArrowLeft","false","","","original","1","90","","",""
"html-keyboard-response","207","1031270","0.0-4.0-2.0-1.45","spark_pilot_2","7798","5","23","Female","","","","","","","null","<div style=""font-size:60px;"">+</div>","null","fixation","","","","","","","","","","","91","","",""
"revaluation","208","1037280","0.0-4.0-2.0-0.46","spark_pilot_2","7798","5","23","Female","","","false","","","","[1578.0999999046326,1390.8000001907349]","./assets/img/canyon/memory/2.jpg","[""ArrowUp"",""ArrowLeft""]","value training","canyon","26","{""ArrowUp,ArrowLeft"":26,""ArrowUp,ArrowRight"":10,""ArrowDown,ArrowLeft"":5,""ArrowDown,ArrowRight"":17}","true","ArrowUp,ArrowLeft","false","","","original","1","92","","",""
"html-keyboard-response","209","1037782","0.0-4.0-2.0-1.46","spark_pilot_2","7798","5","23","Female","","","","","","","null","<div style=""font-size:60px;"">+</div>","null","fixation","","","","","","","","","","","93","","",""
"revaluation","210","1041795","0.0-4.0-2.0-0.47","spark_pilot_2","7798","5","23","Female","","","false","","","","[1685]","./assets/img/canyon/catch/5.jpg","[""spaceBar""]","value training","canyon","0","{""ArrowUp,ArrowLeft"":26,""ArrowUp,ArrowRight"":10,""ArrowDown,ArrowLeft"":5,""ArrowDown,ArrowRight"":17}","true","spaceBar","true","","","original","1","94","","",""
"html-keyboard-response","211","1042296","0.0-4.0-2.0-1.47","spark_pilot_2","7798","5","23","Female","","","","","","","null","<div style=""font-size:60px;"">+</div>","null","fixation","","","","","","","","","","","95","","",""
"revaluation","212","1048307","0.0-4.0-2.0-0.48","spark_pilot_2","7798","5","23","Female","","","false","","","","[1593.6999998092651,817.4000000953674]","./assets/img/canyon/memory/10.jpg","[""ArrowUp"",""ArrowLeft""]","value training","canyon","26","{""ArrowUp,ArrowLeft"":26,""ArrowUp,ArrowRight"":10,""ArrowDown,ArrowLeft"":5,""ArrowDown,ArrowRight"":17}","true","ArrowUp,ArrowLeft","false","","","original","1","96","","",""
"html-keyboard-response","213","1048812","0.0-4.0-2.0-1.48","spark_pilot_2","7798","5","23","Female","","","","","","","null","<div style=""font-size:60px;"">+</div>","null","fixation","","","","","","","","","","","97","","",""
"revaluation","214","1054818","0.0-4.0-2.0-0.49","spark_pilot_2","7798","5","23","Female","","","false","","","","[817.5999999046326,1130.5]","./assets/img/canyon/memory/23.jpg","[""ArrowUp"",""ArrowLeft""]","value training","canyon","26","{""ArrowUp,ArrowLeft"":26,""ArrowUp,ArrowRight"":10,""ArrowDown,ArrowLeft"":5,""ArrowDown,ArrowRight"":17}","true","ArrowUp,ArrowLeft","false","","","original","1","98","","",""
"html-keyboard-response","215","1055320","0.0-4.0-2.0-1.49","spark_pilot_2","7798","5","23","Female","","","","","","","null","<div style=""font-size:60px;"">+</div>","null","fixation","","","","","","","","","","","99","","",""
"learning-instructions","216","1074162","0.0-4.0-3.0-0.0","spark_pilot_2","7798","5","23","Female","","","","","","","5894.900000095367","<p> Now, you will travel with a friend who will choose whether you go up or down first. </p>
            <p> On these turns, you will just see the animal that they found. You will still get to choose which chest to search for treasure.</p>","","instructions","","","","","","","","","","","","","",""
"revaluation","217","1078166","0.0-4.0-4.0-0.0","spark_pilot_2","7798","5","23","Female","","","false","","","","[1316.7999997138977]","./assets/img/canyon/animals/lion.jpg","[""ArrowLeft""]","revaluation","canyon","26","{""ArrowUp,ArrowLeft"":26,""ArrowUp,ArrowRight"":10,""ArrowDown,ArrowLeft"":5,""ArrowDown,ArrowRight"":17}","true","ArrowUp,ArrowLeft","","","","original","1","0","","",""
"html-keyboard-response","218","1078674","0.0-4.0-4.0-1.0","spark_pilot_2","7798","5","23","Female","","","","","","","null","<div style=""font-size:60px;"">+</div>","null","fixation","","","","","","","","","","","1","","",""
"revaluation","219","1082683","0.0-4.0-4.0-0.1","spark_pilot_2","7798","5","23","Female","","","false","","","","[555]","./assets/img/canyon/animals/giraffe.jpg","[""ArrowRight""]","revaluation","canyon","17","{""ArrowUp,ArrowLeft"":26,""ArrowUp,ArrowRight"":10,""ArrowDown,ArrowLeft"":5,""ArrowDown,ArrowRight"":17}","true","ArrowDown,ArrowRight","","","","original","1","2","","",""
"html-keyboard-response","220","1083185","0.0-4.0-4.0-1.1","spark_pilot_2","7798","5","23","Female","","","","","","","null","<div style=""font-size:60px;"">+</div>","null","fixation","","","","","","","","","","","3","","",""
"revaluation","221","1087196","0.0-4.0-4.0-0.2","spark_pilot_2","7798","5","23","Female","","","false","","","","[579.5]","./assets/img/canyon/animals/giraffe.jpg","[""ArrowRight""]","revaluation","canyon","17","{""ArrowUp,ArrowLeft"":26,""ArrowUp,ArrowRight"":10,""ArrowDown,ArrowLeft"":5,""ArrowDown,ArrowRight"":17}","true","ArrowDown,ArrowRight","","","","original","1","4","","",""
"html-keyboard-response","222","1087698","0.0-4.0-4.0-1.2","spark_pilot_2","7798","5","23","Female","","","","","","","null","<div style=""font-size:60px;"">+</div>","null","fixation","","","","","","","","","","","5","","",""
"revaluation","223","1091703","0.0-4.0-4.0-0.3","spark_pilot_2","7798","5","23","Female","","","false","","","","[605]","./assets/img/canyon/animals/lion.jpg","[""ArrowLeft""]","revaluation","canyon","26","{""ArrowUp,ArrowLeft"":26,""ArrowUp,ArrowRight"":10,""ArrowDown,ArrowLeft"":5,""ArrowDown,ArrowRight"":17}","true","ArrowUp,ArrowLeft","","","","original","1","6","","",""
"html-keyboard-response","224","1092205","0.0-4.0-4.0-1.3","spark_pilot_2","7798","5","23","Female","","","","","","","null","<div style=""font-size:60px;"">+</div>","null","fixation","","","","","","","","","","","7","","",""
"revaluation","225","1096214","0.0-4.0-4.0-0.4","spark_pilot_2","7798","5","23","Female","","","false","","","","[458.80000019073486]","./assets/img/canyon/animals/giraffe.jpg","[""ArrowRight""]","revaluation","canyon","17","{""ArrowUp,ArrowLeft"":26,""ArrowUp,ArrowRight"":10,""ArrowDown,ArrowLeft"":5,""ArrowDown,ArrowRight"":17}","true","ArrowDown,ArrowRight","","","","original","1","8","","",""
"html-keyboard-response","226","1096716","0.0-4.0-4.0-1.4","spark_pilot_2","7798","5","23","Female","","","","","","","null","<div style=""font-size:60px;"">+</div>","null","fixation","","","","","","","","","","","9","","",""
"revaluation","227","1100726","0.0-4.0-4.0-0.5","spark_pilot_2","7798","5","23","Female","","","false","","","","[570.1999998092651]","./assets/img/canyon/animals/giraffe.jpg","[""ArrowRight""]","revaluation","canyon","17","{""ArrowUp,ArrowLeft"":26,""ArrowUp,ArrowRight"":10,""ArrowDown,ArrowLeft"":5,""ArrowDown,ArrowRight"":17}","true","ArrowDown,ArrowRight","","","","original","1","10","","",""
"html-keyboard-response","228","1101228","0.0-4.0-4.0-1.5","spark_pilot_2","7798","5","23","Female","","","","","","","null","<div style=""font-size:60px;"">+</div>","null","fixation","","","","","","","","","","","11","","",""
"revaluation","229","1105235","0.0-4.0-4.0-0.6","spark_pilot_2","7798","5","23","Female","","","false","","","","[551.2999997138977]","./assets/img/canyon/animals/lion.jpg","[""ArrowLeft""]","revaluation","canyon","26","{""ArrowUp,ArrowLeft"":26,""ArrowUp,ArrowRight"":10,""ArrowDown,ArrowLeft"":5,""ArrowDown,ArrowRight"":17}","true","ArrowUp,ArrowLeft","","","","original","1","12","","",""
"html-keyboard-response","230","1105738","0.0-4.0-4.0-1.6","spark_pilot_2","7798","5","23","Female","","","","","","","null","<div style=""font-size:60px;"">+</div>","null","fixation","","","","","","","","","","","13","","",""
"revaluation","231","1109775","0.0-4.0-4.0-0.7","spark_pilot_2","7798","5","23","Female","","","false","","","","[462.59999990463257]","./assets/img/canyon/animals/giraffe.jpg","[""ArrowRight""]","revaluation","canyon","17","{""ArrowUp,ArrowLeft"":26,""ArrowUp,ArrowRight"":10,""ArrowDown,ArrowLeft"":5,""ArrowDown,ArrowRight"":17}","true","ArrowDown,ArrowRight","","","","original","1","14","","",""
"html-keyboard-response","232","1110277","0.0-4.0-4.0-1.7","spark_pilot_2","7798","5","23","Female","","","","","","","null","<div style=""font-size:60px;"">+</div>","null","fixation","","","","","","","","","","","15","","",""
"revaluation","233","1114285","0.0-4.0-4.0-0.8","spark_pilot_2","7798","5","23","Female","","","false","","","","[749.7000002861023]","./assets/img/canyon/animals/giraffe.jpg","[""ArrowRight""]","revaluation","canyon","17","{""ArrowUp,ArrowLeft"":26,""ArrowUp,ArrowRight"":10,""ArrowDown,ArrowLeft"":5,""ArrowDown,ArrowRight"":17}","true","ArrowDown,ArrowRight","","","","original","1","16","","",""
"html-keyboard-response","234","1114788","0.0-4.0-4.0-1.8","spark_pilot_2","7798","5","23","Female","","","","","","","null","<div style=""font-size:60px;"">+</div>","null","fixation","","","","","","","","","","","17","","",""
"revaluation","235","1118797","0.0-4.0-4.0-0.9","spark_pilot_2","7798","5","23","Female","","","false","","","","[619]","./assets/img/canyon/animals/lion.jpg","[""ArrowLeft""]","revaluation","canyon","26","{""ArrowUp,ArrowLeft"":26,""ArrowUp,ArrowRight"":10,""ArrowDown,ArrowLeft"":5,""ArrowDown,ArrowRight"":17}","true","ArrowUp,ArrowLeft","","","","original","1","18","","",""
"html-keyboard-response","236","1119298","0.0-4.0-4.0-1.9","spark_pilot_2","7798","5","23","Female","","","","","","","null","<div style=""font-size:60px;"">+</div>","null","fixation","","","","","","","","","","","19","","",""
"revaluation","237","1123305","0.0-4.0-4.0-0.10","spark_pilot_2","7798","5","23","Female","","","false","","","","[732.4000000953674]","./assets/img/canyon/animals/lion.jpg","[""ArrowLeft""]","revaluation","canyon","26","{""ArrowUp,ArrowLeft"":26,""ArrowUp,ArrowRight"":10,""ArrowDown,ArrowLeft"":5,""ArrowDown,ArrowRight"":17}","true","ArrowUp,ArrowLeft","","","","original","1","20","","",""
"html-keyboard-response","238","1123806","0.0-4.0-4.0-1.10","spark_pilot_2","7798","5","23","Female","","","","","","","null","<div style=""font-size:60px;"">+</div>","null","fixation","","","","","","","","","","","21","","",""
"revaluation","239","1127815","0.0-4.0-4.0-0.11","spark_pilot_2","7798","5","23","Female","","","false","","","","[868.0999999046326]","./assets/img/canyon/animals/lion.jpg","[""ArrowLeft""]","revaluation","canyon","26","{""ArrowUp,ArrowLeft"":26,""ArrowUp,ArrowRight"":10,""ArrowDown,ArrowLeft"":5,""ArrowDown,ArrowRight"":17}","true","ArrowUp,ArrowLeft","","","","original","1","22","","",""
"html-keyboard-response","240","1128318","0.0-4.0-4.0-1.11","spark_pilot_2","7798","5","23","Female","","","","","","","null","<div style=""font-size:60px;"">+</div>","null","fixation","","","","","","","","","","","23","","",""
"revaluation","241","1132326","0.0-4.0-4.0-0.12","spark_pilot_2","7798","5","23","Female","","","false","","","","[548]","./assets/img/canyon/animals/giraffe.jpg","[""ArrowRight""]","revaluation","canyon","17","{""ArrowUp,ArrowLeft"":26,""ArrowUp,ArrowRight"":10,""ArrowDown,ArrowLeft"":5,""ArrowDown,ArrowRight"":17}","true","ArrowDown,ArrowRight","","","","original","1","24","","",""
"html-keyboard-response","242","1132828","0.0-4.0-4.0-1.12","spark_pilot_2","7798","5","23","Female","","","","","","","null","<div style=""font-size:60px;"">+</div>","null","fixation","","","","","","","","","","","25","","",""
"revaluation","243","1136835","0.0-4.0-4.0-0.13","spark_pilot_2","7798","5","23","Female","","","false","","","","[1095]","./assets/img/canyon/animals/giraffe.jpg","[""ArrowRight""]","revaluation","canyon","17","{""ArrowUp,ArrowLeft"":26,""ArrowUp,ArrowRight"":10,""ArrowDown,ArrowLeft"":5,""ArrowDown,ArrowRight"":17}","true","ArrowDown,ArrowRight","","","","original","1","26","","",""
"html-keyboard-response","244","1137337","0.0-4.0-4.0-1.13","spark_pilot_2","7798","5","23","Female","","","","","","","null","<div style=""font-size:60px;"">+</div>","null","fixation","","","","","","","","","","","27","","",""
"revaluation","245","1141346","0.0-4.0-4.0-0.14","spark_pilot_2","7798","5","23","Female","","","false","","","","[1620.8000001907349]","./assets/img/canyon/animals/giraffe.jpg","[""ArrowRight""]","revaluation","canyon","17","{""ArrowUp,ArrowLeft"":26,""ArrowUp,ArrowRight"":10,""ArrowDown,ArrowLeft"":5,""ArrowDown,ArrowRight"":17}","true","ArrowDown,ArrowRight","","","","original","1","28","","",""
"html-keyboard-response","246","1141847","0.0-4.0-4.0-1.14","spark_pilot_2","7798","5","23","Female","","","","","","","null","<div style=""font-size:60px;"">+</div>","null","fixation","","","","","","","","","","","29","","",""
"revaluation","247","1145855","0.0-4.0-4.0-0.15","spark_pilot_2","7798","5","23","Female","","","false","","","","[1129]","./assets/img/canyon/animals/lion.jpg","[""ArrowLeft""]","revaluation","canyon","26","{""ArrowUp,ArrowLeft"":26,""ArrowUp,ArrowRight"":10,""ArrowDown,ArrowLeft"":5,""ArrowDown,ArrowRight"":17}","true","ArrowUp,ArrowLeft","","","","original","1","30","","",""
"html-keyboard-response","248","1146357","0.0-4.0-4.0-1.15","spark_pilot_2","7798","5","23","Female","","","","","","","null","<div style=""font-size:60px;"">+</div>","null","fixation","","","","","","","","","","","31","","",""
"revaluation","249","1150366","0.0-4.0-4.0-0.16","spark_pilot_2","7798","5","23","Female","","","false","","","","[848.1000003814697]","./assets/img/canyon/animals/lion.jpg","[""ArrowLeft""]","revaluation","canyon","26","{""ArrowUp,ArrowLeft"":26,""ArrowUp,ArrowRight"":10,""ArrowDown,ArrowLeft"":5,""ArrowDown,ArrowRight"":17}","true","ArrowUp,ArrowLeft","","","","original","1","32","","",""
"html-keyboard-response","250","1150869","0.0-4.0-4.0-1.16","spark_pilot_2","7798","5","23","Female","","","","","","","null","<div style=""font-size:60px;"">+</div>","null","fixation","","","","","","","","","","","33","","",""
"revaluation","251","1154876","0.0-4.0-4.0-0.17","spark_pilot_2","7798","5","23","Female","","","false","","","","[1070.0999999046326]","./assets/img/canyon/animals/lion.jpg","[""ArrowLeft""]","revaluation","canyon","26","{""ArrowUp,ArrowLeft"":26,""ArrowUp,ArrowRight"":10,""ArrowDown,ArrowLeft"":5,""ArrowDown,ArrowRight"":17}","true","ArrowUp,ArrowLeft","","","","original","1","34","","",""
"html-keyboard-response","252","1155378","0.0-4.0-4.0-1.17","spark_pilot_2","7798","5","23","Female","","","","","","","null","<div style=""font-size:60px;"">+</div>","null","fixation","","","","","","","","","","","35","","",""
"learning-instructions","253","1168443","0.0-4.0-5.0-0.0","spark_pilot_2","7798","5","23","Female","","","","","","","1697.8000001907349","<p> Time to play the dot game! </p>
            <p> For one minute, click the red dots on the following screen as they appear. </p>
            <p><b> Don't look away, as you will earn bonus for clicking dots</b>. </p>","","instructions","","","","","","","","","","","","","",""
"revaluation","254","1228447","0.0-4.0-6.0-0.0","spark_pilot_2","7798","5","23","Female","","","","","","","[69,75,69,77,64,104,48,105]","","","rest","","80","","","","","0","60000","","","","","",""
"learning-instructions","255","1237259","0.0-4.0-7.0-0.0","spark_pilot_2","7798","5","23","Female","","","","","","","2653","<p> You have almost finished this part of the game! </p>
            <p> We are going to ask you to make a few more choices. </p>","","instructions","","","","","","","","","","","","","",""
"learning-instructions","256","1253178","0.0-4.0-7.0-0.1","spark_pilot_2","7798","5","23","Female","","","","","","","1943.4000000953674","<p> First, you need to decide whether to go up or down. When you see each picture, use the arrow keys to make your choice. </p>
            <p><b>You will not see which animal you found, but try to get to the one that will give you the most treasure.</b></p>","","instructions","","","","","","","","","","","","","",""
"revaluation","257","1254182","0.0-4.0-8.0-0.0","spark_pilot_2","7798","5","23","Female","","","false","","","","[1001.5999999046326]","./assets/img/canyon/test/3.jpg","[""ArrowDown""]","first stage test","canyon","0","{""ArrowUp,ArrowLeft"":26,""ArrowUp,ArrowRight"":10,""ArrowDown,ArrowLeft"":5,""ArrowDown,ArrowRight"":17}","false","ArrowDown","false","","","original","1","","","",""
"html-keyboard-response","258","1254686","0.0-4.0-8.0-1.0","spark_pilot_2","7798","5","23","Female","","","","","","","null","<div style=""font-size:60px;"">+</div>","null","fixation","","","","","","","","","","","","","",""
"revaluation","259","1255714","0.0-4.0-8.0-0.1","spark_pilot_2","7798","5","23","Female","","","false","","","","[1021.1999998092651]","./assets/img/canyon/test/1.jpg","[""ArrowUp""]","first stage test","canyon","0","{""ArrowUp,ArrowLeft"":26,""ArrowUp,ArrowRight"":10,""ArrowDown,ArrowLeft"":5,""ArrowDown,ArrowRight"":17}","true","ArrowUp","false","","","original","1","","","",""
"html-keyboard-response","260","1256216","0.0-4.0-8.0-1.1","spark_pilot_2","7798","5","23","Female","","","","","","","null","<div style=""font-size:60px;"">+</div>","null","fixation","","","","","","","","","","","","","",""
"revaluation","261","1257093","0.0-4.0-8.0-0.2","spark_pilot_2","7798","5","23","Female","","","false","","","","[870]","./assets/img/canyon/test/2.jpg","[""ArrowUp""]","first stage test","canyon","0","{""ArrowUp,ArrowLeft"":26,""ArrowUp,ArrowRight"":10,""ArrowDown,ArrowLeft"":5,""ArrowDown,ArrowRight"":17}","true","ArrowUp","false","","","original","1","","","",""
"html-keyboard-response","262","1257596","0.0-4.0-8.0-1.2","spark_pilot_2","7798","5","23","Female","","","","","","","null","<div style=""font-size:60px;"">+</div>","null","fixation","","","","","","","","","","","","","",""
"revaluation","263","1258103","0.0-4.0-8.0-0.3","spark_pilot_2","7798","5","23","Female","","","false","","","","[499.5]","./assets/img/canyon/test/0.jpg","[""ArrowUp""]","first stage test","canyon","0","{""ArrowUp,ArrowLeft"":26,""ArrowUp,ArrowRight"":10,""ArrowDown,ArrowLeft"":5,""ArrowDown,ArrowRight"":17}","true","ArrowUp","false","","","original","1","","","",""
"html-keyboard-response","264","1258605","0.0-4.0-8.0-1.3","spark_pilot_2","7798","5","23","Female","","","","","","","null","<div style=""font-size:60px;"">+</div>","null","fixation","","","","","","","","","","","","","",""
"learning-instructions","265","1272490","0.0-4.0-9.0-0.0","spark_pilot_2","7798","5","23","Female","","","","","","","2535.7000002861023","<p> Now you will see the animals again and can search their chests for treasure. </p>
            <p> This time, you will not see how much treasure you earned, but you will earn more bonus money for making better choices. </p>","","instructions","","","","","","","","","","","","","",""
"revaluation","266","1273540","0.0-4.0-10.0-0.0","spark_pilot_2","7798","5","23","Female","","","false","","","","[1047.5999999046326]","./assets/img/canyon/animals/lion.jpg","[""ArrowLeft""]","second stage test","canyon","0","{""ArrowUp,ArrowLeft"":26,""ArrowUp,ArrowRight"":10,""ArrowDown,ArrowLeft"":5,""ArrowDown,ArrowRight"":17}","true","ArrowUp,ArrowLeft","","","","original","1","","","",""
"html-keyboard-response","267","1274043","0.0-4.0-10.0-1.0","spark_pilot_2","7798","5","23","Female","","","","","","","null","<div style=""font-size:60px;"">+</div>","null","fixation","","","","","","","","","","","","","",""
"revaluation","268","1274876","0.0-4.0-10.0-0.1","spark_pilot_2","7798","5","23","Female","","","false","","","","[826.4000000953674]","./assets/img/canyon/animals/lion.jpg","[""ArrowLeft""]","second stage test","canyon","0","{""ArrowUp,ArrowLeft"":26,""ArrowUp,ArrowRight"":10,""ArrowDown,ArrowLeft"":5,""ArrowDown,ArrowRight"":17}","true","ArrowUp,ArrowLeft","","","","original","1","","","",""
"html-keyboard-response","269","1275378","0.0-4.0-10.0-1.1","spark_pilot_2","7798","5","23","Female","","","","","","","null","<div style=""font-size:60px;"">+</div>","null","fixation","","","","","","","","","","","","","",""
"revaluation","270","1275950","0.0-4.0-10.0-0.2","spark_pilot_2","7798","5","23","Female","","","false","","","","[567.2000002861023]","./assets/img/canyon/animals/lion.jpg","[""ArrowLeft""]","second stage test","canyon","0","{""ArrowUp,ArrowLeft"":26,""ArrowUp,ArrowRight"":10,""ArrowDown,ArrowLeft"":5,""ArrowDown,ArrowRight"":17}","true","ArrowUp,ArrowLeft","","","","original","1","","","",""
"html-keyboard-response","271","1276452","0.0-4.0-10.0-1.2","spark_pilot_2","7798","5","23","Female","","","","","","","null","<div style=""font-size:60px;"">+</div>","null","fixation","","","","","","","","","","","","","",""
"revaluation","272","1277112","0.0-4.0-10.0-0.3","spark_pilot_2","7798","5","23","Female","","","false","","","","[653]","./assets/img/canyon/animals/lion.jpg","[""ArrowLeft""]","second stage test","canyon","0","{""ArrowUp,ArrowLeft"":26,""ArrowUp,ArrowRight"":10,""ArrowDown,ArrowLeft"":5,""ArrowDown,ArrowRight"":17}","true","ArrowUp,ArrowLeft","","","","original","1","","","",""
"html-keyboard-response","273","1277614","0.0-4.0-10.0-1.3","spark_pilot_2","7798","5","23","Female","","","","","","","null","<div style=""font-size:60px;"">+</div>","null","fixation","","","","","","","","","","","","","",""
"revaluation","274","1278297","0.0-4.0-10.0-0.4","spark_pilot_2","7798","5","23","Female","","","false","","","","[677.3000001907349]","./assets/img/canyon/animals/giraffe.jpg","[""ArrowRight""]","second stage test","canyon","0","{""ArrowUp,ArrowLeft"":26,""ArrowUp,ArrowRight"":10,""ArrowDown,ArrowLeft"":5,""ArrowDown,ArrowRight"":17}","true","ArrowDown,ArrowRight","","","","original","1","","","",""
"html-keyboard-response","275","1278799","0.0-4.0-10.0-1.4","spark_pilot_2","7798","5","23","Female","","","","","","","null","<div style=""font-size:60px;"">+</div>","null","fixation","","","","","","","","","","","","","",""
"revaluation","276","1279372","0.0-4.0-10.0-0.5","spark_pilot_2","7798","5","23","Female","","","false","","","","[563.3000001907349]","./assets/img/canyon/animals/giraffe.jpg","[""ArrowRight""]","second stage test","canyon","0","{""ArrowUp,ArrowLeft"":26,""ArrowUp,ArrowRight"":10,""ArrowDown,ArrowLeft"":5,""ArrowDown,ArrowRight"":17}","true","ArrowDown,ArrowRight","","","","original","1","","","",""
"html-keyboard-response","277","1279875","0.0-4.0-10.0-1.5","spark_pilot_2","7798","5","23","Female","","","","","","","null","<div style=""font-size:60px;"">+</div>","null","fixation","","","","","","","","","","","","","",""
"revaluation","278","1280425","0.0-4.0-10.0-0.6","spark_pilot_2","7798","5","23","Female","","","false","","","","[543.2999997138977]","./assets/img/canyon/animals/giraffe.jpg","[""ArrowRight""]","second stage test","canyon","0","{""ArrowUp,ArrowLeft"":26,""ArrowUp,ArrowRight"":10,""ArrowDown,ArrowLeft"":5,""ArrowDown,ArrowRight"":17}","true","ArrowDown,ArrowRight","","","","original","1","","","",""
"html-keyboard-response","279","1280927","0.0-4.0-10.0-1.6","spark_pilot_2","7798","5","23","Female","","","","","","","null","<div style=""font-size:60px;"">+</div>","null","fixation","","","","","","","","","","","","","",""
"revaluation","280","1281478","0.0-4.0-10.0-0.7","spark_pilot_2","7798","5","23","Female","","","false","","","","[544.5]","./assets/img/canyon/animals/giraffe.jpg","[""ArrowRight""]","second stage test","canyon","0","{""ArrowUp,ArrowLeft"":26,""ArrowUp,ArrowRight"":10,""ArrowDown,ArrowLeft"":5,""ArrowDown,ArrowRight"":17}","true","ArrowDown,ArrowRight","","","","original","1","","","",""
"html-keyboard-response","281","1281981","0.0-4.0-10.0-1.7","spark_pilot_2","7798","5","23","Female","","","","","","","null","<div style=""font-size:60px;"">+</div>","null","fixation","","","","","","","","","","","","","",""
"learning-instructions","282","1290450","0.0-4.0-0.1-0.2","spark_pilot_2","7798","5","23","Female","","","","","","","5754.900000095367","<p> This time you are searching for treasure in the <b>ocean</b>.</p>","","instructions","","","","","","","","","","","","","",""
"learning-instructions","283","1310450","0.0-4.0-0.1-0.3","spark_pilot_2","7798","5","23","Female","","","","","","","2754.5999999046326","<p><b>New</b> animals with <b>new</b> treasure chests live here. You need to explore to discover where the animal with the best treasure chest is.</p>
                    <p> Like before, once you figure out which animal has the chest with the most treasure, you should try to get to that animal and select that chest! </p>","","instructions","","","","","","","","","","","","","",""
"learning-instructions","284","1329546","0.0-4.0-1.1-0.1","spark_pilot_2","7798","5","23","Female","","","","","","","4371.400000095367","<p> Remember, when you see a picture of the place, use the up and down keys to <b>find an animal</b>.</p>
            <p> When you encounter an animal, you should use the left and right keys to <b>select a treasure chest</b>.</p>
            <p> Don't forget to look out for the robber! </p>","","instructions","","","","","","","","","","","","","",""
"revaluation","285","1335553","0.0-4.0-2.1-0.50","spark_pilot_2","7798","5","23","Female","","","false","","","","[995.9000000953674,854.1999998092651]","./assets/img/ocean/memory/31.jpg","[""ArrowDown"",""ArrowRight""]","value training","ocean","30","{""ArrowUp,ArrowLeft"":23,""ArrowUp,ArrowRight"":10,""ArrowDown,ArrowLeft"":8,""ArrowDown,ArrowRight"":30}","true","ArrowDown,ArrowRight","false","","","revaluation","2","0","","",""
"html-keyboard-response","286","1336055","0.0-4.0-2.1-1.50","spark_pilot_2","7798","5","23","Female","","","","","","","null","<div style=""font-size:60px;"">+</div>","null","fixation","","","","","","","","","","","1","","",""
"revaluation","287","1342065","0.0-4.0-2.1-0.51","spark_pilot_2","7798","5","23","Female","","","false","","","","[747.1999998092651,280.3999996185303]","./assets/img/ocean/memory/1.jpg","[""ArrowDown"",""ArrowRight""]","value training","ocean","30","{""ArrowUp,ArrowLeft"":23,""ArrowUp,ArrowRight"":10,""ArrowDown,ArrowLeft"":8,""ArrowDown,ArrowRight"":30}","true","ArrowDown,ArrowRight","false","","","revaluation","2","2","","",""
"html-keyboard-response","288","1342567","0.0-4.0-2.1-1.51","spark_pilot_2","7798","5","23","Female","","","","","","","null","<div style=""font-size:60px;"">+</div>","null","fixation","","","","","","","","","","","3","","",""
"revaluation","289","1348576","0.0-4.0-2.1-0.52","spark_pilot_2","7798","5","23","Female","","","false","","","","[412.5,398.2000002861023]","./assets/img/ocean/memory/16.jpg","[""ArrowUp"",""ArrowLeft""]","value training","ocean","23","{""ArrowUp,ArrowLeft"":23,""ArrowUp,ArrowRight"":10,""ArrowDown,ArrowLeft"":8,""ArrowDown,ArrowRight"":30}","false","ArrowUp,ArrowLeft","false","","","revaluation","2","4","","",""
"html-keyboard-response","290","1349078","0.0-4.0-2.1-1.52","spark_pilot_2","7798","5","23","Female","","","","","","","null","<div style=""font-size:60px;"">+</div>","null","fixation","","","","","","","","","","","5","","",""
"revaluation","291","1353086","0.0-4.0-2.1-0.53","spark_pilot_2","7798","5","23","Female","","","false","","","","[764.6999998092651]","./assets/img/ocean/catch/6.jpg","[""spaceBar""]","value training","ocean","0","{""ArrowUp,ArrowLeft"":23,""ArrowUp,ArrowRight"":10,""ArrowDown,ArrowLeft"":8,""ArrowDown,ArrowRight"":30}","true","spaceBar","true","","","revaluation","2","6","","",""
"html-keyboard-response","292","1353588","0.0-4.0-2.1-1.53","spark_pilot_2","7798","5","23","Female","","","","","","","null","<div style=""font-size:60px;"">+</div>","null","fixation","","","","","","","","","","","7","","",""
"revaluation","293","1359597","0.0-4.0-2.1-0.54","spark_pilot_2","7798","5","23","Female","","","false","","","","[735.3999996185303,1051.7999997138977]","./assets/img/ocean/memory/24.jpg","[""ArrowDown"",""ArrowRight""]","value training","ocean","30","{""ArrowUp,ArrowLeft"":23,""ArrowUp,ArrowRight"":10,""ArrowDown,ArrowLeft"":8,""ArrowDown,ArrowRight"":30}","true","ArrowDown,ArrowRight","false","","","revaluation","2","8","","",""
"html-keyboard-response","294","1360099","0.0-4.0-2.1-1.54","spark_pilot_2","7798","5","23","Female","","","","","","","null","<div style=""font-size:60px;"">+</div>","null","fixation","","","","","","","","","","","9","","",""
"revaluation","295","1366109","0.0-4.0-2.1-0.55","spark_pilot_2","7798","5","23","Female","","","false","","","","[400.7999997138977,369.69999980926514]","./assets/img/ocean/memory/30.jpg","[""ArrowDown"",""ArrowRight""]","value training","ocean","30","{""ArrowUp,ArrowLeft"":23,""ArrowUp,ArrowRight"":10,""ArrowDown,ArrowLeft"":8,""ArrowDown,ArrowRight"":30}","true","ArrowDown,ArrowRight","false","","","revaluation","2","10","","",""
"html-keyboard-response","296","1366612","0.0-4.0-2.1-1.55","spark_pilot_2","7798","5","23","Female","","","","","","","null","<div style=""font-size:60px;"">+</div>","null","fixation","","","","","","","","","","","11","","",""
"revaluation","297","1372620","0.0-4.0-2.1-0.56","spark_pilot_2","7798","5","23","Female","","","false","","","","[459.59999990463257,754.6000003814697]","./assets/img/ocean/memory/0.jpg","[""ArrowDown"",""ArrowRight""]","value training","ocean","30","{""ArrowUp,ArrowLeft"":23,""ArrowUp,ArrowRight"":10,""ArrowDown,ArrowLeft"":8,""ArrowDown,ArrowRight"":30}","true","ArrowDown,ArrowRight","false","","","revaluation","2","12","","",""
"html-keyboard-response","298","1373122","0.0-4.0-2.1-1.56","spark_pilot_2","7798","5","23","Female","","","","","","","null","<div style=""font-size:60px;"">+</div>","null","fixation","","","","","","","","","","","13","","",""
"revaluation","299","1379133","0.0-4.0-2.1-0.57","spark_pilot_2","7798","5","23","Female","","","false","","","","[1342.4000000953674,396.5]","./assets/img/ocean/memory/26.jpg","[""ArrowDown"",""ArrowRight""]","value training","ocean","30","{""ArrowUp,ArrowLeft"":23,""ArrowUp,ArrowRight"":10,""ArrowDown,ArrowLeft"":8,""ArrowDown,ArrowRight"":30}","true","ArrowDown,ArrowRight","false","","","revaluation","2","14","","",""
"html-keyboard-response","300","1379636","0.0-4.0-2.1-1.57","spark_pilot_2","7798","5","23","Female","","","","","","","null","<div style=""font-size:60px;"">+</div>","null","fixation","","","","","","","","","","","15","","",""
"revaluation","301","1385645","0.0-4.0-2.1-0.58","spark_pilot_2","7798","5","23","Female","","","false","","","","[1244.8000001907349,516.5]","./assets/img/ocean/memory/2.jpg","[""ArrowDown"",""ArrowRight""]","value training","ocean","30","{""ArrowUp,ArrowLeft"":23,""ArrowUp,ArrowRight"":10,""ArrowDown,ArrowLeft"":8,""ArrowDown,ArrowRight"":30}","true","ArrowDown,ArrowRight","false","","","revaluation","2","16","","",""
"html-keyboard-response","302","1386147","0.0-4.0-2.1-1.58","spark_pilot_2","7798","5","23","Female","","","","","","","null","<div style=""font-size:60px;"">+</div>","null","fixation","","","","","","","","","","","17","","",""
