"trial_type","trial_index","time_elapsed","internal_node_id","task_version","subject_id","assigned_condition","age","gender","success","timeout","failed_images","failed_audio","failed_video","browser_interaction","rt","stimulus","response","task_part","environment","score","rewardMap","correct","fullState","isCatch","numberMissed","duration","condition","order","trial_num","key_press","ground_truth","bonus"
"pavlovia","0","1060","0.0-0.0","spark_pilot_2","7447","4","19","Male","","","","","","","","","","","","","","","","","","","","","","","",""
"preload","1","12718","0.0-1.0","spark_pilot_2","7447","4","19","Male","true","false","[]","[]","[]","[{""event"":""fullscreenenter"",""trial"":2,""time"":13943}]","","","","","","","","","","","","","","","","","",""
"fullscreen","2","14942","0.0-2.0","spark_pilot_2","7447","4","19","Male","true","","","","","","","","","","","","","","","","","","","","","","",""
"audio-button-response","3","16534","0.0-3.0-0.0-0.0","spark_pilot_2","7447","4","19","Male","","","","","","","1579","./assets/audio/audiotest/turtle.mp3","2","audio_test","","","","","","","","","","","","","",""
"learning-instructions","4","24633","0.0-3.0-1.0-0.0","spark_pilot_2","7447","4","19","Male","","","","","","","1091.7000000029802","<p> Welcome! Please remember to stay in fullscreen mode and don't click away from the experiment. </p>","","instructions","","","","","","","","","","","","","",""
"learning-instructions","5","33482","0.0-3.0-1.0-0.1","spark_pilot_2","7447","4","19","Male","","","","","","","413.70000000298023","<p> Today you will be playing a game to earn treasure. </p>
            <p> At the end of the experiment, you will earn a bonus based on how much treasure you find. </p>
            <img src='./assets/img/instructions/treasure.jpg' class='instructions-image'>","","instructions","","","","","","","","","","","","","",""
"learning-instructions","6","42182","0.0-3.0-1.0-0.2","spark_pilot_2","7447","4","19","Male","","","","","","","406.6000000089407","<p> Animals have hidden treasure in treasure chests. </p>
            <p> You need to first find an animal and then choose which of their treasure chests to search. </p>
            <img src='./assets/img/space/animals/cat.jpg' class='instructions-image'>","","instructions","","","","","","","","","","","","","",""
"learning-instructions","7","55798","0.0-3.0-1.0-0.3","spark_pilot_2","7447","4","19","Male","","","","","","","427.40000000596046","<p> In each round, you will search for treasure in a different place. In the real game, there will be two rounds. </p>
            <p> You will begin with a separate, practice round where you will search for treasure in outer space. </p>
            <img src='./assets/img/space/0.jpg' class='instructions-image'>","","instructions","","","","","","","","","","","","","",""
"learning-instructions","8","67636","0.0-3.0-1.0-0.4","spark_pilot_2","7447","4","19","Male","","","","","","","388","<p> On every turn, you will see a picture of the place that you are in, but the specific image may be different each time. </p>
            <p> For example, both of these images mean you are in outer space. </p>
            <img src='./assets/img/instructions/outerspace.jpg' class='instructions-image'>","","instructions","","","","","","","","","","","","","",""
"learning-instructions","9","75869","0.0-3.0-1.0-0.5","spark_pilot_2","7447","4","19","Male","","","","","","","377.09999999403954","<p> You need to decide which direction to travel in. </p>
            <p> You can choose between going <b>up or down</b> by using the arrow keys. </p>
            <img src='./assets/img/instructions/updown.jpg' class='instructions-image'>","","instructions","","","","","","","","","","","","","",""
"learning-instructions","10","85134","0.0-3.0-1.0-0.6","spark_pilot_2","7447","4","19","Male","","","","","","","425.09999999403954","<p> You will have <b>2 seconds</b> to make your choice. </p>
            <p> If you do not make a choice within 2 seconds, you will not find an animal or earn treasure. </p>
            <img src='./assets/img/instructions/2seconds.jpg' class='instructions-image'>","","instructions","","","","","","","","","","","","","",""
"learning-instructions","11","92583","0.0-3.0-1.0-0.7","spark_pilot_2","7447","4","19","Male","","","","","","","384.90000000596046","<p> Let’s try practicing that now! </p>
            <p> When you see a picture of the place you are in, press the <b>up</b> key to travel up. </p>
            <img src='./assets/img/instructions/pressUp.jpg' class='instructions-image'>","","instructions","","","","","","","","","","","","","",""
"revaluation","12","96602","0.0-3.0-2.0-0.0","spark_pilot_2","7447","4","19","Male","","false","","","","","[543]","./assets/img/space/0.jpg","[""ArrowUp""]","first stage practice","space","0","null","null","ArrowUp","false","","","","","","","",""
"html-keyboard-response","13","97110","0.0-3.0-2.0-1.0","spark_pilot_2","7447","4","19","Male","","","","","","","null","<div style=""font-size:60px;"">+</div>","null","fixation","","","","","","","","","","","","","",""
"revaluation","14","101129","0.0-3.0-2.0-0.1","spark_pilot_2","7447","4","19","Male","","false","","","","","[1587.1000000089407]","./assets/img/space/1.jpg","[""ArrowUp""]","first stage practice","space","0","null","null","ArrowUp","false","","","","","","","",""
"html-keyboard-response","15","101636","0.0-3.0-2.0-1.1","spark_pilot_2","7447","4","19","Male","","","","","","","null","<div style=""font-size:60px;"">+</div>","null","fixation","","","","","","","","","","","","","",""
"revaluation","16","105653","0.0-3.0-2.0-0.2","spark_pilot_2","7447","4","19","Male","","false","","","","","[315.29999999701977]","./assets/img/space/2.jpg","[""ArrowUp""]","first stage practice","space","0","null","null","ArrowUp","false","","","","","","","",""
"html-keyboard-response","17","106156","0.0-3.0-2.0-1.2","spark_pilot_2","7447","4","19","Male","","","","","","","null","<div style=""font-size:60px;"">+</div>","null","fixation","","","","","","","","","","","","","",""
"learning-instructions","18","111221","0.0-3.0-3.0-0.0","spark_pilot_2","7447","4","19","Male","","","","","","","337.70000000298023","<p> Great job! Now try pressing the <b>down</b> key to travel down. </p>
            <img src='./assets/img/instructions/pressDown.jpg' class='instructions-image'>","","instructions","","","","","","","","","","","","","",""
"revaluation","19","115237","0.0-3.0-4.0-0.0","spark_pilot_2","7447","4","19","Male","","false","","","","","[465.79999999701977]","./assets/img/space/3.jpg","[""ArrowDown""]","first stage practice","space","0","null","null","ArrowDown","false","","","","","","","",""
"html-keyboard-response","20","115742","0.0-3.0-4.0-1.0","spark_pilot_2","7447","4","19","Male","","","","","","","null","<div style=""font-size:60px;"">+</div>","null","fixation","","","","","","","","","","","","","",""
"revaluation","21","119761","0.0-3.0-4.0-0.1","spark_pilot_2","7447","4","19","Male","","false","","","","","[314]","./assets/img/space/4.jpg","[""ArrowDown""]","first stage practice","space","0","null","null","ArrowDown","false","","","","","","","",""
"html-keyboard-response","22","120268","0.0-3.0-4.0-1.1","spark_pilot_2","7447","4","19","Male","","","","","","","null","<div style=""font-size:60px;"">+</div>","null","fixation","","","","","","","","","","","","","",""
"revaluation","23","124284","0.0-3.0-4.0-0.2","spark_pilot_2","7447","4","19","Male","","false","","","","","[477.70000000298023]","./assets/img/space/5.jpg","[""ArrowDown""]","first stage practice","space","0","null","null","ArrowDown","false","","","","","","","",""
"html-keyboard-response","24","124792","0.0-3.0-4.0-1.2","spark_pilot_2","7447","4","19","Male","","","","","","","null","<div style=""font-size:60px;"">+</div>","null","fixation","","","","","","","","","","","","","",""
"learning-instructions","25","135085","0.0-3.0-5.0-0.0","spark_pilot_2","7447","4","19","Male","","","","","","","401.90000000596046","<p> The animals don’t move, so the animal in the upper part of a place will stay in the upper part of a place, and the animal in the lower part of a place will stay in the lower part of a place. </p>","","instructions","","","","","","","","","","","","","",""
"learning-instructions","26","144633","0.0-3.0-5.0-0.1","spark_pilot_2","7447","4","19","Male","","","","","","","382.80000001192093","<p> Each animal has two treasure chests for you to choose from. </p>
            <p> The amount of treasure in each chest can range from <b> 0 to 40 pieces.</b></p>","","instructions","","","","","","","","","","","","","",""
"learning-instructions","27","156268","0.0-3.0-5.0-0.2","spark_pilot_2","7447","4","19","Male","","","","","","","413.1000000089407","<p> You should decide which chest to search for treasure by using the <b>left</b> and <b>right</b> arrow keys. </p>
            <p><b> Pay attention to which animal is on the screen, as the animals have different treasure chests. </b></p>
            <img src='./assets/img/instructions/leftright.jpg' class='instructions-image'>","","instructions","","","","","","","","","","","","","",""
"learning-instructions","28","163068","0.0-3.0-5.0-0.3","spark_pilot_2","7447","4","19","Male","","","","","","","410","<p> Let’s try practicing that now. </p>
            <p> When you see an animal, choose which chest to search for treasure. </p>
            <img src='./assets/img/instructions/chooseChest.jpg' class='instructions-image'>","","instructions","","","","","","","","","","","","","",""
"revaluation","29","167088","0.0-3.0-6.0-0.0","spark_pilot_2","7447","4","19","Male","","false","","","","","[688.0999999940395]","./assets/img/space/animals/rabbit.jpg","[""ArrowLeft""]","second stage practice","space","15","{""ArrowUp,ArrowLeft"":3,""ArrowUp,ArrowRight"":36,""ArrowDown,ArrowLeft"":15,""ArrowDown,ArrowRight"":23}","false","ArrowDown,ArrowLeft","","","","","","","","",""
"html-keyboard-response","30","167595","0.0-3.0-6.0-1.0","spark_pilot_2","7447","4","19","Male","","","","","","","null","<div style=""font-size:60px;"">+</div>","null","fixation","","","","","","","","","","","","","",""
"revaluation","31","171615","0.0-3.0-6.0-0.1","spark_pilot_2","7447","4","19","Male","","false","","","","","[715.2000000029802]","./assets/img/space/animals/cat.jpg","[""ArrowLeft""]","second stage practice","space","3","{""ArrowUp,ArrowLeft"":3,""ArrowUp,ArrowRight"":36,""ArrowDown,ArrowLeft"":15,""ArrowDown,ArrowRight"":23}","false","ArrowUp,ArrowLeft","","","","","","","","",""
"html-keyboard-response","32","172127","0.0-3.0-6.0-1.1","spark_pilot_2","7447","4","19","Male","","","","","","","null","<div style=""font-size:60px;"">+</div>","null","fixation","","","","","","","","","","","","","",""
"revaluation","33","176147","0.0-3.0-6.0-0.2","spark_pilot_2","7447","4","19","Male","","false","","","","","[463.69999998807907]","./assets/img/space/animals/rabbit.jpg","[""ArrowRight""]","second stage practice","space","23","{""ArrowUp,ArrowLeft"":3,""ArrowUp,ArrowRight"":36,""ArrowDown,ArrowLeft"":15,""ArrowDown,ArrowRight"":23}","true","ArrowDown,ArrowRight","","","","","","","","",""
"html-keyboard-response","34","176654","0.0-3.0-6.0-1.2","spark_pilot_2","7447","4","19","Male","","","","","","","null","<div style=""font-size:60px;"">+</div>","null","fixation","","","","","","","","","","","","","",""
"revaluation","35","180675","0.0-3.0-6.0-0.3","spark_pilot_2","7447","4","19","Male","","false","","","","","[603.7000000029802]","./assets/img/space/animals/cat.jpg","[""ArrowRight""]","second stage practice","space","36","{""ArrowUp,ArrowLeft"":3,""ArrowUp,ArrowRight"":36,""ArrowDown,ArrowLeft"":15,""ArrowDown,ArrowRight"":23}","true","ArrowUp,ArrowRight","","","","","","","","",""
"html-keyboard-response","36","181178","0.0-3.0-6.0-1.3","spark_pilot_2","7447","4","19","Male","","","","","","","null","<div style=""font-size:60px;"">+</div>","null","fixation","","","","","","","","","","","","","",""
"learning-instructions","37","198635","0.0-3.0-7.0-0.0","spark_pilot_2","7447","4","19","Male","","","","","","","596","<p> Great job. Now let’s try putting it together. </p>
            <p> On each turn, you will first see a picture to remind you of the place you are in, and you need to choose whether to go up or down. </p>
            <p> Then you will see an animal and choose which of its chests to search for treasure. </p>","","instructions","","","","","","","","","","","","","",""
"learning-instructions","38","207285","0.0-3.0-7.0-0.1","spark_pilot_2","7447","4","19","Male","","","","","","","364.1000000089407","<p> When you choose whether to go up or down, try to go to the animal with the chest with the most treasure. </p>
            <p> Try practicing that now! </p>","","instructions","","","","","","","","","","","","","",""
"revaluation","39","213305","0.0-3.0-8.0-0.0","spark_pilot_2","7447","4","19","Male","","false","","","","","[668.2999999970198,584.8999999910593]","./assets/img/space/6.jpg","[""ArrowUp"",""ArrowRight""]","full practice","space","36","{""ArrowUp,ArrowLeft"":3,""ArrowUp,ArrowRight"":36,""ArrowDown,ArrowLeft"":15,""ArrowDown,ArrowRight"":23}","true","ArrowUp,ArrowRight","false","","","","","","","",""
"html-keyboard-response","40","213811","0.0-3.0-8.0-1.0","spark_pilot_2","7447","4","19","Male","","","","","","","null","<div style=""font-size:60px;"">+</div>","null","fixation","","","","","","","","","","","","","",""
"revaluation","41","219837","0.0-3.0-8.0-0.1","spark_pilot_2","7447","4","19","Male","","false","","","","","[612.2000000029802,473.5]","./assets/img/space/7.jpg","[""ArrowUp"",""ArrowRight""]","full practice","space","36","{""ArrowUp,ArrowLeft"":3,""ArrowUp,ArrowRight"":36,""ArrowDown,ArrowLeft"":15,""ArrowDown,ArrowRight"":23}","true","ArrowUp,ArrowRight","false","","","","","","","",""
"html-keyboard-response","42","220345","0.0-3.0-8.0-1.1","spark_pilot_2","7447","4","19","Male","","","","","","","null","<div style=""font-size:60px;"">+</div>","null","fixation","","","","","","","","","","","","","",""
"revaluation","43","226374","0.0-3.0-8.0-0.2","spark_pilot_2","7447","4","19","Male","","false","","","","","[377.8999999910593,429.79999999701977]","./assets/img/space/8.jpg","[""ArrowUp"",""ArrowRight""]","full practice","space","36","{""ArrowUp,ArrowLeft"":3,""ArrowUp,ArrowRight"":36,""ArrowDown,ArrowLeft"":15,""ArrowDown,ArrowRight"":23}","true","ArrowUp,ArrowRight","false","","","","","","","",""
"html-keyboard-response","44","226885","0.0-3.0-8.0-1.2","spark_pilot_2","7447","4","19","Male","","","","","","","null","<div style=""font-size:60px;"">+</div>","null","fixation","","","","","","","","","","","","","",""
"revaluation","45","232913","0.0-3.0-8.0-0.3","spark_pilot_2","7447","4","19","Male","","false","","","","","[426.8999999910593,435.70000000298023]","./assets/img/space/9.jpg","[""ArrowUp"",""ArrowRight""]","full practice","space","36","{""ArrowUp,ArrowLeft"":3,""ArrowUp,ArrowRight"":36,""ArrowDown,ArrowLeft"":15,""ArrowDown,ArrowRight"":23}","true","ArrowUp,ArrowRight","false","","","","","","","",""
"html-keyboard-response","46","233417","0.0-3.0-8.0-1.3","spark_pilot_2","7447","4","19","Male","","","","","","","null","<div style=""font-size:60px;"">+</div>","null","fixation","","","","","","","","","","","","","",""
"revaluation","47","239441","0.0-3.0-8.0-0.4","spark_pilot_2","7447","4","19","Male","","false","","","","","[426.69999998807907,401.69999998807907]","./assets/img/space/10.jpg","[""ArrowUp"",""ArrowRight""]","full practice","space","36","{""ArrowUp,ArrowLeft"":3,""ArrowUp,ArrowRight"":36,""ArrowDown,ArrowLeft"":15,""ArrowDown,ArrowRight"":23}","true","ArrowUp,ArrowRight","false","","","","","","","",""
"html-keyboard-response","48","239945","0.0-3.0-8.0-1.4","spark_pilot_2","7447","4","19","Male","","","","","","","null","<div style=""font-size:60px;"">+</div>","null","fixation","","","","","","","","","","","","","",""
"learning-instructions","49","251285","0.0-3.0-9.0-0.0","spark_pilot_2","7447","4","19","Male","","","","","","","960.3000000119209","<p> One last thing: sometimes, you will see a robber. The robber can be anywhere in the picture. </p>
            <p> If you do not stop them, you will lose treasure. </p>
            <img src='./assets/img/instructions/robber.jpg' class='instructions-image'>","","instructions","","","","","","","","","","","","","",""
"learning-instructions","50","259098","0.0-3.0-9.0-0.1","spark_pilot_2","7447","4","19","Male","","","","","","","624.1999999880791","<p> If you see the robber, you should <b>press the space bar</b> rather than using the arrow keys. </p>
            <p> Try practicing that now! </p>","","instructions","","","","","","","","","","","","","",""
"revaluation","51","263112","0.0-3.0-10.0-0.0","spark_pilot_2","7447","4","19","Male","","false","","","","","[922.5999999940395]","./assets/img/space/catch/0.jpg","[""spaceBar""]","catch practice","space","0","{""ArrowUp,ArrowLeft"":3,""ArrowUp,ArrowRight"":36,""ArrowDown,ArrowLeft"":15,""ArrowDown,ArrowRight"":23}","true","spaceBar","true","","","","","","","",""
"html-keyboard-response","52","263616","0.0-3.0-10.0-1.0","spark_pilot_2","7447","4","19","Male","","","","","","","null","<div style=""font-size:60px;"">+</div>","null","fixation","","","","","","","","","","","","","",""
"revaluation","53","267633","0.0-3.0-10.0-0.1","spark_pilot_2","7447","4","19","Male","","false","","","","","[701.2000000029802]","./assets/img/space/catch/1.jpg","[""spaceBar""]","catch practice","space","0","{""ArrowUp,ArrowLeft"":3,""ArrowUp,ArrowRight"":36,""ArrowDown,ArrowLeft"":15,""ArrowDown,ArrowRight"":23}","true","spaceBar","true","","","","","","","",""
"html-keyboard-response","54","268136","0.0-3.0-10.0-1.1","spark_pilot_2","7447","4","19","Male","","","","","","","null","<div style=""font-size:60px;"">+</div>","null","fixation","","","","","","","","","","","","","",""
"revaluation","55","272153","0.0-3.0-10.0-0.2","spark_pilot_2","7447","4","19","Male","","false","","","","","[470.09999999403954]","./assets/img/space/catch/2.jpg","[""spaceBar""]","catch practice","space","0","{""ArrowUp,ArrowLeft"":3,""ArrowUp,ArrowRight"":36,""ArrowDown,ArrowLeft"":15,""ArrowDown,ArrowRight"":23}","true","spaceBar","true","","","","","","","",""
"html-keyboard-response","56","272660","0.0-3.0-10.0-1.2","spark_pilot_2","7447","4","19","Male","","","","","","","null","<div style=""font-size:60px;"">+</div>","null","fixation","","","","","","","","","","","","","",""
"learning-instructions","57","287300","0.0-3.0-11.0-0.0","spark_pilot_2","7447","4","19","Male","","","","","","","1001.7000000029802","<p> After you explore a place to find treasure, it will be time to play a different game. </p>
            <p> During this game, red dots will appear on the screen and fall down slowly. </p>
            <p><b> You must click on them before they reach the bottom. </b></p>
            <img src='./assets/img/instructions/dotGame.jpg' class='instructions-image'>","","instructions","","","","","","","","","","","","","",""
"learning-instructions","58","293749","0.0-3.0-11.0-0.1","spark_pilot_2","7447","4","19","Male","","","","","","","753.1999999880791","<p> For every dot you click, you will earn additional treasure. </p>
            <p> Let’s try practicing that now. </p>","","instructions","","","","","","","","","","","","","",""
"revaluation","59","308763","0.0-3.0-12.0-0.0","spark_pilot_2","7447","4","19","Male","","","","","","","[92]","","","rest practice","","10","","","","","0","15000","","","","","",""
"learning-instructions","60","315502","0.0-3.0-13.0-0.0-0.0","spark_pilot_2","7447","4","19","Male","","","","","","","1479.6000000089407","<p> Now, you will practice a shortened version of the game to get a sense of how it all fits together. </p>","","instructions","","","","","","","","","","","","","",""
"learning-instructions","61","327602","0.0-3.0-13.0-0.0-0.1","spark_pilot_2","7447","4","19","Male","","","","","","","8895.40000000596","<p>This time you are searching for treasure in outer space.</p>","","instructions","","","","","","","","","","","","","",""
"learning-instructions","62","342852","0.0-3.0-13.0-1.0-0.0","spark_pilot_2","7447","4","19","Male","","","","","","","437.5","<p> Remember, when you see a picture of the place, use the up and down keys to <b>find an animal</b>.</p>
            <p> When you encounter an animal, you should use the left and right keys to <b>select a treasure chest</b>.</p>
            <p> Don't forget to look out for the robber! </p>","","instructions","","","","","","","","","","","","","",""
"revaluation","63","348879","0.0-3.0-13.0-2.0-0.0","spark_pilot_2","7447","4","19","Male","","false","","","","","[1236.5999999940395,743.0999999940395]","./assets/img/space/11.jpg","[""ArrowDown"",""ArrowLeft""]","practice block","space","15","{""ArrowUp,ArrowLeft"":3,""ArrowUp,ArrowRight"":36,""ArrowDown,ArrowLeft"":15,""ArrowDown,ArrowRight"":23}","false","ArrowDown,ArrowLeft","false","","","","","","","",""
"html-keyboard-response","64","349381","0.0-3.0-13.0-2.0-1.0","spark_pilot_2","7447","4","19","Male","","","","","","","null","<div style=""font-size:60px;"">+</div>","null","fixation","","","","","","","","","","","","","",""
"revaluation","65","355410","0.0-3.0-13.0-2.0-0.1","spark_pilot_2","7447","4","19","Male","","false","","","","","[874.7000000029802,420.59999999403954]","./assets/img/space/12.jpg","[""ArrowDown"",""ArrowRight""]","practice block","space","23","{""ArrowUp,ArrowLeft"":3,""ArrowUp,ArrowRight"":36,""ArrowDown,ArrowLeft"":15,""ArrowDown,ArrowRight"":23}","false","ArrowDown,ArrowRight","false","","","","","","","",""
"html-keyboard-response","66","355922","0.0-3.0-13.0-2.0-1.1","spark_pilot_2","7447","4","19","Male","","","","","","","null","<div style=""font-size:60px;"">+</div>","null","fixation","","","","","","","","","","","","","",""
"revaluation","67","361950","0.0-3.0-13.0-2.0-0.2","spark_pilot_2","7447","4","19","Male","","false","","","","","[664.7999999970198,353.29999999701977]","./assets/img/space/13.jpg","[""ArrowUp"",""ArrowRight""]","practice block","space","36","{""ArrowUp,ArrowLeft"":3,""ArrowUp,ArrowRight"":36,""ArrowDown,ArrowLeft"":15,""ArrowDown,ArrowRight"":23}","true","ArrowUp,ArrowRight","false","","","","","","","",""
"html-keyboard-response","68","362454","0.0-3.0-13.0-2.0-1.2","spark_pilot_2","7447","4","19","Male","","","","","","","null","<div style=""font-size:60px;"">+</div>","null","fixation","","","","","","","","","","","","","",""
"revaluation","69","368481","0.0-3.0-13.0-2.0-0.3","spark_pilot_2","7447","4","19","Male","","false","","","","","[534.5,404.79999999701977]","./assets/img/space/14.jpg","[""ArrowUp"",""ArrowRight""]","practice block","space","36","{""ArrowUp,ArrowLeft"":3,""ArrowUp,ArrowRight"":36,""ArrowDown,ArrowLeft"":15,""ArrowDown,ArrowRight"":23}","true","ArrowUp,ArrowRight","false","","","","","","","",""
"html-keyboard-response","70","368993","0.0-3.0-13.0-2.0-1.3","spark_pilot_2","7447","4","19","Male","","","","","","","null","<div style=""font-size:60px;"">+</div>","null","fixation","","","","","","","","","","","","","",""
"revaluation","71","375021","0.0-3.0-13.0-2.0-0.4","spark_pilot_2","7447","4","19","Male","","false","","","","","[811.2999999970198,326.29999999701977]","./assets/img/space/11.jpg","[""ArrowUp"",""ArrowRight""]","practice block","space","36","{""ArrowUp,ArrowLeft"":3,""ArrowUp,ArrowRight"":36,""ArrowDown,ArrowLeft"":15,""ArrowDown,ArrowRight"":23}","true","ArrowUp,ArrowRight","false","","","","","","","",""
"html-keyboard-response","72","375526","0.0-3.0-13.0-2.0-1.4","spark_pilot_2","7447","4","19","Male","","","","","","","null","<div style=""font-size:60px;"">+</div>","null","fixation","","","","","","","","","","","","","",""
"revaluation","73","381552","0.0-3.0-13.0-2.0-0.5","spark_pilot_2","7447","4","19","Male","","false","","","","","[708.6000000089407,361.20000000298023]","./assets/img/space/12.jpg","[""ArrowUp"",""ArrowRight""]","practice block","space","36","{""ArrowUp,ArrowLeft"":3,""ArrowUp,ArrowRight"":36,""ArrowDown,ArrowLeft"":15,""ArrowDown,ArrowRight"":23}","true","ArrowUp,ArrowRight","false","","","","","","","",""
"html-keyboard-response","74","382062","0.0-3.0-13.0-2.0-1.5","spark_pilot_2","7447","4","19","Male","","","","","","","null","<div style=""font-size:60px;"">+</div>","null","fixation","","","","","","","","","","","","","",""
"revaluation","75","388088","0.0-3.0-13.0-2.0-0.6","spark_pilot_2","7447","4","19","Male","","false","","","","","[609.7999999970198,457.20000000298023]","./assets/img/space/13.jpg","[""ArrowUp"",""ArrowRight""]","practice block","space","36","{""ArrowUp,ArrowLeft"":3,""ArrowUp,ArrowRight"":36,""ArrowDown,ArrowLeft"":15,""ArrowDown,ArrowRight"":23}","true","ArrowUp,ArrowRight","false","","","","","","","",""
"html-keyboard-response","76","388598","0.0-3.0-13.0-2.0-1.6","spark_pilot_2","7447","4","19","Male","","","","","","","null","<div style=""font-size:60px;"">+</div>","null","fixation","","","","","","","","","","","","","",""
"revaluation","77","394624","0.0-3.0-13.0-2.0-0.7","spark_pilot_2","7447","4","19","Male","","false","","","","","[771.2000000029802,294.90000000596046]","./assets/img/space/14.jpg","[""ArrowUp"",""ArrowRight""]","practice block","space","36","{""ArrowUp,ArrowLeft"":3,""ArrowUp,ArrowRight"":36,""ArrowDown,ArrowLeft"":15,""ArrowDown,ArrowRight"":23}","true","ArrowUp,ArrowRight","false","","","","","","","",""
"html-keyboard-response","78","395135","0.0-3.0-13.0-2.0-1.7","spark_pilot_2","7447","4","19","Male","","","","","","","null","<div style=""font-size:60px;"">+</div>","null","fixation","","","","","","","","","","","","","",""
"revaluation","79","399152","0.0-3.0-13.0-2.0-0.8","spark_pilot_2","7447","4","19","Male","","false","","","","","[738.3000000119209]","./assets/img/space/catch/3.jpg","[""spaceBar""]","practice block","space","0","{""ArrowUp,ArrowLeft"":3,""ArrowUp,ArrowRight"":36,""ArrowDown,ArrowLeft"":15,""ArrowDown,ArrowRight"":23}","true","spaceBar","true","","","","","","","",""
"html-keyboard-response","80","399662","0.0-3.0-13.0-2.0-1.8","spark_pilot_2","7447","4","19","Male","","","","","","","null","<div style=""font-size:60px;"">+</div>","null","fixation","","","","","","","","","","","","","",""
"learning-instructions","81","414951","0.0-3.0-13.0-3.0-0.0","spark_pilot_2","7447","4","19","Male","","","","","","","2295.5","<p> Now, you will travel with a friend who will choose whether you go up or down first. </p>
            <p> On these turns, you will just see the animal that they found. You will still get to choose which chest to search for treasure.</p>","","instructions","","","","","","","","","","","","","",""
"revaluation","82","418969","0.0-3.0-13.0-4.0-0.0","spark_pilot_2","7447","4","19","Male","","false","","","","","[707.2999999970198]","./assets/img/space/animals/rabbit.jpg","[""ArrowRight""]","practice block","space","23","{""ArrowUp,ArrowLeft"":3,""ArrowUp,ArrowRight"":36,""ArrowDown,ArrowLeft"":15,""ArrowDown,ArrowRight"":23}","true","ArrowDown,ArrowRight","","","","","","","","",""
"html-keyboard-response","83","419480","0.0-3.0-13.0-4.0-1.0","spark_pilot_2","7447","4","19","Male","","","","","","","null","<div style=""font-size:60px;"">+</div>","null","fixation","","","","","","","","","","","","","",""
"revaluation","84","423501","0.0-3.0-13.0-4.0-0.1","spark_pilot_2","7447","4","19","Male","","false","","","","","[533.7000000029802]","./assets/img/space/animals/cat.jpg","[""ArrowRight""]","practice block","space","36","{""ArrowUp,ArrowLeft"":3,""ArrowUp,ArrowRight"":36,""ArrowDown,ArrowLeft"":15,""ArrowDown,ArrowRight"":23}","true","ArrowUp,ArrowRight","","","","","","","","",""
"html-keyboard-response","85","424008","0.0-3.0-13.0-4.0-1.1","spark_pilot_2","7447","4","19","Male","","","","","","","null","<div style=""font-size:60px;"">+</div>","null","fixation","","","","","","","","","","","","","",""
"revaluation","86","428029","0.0-3.0-13.0-4.0-0.2","spark_pilot_2","7447","4","19","Male","","false","","","","","[316.5]","./assets/img/space/animals/rabbit.jpg","[""ArrowRight""]","practice block","space","23","{""ArrowUp,ArrowLeft"":3,""ArrowUp,ArrowRight"":36,""ArrowDown,ArrowLeft"":15,""ArrowDown,ArrowRight"":23}","true","ArrowDown,ArrowRight","","","","","","","","",""
"html-keyboard-response","87","428534","0.0-3.0-13.0-4.0-1.2","spark_pilot_2","7447","4","19","Male","","","","","","","null","<div style=""font-size:60px;"">+</div>","null","fixation","","","","","","","","","","","","","",""
"revaluation","88","432548","0.0-3.0-13.0-4.0-0.3","spark_pilot_2","7447","4","19","Male","","false","","","","","[436.79999999701977]","./assets/img/space/animals/cat.jpg","[""ArrowRight""]","practice block","space","36","{""ArrowUp,ArrowLeft"":3,""ArrowUp,ArrowRight"":36,""ArrowDown,ArrowLeft"":15,""ArrowDown,ArrowRight"":23}","true","ArrowUp,ArrowRight","","","","","","","","",""
"html-keyboard-response","89","433052","0.0-3.0-13.0-4.0-1.3","spark_pilot_2","7447","4","19","Male","","","","","","","null","<div style=""font-size:60px;"">+</div>","null","fixation","","","","","","","","","","","","","",""
"learning-instructions","90","441186","0.0-3.0-13.0-5.0-0.0","spark_pilot_2","7447","4","19","Male","","","","","","","735.7000000029802","<p> Time to play the dot game! </p>
            <p> For 15 seconds, click the red dots on the following screen as they appear. </p>","","instructions","","","","","","","","","","","","","",""
"revaluation","91","456193","0.0-3.0-13.0-6.0-0.0","spark_pilot_2","7447","4","19","Male","","","","","","","[88]","","","rest practice","","10","","","","","0","15000","","","","","",""
"learning-instructions","92","463282","0.0-3.0-13.0-7.0-0.0","spark_pilot_2","7447","4","19","Male","","","","","","","941.7999999970198","<p> You have almost finished this part of the game! </p>
            <p> We are going to ask you to make a few more choices. </p>","","instructions","","","","","","","","","","","","","",""
"learning-instructions","93","477718","0.0-3.0-13.0-7.0-0.1","spark_pilot_2","7447","4","19","Male","","","","","","","389.1000000089407","<p> First, you need to decide whether to go up or down. When you see each picture, use the arrow keys to make your choice. </p>
            <p><b>You will not see which animal you found, but try to get to the one that will give you the most treasure.</b></p>","","instructions","","","","","","","","","","","","","",""
"revaluation","94","478769","0.0-3.0-13.0-8.0","spark_pilot_2","7447","4","19","Male","","false","","","","","[1048.7000000029802]","./assets/img/space/15.jpg","[""ArrowUp""]","practice block","space","0","{""ArrowUp,ArrowLeft"":3,""ArrowUp,ArrowRight"":36,""ArrowDown,ArrowLeft"":15,""ArrowDown,ArrowRight"":23}","true","ArrowUp","false","","","","","","","",""
"html-keyboard-response","95","479275","0.0-3.0-13.0-9.0","spark_pilot_2","7447","4","19","Male","","","","","","","null","<div style=""font-size:60px;"">+</div>","null","fixation","","","","","","","","","","","","","",""
"learning-instructions","96","491852","0.0-3.0-13.0-10.0-0.0","spark_pilot_2","7447","4","19","Male","","","","","","","1160.5999999940395","<p> Now you will see the animals again and can search their chests for treasure. </p>
            <p> This time, you will not see how much treasure you earned, but you will earn more bonus money for making better choices. </p>","","instructions","","","","","","","","","","","","","",""
"revaluation","97","492680","0.0-3.0-13.0-11.0-0.0","spark_pilot_2","7447","4","19","Male","","false","","","","","[825.7000000029802]","./assets/img/space/animals/cat.jpg","[""ArrowRight""]","practice block","space","0","{""ArrowUp,ArrowLeft"":3,""ArrowUp,ArrowRight"":36,""ArrowDown,ArrowLeft"":15,""ArrowDown,ArrowRight"":23}","true","ArrowUp,ArrowRight","","","","","","","","",""
"html-keyboard-response","98","493187","0.0-3.0-13.0-11.0-1.0","spark_pilot_2","7447","4","19","Male","","","","","","","null","<div style=""font-size:60px;"">+</div>","null","fixation","","","","","","","","","","","","","",""
"revaluation","99","493978","0.0-3.0-13.0-11.0-0.1","spark_pilot_2","7447","4","19","Male","","false","","","","","[785.3999999910593]","./assets/img/space/animals/rabbit.jpg","[""ArrowRight""]","practice block","space","0","{""ArrowUp,ArrowLeft"":3,""ArrowUp,ArrowRight"":36,""ArrowDown,ArrowLeft"":15,""ArrowDown,ArrowRight"":23}","true","ArrowDown,ArrowRight","","","","","","","","",""
"html-keyboard-response","100","494483","0.0-3.0-13.0-11.0-1.1","spark_pilot_2","7447","4","19","Male","","","","","","","null","<div style=""font-size:60px;"">+</div>","null","fixation","","","","","","","","","","","","","",""
"learning-instructions","101","499535","0.0-3.0-14.0-0.0","spark_pilot_2","7447","4","19","Male","","","","","","","448.59999999403954","<p> Before you start, we're going to ask you a few questions about how the game works. </p>","","instructions","","","","","","","","","","","","","",""
"comp-q","102","506319","0.0-3.0-15.0-0.0-0.0","spark_pilot_2","7447","4","19","Male","","","","","","","1180.2000000029802","<p> <b> True or False? </b> </p>
            <p> There can be 50 pieces of treasure in a given animal's chest. </p>","1","comp_question","","","","true","","","","","","","","","",""
"comp-q","103","514316","0.0-3.0-15.0-0.0-1.0","spark_pilot_2","7447","4","19","Male","","","","","","","1315.7999999970198","<p> <b> That's right! </b> The amount of treasure in each chest can range from 0 to 40 pieces. </p>","0","comp_answer","","","","","","","","","","","","","",""
"comp-q","104","522268","0.0-3.0-15.0-0.1-0.1","spark_pilot_2","7447","4","19","Male","","","","","","","809.7999999970198","<p> <b> True or False? </b> </p><p> In this game, all animals have the same amount of treasure in their left and right chests. </p>","1","comp_question","","","","true","","","","","","","","","",""
"comp-q","105","528465","0.0-3.0-15.0-0.1-1.1","spark_pilot_2","7447","4","19","Male","","","","","","","946.7000000029802","<p> <b> That's right! </b> Animals have different amounts of treasure in their treasure chests. </p>","0","comp_answer","","","","","","","","","","","","","",""
"comp-q","106","535318","0.0-3.0-15.0-0.2-0.2","spark_pilot_2","7447","4","19","Male","","","","","","","984.4000000059605","<p> <b> True or False? </b> </p><p> The same animal will always be there if you go up in the same place. </p>","0","comp_question","","","","true","","","","","","","","","",""
"comp-q","107","543035","0.0-3.0-15.0-0.2-1.2","spark_pilot_2","7447","4","19","Male","","","","","","","1247.1000000089407","<p> <b> That's right! </b> One animal lives in the upper part and one lives in the lower part of every place. </p>","0","comp_answer","","","","","","","","","","","","","",""
"comp-q","108","549068","0.0-3.0-15.0-0.3-0.3","spark_pilot_2","7447","4","19","Male","","","","","","","489","<p> <b> True or False? </b> </p><p> If you see a different picture, it means you are in a new place. </p>","1","comp_question","","","","true","","","","","","","","","",""
"comp-q","109","561168","0.0-3.0-15.0-0.3-1.3","spark_pilot_2","7447","4","19","Male","","","","","","","839.8999999910593","<p> <b> That's right! </b> Lots of different images may show the same place. For example,  you may see three different images that all remind you that you are in outer space. </p>","0","comp_answer","","","","","","","","","","","","","",""
"learning-instructions","110","572301","0.0-3.0-16.0-0.0","spark_pilot_2","7447","4","19","Male","","","","","","","1251","<p> Good job. Remember to do your best because the amount of treasure you earn will be converted into bonus money. </p>
            <p> It’s time to start the real game! </p>","","instructions","","","","","","","","","","","","","",""
"learning-instructions","111","575800","0.0-4.0-0.0-0.0","spark_pilot_2","7447","4","19","Male","","","","","","","779.4000000059605","<p> This time you are searching for treasure in the <b>ocean</b>.</p>","","instructions","","","","","","","","","","","","","",""
"learning-instructions","112","593735","0.0-4.0-0.0-0.1","spark_pilot_2","7447","4","19","Male","","","","","","","591.2000000029802","<p><b>New</b> animals with <b>new</b> treasure chests live here. You need to explore to discover where the animal with the best treasure chest is.</p>
                    <p> Like before, once you figure out which animal has the chest with the most treasure, you should try to get to that animal and select that chest! </p>","","instructions","","","","","","","","","","","","","",""
"learning-instructions","113","608834","0.0-4.0-1.0-0.0","spark_pilot_2","7447","4","19","Male","","","","","","","365.3999999910593","<p> Remember, when you see a picture of the place, use the up and down keys to <b>find an animal</b>.</p>
            <p> When you encounter an animal, you should use the left and right keys to <b>select a treasure chest</b>.</p>
            <p> Don't forget to look out for the robber! </p>","","instructions","","","","","","","","","","","","","",""
"revaluation","114","614856","0.0-4.0-2.0-0.0","spark_pilot_2","7447","4","19","Male","","false","","","","","[912.4000000059605,363.29999999701977]","./assets/img/ocean/memory/0.jpg","[""ArrowUp"",""ArrowRight""]","value training","ocean","10","{""ArrowUp,ArrowLeft"":26,""ArrowUp,ArrowRight"":10,""ArrowDown,ArrowLeft"":5,""ArrowDown,ArrowRight"":17}","false","ArrowUp,ArrowRight","false","","","revaluation","1","0","","",""
"html-keyboard-response","115","615371","0.0-4.0-2.0-1.0","spark_pilot_2","7447","4","19","Male","","","","","","","null","<div style=""font-size:60px;"">+</div>","null","fixation","","","","","","","","","","","1","","",""
"revaluation","116","621404","0.0-4.0-2.0-0.1","spark_pilot_2","7447","4","19","Male","","false","","","","","[546.9000000059605,445.1000000089407]","./assets/img/ocean/memory/27.jpg","[""ArrowDown"",""ArrowLeft""]","value training","ocean","5","{""ArrowUp,ArrowLeft"":26,""ArrowUp,ArrowRight"":10,""ArrowDown,ArrowLeft"":5,""ArrowDown,ArrowRight"":17}","false","ArrowDown,ArrowLeft","false","","","revaluation","1","2","","",""
"html-keyboard-response","117","621915","0.0-4.0-2.0-1.1","spark_pilot_2","7447","4","19","Male","","","","","","","null","<div style=""font-size:60px;"">+</div>","null","fixation","","","","","","","","","","","3","","",""
"revaluation","118","627944","0.0-4.0-2.0-0.2","spark_pilot_2","7447","4","19","Male","","false","","","","","[621.3000000119209,512.2000000029802]","./assets/img/ocean/memory/3.jpg","[""ArrowUp"",""ArrowRight""]","value training","ocean","10","{""ArrowUp,ArrowLeft"":26,""ArrowUp,ArrowRight"":10,""ArrowDown,ArrowLeft"":5,""ArrowDown,ArrowRight"":17}","false","ArrowUp,ArrowRight","false","","","revaluation","1","4","","",""
"html-keyboard-response","119","628447","0.0-4.0-2.0-1.2","spark_pilot_2","7447","4","19","Male","","","","","","","null","<div style=""font-size:60px;"">+</div>","null","fixation","","","","","","","","","","","5","","",""
"revaluation","120","634475","0.0-4.0-2.0-0.3","spark_pilot_2","7447","4","19","Male","","false","","","","","[297,428.19999998807907]","./assets/img/ocean/memory/37.jpg","[""ArrowUp"",""ArrowLeft""]","value training","ocean","26","{""ArrowUp,ArrowLeft"":26,""ArrowUp,ArrowRight"":10,""ArrowDown,ArrowLeft"":5,""ArrowDown,ArrowRight"":17}","true","ArrowUp,ArrowLeft","false","","","revaluation","1","6","","",""
"html-keyboard-response","121","634986","0.0-4.0-2.0-1.3","spark_pilot_2","7447","4","19","Male","","","","","","","null","<div style=""font-size:60px;"">+</div>","null","fixation","","","","","","","","","","","7","","",""
"revaluation","122","639010","0.0-4.0-2.0-0.4","spark_pilot_2","7447","4","19","Male","","false","","","","","[360.29999999701977]","./assets/img/ocean/catch/1.jpg","[""ArrowDown""]","value training","ocean","-10","{""ArrowUp,ArrowLeft"":26,""ArrowUp,ArrowRight"":10,""ArrowDown,ArrowLeft"":5,""ArrowDown,ArrowRight"":17}","false","ArrowDown","true","","","revaluation","1","8","","",""
"html-keyboard-response","123","639520","0.0-4.0-2.0-1.4","spark_pilot_2","7447","4","19","Male","","","","","","","null","<div style=""font-size:60px;"">+</div>","null","fixation","","","","","","","","","","","9","","",""
"revaluation","124","645546","0.0-4.0-2.0-0.5","spark_pilot_2","7447","4","19","Male","","false","","","","","[682.2999999970198,376.09999999403954]","./assets/img/ocean/memory/2.jpg","[""ArrowDown"",""ArrowRight""]","value training","ocean","17","{""ArrowUp,ArrowLeft"":26,""ArrowUp,ArrowRight"":10,""ArrowDown,ArrowLeft"":5,""ArrowDown,ArrowRight"":17}","false","ArrowDown,ArrowRight","false","","","revaluation","1","10","","",""
"html-keyboard-response","125","646056","0.0-4.0-2.0-1.5","spark_pilot_2","7447","4","19","Male","","","","","","","null","<div style=""font-size:60px;"">+</div>","null","fixation","","","","","","","","","","","11","","",""
"revaluation","126","652082","0.0-4.0-2.0-0.6","spark_pilot_2","7447","4","19","Male","","false","","","","","[594.4000000059605,460.3999999910593]","./assets/img/ocean/memory/36.jpg","[""ArrowUp"",""ArrowLeft""]","value training","ocean","26","{""ArrowUp,ArrowLeft"":26,""ArrowUp,ArrowRight"":10,""ArrowDown,ArrowLeft"":5,""ArrowDown,ArrowRight"":17}","true","ArrowUp,ArrowLeft","false","","","revaluation","1","12","","",""
"html-keyboard-response","127","652592","0.0-4.0-2.0-1.6","spark_pilot_2","7447","4","19","Male","","","","","","","null","<div style=""font-size:60px;"">+</div>","null","fixation","","","","","","","","","","","13","","",""
"revaluation","128","658618","0.0-4.0-2.0-0.7","spark_pilot_2","7447","4","19","Male","","false","","","","","[681.7000000029802,407]","./assets/img/ocean/memory/4.jpg","[""ArrowUp"",""ArrowLeft""]","value training","ocean","26","{""ArrowUp,ArrowLeft"":26,""ArrowUp,ArrowRight"":10,""ArrowDown,ArrowLeft"":5,""ArrowDown,ArrowRight"":17}","true","ArrowUp,ArrowLeft","false","","","revaluation","1","14","","",""
"html-keyboard-response","129","659129","0.0-4.0-2.0-1.7","spark_pilot_2","7447","4","19","Male","","","","","","","null","<div style=""font-size:60px;"">+</div>","null","fixation","","","","","","","","","","","15","","",""
"revaluation","130","665155","0.0-4.0-2.0-0.8","spark_pilot_2","7447","4","19","Male","","false","","","","","[531.3999999910593,401.5]","./assets/img/ocean/memory/37.jpg","[""ArrowUp"",""ArrowLeft""]","value training","ocean","26","{""ArrowUp,ArrowLeft"":26,""ArrowUp,ArrowRight"":10,""ArrowDown,ArrowLeft"":5,""ArrowDown,ArrowRight"":17}","true","ArrowUp,ArrowLeft","false","","","revaluation","1","16","","",""
"html-keyboard-response","131","665665","0.0-4.0-2.0-1.8","spark_pilot_2","7447","4","19","Male","","","","","","","null","<div style=""font-size:60px;"">+</div>","null","fixation","","","","","","","","","","","17","","",""
"revaluation","132","669682","0.0-4.0-2.0-0.9","spark_pilot_2","7447","4","19","Male","","false","","","","","[636.7000000029802]","./assets/img/ocean/catch/3.jpg","[""spaceBar""]","value training","ocean","0","{""ArrowUp,ArrowLeft"":26,""ArrowUp,ArrowRight"":10,""ArrowDown,ArrowLeft"":5,""ArrowDown,ArrowRight"":17}","true","spaceBar","true","","","revaluation","1","18","","",""
"html-keyboard-response","133","670193","0.0-4.0-2.0-1.9","spark_pilot_2","7447","4","19","Male","","","","","","","null","<div style=""font-size:60px;"">+</div>","null","fixation","","","","","","","","","","","19","","",""
"revaluation","134","676218","0.0-4.0-2.0-0.10","spark_pilot_2","7447","4","19","Male","","false","","","","","[754.0999999940395,492.70000000298023]","./assets/img/ocean/memory/31.jpg","[""ArrowUp"",""ArrowLeft""]","value training","ocean","26","{""ArrowUp,ArrowLeft"":26,""ArrowUp,ArrowRight"":10,""ArrowDown,ArrowLeft"":5,""ArrowDown,ArrowRight"":17}","true","ArrowUp,ArrowLeft","false","","","revaluation","1","20","","",""
"html-keyboard-response","135","676729","0.0-4.0-2.0-1.10","spark_pilot_2","7447","4","19","Male","","","","","","","null","<div style=""font-size:60px;"">+</div>","null","fixation","","","","","","","","","","","21","","",""
"revaluation","136","680752","0.0-4.0-2.0-0.11","spark_pilot_2","7447","4","19","Male","","false","","","","","[816.2000000029802]","./assets/img/ocean/catch/2.jpg","[""spaceBar""]","value training","ocean","0","{""ArrowUp,ArrowLeft"":26,""ArrowUp,ArrowRight"":10,""ArrowDown,ArrowLeft"":5,""ArrowDown,ArrowRight"":17}","true","spaceBar","true","","","revaluation","1","22","","",""
"html-keyboard-response","137","681263","0.0-4.0-2.0-1.11","spark_pilot_2","7447","4","19","Male","","","","","","","null","<div style=""font-size:60px;"">+</div>","null","fixation","","","","","","","","","","","23","","",""
"revaluation","138","687289","0.0-4.0-2.0-0.12","spark_pilot_2","7447","4","19","Male","","false","","","","","[1396.9000000059605,402.1000000089407]","./assets/img/ocean/memory/24.jpg","[""ArrowUp"",""ArrowLeft""]","value training","ocean","26","{""ArrowUp,ArrowLeft"":26,""ArrowUp,ArrowRight"":10,""ArrowDown,ArrowLeft"":5,""ArrowDown,ArrowRight"":17}","true","ArrowUp,ArrowLeft","false","","","revaluation","1","24","","",""
"html-keyboard-response","139","687799","0.0-4.0-2.0-1.12","spark_pilot_2","7447","4","19","Male","","","","","","","null","<div style=""font-size:60px;"">+</div>","null","fixation","","","","","","","","","","","25","","",""
"revaluation","140","693825","0.0-4.0-2.0-0.13","spark_pilot_2","7447","4","19","Male","","false","","","","","[1032.6000000089407,1438.5]","./assets/img/ocean/memory/26.jpg","[""ArrowUp"",""ArrowLeft""]","value training","ocean","26","{""ArrowUp,ArrowLeft"":26,""ArrowUp,ArrowRight"":10,""ArrowDown,ArrowLeft"":5,""ArrowDown,ArrowRight"":17}","true","ArrowUp,ArrowLeft","false","","","revaluation","1","26","","",""
"html-keyboard-response","141","694335","0.0-4.0-2.0-1.13","spark_pilot_2","7447","4","19","Male","","","","","","","null","<div style=""font-size:60px;"">+</div>","null","fixation","","","","","","","","","","","27","","",""
"revaluation","142","700361","0.0-4.0-2.0-0.14","spark_pilot_2","7447","4","19","Male","","false","","","","","[833.3999999910593,397.29999999701977]","./assets/img/ocean/memory/0.jpg","[""ArrowUp"",""ArrowLeft""]","value training","ocean","26","{""ArrowUp,ArrowLeft"":26,""ArrowUp,ArrowRight"":10,""ArrowDown,ArrowLeft"":5,""ArrowDown,ArrowRight"":17}","true","ArrowUp,ArrowLeft","false","","","revaluation","1","28","","",""
"html-keyboard-response","143","700871","0.0-4.0-2.0-1.14","spark_pilot_2","7447","4","19","Male","","","","","","","null","<div style=""font-size:60px;"">+</div>","null","fixation","","","","","","","","","","","29","","",""
"revaluation","144","706897","0.0-4.0-2.0-0.15","spark_pilot_2","7447","4","19","Male","","false","","","","","[566.5999999940395,300.19999998807907]","./assets/img/ocean/memory/8.jpg","[""ArrowUp"",""ArrowLeft""]","value training","ocean","26","{""ArrowUp,ArrowLeft"":26,""ArrowUp,ArrowRight"":10,""ArrowDown,ArrowLeft"":5,""ArrowDown,ArrowRight"":17}","true","ArrowUp,ArrowLeft","false","","","revaluation","1","30","","",""
"html-keyboard-response","145","707408","0.0-4.0-2.0-1.15","spark_pilot_2","7447","4","19","Male","","","","","","","null","<div style=""font-size:60px;"">+</div>","null","fixation","","","","","","","","","","","31","","",""
"revaluation","146","711425","0.0-4.0-2.0-0.16","spark_pilot_2","7447","4","19","Male","","false","","","","","[712.2000000029802]","./assets/img/ocean/catch/5.jpg","[""spaceBar""]","value training","ocean","0","{""ArrowUp,ArrowLeft"":26,""ArrowUp,ArrowRight"":10,""ArrowDown,ArrowLeft"":5,""ArrowDown,ArrowRight"":17}","true","spaceBar","true","","","revaluation","1","32","","",""
"html-keyboard-response","147","711935","0.0-4.0-2.0-1.16","spark_pilot_2","7447","4","19","Male","","","","","","","null","<div style=""font-size:60px;"">+</div>","null","fixation","","","","","","","","","","","33","","",""
"revaluation","148","717961","0.0-4.0-2.0-0.17","spark_pilot_2","7447","4","19","Male","","false","","","","","[751.4000000059605,455.29999999701977]","./assets/img/ocean/memory/29.jpg","[""ArrowUp"",""ArrowLeft""]","value training","ocean","26","{""ArrowUp,ArrowLeft"":26,""ArrowUp,ArrowRight"":10,""ArrowDown,ArrowLeft"":5,""ArrowDown,ArrowRight"":17}","true","ArrowUp,ArrowLeft","false","","","revaluation","1","34","","",""
"html-keyboard-response","149","718472","0.0-4.0-2.0-1.17","spark_pilot_2","7447","4","19","Male","","","","","","","null","<div style=""font-size:60px;"">+</div>","null","fixation","","","","","","","","","","","35","","",""
"revaluation","150","724497","0.0-4.0-2.0-0.18","spark_pilot_2","7447","4","19","Male","","false","","","","","[730.7999999970198,468]","./assets/img/ocean/memory/19.jpg","[""ArrowUp"",""ArrowLeft""]","value training","ocean","26","{""ArrowUp,ArrowLeft"":26,""ArrowUp,ArrowRight"":10,""ArrowDown,ArrowLeft"":5,""ArrowDown,ArrowRight"":17}","true","ArrowUp,ArrowLeft","false","","","revaluation","1","36","","",""
"html-keyboard-response","151","725008","0.0-4.0-2.0-1.18","spark_pilot_2","7447","4","19","Male","","","","","","","null","<div style=""font-size:60px;"">+</div>","null","fixation","","","","","","","","","","","37","","",""
"revaluation","152","731028","0.0-4.0-2.0-0.19","spark_pilot_2","7447","4","19","Male","","false","","","","","[802,381.90000000596046]","./assets/img/ocean/memory/30.jpg","[""ArrowUp"",""ArrowLeft""]","value training","ocean","26","{""ArrowUp,ArrowLeft"":26,""ArrowUp,ArrowRight"":10,""ArrowDown,ArrowLeft"":5,""ArrowDown,ArrowRight"":17}","true","ArrowUp,ArrowLeft","false","","","revaluation","1","38","","",""
"html-keyboard-response","153","731533","0.0-4.0-2.0-1.19","spark_pilot_2","7447","4","19","Male","","","","","","","null","<div style=""font-size:60px;"">+</div>","null","fixation","","","","","","","","","","","39","","",""
"revaluation","154","737559","0.0-4.0-2.0-0.20","spark_pilot_2","7447","4","19","Male","","false","","","","","[712.7999999970198,375.59999999403954]","./assets/img/ocean/memory/28.jpg","[""ArrowUp"",""ArrowLeft""]","value training","ocean","26","{""ArrowUp,ArrowLeft"":26,""ArrowUp,ArrowRight"":10,""ArrowDown,ArrowLeft"":5,""ArrowDown,ArrowRight"":17}","true","ArrowUp,ArrowLeft","false","","","revaluation","1","40","","",""
"html-keyboard-response","155","738069","0.0-4.0-2.0-1.20","spark_pilot_2","7447","4","19","Male","","","","","","","null","<div style=""font-size:60px;"">+</div>","null","fixation","","","","","","","","","","","41","","",""
"revaluation","156","744095","0.0-4.0-2.0-0.21","spark_pilot_2","7447","4","19","Male","","false","","","","","[811.7999999970198,441.5]","./assets/img/ocean/memory/12.jpg","[""ArrowUp"",""ArrowLeft""]","value training","ocean","26","{""ArrowUp,ArrowLeft"":26,""ArrowUp,ArrowRight"":10,""ArrowDown,ArrowLeft"":5,""ArrowDown,ArrowRight"":17}","true","ArrowUp,ArrowLeft","false","","","revaluation","1","42","","",""
"html-keyboard-response","157","744605","0.0-4.0-2.0-1.21","spark_pilot_2","7447","4","19","Male","","","","","","","null","<div style=""font-size:60px;"">+</div>","null","fixation","","","","","","","","","","","43","","",""
"revaluation","158","750631","0.0-4.0-2.0-0.22","spark_pilot_2","7447","4","19","Male","","false","","","","","[1247.2999999970198,366.20000000298023]","./assets/img/ocean/memory/34.jpg","[""ArrowUp"",""ArrowLeft""]","value training","ocean","26","{""ArrowUp,ArrowLeft"":26,""ArrowUp,ArrowRight"":10,""ArrowDown,ArrowLeft"":5,""ArrowDown,ArrowRight"":17}","true","ArrowUp,ArrowLeft","false","","","revaluation","1","44","","",""
"html-keyboard-response","159","751143","0.0-4.0-2.0-1.22","spark_pilot_2","7447","4","19","Male","","","","","","","null","<div style=""font-size:60px;"">+</div>","null","fixation","","","","","","","","","","","45","","",""
"revaluation","160","757167","0.0-4.0-2.0-0.23","spark_pilot_2","7447","4","19","Male","","false","","","","","[687.0999999940395,383.6000000089407]","./assets/img/ocean/memory/2.jpg","[""ArrowUp"",""ArrowLeft""]","value training","ocean","26","{""ArrowUp,ArrowLeft"":26,""ArrowUp,ArrowRight"":10,""ArrowDown,ArrowLeft"":5,""ArrowDown,ArrowRight"":17}","true","ArrowUp,ArrowLeft","false","","","revaluation","1","46","","",""
"html-keyboard-response","161","757678","0.0-4.0-2.0-1.23","spark_pilot_2","7447","4","19","Male","","","","","","","null","<div style=""font-size:60px;"">+</div>","null","fixation","","","","","","","","","","","47","","",""
"revaluation","162","763703","0.0-4.0-2.0-0.24","spark_pilot_2","7447","4","19","Male","","false","","","","","[620.5,351.90000000596046]","./assets/img/ocean/memory/1.jpg","[""ArrowUp"",""ArrowLeft""]","value training","ocean","26","{""ArrowUp,ArrowLeft"":26,""ArrowUp,ArrowRight"":10,""ArrowDown,ArrowLeft"":5,""ArrowDown,ArrowRight"":17}","true","ArrowUp,ArrowLeft","false","","","revaluation","1","48","","",""
"html-keyboard-response","163","764214","0.0-4.0-2.0-1.24","spark_pilot_2","7447","4","19","Male","","","","","","","null","<div style=""font-size:60px;"">+</div>","null","fixation","","","","","","","","","","","49","","",""
"revaluation","164","768231","0.0-4.0-2.0-0.25","spark_pilot_2","7447","4","19","Male","","false","","","","","[716.5]","./assets/img/ocean/catch/7.jpg","[""spaceBar""]","value training","ocean","0","{""ArrowUp,ArrowLeft"":26,""ArrowUp,ArrowRight"":10,""ArrowDown,ArrowLeft"":5,""ArrowDown,ArrowRight"":17}","true","spaceBar","true","","","revaluation","1","50","","",""
"html-keyboard-response","165","768742","0.0-4.0-2.0-1.25","spark_pilot_2","7447","4","19","Male","","","","","","","null","<div style=""font-size:60px;"">+</div>","null","fixation","","","","","","","","","","","51","","",""
"revaluation","166","774768","0.0-4.0-2.0-0.26","spark_pilot_2","7447","4","19","Male","","false","","","","","[876.7000000029802,430.29999999701977]","./assets/img/ocean/memory/23.jpg","[""ArrowUp"",""ArrowLeft""]","value training","ocean","26","{""ArrowUp,ArrowLeft"":26,""ArrowUp,ArrowRight"":10,""ArrowDown,ArrowLeft"":5,""ArrowDown,ArrowRight"":17}","true","ArrowUp,ArrowLeft","false","","","revaluation","1","52","","",""
"html-keyboard-response","167","775278","0.0-4.0-2.0-1.26","spark_pilot_2","7447","4","19","Male","","","","","","","null","<div style=""font-size:60px;"">+</div>","null","fixation","","","","","","","","","","","53","","",""
"revaluation","168","781300","0.0-4.0-2.0-0.27","spark_pilot_2","7447","4","19","Male","","false","","","","","[739.5,312.5]","./assets/img/ocean/memory/36.jpg","[""ArrowUp"",""ArrowLeft""]","value training","ocean","26","{""ArrowUp,ArrowLeft"":26,""ArrowUp,ArrowRight"":10,""ArrowDown,ArrowLeft"":5,""ArrowDown,ArrowRight"":17}","true","ArrowUp,ArrowLeft","false","","","revaluation","1","54","","",""
"html-keyboard-response","169","781802","0.0-4.0-2.0-1.27","spark_pilot_2","7447","4","19","Male","","","","","","","null","<div style=""font-size:60px;"">+</div>","null","fixation","","","","","","","","","","","55","","",""
"revaluation","170","787828","0.0-4.0-2.0-0.28","spark_pilot_2","7447","4","19","Male","","false","","","","","[732.7999999970198,340.30000001192093]","./assets/img/ocean/memory/33.jpg","[""ArrowUp"",""ArrowLeft""]","value training","ocean","26","{""ArrowUp,ArrowLeft"":26,""ArrowUp,ArrowRight"":10,""ArrowDown,ArrowLeft"":5,""ArrowDown,ArrowRight"":17}","true","ArrowUp,ArrowLeft","false","","","revaluation","1","56","","",""
"html-keyboard-response","171","788333","0.0-4.0-2.0-1.28","spark_pilot_2","7447","4","19","Male","","","","","","","null","<div style=""font-size:60px;"">+</div>","null","fixation","","","","","","","","","","","57","","",""
"revaluation","172","794359","0.0-4.0-2.0-0.29","spark_pilot_2","7447","4","19","Male","","false","","","","","[1293.9000000059605,343.70000000298023]","./assets/img/ocean/memory/33.jpg","[""ArrowUp"",""ArrowLeft""]","value training","ocean","26","{""ArrowUp,ArrowLeft"":26,""ArrowUp,ArrowRight"":10,""ArrowDown,ArrowLeft"":5,""ArrowDown,ArrowRight"":17}","true","ArrowUp,ArrowLeft","false","","","revaluation","1","58","","",""
"html-keyboard-response","173","794869","0.0-4.0-2.0-1.29","spark_pilot_2","7447","4","19","Male","","","","","","","null","<div style=""font-size:60px;"">+</div>","null","fixation","","","","","","","","","","","59","","",""
"revaluation","174","798887","0.0-4.0-2.0-0.30","spark_pilot_2","7447","4","19","Male","","false","","","","","[618]","./assets/img/ocean/catch/6.jpg","[""spaceBar""]","value training","ocean","0","{""ArrowUp,ArrowLeft"":26,""ArrowUp,ArrowRight"":10,""ArrowDown,ArrowLeft"":5,""ArrowDown,ArrowRight"":17}","true","spaceBar","true","","","revaluation","1","60","","",""
"html-keyboard-response","175","799397","0.0-4.0-2.0-1.30","spark_pilot_2","7447","4","19","Male","","","","","","","null","<div style=""font-size:60px;"">+</div>","null","fixation","","","","","","","","","","","61","","",""
"revaluation","176","805423","0.0-4.0-2.0-0.31","spark_pilot_2","7447","4","19","Male","","false","","","","","[683.2999999970198,598.9000000059605]","./assets/img/ocean/memory/1.jpg","[""ArrowUp"",""ArrowLeft""]","value training","ocean","26","{""ArrowUp,ArrowLeft"":26,""ArrowUp,ArrowRight"":10,""ArrowDown,ArrowLeft"":5,""ArrowDown,ArrowRight"":17}","true","ArrowUp,ArrowLeft","false","","","revaluation","1","62","","",""
"html-keyboard-response","177","805933","0.0-4.0-2.0-1.31","spark_pilot_2","7447","4","19","Male","","","","","","","null","<div style=""font-size:60px;"">+</div>","null","fixation","","","","","","","","","","","63","","",""
"revaluation","178","811959","0.0-4.0-2.0-0.32","spark_pilot_2","7447","4","19","Male","","false","","","","","[684.5,373.29999999701977]","./assets/img/ocean/memory/12.jpg","[""ArrowUp"",""ArrowLeft""]","value training","ocean","26","{""ArrowUp,ArrowLeft"":26,""ArrowUp,ArrowRight"":10,""ArrowDown,ArrowLeft"":5,""ArrowDown,ArrowRight"":17}","true","ArrowUp,ArrowLeft","false","","","revaluation","1","64","","",""
"html-keyboard-response","179","812470","0.0-4.0-2.0-1.32","spark_pilot_2","7447","4","19","Male","","","","","","","null","<div style=""font-size:60px;"">+</div>","null","fixation","","","","","","","","","","","65","","",""
"revaluation","180","818495","0.0-4.0-2.0-0.33","spark_pilot_2","7447","4","19","Male","","false","","","","","[618.5999999940395,422.79999999701977]","./assets/img/ocean/memory/17.jpg","[""ArrowUp"",""ArrowLeft""]","value training","ocean","26","{""ArrowUp,ArrowLeft"":26,""ArrowUp,ArrowRight"":10,""ArrowDown,ArrowLeft"":5,""ArrowDown,ArrowRight"":17}","true","ArrowUp,ArrowLeft","false","","","revaluation","1","66","","",""
"html-keyboard-response","181","819006","0.0-4.0-2.0-1.33","spark_pilot_2","7447","4","19","Male","","","","","","","null","<div style=""font-size:60px;"">+</div>","null","fixation","","","","","","","","","","","67","","",""
"revaluation","182","825038","0.0-4.0-2.0-0.34","spark_pilot_2","7447","4","19","Male","","false","","","","","[652.7000000029802,300.20000000298023]","./assets/img/ocean/memory/4.jpg","[""ArrowUp"",""ArrowLeft""]","value training","ocean","26","{""ArrowUp,ArrowLeft"":26,""ArrowUp,ArrowRight"":10,""ArrowDown,ArrowLeft"":5,""ArrowDown,ArrowRight"":17}","true","ArrowUp,ArrowLeft","false","","","revaluation","1","68","","",""
"html-keyboard-response","183","825548","0.0-4.0-2.0-1.34","spark_pilot_2","7447","4","19","Male","","","","","","","null","<div style=""font-size:60px;"">+</div>","null","fixation","","","","","","","","","","","69","","",""
"revaluation","184","829565","0.0-4.0-2.0-0.35","spark_pilot_2","7447","4","19","Male","","false","","","","","[905.7999999970198]","./assets/img/ocean/catch/0.jpg","[""spaceBar""]","value training","ocean","0","{""ArrowUp,ArrowLeft"":26,""ArrowUp,ArrowRight"":10,""ArrowDown,ArrowLeft"":5,""ArrowDown,ArrowRight"":17}","true","spaceBar","true","","","revaluation","1","70","","",""
"html-keyboard-response","185","830076","0.0-4.0-2.0-1.35","spark_pilot_2","7447","4","19","Male","","","","","","","null","<div style=""font-size:60px;"">+</div>","null","fixation","","","","","","","","","","","71","","",""
"revaluation","186","836102","0.0-4.0-2.0-0.36","spark_pilot_2","7447","4","19","Male","","false","","","","","[965.9000000059605,794.6000000089407]","./assets/img/ocean/memory/24.jpg","[""ArrowUp"",""ArrowLeft""]","value training","ocean","26","{""ArrowUp,ArrowLeft"":26,""ArrowUp,ArrowRight"":10,""ArrowDown,ArrowLeft"":5,""ArrowDown,ArrowRight"":17}","true","ArrowUp,ArrowLeft","false","","","revaluation","1","72","","",""
"html-keyboard-response","187","836612","0.0-4.0-2.0-1.36","spark_pilot_2","7447","4","19","Male","","","","","","","null","<div style=""font-size:60px;"">+</div>","null","fixation","","","","","","","","","","","73","","",""
"revaluation","188","842638","0.0-4.0-2.0-0.37","spark_pilot_2","7447","4","19","Male","","false","","","","","[669.8999999910593,860.8999999910593]","./assets/img/ocean/memory/29.jpg","[""ArrowUp"",""ArrowLeft""]","value training","ocean","26","{""ArrowUp,ArrowLeft"":26,""ArrowUp,ArrowRight"":10,""ArrowDown,ArrowLeft"":5,""ArrowDown,ArrowRight"":17}","true","ArrowUp,ArrowLeft","false","","","revaluation","1","74","","",""
"html-keyboard-response","189","843148","0.0-4.0-2.0-1.37","spark_pilot_2","7447","4","19","Male","","","","","","","null","<div style=""font-size:60px;"">+</div>","null","fixation","","","","","","","","","","","75","","",""
"revaluation","190","849174","0.0-4.0-2.0-0.38","spark_pilot_2","7447","4","19","Male","","false","","","","","[731.6000000089407,340.6000000089407]","./assets/img/ocean/memory/3.jpg","[""ArrowUp"",""ArrowLeft""]","value training","ocean","26","{""ArrowUp,ArrowLeft"":26,""ArrowUp,ArrowRight"":10,""ArrowDown,ArrowLeft"":5,""ArrowDown,ArrowRight"":17}","true","ArrowUp,ArrowLeft","false","","","revaluation","1","76","","",""
"html-keyboard-response","191","849684","0.0-4.0-2.0-1.38","spark_pilot_2","7447","4","19","Male","","","","","","","null","<div style=""font-size:60px;"">+</div>","null","fixation","","","","","","","","","","","77","","",""
"revaluation","192","855706","0.0-4.0-2.0-0.39","spark_pilot_2","7447","4","19","Male","","false","","","","","[741.7999999970198,629.5999999940395]","./assets/img/ocean/memory/27.jpg","[""ArrowUp"",""ArrowLeft""]","value training","ocean","26","{""ArrowUp,ArrowLeft"":26,""ArrowUp,ArrowRight"":10,""ArrowDown,ArrowLeft"":5,""ArrowDown,ArrowRight"":17}","true","ArrowUp,ArrowLeft","false","","","revaluation","1","78","","",""
"html-keyboard-response","193","856209","0.0-4.0-2.0-1.39","spark_pilot_2","7447","4","19","Male","","","","","","","null","<div style=""font-size:60px;"">+</div>","null","fixation","","","","","","","","","","","79","","",""
"revaluation","194","862235","0.0-4.0-2.0-0.40","spark_pilot_2","7447","4","19","Male","","false","","","","","[612.2999999970198,624.4000000059605]","./assets/img/ocean/memory/31.jpg","[""ArrowUp"",""ArrowLeft""]","value training","ocean","26","{""ArrowUp,ArrowLeft"":26,""ArrowUp,ArrowRight"":10,""ArrowDown,ArrowLeft"":5,""ArrowDown,ArrowRight"":17}","true","ArrowUp,ArrowLeft","false","","","revaluation","1","80","","",""
"html-keyboard-response","195","862745","0.0-4.0-2.0-1.40","spark_pilot_2","7447","4","19","Male","","","","","","","null","<div style=""font-size:60px;"">+</div>","null","fixation","","","","","","","","","","","81","","",""
"revaluation","196","866763","0.0-4.0-2.0-0.41","spark_pilot_2","7447","4","19","Male","","false","","","","","[650.2000000029802]","./assets/img/ocean/catch/4.jpg","[""spaceBar""]","value training","ocean","0","{""ArrowUp,ArrowLeft"":26,""ArrowUp,ArrowRight"":10,""ArrowDown,ArrowLeft"":5,""ArrowDown,ArrowRight"":17}","true","spaceBar","true","","","revaluation","1","82","","",""
"html-keyboard-response","197","867273","0.0-4.0-2.0-1.41","spark_pilot_2","7447","4","19","Male","","","","","","","null","<div style=""font-size:60px;"">+</div>","null","fixation","","","","","","","","","","","83","","",""
"revaluation","198","873299","0.0-4.0-2.0-0.42","spark_pilot_2","7447","4","19","Male","","false","","","","","[617.2000000029802,437.3999999910593]","./assets/img/ocean/memory/28.jpg","[""ArrowUp"",""ArrowLeft""]","value training","ocean","26","{""ArrowUp,ArrowLeft"":26,""ArrowUp,ArrowRight"":10,""ArrowDown,ArrowLeft"":5,""ArrowDown,ArrowRight"":17}","true","ArrowUp,ArrowLeft","false","","","revaluation","1","84","","",""
"html-keyboard-response","199","873809","0.0-4.0-2.0-1.42","spark_pilot_2","7447","4","19","Male","","","","","","","null","<div style=""font-size:60px;"">+</div>","null","fixation","","","","","","","","","","","85","","",""
"revaluation","200","879835","0.0-4.0-2.0-0.43","spark_pilot_2","7447","4","19","Male","","false","","","","","[560.1999999880791,682.7000000029802]","./assets/img/ocean/memory/17.jpg","[""ArrowUp"",""ArrowLeft""]","value training","ocean","26","{""ArrowUp,ArrowLeft"":26,""ArrowUp,ArrowRight"":10,""ArrowDown,ArrowLeft"":5,""ArrowDown,ArrowRight"":17}","true","ArrowUp,ArrowLeft","false","","","revaluation","1","86","","",""
"html-keyboard-response","201","880346","0.0-4.0-2.0-1.43","spark_pilot_2","7447","4","19","Male","","","","","","","null","<div style=""font-size:60px;"">+</div>","null","fixation","","","","","","","","","","","87","","",""
"revaluation","202","886373","0.0-4.0-2.0-0.44","spark_pilot_2","7447","4","19","Male","","false","","","","","[533,517.9000000059605]","./assets/img/ocean/memory/23.jpg","[""ArrowUp"",""ArrowLeft""]","value training","ocean","26","{""ArrowUp,ArrowLeft"":26,""ArrowUp,ArrowRight"":10,""ArrowDown,ArrowLeft"":5,""ArrowDown,ArrowRight"":17}","true","ArrowUp,ArrowLeft","false","","","revaluation","1","88","","",""
"html-keyboard-response","203","886882","0.0-4.0-2.0-1.44","spark_pilot_2","7447","4","19","Male","","","","","","","null","<div style=""font-size:60px;"">+</div>","null","fixation","","","","","","","","","","","89","","",""
"revaluation","204","892908","0.0-4.0-2.0-0.45","spark_pilot_2","7447","4","19","Male","","false","","","","","[492.20000000298023,567.5]","./assets/img/ocean/memory/34.jpg","[""ArrowUp"",""ArrowLeft""]","value training","ocean","26","{""ArrowUp,ArrowLeft"":26,""ArrowUp,ArrowRight"":10,""ArrowDown,ArrowLeft"":5,""ArrowDown,ArrowRight"":17}","true","ArrowUp,ArrowLeft","false","","","revaluation","1","90","","",""
"html-keyboard-response","205","893418","0.0-4.0-2.0-1.45","spark_pilot_2","7447","4","19","Male","","","","","","","null","<div style=""font-size:60px;"">+</div>","null","fixation","","","","","","","","","","","91","","",""
"revaluation","206","899444","0.0-4.0-2.0-0.46","spark_pilot_2","7447","4","19","Male","","false","","","","","[458,493.29999999701977]","./assets/img/ocean/memory/19.jpg","[""ArrowUp"",""ArrowLeft""]","value training","ocean","26","{""ArrowUp,ArrowLeft"":26,""ArrowUp,ArrowRight"":10,""ArrowDown,ArrowLeft"":5,""ArrowDown,ArrowRight"":17}","true","ArrowUp,ArrowLeft","false","","","revaluation","1","92","","",""
"html-keyboard-response","207","899954","0.0-4.0-2.0-1.46","spark_pilot_2","7447","4","19","Male","","","","","","","null","<div style=""font-size:60px;"">+</div>","null","fixation","","","","","","","","","","","93","","",""
"revaluation","208","905980","0.0-4.0-2.0-0.47","spark_pilot_2","7447","4","19","Male","","false","","","","","[577,379.79999999701977]","./assets/img/ocean/memory/8.jpg","[""ArrowUp"",""ArrowLeft""]","value training","ocean","26","{""ArrowUp,ArrowLeft"":26,""ArrowUp,ArrowRight"":10,""ArrowDown,ArrowLeft"":5,""ArrowDown,ArrowRight"":17}","true","ArrowUp,ArrowLeft","false","","","revaluation","1","94","","",""
"html-keyboard-response","209","906491","0.0-4.0-2.0-1.47","spark_pilot_2","7447","4","19","Male","","","","","","","null","<div style=""font-size:60px;"">+</div>","null","fixation","","","","","","","","","","","95","","",""
"revaluation","210","912516","0.0-4.0-2.0-0.48","spark_pilot_2","7447","4","19","Male","","false","","","","","[721,368.70000000298023]","./assets/img/ocean/memory/30.jpg","[""ArrowUp"",""ArrowLeft""]","value training","ocean","26","{""ArrowUp,ArrowLeft"":26,""ArrowUp,ArrowRight"":10,""ArrowDown,ArrowLeft"":5,""ArrowDown,ArrowRight"":17}","true","ArrowUp,ArrowLeft","false","","","revaluation","1","96","","",""
"html-keyboard-response","211","913027","0.0-4.0-2.0-1.48","spark_pilot_2","7447","4","19","Male","","","","","","","null","<div style=""font-size:60px;"">+</div>","null","fixation","","","","","","","","","","","97","","",""
"revaluation","212","919048","0.0-4.0-2.0-0.49","spark_pilot_2","7447","4","19","Male","","false","","","","","[595.3999999910593,656.5999999940395]","./assets/img/ocean/memory/26.jpg","[""ArrowUp"",""ArrowLeft""]","value training","ocean","26","{""ArrowUp,ArrowLeft"":26,""ArrowUp,ArrowRight"":10,""ArrowDown,ArrowLeft"":5,""ArrowDown,ArrowRight"":17}","true","ArrowUp,ArrowLeft","false","","","revaluation","1","98","","",""
"html-keyboard-response","213","919551","0.0-4.0-2.0-1.49","spark_pilot_2","7447","4","19","Male","","","","","","","null","<div style=""font-size:60px;"">+</div>","null","fixation","","","","","","","","","","","99","","",""
"learning-instructions","214","934368","0.0-4.0-3.0-0.0","spark_pilot_2","7447","4","19","Male","","","","","","","1897.300000011921","<p> Now, you will travel with a friend who will choose whether you go up or down first. </p>
            <p> On these turns, you will just see the animal that they found. You will still get to choose which chest to search for treasure.</p>","","instructions","","","","","","","","","","","","","",""
"revaluation","215","938384","0.0-4.0-4.0-0.0","spark_pilot_2","7447","4","19","Male","","false","","","","","[735.7000000029802]","./assets/img/ocean/animals/seahorse.jpg","[""ArrowRight""]","revaluation","ocean","27","{""ArrowUp,ArrowLeft"":2,""ArrowUp,ArrowRight"":11,""ArrowDown,ArrowLeft"":8,""ArrowDown,ArrowRight"":27}","true","ArrowDown,ArrowRight","","","","revaluation","1","0","","",""
"html-keyboard-response","216","938899","0.0-4.0-4.0-1.0","spark_pilot_2","7447","4","19","Male","","","","","","","null","<div style=""font-size:60px;"">+</div>","null","fixation","","","","","","","","","","","1","","",""
"revaluation","217","942919","0.0-4.0-4.0-0.1","spark_pilot_2","7447","4","19","Male","","false","","","","","[639.0999999940395]","./assets/img/ocean/animals/octopus.jpg","[""ArrowLeft""]","revaluation","ocean","2","{""ArrowUp,ArrowLeft"":2,""ArrowUp,ArrowRight"":11,""ArrowDown,ArrowLeft"":8,""ArrowDown,ArrowRight"":27}","false","ArrowUp,ArrowLeft","","","","revaluation","1","2","","",""
"html-keyboard-response","218","943423","0.0-4.0-4.0-1.1","spark_pilot_2","7447","4","19","Male","","","","","","","null","<div style=""font-size:60px;"">+</div>","null","fixation","","","","","","","","","","","3","","",""
"revaluation","219","947441","0.0-4.0-4.0-0.2","spark_pilot_2","7447","4","19","Male","","false","","","","","[641.6999999880791]","./assets/img/ocean/animals/seahorse.jpg","[""ArrowLeft""]","revaluation","ocean","8","{""ArrowUp,ArrowLeft"":2,""ArrowUp,ArrowRight"":11,""ArrowDown,ArrowLeft"":8,""ArrowDown,ArrowRight"":27}","false","ArrowDown,ArrowLeft","","","","revaluation","1","4","","",""
"html-keyboard-response","220","947955","0.0-4.0-4.0-1.2","spark_pilot_2","7447","4","19","Male","","","","","","","null","<div style=""font-size:60px;"">+</div>","null","fixation","","","","","","","","","","","5","","",""
"revaluation","221","951976","0.0-4.0-4.0-0.3","spark_pilot_2","7447","4","19","Male","","false","","","","","[300.29999999701977]","./assets/img/ocean/animals/octopus.jpg","[""ArrowRight""]","revaluation","ocean","11","{""ArrowUp,ArrowLeft"":2,""ArrowUp,ArrowRight"":11,""ArrowDown,ArrowLeft"":8,""ArrowDown,ArrowRight"":27}","true","ArrowUp,ArrowRight","","","","revaluation","1","6","","",""
"html-keyboard-response","222","952479","0.0-4.0-4.0-1.3","spark_pilot_2","7447","4","19","Male","","","","","","","null","<div style=""font-size:60px;"">+</div>","null","fixation","","","","","","","","","","","7","","",""
"revaluation","223","956495","0.0-4.0-4.0-0.4","spark_pilot_2","7447","4","19","Male","","false","","","","","[386.70000000298023]","./assets/img/ocean/animals/seahorse.jpg","[""ArrowRight""]","revaluation","ocean","27","{""ArrowUp,ArrowLeft"":2,""ArrowUp,ArrowRight"":11,""ArrowDown,ArrowLeft"":8,""ArrowDown,ArrowRight"":27}","true","ArrowDown,ArrowRight","","","","revaluation","1","8","","",""
"html-keyboard-response","224","956999","0.0-4.0-4.0-1.4","spark_pilot_2","7447","4","19","Male","","","","","","","null","<div style=""font-size:60px;"">+</div>","null","fixation","","","","","","","","","","","9","","",""
"revaluation","225","961016","0.0-4.0-4.0-0.5","spark_pilot_2","7447","4","19","Male","","false","","","","","[114.40000000596046]","./assets/img/ocean/animals/octopus.jpg","[""ArrowRight""]","revaluation","ocean","11","{""ArrowUp,ArrowLeft"":2,""ArrowUp,ArrowRight"":11,""ArrowDown,ArrowLeft"":8,""ArrowDown,ArrowRight"":27}","true","ArrowUp,ArrowRight","","","","revaluation","1","10","","",""
"html-keyboard-response","226","961522","0.0-4.0-4.0-1.5","spark_pilot_2","7447","4","19","Male","","","","","","","null","<div style=""font-size:60px;"">+</div>","null","fixation","","","","","","","","","","","11","","",""
"revaluation","227","965536","0.0-4.0-4.0-0.6","spark_pilot_2","7447","4","19","Male","","false","","","","","[325.29999999701977]","./assets/img/ocean/animals/seahorse.jpg","[""ArrowRight""]","revaluation","ocean","27","{""ArrowUp,ArrowLeft"":2,""ArrowUp,ArrowRight"":11,""ArrowDown,ArrowLeft"":8,""ArrowDown,ArrowRight"":27}","true","ArrowDown,ArrowRight","","","","revaluation","1","12","","",""
"html-keyboard-response","228","966046","0.0-4.0-4.0-1.6","spark_pilot_2","7447","4","19","Male","","","","","","","null","<div style=""font-size:60px;"">+</div>","null","fixation","","","","","","","","","","","13","","",""
"revaluation","229","970064","0.0-4.0-4.0-0.7","spark_pilot_2","7447","4","19","Male","","false","","","","","[475.70000000298023]","./assets/img/ocean/animals/octopus.jpg","[""ArrowRight""]","revaluation","ocean","11","{""ArrowUp,ArrowLeft"":2,""ArrowUp,ArrowRight"":11,""ArrowDown,ArrowLeft"":8,""ArrowDown,ArrowRight"":27}","true","ArrowUp,ArrowRight","","","","revaluation","1","14","","",""
"html-keyboard-response","230","970569","0.0-4.0-4.0-1.7","spark_pilot_2","7447","4","19","Male","","","","","","","null","<div style=""font-size:60px;"">+</div>","null","fixation","","","","","","","","","","","15","","",""
"revaluation","231","974586","0.0-4.0-4.0-0.8","spark_pilot_2","7447","4","19","Male","","false","","","","","[1024.5999999940395]","./assets/img/ocean/animals/seahorse.jpg","[""ArrowRight""]","revaluation","ocean","27","{""ArrowUp,ArrowLeft"":2,""ArrowUp,ArrowRight"":11,""ArrowDown,ArrowLeft"":8,""ArrowDown,ArrowRight"":27}","true","ArrowDown,ArrowRight","","","","revaluation","1","16","","",""
"html-keyboard-response","232","975096","0.0-4.0-4.0-1.8","spark_pilot_2","7447","4","19","Male","","","","","","","null","<div style=""font-size:60px;"">+</div>","null","fixation","","","","","","","","","","","17","","",""
"revaluation","233","979114","0.0-4.0-4.0-0.9","spark_pilot_2","7447","4","19","Male","","false","","","","","[377]","./assets/img/ocean/animals/octopus.jpg","[""ArrowRight""]","revaluation","ocean","11","{""ArrowUp,ArrowLeft"":2,""ArrowUp,ArrowRight"":11,""ArrowDown,ArrowLeft"":8,""ArrowDown,ArrowRight"":27}","true","ArrowUp,ArrowRight","","","","revaluation","1","18","","",""
"html-keyboard-response","234","979624","0.0-4.0-4.0-1.9","spark_pilot_2","7447","4","19","Male","","","","","","","null","<div style=""font-size:60px;"">+</div>","null","fixation","","","","","","","","","","","19","","",""
"revaluation","235","983642","0.0-4.0-4.0-0.10","spark_pilot_2","7447","4","19","Male","","false","","","","","[703.5]","./assets/img/ocean/animals/octopus.jpg","[""ArrowRight""]","revaluation","ocean","11","{""ArrowUp,ArrowLeft"":2,""ArrowUp,ArrowRight"":11,""ArrowDown,ArrowLeft"":8,""ArrowDown,ArrowRight"":27}","true","ArrowUp,ArrowRight","","","","revaluation","1","20","","",""
"html-keyboard-response","236","984152","0.0-4.0-4.0-1.10","spark_pilot_2","7447","4","19","Male","","","","","","","null","<div style=""font-size:60px;"">+</div>","null","fixation","","","","","","","","","","","21","","",""
"revaluation","237","988169","0.0-4.0-4.0-0.11","spark_pilot_2","7447","4","19","Male","","false","","","","","[838.4000000059605]","./assets/img/ocean/animals/seahorse.jpg","[""ArrowRight""]","revaluation","ocean","27","{""ArrowUp,ArrowLeft"":2,""ArrowUp,ArrowRight"":11,""ArrowDown,ArrowLeft"":8,""ArrowDown,ArrowRight"":27}","true","ArrowDown,ArrowRight","","","","revaluation","1","22","","",""
"html-keyboard-response","238","988680","0.0-4.0-4.0-1.11","spark_pilot_2","7447","4","19","Male","","","","","","","null","<div style=""font-size:60px;"">+</div>","null","fixation","","","","","","","","","","","23","","",""
"revaluation","239","992697","0.0-4.0-4.0-0.12","spark_pilot_2","7447","4","19","Male","","false","","","","","[812.2999999970198]","./assets/img/ocean/animals/seahorse.jpg","[""ArrowRight""]","revaluation","ocean","27","{""ArrowUp,ArrowLeft"":2,""ArrowUp,ArrowRight"":11,""ArrowDown,ArrowLeft"":8,""ArrowDown,ArrowRight"":27}","true","ArrowDown,ArrowRight","","","","revaluation","1","24","","",""
"html-keyboard-response","240","993207","0.0-4.0-4.0-1.12","spark_pilot_2","7447","4","19","Male","","","","","","","null","<div style=""font-size:60px;"">+</div>","null","fixation","","","","","","","","","","","25","","",""
"revaluation","241","997225","0.0-4.0-4.0-0.13","spark_pilot_2","7447","4","19","Male","","false","","","","","[1059.2000000029802]","./assets/img/ocean/animals/octopus.jpg","[""ArrowRight""]","revaluation","ocean","11","{""ArrowUp,ArrowLeft"":2,""ArrowUp,ArrowRight"":11,""ArrowDown,ArrowLeft"":8,""ArrowDown,ArrowRight"":27}","true","ArrowUp,ArrowRight","","","","revaluation","1","26","","",""
"html-keyboard-response","242","997735","0.0-4.0-4.0-1.13","spark_pilot_2","7447","4","19","Male","","","","","","","null","<div style=""font-size:60px;"">+</div>","null","fixation","","","","","","","","","","","27","","",""
"revaluation","243","1001753","0.0-4.0-4.0-0.14","spark_pilot_2","7447","4","19","Male","","false","","","","","[242.6000000089407]","./assets/img/ocean/animals/octopus.jpg","[""ArrowRight""]","revaluation","ocean","11","{""ArrowUp,ArrowLeft"":2,""ArrowUp,ArrowRight"":11,""ArrowDown,ArrowLeft"":8,""ArrowDown,ArrowRight"":27}","true","ArrowUp,ArrowRight","","","","revaluation","1","28","","",""
"html-keyboard-response","244","1002263","0.0-4.0-4.0-1.14","spark_pilot_2","7447","4","19","Male","","","","","","","null","<div style=""font-size:60px;"">+</div>","null","fixation","","","","","","","","","","","29","","",""
"revaluation","245","1006280","0.0-4.0-4.0-0.15","spark_pilot_2","7447","4","19","Male","","false","","","","","[295]","./assets/img/ocean/animals/seahorse.jpg","[""ArrowRight""]","revaluation","ocean","27","{""ArrowUp,ArrowLeft"":2,""ArrowUp,ArrowRight"":11,""ArrowDown,ArrowLeft"":8,""ArrowDown,ArrowRight"":27}","true","ArrowDown,ArrowRight","","","","revaluation","1","30","","",""
"html-keyboard-response","246","1006791","0.0-4.0-4.0-1.15","spark_pilot_2","7447","4","19","Male","","","","","","","null","<div style=""font-size:60px;"">+</div>","null","fixation","","","","","","","","","","","31","","",""
"revaluation","247","1010808","0.0-4.0-4.0-0.16","spark_pilot_2","7447","4","19","Male","","false","","","","","[79.20000000298023]","./assets/img/ocean/animals/seahorse.jpg","[""ArrowRight""]","revaluation","ocean","27","{""ArrowUp,ArrowLeft"":2,""ArrowUp,ArrowRight"":11,""ArrowDown,ArrowLeft"":8,""ArrowDown,ArrowRight"":27}","true","ArrowDown,ArrowRight","","","","revaluation","1","32","","",""
"html-keyboard-response","248","1011318","0.0-4.0-4.0-1.16","spark_pilot_2","7447","4","19","Male","","","","","","","null","<div style=""font-size:60px;"">+</div>","null","fixation","","","","","","","","","","","33","","",""
"revaluation","249","1015336","0.0-4.0-4.0-0.17","spark_pilot_2","7447","4","19","Male","","false","","","","","[292.59999999403954]","./assets/img/ocean/animals/octopus.jpg","[""ArrowRight""]","revaluation","ocean","11","{""ArrowUp,ArrowLeft"":2,""ArrowUp,ArrowRight"":11,""ArrowDown,ArrowLeft"":8,""ArrowDown,ArrowRight"":27}","true","ArrowUp,ArrowRight","","","","revaluation","1","34","","",""
"html-keyboard-response","250","1015846","0.0-4.0-4.0-1.17","spark_pilot_2","7447","4","19","Male","","","","","","","null","<div style=""font-size:60px;"">+</div>","null","fixation","","","","","","","","","","","35","","",""
"learning-instructions","251","1027918","0.0-4.0-5.0-0.0","spark_pilot_2","7447","4","19","Male","","","","","","","629.2000000029802","<p> Time to play the dot game! </p>
            <p> For one minute, click the red dots on the following screen as they appear. </p>
            <p><b> Don't look away, as you will earn bonus for clicking dots</b>. </p>","","instructions","","","","","","","","","","","","","",""
"revaluation","252","1087931","0.0-4.0-6.0-0.0","spark_pilot_2","7447","4","19","Male","","","","","","","[99,60,36,72,80,72]","","","rest","","60","","","","","0","60000","","","","","",""
"learning-instructions","253","1095152","0.0-4.0-7.0-0.0","spark_pilot_2","7447","4","19","Male","","","","","","","1091.5","<p> You have almost finished this part of the game! </p>
            <p> We are going to ask you to make a few more choices. </p>","","instructions","","","","","","","","","","","","","",""
"learning-instructions","254","1109869","0.0-4.0-7.0-0.1","spark_pilot_2","7447","4","19","Male","","","","","","","744.2000000029802","<p> First, you need to decide whether to go up or down. When you see each picture, use the arrow keys to make your choice. </p>
            <p><b>You will not see which animal you found, but try to get to the one that will give you the most treasure.</b></p>","","instructions","","","","","","","","","","","","","",""
"revaluation","255","1110892","0.0-4.0-8.0-0.0","spark_pilot_2","7447","4","19","Male","","false","","","","","[1021]","./assets/img/ocean/test/3.jpg","[""ArrowUp""]","first stage test","ocean","0","{""ArrowUp,ArrowLeft"":2,""ArrowUp,ArrowRight"":11,""ArrowDown,ArrowLeft"":8,""ArrowDown,ArrowRight"":27}","false","ArrowUp","false","","","revaluation","1","","","",""
"html-keyboard-response","256","1111395","0.0-4.0-8.0-1.0","spark_pilot_2","7447","4","19","Male","","","","","","","null","<div style=""font-size:60px;"">+</div>","null","fixation","","","","","","","","","","","","","",""
"revaluation","257","1112361","0.0-4.0-8.0-0.1","spark_pilot_2","7447","4","19","Male","","false","","","","","[962]","./assets/img/ocean/test/0.jpg","[""ArrowUp""]","first stage test","ocean","0","{""ArrowUp,ArrowLeft"":2,""ArrowUp,ArrowRight"":11,""ArrowDown,ArrowLeft"":8,""ArrowDown,ArrowRight"":27}","false","ArrowUp","false","","","revaluation","1","","","",""
"html-keyboard-response","258","1112866","0.0-4.0-8.0-1.1","spark_pilot_2","7447","4","19","Male","","","","","","","null","<div style=""font-size:60px;"">+</div>","null","fixation","","","","","","","","","","","","","",""
"revaluation","259","1113179","0.0-4.0-8.0-0.2","spark_pilot_2","7447","4","19","Male","","false","","","","","[308.5]","./assets/img/ocean/test/2.jpg","[""ArrowUp""]","first stage test","ocean","0","{""ArrowUp,ArrowLeft"":2,""ArrowUp,ArrowRight"":11,""ArrowDown,ArrowLeft"":8,""ArrowDown,ArrowRight"":27}","false","ArrowUp","false","","","revaluation","1","","","",""
"html-keyboard-response","260","1113683","0.0-4.0-8.0-1.2","spark_pilot_2","7447","4","19","Male","","","","","","","null","<div style=""font-size:60px;"">+</div>","null","fixation","","","","","","","","","","","","","",""
"revaluation","261","1113921","0.0-4.0-8.0-0.3","spark_pilot_2","7447","4","19","Male","","false","","","","","[233.70000000298023]","./assets/img/ocean/test/1.jpg","[""ArrowUp""]","first stage test","ocean","0","{""ArrowUp,ArrowLeft"":2,""ArrowUp,ArrowRight"":11,""ArrowDown,ArrowLeft"":8,""ArrowDown,ArrowRight"":27}","false","ArrowUp","false","","","revaluation","1","","","",""
"html-keyboard-response","262","1114426","0.0-4.0-8.0-1.3","spark_pilot_2","7447","4","19","Male","","","","","","","null","<div style=""font-size:60px;"">+</div>","null","fixation","","","","","","","","","","","","","",""
"learning-instructions","263","1126169","0.0-4.0-9.0-0.0","spark_pilot_2","7447","4","19","Male","","","","","","","401.6000000089407","<p> Now you will see the animals again and can search their chests for treasure. </p>
            <p> This time, you will not see how much treasure you earned, but you will earn more bonus money for making better choices. </p>","","instructions","","","","","","","","","","","","","",""
"revaluation","264","1126798","0.0-4.0-10.0-0.0","spark_pilot_2","7447","4","19","Male","","false","","","","","[626.5]","./assets/img/ocean/animals/octopus.jpg","[""ArrowLeft""]","second stage test","ocean","0","{""ArrowUp,ArrowLeft"":2,""ArrowUp,ArrowRight"":11,""ArrowDown,ArrowLeft"":8,""ArrowDown,ArrowRight"":27}","false","ArrowUp,ArrowLeft","","","","revaluation","1","","","",""
"html-keyboard-response","265","1127311","0.0-4.0-10.0-1.0","spark_pilot_2","7447","4","19","Male","","","","","","","null","<div style=""font-size:60px;"">+</div>","null","fixation","","","","","","","","","","","","","",""
"revaluation","266","1127728","0.0-4.0-10.0-0.1","spark_pilot_2","7447","4","19","Male","","false","","","","","[412.6000000089407]","./assets/img/ocean/animals/octopus.jpg","[""ArrowLeft""]","second stage test","ocean","0","{""ArrowUp,ArrowLeft"":2,""ArrowUp,ArrowRight"":11,""ArrowDown,ArrowLeft"":8,""ArrowDown,ArrowRight"":27}","false","ArrowUp,ArrowLeft","","","","revaluation","1","","","",""
"html-keyboard-response","267","1128239","0.0-4.0-10.0-1.1","spark_pilot_2","7447","4","19","Male","","","","","","","null","<div style=""font-size:60px;"">+</div>","null","fixation","","","","","","","","","","","","","",""
"revaluation","268","1128599","0.0-4.0-10.0-0.2","spark_pilot_2","7447","4","19","Male","","false","","","","","[356.6000000089407]","./assets/img/ocean/animals/octopus.jpg","[""ArrowLeft""]","second stage test","ocean","0","{""ArrowUp,ArrowLeft"":2,""ArrowUp,ArrowRight"":11,""ArrowDown,ArrowLeft"":8,""ArrowDown,ArrowRight"":27}","false","ArrowUp,ArrowLeft","","","","revaluation","1","","","",""
"html-keyboard-response","269","1129109","0.0-4.0-10.0-1.2","spark_pilot_2","7447","4","19","Male","","","","","","","null","<div style=""font-size:60px;"">+</div>","null","fixation","","","","","","","","","","","","","",""
"revaluation","270","1129466","0.0-4.0-10.0-0.3","spark_pilot_2","7447","4","19","Male","","false","","","","","[353]","./assets/img/ocean/animals/octopus.jpg","[""ArrowLeft""]","second stage test","ocean","0","{""ArrowUp,ArrowLeft"":2,""ArrowUp,ArrowRight"":11,""ArrowDown,ArrowLeft"":8,""ArrowDown,ArrowRight"":27}","false","ArrowUp,ArrowLeft","","","","revaluation","1","","","",""
"html-keyboard-response","271","1129975","0.0-4.0-10.0-1.3","spark_pilot_2","7447","4","19","Male","","","","","","","null","<div style=""font-size:60px;"">+</div>","null","fixation","","","","","","","","","","","","","",""
"revaluation","272","1130435","0.0-4.0-10.0-0.4","spark_pilot_2","7447","4","19","Male","","false","","","","","[456]","./assets/img/ocean/animals/seahorse.jpg","[""ArrowRight""]","second stage test","ocean","0","{""ArrowUp,ArrowLeft"":2,""ArrowUp,ArrowRight"":11,""ArrowDown,ArrowLeft"":8,""ArrowDown,ArrowRight"":27}","true","ArrowDown,ArrowRight","","","","revaluation","1","","","",""
"html-keyboard-response","273","1130938","0.0-4.0-10.0-1.4","spark_pilot_2","7447","4","19","Male","","","","","","","null","<div style=""font-size:60px;"">+</div>","null","fixation","","","","","","","","","","","","","",""
"revaluation","274","1131285","0.0-4.0-10.0-0.5","spark_pilot_2","7447","4","19","Male","","false","","","","","[342.29999999701977]","./assets/img/ocean/animals/seahorse.jpg","[""ArrowRight""]","second stage test","ocean","0","{""ArrowUp,ArrowLeft"":2,""ArrowUp,ArrowRight"":11,""ArrowDown,ArrowLeft"":8,""ArrowDown,ArrowRight"":27}","true","ArrowDown,ArrowRight","","","","revaluation","1","","","",""
"html-keyboard-response","275","1131787","0.0-4.0-10.0-1.5","spark_pilot_2","7447","4","19","Male","","","","","","","null","<div style=""font-size:60px;"">+</div>","null","fixation","","","","","","","","","","","","","",""
"revaluation","276","1132110","0.0-4.0-10.0-0.6","spark_pilot_2","7447","4","19","Male","","false","","","","","[319.40000000596046]","./assets/img/ocean/animals/seahorse.jpg","[""ArrowRight""]","second stage test","ocean","0","{""ArrowUp,ArrowLeft"":2,""ArrowUp,ArrowRight"":11,""ArrowDown,ArrowLeft"":8,""ArrowDown,ArrowRight"":27}","true","ArrowDown,ArrowRight","","","","revaluation","1","","","",""
"html-keyboard-response","277","1132619","0.0-4.0-10.0-1.6","spark_pilot_2","7447","4","19","Male","","","","","","","null","<div style=""font-size:60px;"">+</div>","null","fixation","","","","","","","","","","","","","",""
"revaluation","278","1132941","0.0-4.0-10.0-0.7","spark_pilot_2","7447","4","19","Male","","false","","","","","[318.29999999701977]","./assets/img/ocean/animals/seahorse.jpg","[""ArrowRight""]","second stage test","ocean","0","{""ArrowUp,ArrowLeft"":2,""ArrowUp,ArrowRight"":11,""ArrowDown,ArrowLeft"":8,""ArrowDown,ArrowRight"":27}","true","ArrowDown,ArrowRight","","","","revaluation","1","","","",""
"html-keyboard-response","279","1133444","0.0-4.0-10.0-1.7","spark_pilot_2","7447","4","19","Male","","","","","","","null","<div style=""font-size:60px;"">+</div>","null","fixation","","","","","","","","","","","","","",""
"learning-instructions","280","1137087","0.0-4.0-0.1-0.2","spark_pilot_2","7447","4","19","Male","","","","","","","864.2999999970198","<p> This time you are searching for treasure in the <b>canyon</b>.</p>","","instructions","","","","","","","","","","","","","",""
"learning-instructions","281","1154735","0.0-4.0-0.1-0.3","spark_pilot_2","7447","4","19","Male","","","","","","","395.90000000596046","<p><b>New</b> animals with <b>new</b> treasure chests live here. You need to explore to discover where the animal with the best treasure chest is.</p>
                    <p> Like before, once you figure out which animal has the chest with the most treasure, you should try to get to that animal and select that chest! </p>","","instructions","","","","","","","","","","","","","",""
"learning-instructions","282","1169869","0.0-4.0-1.1-0.1","spark_pilot_2","7447","4","19","Male","","","","","","","401.5","<p> Remember, when you see a picture of the place, use the up and down keys to <b>find an animal</b>.</p>
            <p> When you encounter an animal, you should use the left and right keys to <b>select a treasure chest</b>.</p>
            <p> Don't forget to look out for the robber! </p>","","instructions","","","","","","","","","","","","","",""
"revaluation","283","1175893","0.0-4.0-2.1-0.50","spark_pilot_2","7447","4","19","Male","","false","","","","","[864,300.59999999403954]","./assets/img/canyon/memory/27.jpg","[""ArrowUp"",""ArrowRight""]","value training","canyon","10","{""ArrowUp,ArrowLeft"":23,""ArrowUp,ArrowRight"":10,""ArrowDown,ArrowLeft"":8,""ArrowDown,ArrowRight"":30}","false","ArrowUp,ArrowRight","false","","","original","2","0","","",""
"html-keyboard-response","284","1176404","0.0-4.0-2.1-1.50","spark_pilot_2","7447","4","19","Male","","","","","","","null","<div style=""font-size:60px;"">+</div>","null","fixation","","","","","","","","","","","1","","",""
"revaluation","285","1182426","0.0-4.0-2.1-0.51","spark_pilot_2","7447","4","19","Male","","false","","","","","[332.5,389.3999999910593]","./assets/img/canyon/memory/2.jpg","[""ArrowDown"",""ArrowLeft""]","value training","canyon","8","{""ArrowUp,ArrowLeft"":23,""ArrowUp,ArrowRight"":10,""ArrowDown,ArrowLeft"":8,""ArrowDown,ArrowRight"":30}","false","ArrowDown,ArrowLeft","false","","","original","2","2","","",""
"html-keyboard-response","286","1182929","0.0-4.0-2.1-1.51","spark_pilot_2","7447","4","19","Male","","","","","","","null","<div style=""font-size:60px;"">+</div>","null","fixation","","","","","","","","","","","3","","",""
"revaluation","287","1188953","0.0-4.0-2.1-0.52","spark_pilot_2","7447","4","19","Male","","false","","","","","[373,349.5]","./assets/img/canyon/memory/28.jpg","[""ArrowDown"",""ArrowRight""]","value training","canyon","30","{""ArrowUp,ArrowLeft"":23,""ArrowUp,ArrowRight"":10,""ArrowDown,ArrowLeft"":8,""ArrowDown,ArrowRight"":30}","true","ArrowDown,ArrowRight","false","","","original","2","4","","",""
"html-keyboard-response","288","1189461","0.0-4.0-2.1-1.52","spark_pilot_2","7447","4","19","Male","","","","","","","null","<div style=""font-size:60px;"">+</div>","null","fixation","","","","","","","","","","","5","","",""
"revaluation","289","1193477","0.0-4.0-2.1-0.53","spark_pilot_2","7447","4","19","Male","","false","","","","","[312.20000000298023]","./assets/img/canyon/catch/3.jpg","[""ArrowUp""]","value training","canyon","-10","{""ArrowUp,ArrowLeft"":23,""ArrowUp,ArrowRight"":10,""ArrowDown,ArrowLeft"":8,""ArrowDown,ArrowRight"":30}","false","ArrowUp","true","","","original","2","6","","",""
"html-keyboard-response","290","1193988","0.0-4.0-2.1-1.53","spark_pilot_2","7447","4","19","Male","","","","","","","null","<div style=""font-size:60px;"">+</div>","null","fixation","","","","","","","","","","","7","","",""
"revaluation","291","1198009","0.0-4.0-2.1-0.54","spark_pilot_2","7447","4","19","Male","","false","","","","","[595.7999999970198]","./assets/img/canyon/catch/4.jpg","[""spaceBar""]","value training","canyon","0","{""ArrowUp,ArrowLeft"":23,""ArrowUp,ArrowRight"":10,""ArrowDown,ArrowLeft"":8,""ArrowDown,ArrowRight"":30}","true","spaceBar","true","","","original","2","8","","",""
"html-keyboard-response","292","1198514","0.0-4.0-2.1-1.54","spark_pilot_2","7447","4","19","Male","","","","","","","null","<div style=""font-size:60px;"">+</div>","null","fixation","","","","","","","","","","","9","","",""
"revaluation","293","1204541","0.0-4.0-2.1-0.55","spark_pilot_2","7447","4","19","Male","","false","","","","","[407.59999999403954,256.30000001192093]","./assets/img/canyon/memory/29.jpg","[""ArrowUp"",""ArrowLeft""]","value training","canyon","23","{""ArrowUp,ArrowLeft"":23,""ArrowUp,ArrowRight"":10,""ArrowDown,ArrowLeft"":8,""ArrowDown,ArrowRight"":30}","false","ArrowUp,ArrowLeft","false","","","original","2","10","","",""
"html-keyboard-response","294","1205052","0.0-4.0-2.1-1.55","spark_pilot_2","7447","4","19","Male","","","","","","","null","<div style=""font-size:60px;"">+</div>","null","fixation","","","","","","","","","","","11","","",""
"revaluation","295","1211073","0.0-4.0-2.1-0.56","spark_pilot_2","7447","4","19","Male","","false","","","","","[852.5,396]","./assets/img/canyon/memory/24.jpg","[""ArrowDown"",""ArrowRight""]","value training","canyon","30","{""ArrowUp,ArrowLeft"":23,""ArrowUp,ArrowRight"":10,""ArrowDown,ArrowLeft"":8,""ArrowDown,ArrowRight"":30}","true","ArrowDown,ArrowRight","false","","","original","2","12","","",""
"html-keyboard-response","296","1211576","0.0-4.0-2.1-1.56","spark_pilot_2","7447","4","19","Male","","","","","","","null","<div style=""font-size:60px;"">+</div>","null","fixation","","","","","","","","","","","13","","",""
"revaluation","297","1217602","0.0-4.0-2.1-0.57","spark_pilot_2","7447","4","19","Male","","false","","","","","[522.6999999880791,349.90000000596046]","./assets/img/canyon/memory/31.jpg","[""ArrowDown"",""ArrowRight""]","value training","canyon","30","{""ArrowUp,ArrowLeft"":23,""ArrowUp,ArrowRight"":10,""ArrowDown,ArrowLeft"":8,""ArrowDown,ArrowRight"":30}","true","ArrowDown,ArrowRight","false","","","original","2","14","","",""
"html-keyboard-response","298","1218112","0.0-4.0-2.1-1.57","spark_pilot_2","7447","4","19","Male","","","","","","","null","<div style=""font-size:60px;"">+</div>","null","fixation","","","","","","","","","","","15","","",""
"revaluation","299","1224138","0.0-4.0-2.1-0.58","spark_pilot_2","7447","4","19","Male","","false","","","","","[602.5999999940395,333.09999999403954]","./assets/img/canyon/memory/4.jpg","[""ArrowDown"",""ArrowRight""]","value training","canyon","30","{""ArrowUp,ArrowLeft"":23,""ArrowUp,ArrowRight"":10,""ArrowDown,ArrowLeft"":8,""ArrowDown,ArrowRight"":30}","true","ArrowDown,ArrowRight","false","","","original","2","16","","",""
"html-keyboard-response","300","1224648","0.0-4.0-2.1-1.58","spark_pilot_2","7447","4","19","Male","","","","","","","null","<div style=""font-size:60px;"">+</div>","null","fixation","","","","","","","","","","","17","","",""
"revaluation","301","1230676","0.0-4.0-2.1-0.59","spark_pilot_2","7447","4","19","Male","","false","","","","","[569,322.09999999403954]","./assets/img/canyon/memory/33.jpg","[""ArrowDown"",""ArrowRight""]","value training","canyon","30","{""ArrowUp,ArrowLeft"":23,""ArrowUp,ArrowRight"":10,""ArrowDown,ArrowLeft"":8,""ArrowDown,ArrowRight"":30}","true","ArrowDown,ArrowRight","false","","","original","2","18","","",""
"html-keyboard-response","302","1231185","0.0-4.0-2.1-1.59","spark_pilot_2","7447","4","19","Male","","","","","","","null","<div style=""font-size:60px;"">+</div>","null","fixation","","","","","","","","","","","19","","",""
"revaluation","303","1237211","0.0-4.0-2.1-0.60","spark_pilot_2","7447","4","19","Male","","false","","","","","[689.5,333.70000000298023]","./assets/img/canyon/memory/19.jpg","[""ArrowDown"",""ArrowRight""]","value training","canyon","30","{""ArrowUp,ArrowLeft"":23,""ArrowUp,ArrowRight"":10,""ArrowDown,ArrowLeft"":8,""ArrowDown,ArrowRight"":30}","true","ArrowDown,ArrowRight","false","","","original","2","20","","",""
"html-keyboard-response","304","1237721","0.0-4.0-2.1-1.60","spark_pilot_2","7447","4","19","Male","","","","","","","null","<div style=""font-size:60px;"">+</div>","null","fixation","","","","","","","","","","","21","","",""
"revaluation","305","1241739","0.0-4.0-2.1-0.61","spark_pilot_2","7447","4","19","Male","","false","","","","","[590.7999999970198]","./assets/img/canyon/catch/0.jpg","[""spaceBar""]","value training","canyon","0","{""ArrowUp,ArrowLeft"":23,""ArrowUp,ArrowRight"":10,""ArrowDown,ArrowLeft"":8,""ArrowDown,ArrowRight"":30}","true","spaceBar","true","","","original","2","22","","",""
"html-keyboard-response","306","1242249","0.0-4.0-2.1-1.61","spark_pilot_2","7447","4","19","Male","","","","","","","null","<div style=""font-size:60px;"">+</div>","null","fixation","","","","","","","","","","","23","","",""
"revaluation","307","1248275","0.0-4.0-2.1-0.62","spark_pilot_2","7447","4","19","Male","","false","","","","","[796.5,507.6000000089407]","./assets/img/canyon/memory/27.jpg","[""ArrowDown"",""ArrowRight""]","value training","canyon","30","{""ArrowUp,ArrowLeft"":23,""ArrowUp,ArrowRight"":10,""ArrowDown,ArrowLeft"":8,""ArrowDown,ArrowRight"":30}","true","ArrowDown,ArrowRight","false","","","original","2","24","","",""
"html-keyboard-response","308","1248785","0.0-4.0-2.1-1.62","spark_pilot_2","7447","4","19","Male","","","","","","","null","<div style=""font-size:60px;"">+</div>","null","fixation","","","","","","","","","","","25","","",""
