"trial_type","trial_index","time_elapsed","internal_node_id","task_version","subject_id","assigned_condition","age","gender","success","timeout","failed_images","failed_audio","failed_video","browser_interaction","rt","stimulus","response","task_part","environment","score","rewardMap","correct","fullState","isCatch","numberMissed","duration","condition","order","trial_num","key_press","ground_truth","bonus"
"pavlovia","0","1286","0.0-0.0","spark_pilot_2","7475","7","20","Female","","","","","","","","","","","","","","","","","","","","","","","",""
"preload","1","21720","0.0-1.0","spark_pilot_2","7475","7","20","Female","true","false","[]","[]","[]","[{""event"":""fullscreenenter"",""trial"":2,""time"":23873}]","","","","","","","","","","","","","","","","","",""
"fullscreen","2","24832","0.0-2.0","spark_pilot_2","7475","7","20","Female","true","","","","","","","","","","","","","","","","","","","","","","",""
"audio-button-response","3","26435","0.0-3.0-0.0-0.0","spark_pilot_2","7475","7","20","Female","","","","","","","1579","./assets/audio/audiotest/turtle.mp3","2","audio_test","","","","","","","","","","","","","",""
"learning-instructions","4","35260","0.0-3.0-1.0-0.0","spark_pilot_2","7475","7","20","Female","","","","","","","1821.2000000029802","<p> Welcome! Please remember to stay in fullscreen mode and don't click away from the experiment. </p>","","instructions","","","","","","","","","","","","","",""
"learning-instructions","5","58326","0.0-3.0-1.0-0.1","spark_pilot_2","7475","7","20","Female","","","","","","","14648.29999999702","<p> Today you will be playing a game to earn treasure. </p>
            <p> At the end of the experiment, you will earn a bonus based on how much treasure you find. </p>
            <img src='./assets/img/instructions/treasure.jpg' class='instructions-image'>","","instructions","","","","","","","","","","","","","",""
"learning-instructions","6","67594","0.0-3.0-1.0-0.2","spark_pilot_2","7475","7","20","Female","","","","","","","1006.2999999970198","<p> Animals have hidden treasure in treasure chests. </p>
            <p> You need to first find an animal and then choose which of their treasure chests to search. </p>
            <img src='./assets/img/space/animals/cat.jpg' class='instructions-image'>","","instructions","","","","","","","","","","","","","",""
"learning-instructions","7","85915","0.0-3.0-1.0-0.3","spark_pilot_2","7475","7","20","Female","","","","","","","5166","<p> In each round, you will search for treasure in a different place. In the real game, there will be two rounds. </p>
            <p> You will begin with a separate, practice round where you will search for treasure in outer space. </p>
            <img src='./assets/img/space/0.jpg' class='instructions-image'>","","instructions","","","","","","","","","","","","","",""
"learning-instructions","8","98606","0.0-3.0-1.0-0.4","spark_pilot_2","7475","7","20","Female","","","","","","","1248.2999999970198","<p> On every turn, you will see a picture of the place that you are in, but the specific image may be different each time. </p>
            <p> For example, both of these images mean you are in outer space. </p>
            <img src='./assets/img/instructions/outerspace.jpg' class='instructions-image'>","","instructions","","","","","","","","","","","","","",""
"learning-instructions","9","108201","0.0-3.0-1.0-0.5","spark_pilot_2","7475","7","20","Female","","","","","","","1771.9000000059605","<p> You need to decide which direction to travel in. </p>
            <p> You can choose between going <b>up or down</b> by using the arrow keys. </p>
            <img src='./assets/img/instructions/updown.jpg' class='instructions-image'>","","instructions","","","","","","","","","","","","","",""
"learning-instructions","10","121005","0.0-3.0-1.0-0.6","spark_pilot_2","7475","7","20","Female","","","","","","","3992.7999999970198","<p> You will have <b>2 seconds</b> to make your choice. </p>
            <p> If you do not make a choice within 2 seconds, you will not find an animal or earn treasure. </p>
            <img src='./assets/img/instructions/2seconds.jpg' class='instructions-image'>","","instructions","","","","","","","","","","","","","",""
"learning-instructions","11","129011","0.0-3.0-1.0-0.7","spark_pilot_2","7475","7","20","Female","","","","","","","968.4000000059605","<p> Let’s try practicing that now! </p>
            <p> When you see a picture of the place you are in, press the <b>up</b> key to travel up. </p>
            <img src='./assets/img/instructions/pressUp.jpg' class='instructions-image'>","","instructions","","","","","","","","","","","","","",""
"revaluation","12","133055","0.0-3.0-2.0-0.0","spark_pilot_2","7475","7","20","Female","","false","","","","","[799.5]","./assets/img/space/0.jpg","[""ArrowUp""]","first stage practice","space","0","null","null","ArrowUp","false","","","","","","","",""
"html-keyboard-response","13","133563","0.0-3.0-2.0-1.0","spark_pilot_2","7475","7","20","Female","","","","","","","null","<div style=""font-size:60px;"">+</div>","null","fixation","","","","","","","","","","","","","",""
"revaluation","14","137587","0.0-3.0-2.0-0.1","spark_pilot_2","7475","7","20","Female","","false","","","","","[645.5999999940395]","./assets/img/space/1.jpg","[""ArrowUp""]","first stage practice","space","0","null","null","ArrowUp","false","","","","","","","",""
"html-keyboard-response","15","138095","0.0-3.0-2.0-1.1","spark_pilot_2","7475","7","20","Female","","","","","","","null","<div style=""font-size:60px;"">+</div>","null","fixation","","","","","","","","","","","","","",""
"revaluation","16","142116","0.0-3.0-2.0-0.2","spark_pilot_2","7475","7","20","Female","","true","","","","","[]","./assets/img/space/2.jpg","[]","first stage practice","space","-5","null","null","","false","","","","","","","",""
"html-keyboard-response","17","142623","0.0-3.0-2.0-1.2","spark_pilot_2","7475","7","20","Female","","","","","","","null","<div style=""font-size:60px;"">+</div>","null","fixation","","","","","","","","","","","","","",""
"learning-instructions","18","148555","0.0-3.0-3.0-0.0","spark_pilot_2","7475","7","20","Female","","","","","","","1222.5999999940395","<p> Great job! Now try pressing the <b>down</b> key to travel down. </p>
            <img src='./assets/img/instructions/pressDown.jpg' class='instructions-image'>","","instructions","","","","","","","","","","","","","",""
"revaluation","19","152582","0.0-3.0-4.0-0.0","spark_pilot_2","7475","7","20","Female","","false","","","","","[551.9000000059605]","./assets/img/space/3.jpg","[""ArrowDown""]","first stage practice","space","0","null","null","ArrowDown","false","","","","","","","",""
"html-keyboard-response","20","153099","0.0-3.0-4.0-1.0","spark_pilot_2","7475","7","20","Female","","","","","","","null","<div style=""font-size:60px;"">+</div>","null","fixation","","","","","","","","","","","","","",""
"revaluation","21","157114","0.0-3.0-4.0-0.1","spark_pilot_2","7475","7","20","Female","","false","","","","","[357.29999999701977]","./assets/img/space/4.jpg","[""ArrowDown""]","first stage practice","space","0","null","null","ArrowDown","false","","","","","","","",""
"html-keyboard-response","22","157617","0.0-3.0-4.0-1.1","spark_pilot_2","7475","7","20","Female","","","","","","","null","<div style=""font-size:60px;"">+</div>","null","fixation","","","","","","","","","","","","","",""
"revaluation","23","161645","0.0-3.0-4.0-0.2","spark_pilot_2","7475","7","20","Female","","false","","","","","[160.5]","./assets/img/space/5.jpg","[""ArrowDown""]","first stage practice","space","0","null","null","ArrowDown","false","","","","","","","",""
"html-keyboard-response","24","162150","0.0-3.0-4.0-1.2","spark_pilot_2","7475","7","20","Female","","","","","","","null","<div style=""font-size:60px;"">+</div>","null","fixation","","","","","","","","","","","","","",""
"learning-instructions","25","173230","0.0-3.0-5.0-0.0","spark_pilot_2","7475","7","20","Female","","","","","","","1217.0999999940395","<p> The animals don’t move, so the animal in the upper part of a place will stay in the upper part of a place, and the animal in the lower part of a place will stay in the lower part of a place. </p>","","instructions","","","","","","","","","","","","","",""
"learning-instructions","26","183761","0.0-3.0-5.0-0.1","spark_pilot_2","7475","7","20","Female","","","","","","","1397","<p> Each animal has two treasure chests for you to choose from. </p>
            <p> The amount of treasure in each chest can range from <b> 0 to 40 pieces.</b></p>","","instructions","","","","","","","","","","","","","",""
"learning-instructions","27","195661","0.0-3.0-5.0-0.2","spark_pilot_2","7475","7","20","Female","","","","","","","686.7999999970198","<p> You should decide which chest to search for treasure by using the <b>left</b> and <b>right</b> arrow keys. </p>
            <p><b> Pay attention to which animal is on the screen, as the animals have different treasure chests. </b></p>
            <img src='./assets/img/instructions/leftright.jpg' class='instructions-image'>","","instructions","","","","","","","","","","","","","",""
"learning-instructions","28","202775","0.0-3.0-5.0-0.3","spark_pilot_2","7475","7","20","Female","","","","","","","720.2999999970198","<p> Let’s try practicing that now. </p>
            <p> When you see an animal, choose which chest to search for treasure. </p>
            <img src='./assets/img/instructions/chooseChest.jpg' class='instructions-image'>","","instructions","","","","","","","","","","","","","",""
"revaluation","29","206818","0.0-3.0-6.0-0.0","spark_pilot_2","7475","7","20","Female","","false","","","","","[783.8999999910593]","./assets/img/space/animals/cat.jpg","[""ArrowLeft""]","second stage practice","space","3","{""ArrowUp,ArrowLeft"":3,""ArrowUp,ArrowRight"":36,""ArrowDown,ArrowLeft"":15,""ArrowDown,ArrowRight"":23}","false","ArrowUp,ArrowLeft","","","","","","","","",""
"html-keyboard-response","30","207323","0.0-3.0-6.0-1.0","spark_pilot_2","7475","7","20","Female","","","","","","","null","<div style=""font-size:60px;"">+</div>","null","fixation","","","","","","","","","","","","","",""
"revaluation","31","211356","0.0-3.0-6.0-0.1","spark_pilot_2","7475","7","20","Female","","false","","","","","[752.5]","./assets/img/space/animals/rabbit.jpg","[""ArrowLeft""]","second stage practice","space","15","{""ArrowUp,ArrowLeft"":3,""ArrowUp,ArrowRight"":36,""ArrowDown,ArrowLeft"":15,""ArrowDown,ArrowRight"":23}","false","ArrowDown,ArrowLeft","","","","","","","","",""
"html-keyboard-response","32","211873","0.0-3.0-6.0-1.1","spark_pilot_2","7475","7","20","Female","","","","","","","null","<div style=""font-size:60px;"">+</div>","null","fixation","","","","","","","","","","","","","",""
"revaluation","33","215897","0.0-3.0-6.0-0.2","spark_pilot_2","7475","7","20","Female","","false","","","","","[695.6000000089407]","./assets/img/space/animals/rabbit.jpg","[""ArrowLeft""]","second stage practice","space","15","{""ArrowUp,ArrowLeft"":3,""ArrowUp,ArrowRight"":36,""ArrowDown,ArrowLeft"":15,""ArrowDown,ArrowRight"":23}","false","ArrowDown,ArrowLeft","","","","","","","","",""
"html-keyboard-response","34","216399","0.0-3.0-6.0-1.2","spark_pilot_2","7475","7","20","Female","","","","","","","null","<div style=""font-size:60px;"">+</div>","null","fixation","","","","","","","","","","","","","",""
"revaluation","35","220412","0.0-3.0-6.0-0.3","spark_pilot_2","7475","7","20","Female","","false","","","","","[573.6000000089407]","./assets/img/space/animals/cat.jpg","[""ArrowRight""]","second stage practice","space","36","{""ArrowUp,ArrowLeft"":3,""ArrowUp,ArrowRight"":36,""ArrowDown,ArrowLeft"":15,""ArrowDown,ArrowRight"":23}","true","ArrowUp,ArrowRight","","","","","","","","",""
"html-keyboard-response","36","220930","0.0-3.0-6.0-1.3","spark_pilot_2","7475","7","20","Female","","","","","","","null","<div style=""font-size:60px;"">+</div>","null","fixation","","","","","","","","","","","","","",""
"learning-instructions","37","238784","0.0-3.0-7.0-0.0","spark_pilot_2","7475","7","20","Female","","","","","","","1009.7999999970198","<p> Great job. Now let’s try putting it together. </p>
            <p> On each turn, you will first see a picture to remind you of the place you are in, and you need to choose whether to go up or down. </p>
            <p> Then you will see an animal and choose which of its chests to search for treasure. </p>","","instructions","","","","","","","","","","","","","",""
"learning-instructions","38","247962","0.0-3.0-7.0-0.1","spark_pilot_2","7475","7","20","Female","","","","","","","888.9000000059605","<p> When you choose whether to go up or down, try to go to the animal with the chest with the most treasure. </p>
            <p> Try practicing that now! </p>","","instructions","","","","","","","","","","","","","",""
"revaluation","39","254004","0.0-3.0-8.0-0.0","spark_pilot_2","7475","7","20","Female","","false","","","","","[736.7999999970198,555.9000000059605]","./assets/img/space/6.jpg","[""ArrowUp"",""ArrowLeft""]","full practice","space","3","{""ArrowUp,ArrowLeft"":3,""ArrowUp,ArrowRight"":36,""ArrowDown,ArrowLeft"":15,""ArrowDown,ArrowRight"":23}","false","ArrowUp,ArrowLeft","false","","","","","","","",""
"html-keyboard-response","40","254521","0.0-3.0-8.0-1.0","spark_pilot_2","7475","7","20","Female","","","","","","","null","<div style=""font-size:60px;"">+</div>","null","fixation","","","","","","","","","","","","","",""
"revaluation","41","260546","0.0-3.0-8.0-0.1","spark_pilot_2","7475","7","20","Female","","false","","","","","[970.7000000029802,856.7999999970198]","./assets/img/space/7.jpg","[""ArrowUp"",""ArrowRight""]","full practice","space","36","{""ArrowUp,ArrowLeft"":3,""ArrowUp,ArrowRight"":36,""ArrowDown,ArrowLeft"":15,""ArrowDown,ArrowRight"":23}","true","ArrowUp,ArrowRight","false","","","","","","","",""
"html-keyboard-response","42","261055","0.0-3.0-8.0-1.1","spark_pilot_2","7475","7","20","Female","","","","","","","null","<div style=""font-size:60px;"">+</div>","null","fixation","","","","","","","","","","","","","",""
"revaluation","43","267104","0.0-3.0-8.0-0.2","spark_pilot_2","7475","7","20","Female","","false","","","","","[834.7000000029802,557.6000000089407]","./assets/img/space/8.jpg","[""ArrowDown"",""ArrowLeft""]","full practice","space","15","{""ArrowUp,ArrowLeft"":3,""ArrowUp,ArrowRight"":36,""ArrowDown,ArrowLeft"":15,""ArrowDown,ArrowRight"":23}","false","ArrowDown,ArrowLeft","false","","","","","","","",""
"html-keyboard-response","44","267618","0.0-3.0-8.0-1.2","spark_pilot_2","7475","7","20","Female","","","","","","","null","<div style=""font-size:60px;"">+</div>","null","fixation","","","","","","","","","","","","","",""
"revaluation","45","273663","0.0-3.0-8.0-0.3","spark_pilot_2","7475","7","20","Female","","false","","","","","[1057.4000000059605,714.0999999940395]","./assets/img/space/9.jpg","[""ArrowDown"",""ArrowRight""]","full practice","space","23","{""ArrowUp,ArrowLeft"":3,""ArrowUp,ArrowRight"":36,""ArrowDown,ArrowLeft"":15,""ArrowDown,ArrowRight"":23}","false","ArrowDown,ArrowRight","false","","","","","","","",""
"html-keyboard-response","46","274178","0.0-3.0-8.0-1.3","spark_pilot_2","7475","7","20","Female","","","","","","","null","<div style=""font-size:60px;"">+</div>","null","fixation","","","","","","","","","","","","","",""
"revaluation","47","280197","0.0-3.0-8.0-0.4","spark_pilot_2","7475","7","20","Female","","false","","","","","[598.6000000089407,573.8000000119209]","./assets/img/space/10.jpg","[""ArrowUp"",""ArrowRight""]","full practice","space","36","{""ArrowUp,ArrowLeft"":3,""ArrowUp,ArrowRight"":36,""ArrowDown,ArrowLeft"":15,""ArrowDown,ArrowRight"":23}","true","ArrowUp,ArrowRight","false","","","","","","","",""
"html-keyboard-response","48","280701","0.0-3.0-8.0-1.4","spark_pilot_2","7475","7","20","Female","","","","","","","null","<div style=""font-size:60px;"">+</div>","null","fixation","","","","","","","","","","","","","",""
"learning-instructions","49","294481","0.0-3.0-9.0-0.0","spark_pilot_2","7475","7","20","Female","","","","","","","3438.7000000029802","<p> One last thing: sometimes, you will see a robber. The robber can be anywhere in the picture. </p>
            <p> If you do not stop them, you will lose treasure. </p>
            <img src='./assets/img/instructions/robber.jpg' class='instructions-image'>","","instructions","","","","","","","","","","","","","",""
"learning-instructions","50","302345","0.0-3.0-9.0-0.1","spark_pilot_2","7475","7","20","Female","","","","","","","672.6000000089407","<p> If you see the robber, you should <b>press the space bar</b> rather than using the arrow keys. </p>
            <p> Try practicing that now! </p>","","instructions","","","","","","","","","","","","","",""
"revaluation","51","306366","0.0-3.0-10.0-0.0","spark_pilot_2","7475","7","20","Female","","false","","","","","[980.7999999970198]","./assets/img/space/catch/0.jpg","[""spaceBar""]","catch practice","space","0","{""ArrowUp,ArrowLeft"":3,""ArrowUp,ArrowRight"":36,""ArrowDown,ArrowLeft"":15,""ArrowDown,ArrowRight"":23}","true","spaceBar","true","","","","","","","",""
"html-keyboard-response","52","306873","0.0-3.0-10.0-1.0","spark_pilot_2","7475","7","20","Female","","","","","","","null","<div style=""font-size:60px;"">+</div>","null","fixation","","","","","","","","","","","","","",""
"revaluation","53","310897","0.0-3.0-10.0-0.1","spark_pilot_2","7475","7","20","Female","","false","","","","","[757.2000000029802]","./assets/img/space/catch/1.jpg","[""spaceBar""]","catch practice","space","0","{""ArrowUp,ArrowLeft"":3,""ArrowUp,ArrowRight"":36,""ArrowDown,ArrowLeft"":15,""ArrowDown,ArrowRight"":23}","true","spaceBar","true","","","","","","","",""
"html-keyboard-response","54","311401","0.0-3.0-10.0-1.1","spark_pilot_2","7475","7","20","Female","","","","","","","null","<div style=""font-size:60px;"">+</div>","null","fixation","","","","","","","","","","","","","",""
"revaluation","55","315433","0.0-3.0-10.0-0.2","spark_pilot_2","7475","7","20","Female","","false","","","","","[544.4000000059605]","./assets/img/space/catch/2.jpg","[""spaceBar""]","catch practice","space","0","{""ArrowUp,ArrowLeft"":3,""ArrowUp,ArrowRight"":36,""ArrowDown,ArrowLeft"":15,""ArrowDown,ArrowRight"":23}","true","spaceBar","true","","","","","","","",""
"html-keyboard-response","56","315947","0.0-3.0-10.0-1.2","spark_pilot_2","7475","7","20","Female","","","","","","","null","<div style=""font-size:60px;"">+</div>","null","fixation","","","","","","","","","","","","","",""
"learning-instructions","57","331119","0.0-3.0-11.0-0.0","spark_pilot_2","7475","7","20","Female","","","","","","","1555.8999999910593","<p> After you explore a place to find treasure, it will be time to play a different game. </p>
            <p> During this game, red dots will appear on the screen and fall down slowly. </p>
            <p><b> You must click on them before they reach the bottom. </b></p>
            <img src='./assets/img/instructions/dotGame.jpg' class='instructions-image'>","","instructions","","","","","","","","","","","","","",""
"learning-instructions","58","337742","0.0-3.0-11.0-0.1","spark_pilot_2","7475","7","20","Female","","","","","","","948.7999999970198","<p> For every dot you click, you will earn additional treasure. </p>
            <p> Let’s try practicing that now. </p>","","instructions","","","","","","","","","","","","","",""
"revaluation","59","352759","0.0-3.0-12.0-0.0","spark_pilot_2","7475","7","20","Female","","","","","","","[83]","","","rest practice","","10","","","","","0","15000","","","","","",""
"learning-instructions","60","359264","0.0-3.0-13.0-0.0-0.0","spark_pilot_2","7475","7","20","Female","","","","","","","1230.5999999940395","<p> Now, you will practice a shortened version of the game to get a sense of how it all fits together. </p>","","instructions","","","","","","","","","","","","","",""
"learning-instructions","61","363958","0.0-3.0-13.0-0.0-0.1","spark_pilot_2","7475","7","20","Female","","","","","","","1494.3999999910593","<p>This time you are searching for treasure in outer space.</p>","","instructions","","","","","","","","","","","","","",""
"learning-instructions","62","381069","0.0-3.0-13.0-1.0-0.0","spark_pilot_2","7475","7","20","Female","","","","","","","2307.2000000029802","<p> Remember, when you see a picture of the place, use the up and down keys to <b>find an animal</b>.</p>
            <p> When you encounter an animal, you should use the left and right keys to <b>select a treasure chest</b>.</p>
            <p> Don't forget to look out for the robber! </p>","","instructions","","","","","","","","","","","","","",""
"revaluation","63","387104","0.0-3.0-13.0-2.0-0.0","spark_pilot_2","7475","7","20","Female","","false","","","","","[577.5,530.2000000029802]","./assets/img/space/11.jpg","[""ArrowUp"",""ArrowRight""]","practice block","space","36","{""ArrowUp,ArrowLeft"":3,""ArrowUp,ArrowRight"":36,""ArrowDown,ArrowLeft"":15,""ArrowDown,ArrowRight"":23}","true","ArrowUp,ArrowRight","false","","","","","","","",""
"html-keyboard-response","64","387610","0.0-3.0-13.0-2.0-1.0","spark_pilot_2","7475","7","20","Female","","","","","","","null","<div style=""font-size:60px;"">+</div>","null","fixation","","","","","","","","","","","","","",""
"revaluation","65","393632","0.0-3.0-13.0-2.0-0.1","spark_pilot_2","7475","7","20","Female","","false","","","","","[718,764.0999999940395]","./assets/img/space/12.jpg","[""ArrowUp"",""ArrowRight""]","practice block","space","36","{""ArrowUp,ArrowLeft"":3,""ArrowUp,ArrowRight"":36,""ArrowDown,ArrowLeft"":15,""ArrowDown,ArrowRight"":23}","true","ArrowUp,ArrowRight","false","","","","","","","",""
"html-keyboard-response","66","394135","0.0-3.0-13.0-2.0-1.1","spark_pilot_2","7475","7","20","Female","","","","","","","null","<div style=""font-size:60px;"">+</div>","null","fixation","","","","","","","","","","","","","",""
"revaluation","67","400162","0.0-3.0-13.0-2.0-0.2","spark_pilot_2","7475","7","20","Female","","false","","","","","[655.4000000059605,756.8999999910593]","./assets/img/space/13.jpg","[""ArrowDown"",""ArrowRight""]","practice block","space","23","{""ArrowUp,ArrowLeft"":3,""ArrowUp,ArrowRight"":36,""ArrowDown,ArrowLeft"":15,""ArrowDown,ArrowRight"":23}","false","ArrowDown,ArrowRight","false","","","","","","","",""
"html-keyboard-response","68","400671","0.0-3.0-13.0-2.0-1.2","spark_pilot_2","7475","7","20","Female","","","","","","","null","<div style=""font-size:60px;"">+</div>","null","fixation","","","","","","","","","","","","","",""
"revaluation","69","406713","0.0-3.0-13.0-2.0-0.3","spark_pilot_2","7475","7","20","Female","","false","","","","","[575.2999999970198,499.1000000089407]","./assets/img/space/14.jpg","[""ArrowUp"",""ArrowRight""]","practice block","space","36","{""ArrowUp,ArrowLeft"":3,""ArrowUp,ArrowRight"":36,""ArrowDown,ArrowLeft"":15,""ArrowDown,ArrowRight"":23}","true","ArrowUp,ArrowRight","false","","","","","","","",""
"html-keyboard-response","70","407220","0.0-3.0-13.0-2.0-1.3","spark_pilot_2","7475","7","20","Female","","","","","","","null","<div style=""font-size:60px;"">+</div>","null","fixation","","","","","","","","","","","","","",""
"revaluation","71","413237","0.0-3.0-13.0-2.0-0.4","spark_pilot_2","7475","7","20","Female","","false","","","","","[729.2000000029802,561.5]","./assets/img/space/11.jpg","[""ArrowDown"",""ArrowRight""]","practice block","space","23","{""ArrowUp,ArrowLeft"":3,""ArrowUp,ArrowRight"":36,""ArrowDown,ArrowLeft"":15,""ArrowDown,ArrowRight"":23}","false","ArrowDown,ArrowRight","false","","","","","","","",""
"html-keyboard-response","72","413739","0.0-3.0-13.0-2.0-1.4","spark_pilot_2","7475","7","20","Female","","","","","","","null","<div style=""font-size:60px;"">+</div>","null","fixation","","","","","","","","","","","","","",""
"revaluation","73","419775","0.0-3.0-13.0-2.0-0.5","spark_pilot_2","7475","7","20","Female","","false","","","","","[666.8999999910593,552]","./assets/img/space/12.jpg","[""ArrowUp"",""ArrowRight""]","practice block","space","36","{""ArrowUp,ArrowLeft"":3,""ArrowUp,ArrowRight"":36,""ArrowDown,ArrowLeft"":15,""ArrowDown,ArrowRight"":23}","true","ArrowUp,ArrowRight","false","","","","","","","",""
"html-keyboard-response","74","420277","0.0-3.0-13.0-2.0-1.5","spark_pilot_2","7475","7","20","Female","","","","","","","null","<div style=""font-size:60px;"">+</div>","null","fixation","","","","","","","","","","","","","",""
"revaluation","75","426290","0.0-3.0-13.0-2.0-0.6","spark_pilot_2","7475","7","20","Female","","false","","","","","[573.9000000059605,498.5]","./assets/img/space/13.jpg","[""ArrowDown"",""ArrowLeft""]","practice block","space","15","{""ArrowUp,ArrowLeft"":3,""ArrowUp,ArrowRight"":36,""ArrowDown,ArrowLeft"":15,""ArrowDown,ArrowRight"":23}","false","ArrowDown,ArrowLeft","false","","","","","","","",""
"html-keyboard-response","76","426799","0.0-3.0-13.0-2.0-1.6","spark_pilot_2","7475","7","20","Female","","","","","","","null","<div style=""font-size:60px;"">+</div>","null","fixation","","","","","","","","","","","","","",""
"revaluation","77","432840","0.0-3.0-13.0-2.0-0.7","spark_pilot_2","7475","7","20","Female","","false","","","","","[583.7000000029802,483.79999999701977]","./assets/img/space/14.jpg","[""ArrowUp"",""ArrowRight""]","practice block","space","36","{""ArrowUp,ArrowLeft"":3,""ArrowUp,ArrowRight"":36,""ArrowDown,ArrowLeft"":15,""ArrowDown,ArrowRight"":23}","true","ArrowUp,ArrowRight","false","","","","","","","",""
"html-keyboard-response","78","433350","0.0-3.0-13.0-2.0-1.7","spark_pilot_2","7475","7","20","Female","","","","","","","null","<div style=""font-size:60px;"">+</div>","null","fixation","","","","","","","","","","","","","",""
"revaluation","79","437367","0.0-3.0-13.0-2.0-0.8","spark_pilot_2","7475","7","20","Female","","false","","","","","[683.8999999910593]","./assets/img/space/catch/3.jpg","[""spaceBar""]","practice block","space","0","{""ArrowUp,ArrowLeft"":3,""ArrowUp,ArrowRight"":36,""ArrowDown,ArrowLeft"":15,""ArrowDown,ArrowRight"":23}","true","spaceBar","true","","","","","","","",""
"html-keyboard-response","80","437870","0.0-3.0-13.0-2.0-1.8","spark_pilot_2","7475","7","20","Female","","","","","","","null","<div style=""font-size:60px;"">+</div>","null","fixation","","","","","","","","","","","","","",""
"learning-instructions","81","454405","0.0-3.0-13.0-3.0-0.0","spark_pilot_2","7475","7","20","Female","","","","","","","3043.199999988079","<p> Now, you will travel with a friend who will choose whether you go up or down first. </p>
            <p> On these turns, you will just see the animal that they found. You will still get to choose which chest to search for treasure.</p>","","instructions","","","","","","","","","","","","","",""
"revaluation","82","458427","0.0-3.0-13.0-4.0-0.0","spark_pilot_2","7475","7","20","Female","","false","","","","","[829]","./assets/img/space/animals/cat.jpg","[""ArrowRight""]","practice block","space","36","{""ArrowUp,ArrowLeft"":3,""ArrowUp,ArrowRight"":36,""ArrowDown,ArrowLeft"":15,""ArrowDown,ArrowRight"":23}","true","ArrowUp,ArrowRight","","","","","","","","",""
"html-keyboard-response","83","458930","0.0-3.0-13.0-4.0-1.0","spark_pilot_2","7475","7","20","Female","","","","","","","null","<div style=""font-size:60px;"">+</div>","null","fixation","","","","","","","","","","","","","",""
"revaluation","84","462962","0.0-3.0-13.0-4.0-0.1","spark_pilot_2","7475","7","20","Female","","false","","","","","[840.2000000029802]","./assets/img/space/animals/cat.jpg","[""ArrowRight""]","practice block","space","36","{""ArrowUp,ArrowLeft"":3,""ArrowUp,ArrowRight"":36,""ArrowDown,ArrowLeft"":15,""ArrowDown,ArrowRight"":23}","true","ArrowUp,ArrowRight","","","","","","","","",""
"html-keyboard-response","85","463470","0.0-3.0-13.0-4.0-1.1","spark_pilot_2","7475","7","20","Female","","","","","","","null","<div style=""font-size:60px;"">+</div>","null","fixation","","","","","","","","","","","","","",""
"revaluation","86","467503","0.0-3.0-13.0-4.0-0.2","spark_pilot_2","7475","7","20","Female","","false","","","","","[609.7000000029802]","./assets/img/space/animals/rabbit.jpg","[""ArrowRight""]","practice block","space","23","{""ArrowUp,ArrowLeft"":3,""ArrowUp,ArrowRight"":36,""ArrowDown,ArrowLeft"":15,""ArrowDown,ArrowRight"":23}","true","ArrowDown,ArrowRight","","","","","","","","",""
"html-keyboard-response","87","468011","0.0-3.0-13.0-4.0-1.2","spark_pilot_2","7475","7","20","Female","","","","","","","null","<div style=""font-size:60px;"">+</div>","null","fixation","","","","","","","","","","","","","",""
"revaluation","88","472030","0.0-3.0-13.0-4.0-0.3","spark_pilot_2","7475","7","20","Female","","false","","","","","[563.2999999970198]","./assets/img/space/animals/rabbit.jpg","[""ArrowRight""]","practice block","space","23","{""ArrowUp,ArrowLeft"":3,""ArrowUp,ArrowRight"":36,""ArrowDown,ArrowLeft"":15,""ArrowDown,ArrowRight"":23}","true","ArrowDown,ArrowRight","","","","","","","","",""
"html-keyboard-response","89","472539","0.0-3.0-13.0-4.0-1.3","spark_pilot_2","7475","7","20","Female","","","","","","","null","<div style=""font-size:60px;"">+</div>","null","fixation","","","","","","","","","","","","","",""
"learning-instructions","90","480854","0.0-3.0-13.0-5.0-0.0","spark_pilot_2","7475","7","20","Female","","","","","","","922.5999999940395","<p> Time to play the dot game! </p>
            <p> For 15 seconds, click the red dots on the following screen as they appear. </p>","","instructions","","","","","","","","","","","","","",""
"revaluation","91","495857","0.0-3.0-13.0-6.0-0.0","spark_pilot_2","7475","7","20","Female","","","","","","","[56]","","","rest practice","","10","","","","","0","15000","","","","","",""
"learning-instructions","92","503956","0.0-3.0-13.0-7.0-0.0","spark_pilot_2","7475","7","20","Female","","","","","","","1944.2000000029802","<p> You have almost finished this part of the game! </p>
            <p> We are going to ask you to make a few more choices. </p>","","instructions","","","","","","","","","","","","","",""
"learning-instructions","93","519364","0.0-3.0-13.0-7.0-0.1","spark_pilot_2","7475","7","20","Female","","","","","","","1360.2999999970198","<p> First, you need to decide whether to go up or down. When you see each picture, use the arrow keys to make your choice. </p>
            <p><b>You will not see which animal you found, but try to get to the one that will give you the most treasure.</b></p>","","instructions","","","","","","","","","","","","","",""
"revaluation","94","520126","0.0-3.0-13.0-8.0","spark_pilot_2","7475","7","20","Female","","false","","","","","[757.2999999970198]","./assets/img/space/15.jpg","[""ArrowUp""]","practice block","space","0","{""ArrowUp,ArrowLeft"":3,""ArrowUp,ArrowRight"":36,""ArrowDown,ArrowLeft"":15,""ArrowDown,ArrowRight"":23}","true","ArrowUp","false","","","","","","","",""
"html-keyboard-response","95","520633","0.0-3.0-13.0-9.0","spark_pilot_2","7475","7","20","Female","","","","","","","null","<div style=""font-size:60px;"">+</div>","null","fixation","","","","","","","","","","","","","",""
"learning-instructions","96","533164","0.0-3.0-13.0-10.0-0.0","spark_pilot_2","7475","7","20","Female","","","","","","","1120.5","<p> Now you will see the animals again and can search their chests for treasure. </p>
            <p> This time, you will not see how much treasure you earned, but you will earn more bonus money for making better choices. </p>","","instructions","","","","","","","","","","","","","",""
"revaluation","97","533824","0.0-3.0-13.0-11.0-0.0","spark_pilot_2","7475","7","20","Female","","false","","","","","[656.1000000089407]","./assets/img/space/animals/cat.jpg","[""ArrowRight""]","practice block","space","0","{""ArrowUp,ArrowLeft"":3,""ArrowUp,ArrowRight"":36,""ArrowDown,ArrowLeft"":15,""ArrowDown,ArrowRight"":23}","true","ArrowUp,ArrowRight","","","","","","","","",""
"html-keyboard-response","98","534334","0.0-3.0-13.0-11.0-1.0","spark_pilot_2","7475","7","20","Female","","","","","","","null","<div style=""font-size:60px;"">+</div>","null","fixation","","","","","","","","","","","","","",""
"revaluation","99","534981","0.0-3.0-13.0-11.0-0.1","spark_pilot_2","7475","7","20","Female","","false","","","","","[640.2000000029802]","./assets/img/space/animals/rabbit.jpg","[""ArrowRight""]","practice block","space","0","{""ArrowUp,ArrowLeft"":3,""ArrowUp,ArrowRight"":36,""ArrowDown,ArrowLeft"":15,""ArrowDown,ArrowRight"":23}","true","ArrowDown,ArrowRight","","","","","","","","",""
"html-keyboard-response","100","535486","0.0-3.0-13.0-11.0-1.1","spark_pilot_2","7475","7","20","Female","","","","","","","null","<div style=""font-size:60px;"">+</div>","null","fixation","","","","","","","","","","","","","",""
"learning-instructions","101","540809","0.0-3.0-14.0-0.0","spark_pilot_2","7475","7","20","Female","","","","","","","725.0999999940395","<p> Before you start, we're going to ask you a few questions about how the game works. </p>","","instructions","","","","","","","","","","","","","",""
"comp-q","102","550246","0.0-3.0-15.0-0.0-0.0","spark_pilot_2","7475","7","20","Female","","","","","","","3817.7000000029802","<p> <b> True or False? </b> </p>
            <p> There can be 50 pieces of treasure in a given animal's chest. </p>","0","comp_question","","","","false","","","","","","","","","",""
"comp-q","103","557750","0.0-3.0-15.0-0.0-1.0","spark_pilot_2","7475","7","20","Female","","","","","","","966","<p> <b>Incorrect.</b> The amount of treasure in each chest can range from 0 to 40 pieces. </p>","0","comp_answer","","","","","","","","","","","","","",""
"comp-q","104","564090","0.0-3.0-15.0-0.1-0.1","spark_pilot_2","7475","7","20","Female","","","","","","","775.2999999970198","<p> <b> True or False? </b> </p>
            <p> There can be 50 pieces of treasure in a given animal's chest. </p>","1","comp_question","","","","true","","","","","","","","","",""
"comp-q","105","571682","0.0-3.0-15.0-0.1-1.1","spark_pilot_2","7475","7","20","Female","","","","","","","910","<p> <b> That's right! </b> The amount of treasure in each chest can range from 0 to 40 pieces. </p>","0","comp_answer","","","","","","","","","","","","","",""
"comp-q","106","579846","0.0-3.0-15.0-0.2-0.2","spark_pilot_2","7475","7","20","Female","","","","","","","1034.2999999970198","<p> <b> True or False? </b> </p><p> In this game, all animals have the same amount of treasure in their left and right chests. </p>","1","comp_question","","","","true","","","","","","","","","",""
"comp-q","107","586116","0.0-3.0-15.0-0.2-1.2","spark_pilot_2","7475","7","20","Female","","","","","","","1024.3999999910593","<p> <b> That's right! </b> Animals have different amounts of treasure in their treasure chests. </p>","0","comp_answer","","","","","","","","","","","","","",""
"comp-q","108","593576","0.0-3.0-15.0-0.3-0.3","spark_pilot_2","7475","7","20","Female","","","","","","","1604.199999988079","<p> <b> True or False? </b> </p><p> The same animal will always be there if you go up in the same place. </p>","1","comp_question","","","","false","","","","","","","","","",""
"comp-q","109","600696","0.0-3.0-15.0-0.3-1.3","spark_pilot_2","7475","7","20","Female","","","","","","","804","<p> <b>Incorrect.</b> One animal lives in the upper part and one lives in the lower part of every place. </p>","0","comp_answer","","","","","","","","","","","","","",""
"comp-q","110","607067","0.0-3.0-15.0-0.4-0.4","spark_pilot_2","7475","7","20","Female","","","","","","","545.3000000119209","<p> <b> True or False? </b> </p><p> The same animal will always be there if you go up in the same place. </p>","0","comp_question","","","","true","","","","","","","","","",""
"comp-q","111","614146","0.0-3.0-15.0-0.4-1.4","spark_pilot_2","7475","7","20","Female","","","","","","","614.1000000089407","<p> <b> That's right! </b> One animal lives in the upper part and one lives in the lower part of every place. </p>","0","comp_answer","","","","","","","","","","","","","",""
"comp-q","112","620291","0.0-3.0-15.0-0.5-0.5","spark_pilot_2","7475","7","20","Female","","","","","","","598.7000000029802","<p> <b> True or False? </b> </p><p> If you see a different picture, it means you are in a new place. </p>","1","comp_question","","","","true","","","","","","","","","",""
"comp-q","113","632601","0.0-3.0-15.0-0.5-1.5","spark_pilot_2","7475","7","20","Female","","","","","","","977.8999999910593","<p> <b> That's right! </b> Lots of different images may show the same place. For example,  you may see three different images that all remind you that you are in outer space. </p>","0","comp_answer","","","","","","","","","","","","","",""
"learning-instructions","114","645749","0.0-3.0-16.0-0.0","spark_pilot_2","7475","7","20","Female","","","","","","","3257.0999999940395","<p> Good job. Remember to do your best because the amount of treasure you earn will be converted into bonus money. </p>
            <p> It’s time to start the real game! </p>","","instructions","","","","","","","","","","","","","",""
"learning-instructions","115","649445","0.0-4.0-0.0-0.0","spark_pilot_2","7475","7","20","Female","","","","","","","903","<p> This time you are searching for treasure in the <b>canyon</b>.</p>","","instructions","","","","","","","","","","","","","",""
"learning-instructions","116","667491","0.0-4.0-0.0-0.1","spark_pilot_2","7475","7","20","Female","","","","","","","728.6000000089407","<p><b>New</b> animals with <b>new</b> treasure chests live here. You need to explore to discover where the animal with the best treasure chest is.</p>
                    <p> Like before, once you figure out which animal has the chest with the most treasure, you should try to get to that animal and select that chest! </p>","","instructions","","","","","","","","","","","","","",""
"learning-instructions","117","683915","0.0-4.0-1.0-0.0","spark_pilot_2","7475","7","20","Female","","","","","","","1692.4000000059605","<p> Remember, when you see a picture of the place, use the up and down keys to <b>find an animal</b>.</p>
            <p> When you encounter an animal, you should use the left and right keys to <b>select a treasure chest</b>.</p>
            <p> Don't forget to look out for the robber! </p>","","instructions","","","","","","","","","","","","","",""
"revaluation","118","689958","0.0-4.0-2.0-0.0","spark_pilot_2","7475","7","20","Female","","false","","","","","[674.5,706.1000000089407]","./assets/img/canyon/memory/38.jpg","[""ArrowUp"",""ArrowRight""]","value training","canyon","10","{""ArrowUp,ArrowLeft"":23,""ArrowUp,ArrowRight"":10,""ArrowDown,ArrowLeft"":8,""ArrowDown,ArrowRight"":30}","false","ArrowUp,ArrowRight","false","","","original","1","0","","",""
"html-keyboard-response","119","690473","0.0-4.0-2.0-1.0","spark_pilot_2","7475","7","20","Female","","","","","","","null","<div style=""font-size:60px;"">+</div>","null","fixation","","","","","","","","","","","1","","",""
"revaluation","120","696510","0.0-4.0-2.0-0.1","spark_pilot_2","7475","7","20","Female","","false","","","","","[490,546.0999999940395]","./assets/img/canyon/memory/8.jpg","[""ArrowUp"",""ArrowLeft""]","value training","canyon","23","{""ArrowUp,ArrowLeft"":23,""ArrowUp,ArrowRight"":10,""ArrowDown,ArrowLeft"":8,""ArrowDown,ArrowRight"":30}","false","ArrowUp,ArrowLeft","false","","","original","1","2","","",""
"html-keyboard-response","121","697026","0.0-4.0-2.0-1.1","spark_pilot_2","7475","7","20","Female","","","","","","","null","<div style=""font-size:60px;"">+</div>","null","fixation","","","","","","","","","","","3","","",""
"revaluation","122","703045","0.0-4.0-2.0-0.2","spark_pilot_2","7475","7","20","Female","","false","","","","","[1697.0999999940395,972.1999999880791]","./assets/img/canyon/memory/17.jpg","[""ArrowDown"",""ArrowLeft""]","value training","canyon","8","{""ArrowUp,ArrowLeft"":23,""ArrowUp,ArrowRight"":10,""ArrowDown,ArrowLeft"":8,""ArrowDown,ArrowRight"":30}","false","ArrowDown,ArrowLeft","false","","","original","1","4","","",""
"html-keyboard-response","123","703552","0.0-4.0-2.0-1.2","spark_pilot_2","7475","7","20","Female","","","","","","","null","<div style=""font-size:60px;"">+</div>","null","fixation","","","","","","","","","","","5","","",""
"revaluation","124","709589","0.0-4.0-2.0-0.3","spark_pilot_2","7475","7","20","Female","","false","","","","","[878.2000000029802,309.90000000596046]","./assets/img/canyon/memory/39.jpg","[""ArrowDown"",""ArrowRight""]","value training","canyon","30","{""ArrowUp,ArrowLeft"":23,""ArrowUp,ArrowRight"":10,""ArrowDown,ArrowLeft"":8,""ArrowDown,ArrowRight"":30}","true","ArrowDown,ArrowRight","false","","","original","1","6","","",""
"html-keyboard-response","125","710099","0.0-4.0-2.0-1.3","spark_pilot_2","7475","7","20","Female","","","","","","","null","<div style=""font-size:60px;"">+</div>","null","fixation","","","","","","","","","","","7","","",""
"revaluation","126","716124","0.0-4.0-2.0-0.4","spark_pilot_2","7475","7","20","Female","","false","","","","","[597.2999999970198,625.8999999910593]","./assets/img/canyon/memory/41.jpg","[""ArrowUp"",""ArrowLeft""]","value training","canyon","23","{""ArrowUp,ArrowLeft"":23,""ArrowUp,ArrowRight"":10,""ArrowDown,ArrowLeft"":8,""ArrowDown,ArrowRight"":30}","false","ArrowUp,ArrowLeft","false","","","original","1","8","","",""
"html-keyboard-response","127","716641","0.0-4.0-2.0-1.4","spark_pilot_2","7475","7","20","Female","","","","","","","null","<div style=""font-size:60px;"">+</div>","null","fixation","","","","","","","","","","","9","","",""
"revaluation","128","722663","0.0-4.0-2.0-0.5","spark_pilot_2","7475","7","20","Female","","false","","","","","[1071.0999999940395,577.6999999880791]","./assets/img/canyon/memory/28.jpg","[""ArrowDown"",""ArrowRight""]","value training","canyon","30","{""ArrowUp,ArrowLeft"":23,""ArrowUp,ArrowRight"":10,""ArrowDown,ArrowLeft"":8,""ArrowDown,ArrowRight"":30}","true","ArrowDown,ArrowRight","false","","","original","1","10","","",""
"html-keyboard-response","129","723171","0.0-4.0-2.0-1.5","spark_pilot_2","7475","7","20","Female","","","","","","","null","<div style=""font-size:60px;"">+</div>","null","fixation","","","","","","","","","","","11","","",""
"revaluation","130","729192","0.0-4.0-2.0-0.6","spark_pilot_2","7475","7","20","Female","","false","","","","","[638.3000000119209,486.09999999403954]","./assets/img/canyon/memory/29.jpg","[""ArrowDown"",""ArrowRight""]","value training","canyon","30","{""ArrowUp,ArrowLeft"":23,""ArrowUp,ArrowRight"":10,""ArrowDown,ArrowLeft"":8,""ArrowDown,ArrowRight"":30}","true","ArrowDown,ArrowRight","false","","","original","1","12","","",""
"html-keyboard-response","131","729703","0.0-4.0-2.0-1.6","spark_pilot_2","7475","7","20","Female","","","","","","","null","<div style=""font-size:60px;"">+</div>","null","fixation","","","","","","","","","","","13","","",""
"revaluation","132","735724","0.0-4.0-2.0-0.7","spark_pilot_2","7475","7","20","Female","","false","","","","","[587.7999999970198,689.8000000119209]","./assets/img/canyon/memory/14.jpg","[""ArrowUp"",""ArrowLeft""]","value training","canyon","23","{""ArrowUp,ArrowLeft"":23,""ArrowUp,ArrowRight"":10,""ArrowDown,ArrowLeft"":8,""ArrowDown,ArrowRight"":30}","false","ArrowUp,ArrowLeft","false","","","original","1","14","","",""
"html-keyboard-response","133","736225","0.0-4.0-2.0-1.7","spark_pilot_2","7475","7","20","Female","","","","","","","null","<div style=""font-size:60px;"">+</div>","null","fixation","","","","","","","","","","","15","","",""
"revaluation","134","742243","0.0-4.0-2.0-0.8","spark_pilot_2","7475","7","20","Female","","false","","","","","[652.4000000059605,412.6000000089407]","./assets/img/canyon/memory/29.jpg","[""ArrowDown"",""ArrowRight""]","value training","canyon","30","{""ArrowUp,ArrowLeft"":23,""ArrowUp,ArrowRight"":10,""ArrowDown,ArrowLeft"":8,""ArrowDown,ArrowRight"":30}","true","ArrowDown,ArrowRight","false","","","original","1","16","","",""
"html-keyboard-response","135","742753","0.0-4.0-2.0-1.8","spark_pilot_2","7475","7","20","Female","","","","","","","null","<div style=""font-size:60px;"">+</div>","null","fixation","","","","","","","","","","","17","","",""
"revaluation","136","746766","0.0-4.0-2.0-0.9","spark_pilot_2","7475","7","20","Female","","false","","","","","[557.5999999940395]","./assets/img/canyon/catch/6.jpg","[""spaceBar""]","value training","canyon","0","{""ArrowUp,ArrowLeft"":23,""ArrowUp,ArrowRight"":10,""ArrowDown,ArrowLeft"":8,""ArrowDown,ArrowRight"":30}","true","spaceBar","true","","","original","1","18","","",""
"html-keyboard-response","137","747275","0.0-4.0-2.0-1.9","spark_pilot_2","7475","7","20","Female","","","","","","","null","<div style=""font-size:60px;"">+</div>","null","fixation","","","","","","","","","","","19","","",""
"revaluation","138","751288","0.0-4.0-2.0-0.10","spark_pilot_2","7475","7","20","Female","","false","","","","","[385.20000000298023]","./assets/img/canyon/catch/1.jpg","[""ArrowDown""]","value training","canyon","-10","{""ArrowUp,ArrowLeft"":23,""ArrowUp,ArrowRight"":10,""ArrowDown,ArrowLeft"":8,""ArrowDown,ArrowRight"":30}","false","ArrowDown","true","","","original","1","20","","",""
"html-keyboard-response","139","751790","0.0-4.0-2.0-1.10","spark_pilot_2","7475","7","20","Female","","","","","","","null","<div style=""font-size:60px;"">+</div>","null","fixation","","","","","","","","","","","21","","",""
"revaluation","140","757806","0.0-4.0-2.0-0.11","spark_pilot_2","7475","7","20","Female","","false","","","","","[759.7999999970198,571.9000000059605]","./assets/img/canyon/memory/19.jpg","[""ArrowDown"",""ArrowRight""]","value training","canyon","30","{""ArrowUp,ArrowLeft"":23,""ArrowUp,ArrowRight"":10,""ArrowDown,ArrowLeft"":8,""ArrowDown,ArrowRight"":30}","true","ArrowDown,ArrowRight","false","","","original","1","22","","",""
"html-keyboard-response","141","758307","0.0-4.0-2.0-1.11","spark_pilot_2","7475","7","20","Female","","","","","","","null","<div style=""font-size:60px;"">+</div>","null","fixation","","","","","","","","","","","23","","",""
"revaluation","142","764328","0.0-4.0-2.0-0.12","spark_pilot_2","7475","7","20","Female","","false","","","","","[954.7000000029802,474.8999999910593]","./assets/img/canyon/memory/27.jpg","[""ArrowDown"",""ArrowRight""]","value training","canyon","30","{""ArrowUp,ArrowLeft"":23,""ArrowUp,ArrowRight"":10,""ArrowDown,ArrowLeft"":8,""ArrowDown,ArrowRight"":30}","true","ArrowDown,ArrowRight","false","","","original","1","24","","",""
"html-keyboard-response","143","764845","0.0-4.0-2.0-1.12","spark_pilot_2","7475","7","20","Female","","","","","","","null","<div style=""font-size:60px;"">+</div>","null","fixation","","","","","","","","","","","25","","",""
"revaluation","144","768863","0.0-4.0-2.0-0.13","spark_pilot_2","7475","7","20","Female","","false","","","","","[755.7999999970198]","./assets/img/canyon/catch/5.jpg","[""spaceBar""]","value training","canyon","0","{""ArrowUp,ArrowLeft"":23,""ArrowUp,ArrowRight"":10,""ArrowDown,ArrowLeft"":8,""ArrowDown,ArrowRight"":30}","true","spaceBar","true","","","original","1","26","","",""
"html-keyboard-response","145","769368","0.0-4.0-2.0-1.13","spark_pilot_2","7475","7","20","Female","","","","","","","null","<div style=""font-size:60px;"">+</div>","null","fixation","","","","","","","","","","","27","","",""
"revaluation","146","775379","0.0-4.0-2.0-0.14","spark_pilot_2","7475","7","20","Female","","false","","","","","[853.0999999940395,526.8000000119209]","./assets/img/canyon/memory/34.jpg","[""ArrowDown"",""ArrowRight""]","value training","canyon","30","{""ArrowUp,ArrowLeft"":23,""ArrowUp,ArrowRight"":10,""ArrowDown,ArrowLeft"":8,""ArrowDown,ArrowRight"":30}","true","ArrowDown,ArrowRight","false","","","original","1","28","","",""
"html-keyboard-response","147","775888","0.0-4.0-2.0-1.14","spark_pilot_2","7475","7","20","Female","","","","","","","null","<div style=""font-size:60px;"">+</div>","null","fixation","","","","","","","","","","","29","","",""
"revaluation","148","781910","0.0-4.0-2.0-0.15","spark_pilot_2","7475","7","20","Female","","false","","","","","[660.6999999880791,508.29999999701977]","./assets/img/canyon/memory/9.jpg","[""ArrowDown"",""ArrowRight""]","value training","canyon","30","{""ArrowUp,ArrowLeft"":23,""ArrowUp,ArrowRight"":10,""ArrowDown,ArrowLeft"":8,""ArrowDown,ArrowRight"":30}","true","ArrowDown,ArrowRight","false","","","original","1","30","","",""
"html-keyboard-response","149","782417","0.0-4.0-2.0-1.15","spark_pilot_2","7475","7","20","Female","","","","","","","null","<div style=""font-size:60px;"">+</div>","null","fixation","","","","","","","","","","","31","","",""
"revaluation","150","788433","0.0-4.0-2.0-0.16","spark_pilot_2","7475","7","20","Female","","false","","","","","[794.5,497.6000000089407]","./assets/img/canyon/memory/14.jpg","[""ArrowDown"",""ArrowRight""]","value training","canyon","30","{""ArrowUp,ArrowLeft"":23,""ArrowUp,ArrowRight"":10,""ArrowDown,ArrowLeft"":8,""ArrowDown,ArrowRight"":30}","true","ArrowDown,ArrowRight","false","","","original","1","32","","",""
"html-keyboard-response","151","788941","0.0-4.0-2.0-1.16","spark_pilot_2","7475","7","20","Female","","","","","","","null","<div style=""font-size:60px;"">+</div>","null","fixation","","","","","","","","","","","33","","",""
"revaluation","152","792952","0.0-4.0-2.0-0.17","spark_pilot_2","7475","7","20","Female","","false","","","","","[1124.4000000059605]","./assets/img/canyon/catch/2.jpg","[""spaceBar""]","value training","canyon","0","{""ArrowUp,ArrowLeft"":23,""ArrowUp,ArrowRight"":10,""ArrowDown,ArrowLeft"":8,""ArrowDown,ArrowRight"":30}","true","spaceBar","true","","","original","1","34","","",""
"html-keyboard-response","153","793462","0.0-4.0-2.0-1.17","spark_pilot_2","7475","7","20","Female","","","","","","","null","<div style=""font-size:60px;"">+</div>","null","fixation","","","","","","","","","","","35","","",""
"revaluation","154","799476","0.0-4.0-2.0-0.18","spark_pilot_2","7475","7","20","Female","","false","","","","","[706.3000000119209,477.90000000596046]","./assets/img/canyon/memory/10.jpg","[""ArrowDown"",""ArrowRight""]","value training","canyon","30","{""ArrowUp,ArrowLeft"":23,""ArrowUp,ArrowRight"":10,""ArrowDown,ArrowLeft"":8,""ArrowDown,ArrowRight"":30}","true","ArrowDown,ArrowRight","false","","","original","1","36","","",""
"html-keyboard-response","155","799990","0.0-4.0-2.0-1.18","spark_pilot_2","7475","7","20","Female","","","","","","","null","<div style=""font-size:60px;"">+</div>","null","fixation","","","","","","","","","","","37","","",""
"revaluation","156","804003","0.0-4.0-2.0-0.19","spark_pilot_2","7475","7","20","Female","","false","","","","","[553.1000000089407]","./assets/img/canyon/catch/3.jpg","[""spaceBar""]","value training","canyon","0","{""ArrowUp,ArrowLeft"":23,""ArrowUp,ArrowRight"":10,""ArrowDown,ArrowLeft"":8,""ArrowDown,ArrowRight"":30}","true","spaceBar","true","","","original","1","38","","",""
"html-keyboard-response","157","804507","0.0-4.0-2.0-1.19","spark_pilot_2","7475","7","20","Female","","","","","","","null","<div style=""font-size:60px;"">+</div>","null","fixation","","","","","","","","","","","39","","",""
"revaluation","158","810521","0.0-4.0-2.0-0.20","spark_pilot_2","7475","7","20","Female","","false","","","","","[689.5999999940395,454.19999998807907]","./assets/img/canyon/memory/17.jpg","[""ArrowDown"",""ArrowRight""]","value training","canyon","30","{""ArrowUp,ArrowLeft"":23,""ArrowUp,ArrowRight"":10,""ArrowDown,ArrowLeft"":8,""ArrowDown,ArrowRight"":30}","true","ArrowDown,ArrowRight","false","","","original","1","40","","",""
"html-keyboard-response","159","811024","0.0-4.0-2.0-1.20","spark_pilot_2","7475","7","20","Female","","","","","","","null","<div style=""font-size:60px;"">+</div>","null","fixation","","","","","","","","","","","41","","",""
"revaluation","160","817047","0.0-4.0-2.0-0.21","spark_pilot_2","7475","7","20","Female","","false","","","","","[711.5,463.70000000298023]","./assets/img/canyon/memory/24.jpg","[""ArrowDown"",""ArrowRight""]","value training","canyon","30","{""ArrowUp,ArrowLeft"":23,""ArrowUp,ArrowRight"":10,""ArrowDown,ArrowLeft"":8,""ArrowDown,ArrowRight"":30}","true","ArrowDown,ArrowRight","false","","","original","1","42","","",""
"html-keyboard-response","161","817548","0.0-4.0-2.0-1.21","spark_pilot_2","7475","7","20","Female","","","","","","","null","<div style=""font-size:60px;"">+</div>","null","fixation","","","","","","","","","","","43","","",""
"revaluation","162","823568","0.0-4.0-2.0-0.22","spark_pilot_2","7475","7","20","Female","","false","","","","","[512.6000000089407,438.40000000596046]","./assets/img/canyon/memory/27.jpg","[""ArrowDown"",""ArrowRight""]","value training","canyon","30","{""ArrowUp,ArrowLeft"":23,""ArrowUp,ArrowRight"":10,""ArrowDown,ArrowLeft"":8,""ArrowDown,ArrowRight"":30}","true","ArrowDown,ArrowRight","false","","","original","1","44","","",""
"html-keyboard-response","163","824078","0.0-4.0-2.0-1.22","spark_pilot_2","7475","7","20","Female","","","","","","","null","<div style=""font-size:60px;"">+</div>","null","fixation","","","","","","","","","","","45","","",""
"revaluation","164","830098","0.0-4.0-2.0-0.23","spark_pilot_2","7475","7","20","Female","","false","","","","","[515.9000000059605,473.69999998807907]","./assets/img/canyon/memory/38.jpg","[""ArrowDown"",""ArrowRight""]","value training","canyon","30","{""ArrowUp,ArrowLeft"":23,""ArrowUp,ArrowRight"":10,""ArrowDown,ArrowLeft"":8,""ArrowDown,ArrowRight"":30}","true","ArrowDown,ArrowRight","false","","","original","1","46","","",""
"html-keyboard-response","165","830608","0.0-4.0-2.0-1.23","spark_pilot_2","7475","7","20","Female","","","","","","","null","<div style=""font-size:60px;"">+</div>","null","fixation","","","","","","","","","","","47","","",""
"revaluation","166","836634","0.0-4.0-2.0-0.24","spark_pilot_2","7475","7","20","Female","","false","","","","","[953,655.2000000029802]","./assets/img/canyon/memory/12.jpg","[""ArrowDown"",""ArrowRight""]","value training","canyon","30","{""ArrowUp,ArrowLeft"":23,""ArrowUp,ArrowRight"":10,""ArrowDown,ArrowLeft"":8,""ArrowDown,ArrowRight"":30}","true","ArrowDown,ArrowRight","false","","","original","1","48","","",""
"html-keyboard-response","167","837143","0.0-4.0-2.0-1.24","spark_pilot_2","7475","7","20","Female","","","","","","","null","<div style=""font-size:60px;"">+</div>","null","fixation","","","","","","","","","","","49","","",""
"revaluation","168","843156","0.0-4.0-2.0-0.25","spark_pilot_2","7475","7","20","Female","","false","","","","","[502.3999999910593,852.2999999970198]","./assets/img/canyon/memory/22.jpg","[""ArrowDown"",""ArrowRight""]","value training","canyon","30","{""ArrowUp,ArrowLeft"":23,""ArrowUp,ArrowRight"":10,""ArrowDown,ArrowLeft"":8,""ArrowDown,ArrowRight"":30}","true","ArrowDown,ArrowRight","false","","","original","1","50","","",""
"html-keyboard-response","169","843659","0.0-4.0-2.0-1.25","spark_pilot_2","7475","7","20","Female","","","","","","","null","<div style=""font-size:60px;"">+</div>","null","fixation","","","","","","","","","","","51","","",""
"revaluation","170","849690","0.0-4.0-2.0-0.26","spark_pilot_2","7475","7","20","Female","","false","","","","","[682.8999999910593,552.2999999970198]","./assets/img/canyon/memory/12.jpg","[""ArrowDown"",""ArrowRight""]","value training","canyon","30","{""ArrowUp,ArrowLeft"":23,""ArrowUp,ArrowRight"":10,""ArrowDown,ArrowLeft"":8,""ArrowDown,ArrowRight"":30}","true","ArrowDown,ArrowRight","false","","","original","1","52","","",""
"html-keyboard-response","171","850198","0.0-4.0-2.0-1.26","spark_pilot_2","7475","7","20","Female","","","","","","","null","<div style=""font-size:60px;"">+</div>","null","fixation","","","","","","","","","","","53","","",""
"revaluation","172","856218","0.0-4.0-2.0-0.27","spark_pilot_2","7475","7","20","Female","","false","","","","","[494.40000000596046,454.5]","./assets/img/canyon/memory/19.jpg","[""ArrowDown"",""ArrowRight""]","value training","canyon","30","{""ArrowUp,ArrowLeft"":23,""ArrowUp,ArrowRight"":10,""ArrowDown,ArrowLeft"":8,""ArrowDown,ArrowRight"":30}","true","ArrowDown,ArrowRight","false","","","original","1","54","","",""
"html-keyboard-response","173","856732","0.0-4.0-2.0-1.27","spark_pilot_2","7475","7","20","Female","","","","","","","null","<div style=""font-size:60px;"">+</div>","null","fixation","","","","","","","","","","","55","","",""
"revaluation","174","860746","0.0-4.0-2.0-0.28","spark_pilot_2","7475","7","20","Female","","false","","","","","[708.2999999970198]","./assets/img/canyon/catch/4.jpg","[""spaceBar""]","value training","canyon","0","{""ArrowUp,ArrowLeft"":23,""ArrowUp,ArrowRight"":10,""ArrowDown,ArrowLeft"":8,""ArrowDown,ArrowRight"":30}","true","spaceBar","true","","","original","1","56","","",""
"html-keyboard-response","175","861255","0.0-4.0-2.0-1.28","spark_pilot_2","7475","7","20","Female","","","","","","","null","<div style=""font-size:60px;"">+</div>","null","fixation","","","","","","","","","","","57","","",""
"revaluation","176","867273","0.0-4.0-2.0-0.29","spark_pilot_2","7475","7","20","Female","","false","","","","","[712,528.3000000119209]","./assets/img/canyon/memory/8.jpg","[""ArrowDown"",""ArrowRight""]","value training","canyon","30","{""ArrowUp,ArrowLeft"":23,""ArrowUp,ArrowRight"":10,""ArrowDown,ArrowLeft"":8,""ArrowDown,ArrowRight"":30}","true","ArrowDown,ArrowRight","false","","","original","1","58","","",""
"html-keyboard-response","177","867783","0.0-4.0-2.0-1.29","spark_pilot_2","7475","7","20","Female","","","","","","","null","<div style=""font-size:60px;"">+</div>","null","fixation","","","","","","","","","","","59","","",""
"revaluation","178","873817","0.0-4.0-2.0-0.30","spark_pilot_2","7475","7","20","Female","","false","","","","","[606.3999999910593,552.5999999940395]","./assets/img/canyon/memory/5.jpg","[""ArrowDown"",""ArrowRight""]","value training","canyon","30","{""ArrowUp,ArrowLeft"":23,""ArrowUp,ArrowRight"":10,""ArrowDown,ArrowLeft"":8,""ArrowDown,ArrowRight"":30}","true","ArrowDown,ArrowRight","false","","","original","1","60","","",""
"html-keyboard-response","179","874325","0.0-4.0-2.0-1.30","spark_pilot_2","7475","7","20","Female","","","","","","","null","<div style=""font-size:60px;"">+</div>","null","fixation","","","","","","","","","","","61","","",""
"revaluation","180","878336","0.0-4.0-2.0-0.31","spark_pilot_2","7475","7","20","Female","","false","","","","","[665.7999999970198]","./assets/img/canyon/catch/0.jpg","[""spaceBar""]","value training","canyon","0","{""ArrowUp,ArrowLeft"":23,""ArrowUp,ArrowRight"":10,""ArrowDown,ArrowLeft"":8,""ArrowDown,ArrowRight"":30}","true","spaceBar","true","","","original","1","62","","",""
"html-keyboard-response","181","878846","0.0-4.0-2.0-1.31","spark_pilot_2","7475","7","20","Female","","","","","","","null","<div style=""font-size:60px;"">+</div>","null","fixation","","","","","","","","","","","63","","",""
"revaluation","182","884870","0.0-4.0-2.0-0.32","spark_pilot_2","7475","7","20","Female","","false","","","","","[658.5,430.90000000596046]","./assets/img/canyon/memory/0.jpg","[""ArrowDown"",""ArrowRight""]","value training","canyon","30","{""ArrowUp,ArrowLeft"":23,""ArrowUp,ArrowRight"":10,""ArrowDown,ArrowLeft"":8,""ArrowDown,ArrowRight"":30}","true","ArrowDown,ArrowRight","false","","","original","1","64","","",""
"html-keyboard-response","183","885377","0.0-4.0-2.0-1.32","spark_pilot_2","7475","7","20","Female","","","","","","","null","<div style=""font-size:60px;"">+</div>","null","fixation","","","","","","","","","","","65","","",""
"revaluation","184","891396","0.0-4.0-2.0-0.33","spark_pilot_2","7475","7","20","Female","","false","","","","","[740.2999999970198,777.3000000119209]","./assets/img/canyon/memory/9.jpg","[""ArrowDown"",""ArrowRight""]","value training","canyon","30","{""ArrowUp,ArrowLeft"":23,""ArrowUp,ArrowRight"":10,""ArrowDown,ArrowLeft"":8,""ArrowDown,ArrowRight"":30}","true","ArrowDown,ArrowRight","false","","","original","1","66","","",""
"html-keyboard-response","185","891907","0.0-4.0-2.0-1.33","spark_pilot_2","7475","7","20","Female","","","","","","","null","<div style=""font-size:60px;"">+</div>","null","fixation","","","","","","","","","","","67","","",""
"revaluation","186","897936","0.0-4.0-2.0-0.34","spark_pilot_2","7475","7","20","Female","","false","","","","","[567,473.5]","./assets/img/canyon/memory/15.jpg","[""ArrowDown"",""ArrowRight""]","value training","canyon","30","{""ArrowUp,ArrowLeft"":23,""ArrowUp,ArrowRight"":10,""ArrowDown,ArrowLeft"":8,""ArrowDown,ArrowRight"":30}","true","ArrowDown,ArrowRight","false","","","original","1","68","","",""
"html-keyboard-response","187","898442","0.0-4.0-2.0-1.34","spark_pilot_2","7475","7","20","Female","","","","","","","null","<div style=""font-size:60px;"">+</div>","null","fixation","","","","","","","","","","","69","","",""
"revaluation","188","904457","0.0-4.0-2.0-0.35","spark_pilot_2","7475","7","20","Female","","false","","","","","[536.7000000029802,507.29999999701977]","./assets/img/canyon/memory/24.jpg","[""ArrowDown"",""ArrowRight""]","value training","canyon","30","{""ArrowUp,ArrowLeft"":23,""ArrowUp,ArrowRight"":10,""ArrowDown,ArrowLeft"":8,""ArrowDown,ArrowRight"":30}","true","ArrowDown,ArrowRight","false","","","original","1","70","","",""
"html-keyboard-response","189","904968","0.0-4.0-2.0-1.35","spark_pilot_2","7475","7","20","Female","","","","","","","null","<div style=""font-size:60px;"">+</div>","null","fixation","","","","","","","","","","","71","","",""
"revaluation","190","910988","0.0-4.0-2.0-0.36","spark_pilot_2","7475","7","20","Female","","false","","","","","[474.80000001192093,496.90000000596046]","./assets/img/canyon/memory/22.jpg","[""ArrowDown"",""ArrowRight""]","value training","canyon","30","{""ArrowUp,ArrowLeft"":23,""ArrowUp,ArrowRight"":10,""ArrowDown,ArrowLeft"":8,""ArrowDown,ArrowRight"":30}","true","ArrowDown,ArrowRight","false","","","original","1","72","","",""
"html-keyboard-response","191","911497","0.0-4.0-2.0-1.36","spark_pilot_2","7475","7","20","Female","","","","","","","null","<div style=""font-size:60px;"">+</div>","null","fixation","","","","","","","","","","","73","","",""
"revaluation","192","917511","0.0-4.0-2.0-0.37","spark_pilot_2","7475","7","20","Female","","false","","","","","[556.0999999940395,528.7000000029802]","./assets/img/canyon/memory/41.jpg","[""ArrowDown"",""ArrowRight""]","value training","canyon","30","{""ArrowUp,ArrowLeft"":23,""ArrowUp,ArrowRight"":10,""ArrowDown,ArrowLeft"":8,""ArrowDown,ArrowRight"":30}","true","ArrowDown,ArrowRight","false","","","original","1","74","","",""
"html-keyboard-response","193","918015","0.0-4.0-2.0-1.37","spark_pilot_2","7475","7","20","Female","","","","","","","null","<div style=""font-size:60px;"">+</div>","null","fixation","","","","","","","","","","","75","","",""
"revaluation","194","924031","0.0-4.0-2.0-0.38","spark_pilot_2","7475","7","20","Female","","false","","","","","[531.7999999970198,477.29999999701977]","./assets/img/canyon/memory/15.jpg","[""ArrowDown"",""ArrowRight""]","value training","canyon","30","{""ArrowUp,ArrowLeft"":23,""ArrowUp,ArrowRight"":10,""ArrowDown,ArrowLeft"":8,""ArrowDown,ArrowRight"":30}","true","ArrowDown,ArrowRight","false","","","original","1","76","","",""
"html-keyboard-response","195","924533","0.0-4.0-2.0-1.38","spark_pilot_2","7475","7","20","Female","","","","","","","null","<div style=""font-size:60px;"">+</div>","null","fixation","","","","","","","","","","","77","","",""
"revaluation","196","930560","0.0-4.0-2.0-0.39","spark_pilot_2","7475","7","20","Female","","false","","","","","[571.5,422]","./assets/img/canyon/memory/21.jpg","[""ArrowUp"",""ArrowLeft""]","value training","canyon","23","{""ArrowUp,ArrowLeft"":23,""ArrowUp,ArrowRight"":10,""ArrowDown,ArrowLeft"":8,""ArrowDown,ArrowRight"":30}","false","ArrowUp,ArrowLeft","false","","","original","1","78","","",""
"html-keyboard-response","197","931066","0.0-4.0-2.0-1.39","spark_pilot_2","7475","7","20","Female","","","","","","","null","<div style=""font-size:60px;"">+</div>","null","fixation","","","","","","","","","","","79","","",""
"revaluation","198","937089","0.0-4.0-2.0-0.40","spark_pilot_2","7475","7","20","Female","","false","","","","","[662.7999999970198,657.1000000089407]","./assets/img/canyon/memory/36.jpg","[""ArrowDown"",""ArrowRight""]","value training","canyon","30","{""ArrowUp,ArrowLeft"":23,""ArrowUp,ArrowRight"":10,""ArrowDown,ArrowLeft"":8,""ArrowDown,ArrowRight"":30}","true","ArrowDown,ArrowRight","false","","","original","1","80","","",""
"html-keyboard-response","199","937593","0.0-4.0-2.0-1.40","spark_pilot_2","7475","7","20","Female","","","","","","","null","<div style=""font-size:60px;"">+</div>","null","fixation","","","","","","","","","","","81","","",""
"revaluation","200","943609","0.0-4.0-2.0-0.41","spark_pilot_2","7475","7","20","Female","","false","","","","","[670.8000000119209,493.09999999403954]","./assets/img/canyon/memory/21.jpg","[""ArrowDown"",""ArrowRight""]","value training","canyon","30","{""ArrowUp,ArrowLeft"":23,""ArrowUp,ArrowRight"":10,""ArrowDown,ArrowLeft"":8,""ArrowDown,ArrowRight"":30}","true","ArrowDown,ArrowRight","false","","","original","1","82","","",""
"html-keyboard-response","201","944115","0.0-4.0-2.0-1.41","spark_pilot_2","7475","7","20","Female","","","","","","","null","<div style=""font-size:60px;"">+</div>","null","fixation","","","","","","","","","","","83","","",""
"revaluation","202","950131","0.0-4.0-2.0-0.42","spark_pilot_2","7475","7","20","Female","","false","","","","","[541.4000000059605,704.2000000029802]","./assets/img/canyon/memory/39.jpg","[""ArrowDown"",""ArrowRight""]","value training","canyon","30","{""ArrowUp,ArrowLeft"":23,""ArrowUp,ArrowRight"":10,""ArrowDown,ArrowLeft"":8,""ArrowDown,ArrowRight"":30}","true","ArrowDown,ArrowRight","false","","","original","1","84","","",""
"html-keyboard-response","203","950637","0.0-4.0-2.0-1.42","spark_pilot_2","7475","7","20","Female","","","","","","","null","<div style=""font-size:60px;"">+</div>","null","fixation","","","","","","","","","","","85","","",""
"revaluation","204","956660","0.0-4.0-2.0-0.43","spark_pilot_2","7475","7","20","Female","","false","","","","","[524.5,925.7000000029802]","./assets/img/canyon/memory/28.jpg","[""ArrowDown"",""ArrowRight""]","value training","canyon","30","{""ArrowUp,ArrowLeft"":23,""ArrowUp,ArrowRight"":10,""ArrowDown,ArrowLeft"":8,""ArrowDown,ArrowRight"":30}","true","ArrowDown,ArrowRight","false","","","original","1","86","","",""
"html-keyboard-response","205","957166","0.0-4.0-2.0-1.43","spark_pilot_2","7475","7","20","Female","","","","","","","null","<div style=""font-size:60px;"">+</div>","null","fixation","","","","","","","","","","","87","","",""
"revaluation","206","963180","0.0-4.0-2.0-0.44","spark_pilot_2","7475","7","20","Female","","false","","","","","[552.4000000059605,377.59999999403954]","./assets/img/canyon/memory/34.jpg","[""ArrowDown"",""ArrowRight""]","value training","canyon","30","{""ArrowUp,ArrowLeft"":23,""ArrowUp,ArrowRight"":10,""ArrowDown,ArrowLeft"":8,""ArrowDown,ArrowRight"":30}","true","ArrowDown,ArrowRight","false","","","original","1","88","","",""
"html-keyboard-response","207","963690","0.0-4.0-2.0-1.44","spark_pilot_2","7475","7","20","Female","","","","","","","null","<div style=""font-size:60px;"">+</div>","null","fixation","","","","","","","","","","","89","","",""
"revaluation","208","967705","0.0-4.0-2.0-0.45","spark_pilot_2","7475","7","20","Female","","false","","","","","[693.3999999910593]","./assets/img/canyon/catch/7.jpg","[""spaceBar""]","value training","canyon","0","{""ArrowUp,ArrowLeft"":23,""ArrowUp,ArrowRight"":10,""ArrowDown,ArrowLeft"":8,""ArrowDown,ArrowRight"":30}","true","spaceBar","true","","","original","1","90","","",""
"html-keyboard-response","209","968211","0.0-4.0-2.0-1.45","spark_pilot_2","7475","7","20","Female","","","","","","","null","<div style=""font-size:60px;"">+</div>","null","fixation","","","","","","","","","","","91","","",""
"revaluation","210","974238","0.0-4.0-2.0-0.46","spark_pilot_2","7475","7","20","Female","","false","","","","","[691.9000000059605,522.0999999940395]","./assets/img/canyon/memory/10.jpg","[""ArrowDown"",""ArrowRight""]","value training","canyon","30","{""ArrowUp,ArrowLeft"":23,""ArrowUp,ArrowRight"":10,""ArrowDown,ArrowLeft"":8,""ArrowDown,ArrowRight"":30}","true","ArrowDown,ArrowRight","false","","","original","1","92","","",""
"html-keyboard-response","211","974744","0.0-4.0-2.0-1.46","spark_pilot_2","7475","7","20","Female","","","","","","","null","<div style=""font-size:60px;"">+</div>","null","fixation","","","","","","","","","","","93","","",""
"revaluation","212","980764","0.0-4.0-2.0-0.47","spark_pilot_2","7475","7","20","Female","","false","","","","","[608.2000000029802,603.3000000119209]","./assets/img/canyon/memory/36.jpg","[""ArrowDown"",""ArrowRight""]","value training","canyon","30","{""ArrowUp,ArrowLeft"":23,""ArrowUp,ArrowRight"":10,""ArrowDown,ArrowLeft"":8,""ArrowDown,ArrowRight"":30}","true","ArrowDown,ArrowRight","false","","","original","1","94","","",""
"html-keyboard-response","213","981272","0.0-4.0-2.0-1.47","spark_pilot_2","7475","7","20","Female","","","","","","","null","<div style=""font-size:60px;"">+</div>","null","fixation","","","","","","","","","","","95","","",""
"revaluation","214","987293","0.0-4.0-2.0-0.48","spark_pilot_2","7475","7","20","Female","","false","","","","","[839.2000000029802,546.2000000029802]","./assets/img/canyon/memory/5.jpg","[""ArrowDown"",""ArrowRight""]","value training","canyon","30","{""ArrowUp,ArrowLeft"":23,""ArrowUp,ArrowRight"":10,""ArrowDown,ArrowLeft"":8,""ArrowDown,ArrowRight"":30}","true","ArrowDown,ArrowRight","false","","","original","1","96","","",""
"html-keyboard-response","215","987802","0.0-4.0-2.0-1.48","spark_pilot_2","7475","7","20","Female","","","","","","","null","<div style=""font-size:60px;"">+</div>","null","fixation","","","","","","","","","","","97","","",""
"revaluation","216","993830","0.0-4.0-2.0-0.49","spark_pilot_2","7475","7","20","Female","","false","","","","","[485,515.5]","./assets/img/canyon/memory/0.jpg","[""ArrowDown"",""ArrowRight""]","value training","canyon","30","{""ArrowUp,ArrowLeft"":23,""ArrowUp,ArrowRight"":10,""ArrowDown,ArrowLeft"":8,""ArrowDown,ArrowRight"":30}","true","ArrowDown,ArrowRight","false","","","original","1","98","","",""
"html-keyboard-response","217","994334","0.0-4.0-2.0-1.49","spark_pilot_2","7475","7","20","Female","","","","","","","null","<div style=""font-size:60px;"">+</div>","null","fixation","","","","","","","","","","","99","","",""
"learning-instructions","218","1010437","0.0-4.0-3.0-0.0","spark_pilot_2","7475","7","20","Female","","","","","","","2657.199999988079","<p> Now, you will travel with a friend who will choose whether you go up or down first. </p>
            <p> On these turns, you will just see the animal that they found. You will still get to choose which chest to search for treasure.</p>","","instructions","","","","","","","","","","","","","",""
"revaluation","219","1014459","0.0-4.0-4.0-0.0","spark_pilot_2","7475","7","20","Female","","false","","","","","[692.7999999970198]","./assets/img/canyon/animals/giraffe.jpg","[""ArrowLeft""]","revaluation","canyon","8","{""ArrowUp,ArrowLeft"":23,""ArrowUp,ArrowRight"":10,""ArrowDown,ArrowLeft"":8,""ArrowDown,ArrowRight"":30}","false","ArrowDown,ArrowLeft","","","","original","1","0","","",""
"html-keyboard-response","220","1014977","0.0-4.0-4.0-1.0","spark_pilot_2","7475","7","20","Female","","","","","","","null","<div style=""font-size:60px;"">+</div>","null","fixation","","","","","","","","","","","1","","",""
"revaluation","221","1018994","0.0-4.0-4.0-0.1","spark_pilot_2","7475","7","20","Female","","false","","","","","[912.7000000029802]","./assets/img/canyon/animals/giraffe.jpg","[""ArrowRight""]","revaluation","canyon","30","{""ArrowUp,ArrowLeft"":23,""ArrowUp,ArrowRight"":10,""ArrowDown,ArrowLeft"":8,""ArrowDown,ArrowRight"":30}","true","ArrowDown,ArrowRight","","","","original","1","2","","",""
"html-keyboard-response","222","1019506","0.0-4.0-4.0-1.1","spark_pilot_2","7475","7","20","Female","","","","","","","null","<div style=""font-size:60px;"">+</div>","null","fixation","","","","","","","","","","","3","","",""
"revaluation","223","1023534","0.0-4.0-4.0-0.2","spark_pilot_2","7475","7","20","Female","","false","","","","","[631.5999999940395]","./assets/img/canyon/animals/lion.jpg","[""ArrowLeft""]","revaluation","canyon","23","{""ArrowUp,ArrowLeft"":23,""ArrowUp,ArrowRight"":10,""ArrowDown,ArrowLeft"":8,""ArrowDown,ArrowRight"":30}","true","ArrowUp,ArrowLeft","","","","original","1","4","","",""
"html-keyboard-response","224","1024040","0.0-4.0-4.0-1.2","spark_pilot_2","7475","7","20","Female","","","","","","","null","<div style=""font-size:60px;"">+</div>","null","fixation","","","","","","","","","","","5","","",""
"revaluation","225","1028054","0.0-4.0-4.0-0.3","spark_pilot_2","7475","7","20","Female","","false","","","","","[703.0999999940395]","./assets/img/canyon/animals/giraffe.jpg","[""ArrowRight""]","revaluation","canyon","30","{""ArrowUp,ArrowLeft"":23,""ArrowUp,ArrowRight"":10,""ArrowDown,ArrowLeft"":8,""ArrowDown,ArrowRight"":30}","true","ArrowDown,ArrowRight","","","","original","1","6","","",""
"html-keyboard-response","226","1028558","0.0-4.0-4.0-1.3","spark_pilot_2","7475","7","20","Female","","","","","","","null","<div style=""font-size:60px;"">+</div>","null","fixation","","","","","","","","","","","7","","",""
"revaluation","227","1032580","0.0-4.0-4.0-0.4","spark_pilot_2","7475","7","20","Female","","false","","","","","[695.5999999940395]","./assets/img/canyon/animals/giraffe.jpg","[""ArrowRight""]","revaluation","canyon","30","{""ArrowUp,ArrowLeft"":23,""ArrowUp,ArrowRight"":10,""ArrowDown,ArrowLeft"":8,""ArrowDown,ArrowRight"":30}","true","ArrowDown,ArrowRight","","","","original","1","8","","",""
"html-keyboard-response","228","1033088","0.0-4.0-4.0-1.4","spark_pilot_2","7475","7","20","Female","","","","","","","null","<div style=""font-size:60px;"">+</div>","null","fixation","","","","","","","","","","","9","","",""
"revaluation","229","1037111","0.0-4.0-4.0-0.5","spark_pilot_2","7475","7","20","Female","","false","","","","","[529.5999999940395]","./assets/img/canyon/animals/lion.jpg","[""ArrowLeft""]","revaluation","canyon","23","{""ArrowUp,ArrowLeft"":23,""ArrowUp,ArrowRight"":10,""ArrowDown,ArrowLeft"":8,""ArrowDown,ArrowRight"":30}","true","ArrowUp,ArrowLeft","","","","original","1","10","","",""
"html-keyboard-response","230","1037619","0.0-4.0-4.0-1.5","spark_pilot_2","7475","7","20","Female","","","","","","","null","<div style=""font-size:60px;"">+</div>","null","fixation","","","","","","","","","","","11","","",""
"revaluation","231","1041634","0.0-4.0-4.0-0.6","spark_pilot_2","7475","7","20","Female","","false","","","","","[480.79999999701977]","./assets/img/canyon/animals/giraffe.jpg","[""ArrowRight""]","revaluation","canyon","30","{""ArrowUp,ArrowLeft"":23,""ArrowUp,ArrowRight"":10,""ArrowDown,ArrowLeft"":8,""ArrowDown,ArrowRight"":30}","true","ArrowDown,ArrowRight","","","","original","1","12","","",""
"html-keyboard-response","232","1042138","0.0-4.0-4.0-1.6","spark_pilot_2","7475","7","20","Female","","","","","","","null","<div style=""font-size:60px;"">+</div>","null","fixation","","","","","","","","","","","13","","",""
"revaluation","233","1046152","0.0-4.0-4.0-0.7","spark_pilot_2","7475","7","20","Female","","false","","","","","[589.5]","./assets/img/canyon/animals/giraffe.jpg","[""ArrowRight""]","revaluation","canyon","30","{""ArrowUp,ArrowLeft"":23,""ArrowUp,ArrowRight"":10,""ArrowDown,ArrowLeft"":8,""ArrowDown,ArrowRight"":30}","true","ArrowDown,ArrowRight","","","","original","1","14","","",""
"html-keyboard-response","234","1046660","0.0-4.0-4.0-1.7","spark_pilot_2","7475","7","20","Female","","","","","","","null","<div style=""font-size:60px;"">+</div>","null","fixation","","","","","","","","","","","15","","",""
"revaluation","235","1050674","0.0-4.0-4.0-0.8","spark_pilot_2","7475","7","20","Female","","false","","","","","[583.6000000089407]","./assets/img/canyon/animals/lion.jpg","[""ArrowLeft""]","revaluation","canyon","23","{""ArrowUp,ArrowLeft"":23,""ArrowUp,ArrowRight"":10,""ArrowDown,ArrowLeft"":8,""ArrowDown,ArrowRight"":30}","true","ArrowUp,ArrowLeft","","","","original","1","16","","",""
"html-keyboard-response","236","1051178","0.0-4.0-4.0-1.8","spark_pilot_2","7475","7","20","Female","","","","","","","null","<div style=""font-size:60px;"">+</div>","null","fixation","","","","","","","","","","","17","","",""
"revaluation","237","1055197","0.0-4.0-4.0-0.9","spark_pilot_2","7475","7","20","Female","","false","","","","","[826.0999999940395]","./assets/img/canyon/animals/giraffe.jpg","[""ArrowRight""]","revaluation","canyon","30","{""ArrowUp,ArrowLeft"":23,""ArrowUp,ArrowRight"":10,""ArrowDown,ArrowLeft"":8,""ArrowDown,ArrowRight"":30}","true","ArrowDown,ArrowRight","","","","original","1","18","","",""
"html-keyboard-response","238","1055701","0.0-4.0-4.0-1.9","spark_pilot_2","7475","7","20","Female","","","","","","","null","<div style=""font-size:60px;"">+</div>","null","fixation","","","","","","","","","","","19","","",""
"revaluation","239","1059723","0.0-4.0-4.0-0.10","spark_pilot_2","7475","7","20","Female","","false","","","","","[658.5]","./assets/img/canyon/animals/lion.jpg","[""ArrowLeft""]","revaluation","canyon","23","{""ArrowUp,ArrowLeft"":23,""ArrowUp,ArrowRight"":10,""ArrowDown,ArrowLeft"":8,""ArrowDown,ArrowRight"":30}","true","ArrowUp,ArrowLeft","","","","original","1","20","","",""
"html-keyboard-response","240","1060226","0.0-4.0-4.0-1.10","spark_pilot_2","7475","7","20","Female","","","","","","","null","<div style=""font-size:60px;"">+</div>","null","fixation","","","","","","","","","","","21","","",""
"revaluation","241","1064244","0.0-4.0-4.0-0.11","spark_pilot_2","7475","7","20","Female","","false","","","","","[776.2999999970198]","./assets/img/canyon/animals/lion.jpg","[""ArrowLeft""]","revaluation","canyon","23","{""ArrowUp,ArrowLeft"":23,""ArrowUp,ArrowRight"":10,""ArrowDown,ArrowLeft"":8,""ArrowDown,ArrowRight"":30}","true","ArrowUp,ArrowLeft","","","","original","1","22","","",""
"html-keyboard-response","242","1064753","0.0-4.0-4.0-1.11","spark_pilot_2","7475","7","20","Female","","","","","","","null","<div style=""font-size:60px;"">+</div>","null","fixation","","","","","","","","","","","23","","",""
"revaluation","243","1068768","0.0-4.0-4.0-0.12","spark_pilot_2","7475","7","20","Female","","false","","","","","[850.2000000029802]","./assets/img/canyon/animals/lion.jpg","[""ArrowLeft""]","revaluation","canyon","23","{""ArrowUp,ArrowLeft"":23,""ArrowUp,ArrowRight"":10,""ArrowDown,ArrowLeft"":8,""ArrowDown,ArrowRight"":30}","true","ArrowUp,ArrowLeft","","","","original","1","24","","",""
"html-keyboard-response","244","1069272","0.0-4.0-4.0-1.12","spark_pilot_2","7475","7","20","Female","","","","","","","null","<div style=""font-size:60px;"">+</div>","null","fixation","","","","","","","","","","","25","","",""
"revaluation","245","1073291","0.0-4.0-4.0-0.13","spark_pilot_2","7475","7","20","Female","","false","","","","","[753.7000000029802]","./assets/img/canyon/animals/giraffe.jpg","[""ArrowRight""]","revaluation","canyon","30","{""ArrowUp,ArrowLeft"":23,""ArrowUp,ArrowRight"":10,""ArrowDown,ArrowLeft"":8,""ArrowDown,ArrowRight"":30}","true","ArrowDown,ArrowRight","","","","original","1","26","","",""
"html-keyboard-response","246","1073794","0.0-4.0-4.0-1.13","spark_pilot_2","7475","7","20","Female","","","","","","","null","<div style=""font-size:60px;"">+</div>","null","fixation","","","","","","","","","","","27","","",""
"revaluation","247","1077811","0.0-4.0-4.0-0.14","spark_pilot_2","7475","7","20","Female","","false","","","","","[612.6999999880791]","./assets/img/canyon/animals/lion.jpg","[""ArrowLeft""]","revaluation","canyon","23","{""ArrowUp,ArrowLeft"":23,""ArrowUp,ArrowRight"":10,""ArrowDown,ArrowLeft"":8,""ArrowDown,ArrowRight"":30}","true","ArrowUp,ArrowLeft","","","","original","1","28","","",""
"html-keyboard-response","248","1078312","0.0-4.0-4.0-1.14","spark_pilot_2","7475","7","20","Female","","","","","","","null","<div style=""font-size:60px;"">+</div>","null","fixation","","","","","","","","","","","29","","",""
"revaluation","249","1082334","0.0-4.0-4.0-0.15","spark_pilot_2","7475","7","20","Female","","false","","","","","[626.5999999940395]","./assets/img/canyon/animals/giraffe.jpg","[""ArrowRight""]","revaluation","canyon","30","{""ArrowUp,ArrowLeft"":23,""ArrowUp,ArrowRight"":10,""ArrowDown,ArrowLeft"":8,""ArrowDown,ArrowRight"":30}","true","ArrowDown,ArrowRight","","","","original","1","30","","",""
"html-keyboard-response","250","1082839","0.0-4.0-4.0-1.15","spark_pilot_2","7475","7","20","Female","","","","","","","null","<div style=""font-size:60px;"">+</div>","null","fixation","","","","","","","","","","","31","","",""
"revaluation","251","1086848","0.0-4.0-4.0-0.16","spark_pilot_2","7475","7","20","Female","","false","","","","","[676.5]","./assets/img/canyon/animals/lion.jpg","[""ArrowLeft""]","revaluation","canyon","23","{""ArrowUp,ArrowLeft"":23,""ArrowUp,ArrowRight"":10,""ArrowDown,ArrowLeft"":8,""ArrowDown,ArrowRight"":30}","true","ArrowUp,ArrowLeft","","","","original","1","32","","",""
"html-keyboard-response","252","1087359","0.0-4.0-4.0-1.16","spark_pilot_2","7475","7","20","Female","","","","","","","null","<div style=""font-size:60px;"">+</div>","null","fixation","","","","","","","","","","","33","","",""
"revaluation","253","1091380","0.0-4.0-4.0-0.17","spark_pilot_2","7475","7","20","Female","","false","","","","","[665.5]","./assets/img/canyon/animals/lion.jpg","[""ArrowLeft""]","revaluation","canyon","23","{""ArrowUp,ArrowLeft"":23,""ArrowUp,ArrowRight"":10,""ArrowDown,ArrowLeft"":8,""ArrowDown,ArrowRight"":30}","true","ArrowUp,ArrowLeft","","","","original","1","34","","",""
"html-keyboard-response","254","1091889","0.0-4.0-4.0-1.17","spark_pilot_2","7475","7","20","Female","","","","","","","null","<div style=""font-size:60px;"">+</div>","null","fixation","","","","","","","","","","","35","","",""
"learning-instructions","255","1104710","0.0-4.0-5.0-0.0","spark_pilot_2","7475","7","20","Female","","","","","","","903.5","<p> Time to play the dot game! </p>
            <p> For one minute, click the red dots on the following screen as they appear. </p>
            <p><b> Don't look away, as you will earn bonus for clicking dots</b>. </p>","","instructions","","","","","","","","","","","","","",""
"revaluation","256","1164713","0.0-4.0-6.0-0.0","spark_pilot_2","7475","7","20","Female","","","","","","","[64,75,91,60,72,56,57]","","","rest","","70","","","","","0","60000","","","","","",""
"learning-instructions","257","1185125","0.0-4.0-7.0-0.0","spark_pilot_2","7475","7","20","Female","","","","","","","13782.20000000298","<p> You have almost finished this part of the game! </p>
            <p> We are going to ask you to make a few more choices. </p>","","instructions","","","","","","","","","","","","","",""
"learning-instructions","258","1200185","0.0-4.0-7.0-0.1","spark_pilot_2","7475","7","20","Female","","","","","","","1091.8999999910593","<p> First, you need to decide whether to go up or down. When you see each picture, use the arrow keys to make your choice. </p>
            <p><b>You will not see which animal you found, but try to get to the one that will give you the most treasure.</b></p>","","instructions","","","","","","","","","","","","","",""
"revaluation","259","1201370","0.0-4.0-8.0-0.0","spark_pilot_2","7475","7","20","Female","","false","","","","","[1180.9000000059605]","./assets/img/canyon/test/0.jpg","[""ArrowUp""]","first stage test","canyon","0","{""ArrowUp,ArrowLeft"":23,""ArrowUp,ArrowRight"":10,""ArrowDown,ArrowLeft"":8,""ArrowDown,ArrowRight"":30}","false","ArrowUp","false","","","original","1","","","",""
"html-keyboard-response","260","1201883","0.0-4.0-8.0-1.0","spark_pilot_2","7475","7","20","Female","","","","","","","null","<div style=""font-size:60px;"">+</div>","null","fixation","","","","","","","","","","","","","",""
"revaluation","261","1203204","0.0-4.0-8.0-0.1","spark_pilot_2","7475","7","20","Female","","false","","","","","[1315.4000000059605]","./assets/img/canyon/test/2.jpg","[""ArrowUp""]","first stage test","canyon","0","{""ArrowUp,ArrowLeft"":23,""ArrowUp,ArrowRight"":10,""ArrowDown,ArrowLeft"":8,""ArrowDown,ArrowRight"":30}","false","ArrowUp","false","","","original","1","","","",""
"html-keyboard-response","262","1203710","0.0-4.0-8.0-1.1","spark_pilot_2","7475","7","20","Female","","","","","","","null","<div style=""font-size:60px;"">+</div>","null","fixation","","","","","","","","","","","","","",""
"revaluation","263","1204673","0.0-4.0-8.0-0.2","spark_pilot_2","7475","7","20","Female","","false","","","","","[956.7000000029802]","./assets/img/canyon/test/3.jpg","[""ArrowUp""]","first stage test","canyon","0","{""ArrowUp,ArrowLeft"":23,""ArrowUp,ArrowRight"":10,""ArrowDown,ArrowLeft"":8,""ArrowDown,ArrowRight"":30}","false","ArrowUp","false","","","original","1","","","",""
"html-keyboard-response","264","1205179","0.0-4.0-8.0-1.2","spark_pilot_2","7475","7","20","Female","","","","","","","null","<div style=""font-size:60px;"">+</div>","null","fixation","","","","","","","","","","","","","",""
"revaluation","265","1205903","0.0-4.0-8.0-0.3","spark_pilot_2","7475","7","20","Female","","false","","","","","[717.5]","./assets/img/canyon/test/1.jpg","[""ArrowUp""]","first stage test","canyon","0","{""ArrowUp,ArrowLeft"":23,""ArrowUp,ArrowRight"":10,""ArrowDown,ArrowLeft"":8,""ArrowDown,ArrowRight"":30}","false","ArrowUp","false","","","original","1","","","",""
"html-keyboard-response","266","1206414","0.0-4.0-8.0-1.3","spark_pilot_2","7475","7","20","Female","","","","","","","null","<div style=""font-size:60px;"">+</div>","null","fixation","","","","","","","","","","","","","",""
"learning-instructions","267","1219753","0.0-4.0-9.0-0.0","spark_pilot_2","7475","7","20","Female","","","","","","","1999.9000000059605","<p> Now you will see the animals again and can search their chests for treasure. </p>
            <p> This time, you will not see how much treasure you earned, but you will earn more bonus money for making better choices. </p>","","instructions","","","","","","","","","","","","","",""
"revaluation","268","1220559","0.0-4.0-10.0-0.0","spark_pilot_2","7475","7","20","Female","","false","","","","","[802.4000000059605]","./assets/img/canyon/animals/lion.jpg","[""ArrowLeft""]","second stage test","canyon","0","{""ArrowUp,ArrowLeft"":23,""ArrowUp,ArrowRight"":10,""ArrowDown,ArrowLeft"":8,""ArrowDown,ArrowRight"":30}","true","ArrowUp,ArrowLeft","","","","original","1","","","",""
"html-keyboard-response","269","1221073","0.0-4.0-10.0-1.0","spark_pilot_2","7475","7","20","Female","","","","","","","null","<div style=""font-size:60px;"">+</div>","null","fixation","","","","","","","","","","","","","",""
"revaluation","270","1221673","0.0-4.0-10.0-0.1","spark_pilot_2","7475","7","20","Female","","false","","","","","[593.6999999880791]","./assets/img/canyon/animals/lion.jpg","[""ArrowLeft""]","second stage test","canyon","0","{""ArrowUp,ArrowLeft"":23,""ArrowUp,ArrowRight"":10,""ArrowDown,ArrowLeft"":8,""ArrowDown,ArrowRight"":30}","true","ArrowUp,ArrowLeft","","","","original","1","","","",""
"html-keyboard-response","271","1222177","0.0-4.0-10.0-1.1","spark_pilot_2","7475","7","20","Female","","","","","","","null","<div style=""font-size:60px;"">+</div>","null","fixation","","","","","","","","","","","","","",""
"revaluation","272","1222704","0.0-4.0-10.0-0.2","spark_pilot_2","7475","7","20","Female","","false","","","","","[522.1000000089407]","./assets/img/canyon/animals/lion.jpg","[""ArrowLeft""]","second stage test","canyon","0","{""ArrowUp,ArrowLeft"":23,""ArrowUp,ArrowRight"":10,""ArrowDown,ArrowLeft"":8,""ArrowDown,ArrowRight"":30}","true","ArrowUp,ArrowLeft","","","","original","1","","","",""
"html-keyboard-response","273","1223206","0.0-4.0-10.0-1.2","spark_pilot_2","7475","7","20","Female","","","","","","","null","<div style=""font-size:60px;"">+</div>","null","fixation","","","","","","","","","","","","","",""
"revaluation","274","1223730","0.0-4.0-10.0-0.3","spark_pilot_2","7475","7","20","Female","","false","","","","","[517.5999999940395]","./assets/img/canyon/animals/lion.jpg","[""ArrowLeft""]","second stage test","canyon","0","{""ArrowUp,ArrowLeft"":23,""ArrowUp,ArrowRight"":10,""ArrowDown,ArrowLeft"":8,""ArrowDown,ArrowRight"":30}","true","ArrowUp,ArrowLeft","","","","original","1","","","",""
"html-keyboard-response","275","1224238","0.0-4.0-10.0-1.3","spark_pilot_2","7475","7","20","Female","","","","","","","null","<div style=""font-size:60px;"">+</div>","null","fixation","","","","","","","","","","","","","",""
"revaluation","276","1224832","0.0-4.0-10.0-0.4","spark_pilot_2","7475","7","20","Female","","false","","","","","[587.1000000089407]","./assets/img/canyon/animals/giraffe.jpg","[""ArrowRight""]","second stage test","canyon","0","{""ArrowUp,ArrowLeft"":23,""ArrowUp,ArrowRight"":10,""ArrowDown,ArrowLeft"":8,""ArrowDown,ArrowRight"":30}","true","ArrowDown,ArrowRight","","","","original","1","","","",""
"html-keyboard-response","277","1225347","0.0-4.0-10.0-1.4","spark_pilot_2","7475","7","20","Female","","","","","","","null","<div style=""font-size:60px;"">+</div>","null","fixation","","","","","","","","","","","","","",""
"revaluation","278","1225774","0.0-4.0-10.0-0.5","spark_pilot_2","7475","7","20","Female","","false","","","","","[420]","./assets/img/canyon/animals/giraffe.jpg","[""ArrowRight""]","second stage test","canyon","0","{""ArrowUp,ArrowLeft"":23,""ArrowUp,ArrowRight"":10,""ArrowDown,ArrowLeft"":8,""ArrowDown,ArrowRight"":30}","true","ArrowDown,ArrowRight","","","","original","1","","","",""
"html-keyboard-response","279","1226279","0.0-4.0-10.0-1.5","spark_pilot_2","7475","7","20","Female","","","","","","","null","<div style=""font-size:60px;"">+</div>","null","fixation","","","","","","","","","","","","","",""
"revaluation","280","1226736","0.0-4.0-10.0-0.6","spark_pilot_2","7475","7","20","Female","","false","","","","","[451.8999999910593]","./assets/img/canyon/animals/giraffe.jpg","[""ArrowRight""]","second stage test","canyon","0","{""ArrowUp,ArrowLeft"":23,""ArrowUp,ArrowRight"":10,""ArrowDown,ArrowLeft"":8,""ArrowDown,ArrowRight"":30}","true","ArrowDown,ArrowRight","","","","original","1","","","",""
"html-keyboard-response","281","1227244","0.0-4.0-10.0-1.6","spark_pilot_2","7475","7","20","Female","","","","","","","null","<div style=""font-size:60px;"">+</div>","null","fixation","","","","","","","","","","","","","",""
"revaluation","282","1227610","0.0-4.0-10.0-0.7","spark_pilot_2","7475","7","20","Female","","false","","","","","[360.3999999910593]","./assets/img/canyon/animals/giraffe.jpg","[""ArrowRight""]","second stage test","canyon","0","{""ArrowUp,ArrowLeft"":23,""ArrowUp,ArrowRight"":10,""ArrowDown,ArrowLeft"":8,""ArrowDown,ArrowRight"":30}","true","ArrowDown,ArrowRight","","","","original","1","","","",""
"html-keyboard-response","283","1228114","0.0-4.0-10.0-1.7","spark_pilot_2","7475","7","20","Female","","","","","","","null","<div style=""font-size:60px;"">+</div>","null","fixation","","","","","","","","","","","","","",""
"learning-instructions","284","1231984","0.0-4.0-0.1-0.2","spark_pilot_2","7475","7","20","Female","","","","","","","1131.6000000089407","<p> This time you are searching for treasure in the <b>ocean</b>.</p>","","instructions","","","","","","","","","","","","","",""
"learning-instructions","285","1335889","0.0-4.0-0.1-0.3","spark_pilot_2","7475","7","20","Female","","","","","","","86661.5","<p><b>New</b> animals with <b>new</b> treasure chests live here. You need to explore to discover where the animal with the best treasure chest is.</p>
                    <p> Like before, once you figure out which animal has the chest with the most treasure, you should try to get to that animal and select that chest! </p>","","instructions","","","","","","","","","","","","","",""
"learning-instructions","286","1359340","0.0-4.0-1.1-0.1","spark_pilot_2","7475","7","20","Female","","","","","","","8134.100000008941","<p> Remember, when you see a picture of the place, use the up and down keys to <b>find an animal</b>.</p>
            <p> When you encounter an animal, you should use the left and right keys to <b>select a treasure chest</b>.</p>
            <p> Don't forget to look out for the robber! </p>","","instructions","","","","","","","","","","","","","",""
"revaluation","287","1365366","0.0-4.0-2.1-0.50","spark_pilot_2","7475","7","20","Female","","false","","","","","[947.2000000029802,610.5]","./assets/img/ocean/memory/34.jpg","[""ArrowUp"",""ArrowLeft""]","value training","ocean","26","{""ArrowUp,ArrowLeft"":26,""ArrowUp,ArrowRight"":10,""ArrowDown,ArrowLeft"":5,""ArrowDown,ArrowRight"":17}","true","ArrowUp,ArrowLeft","false","","","revaluation","2","0","","",""
"html-keyboard-response","288","1365883","0.0-4.0-2.1-1.50","spark_pilot_2","7475","7","20","Female","","","","","","","null","<div style=""font-size:60px;"">+</div>","null","fixation","","","","","","","","","","","1","","",""
"revaluation","289","1371905","0.0-4.0-2.1-0.51","spark_pilot_2","7475","7","20","Female","","false","","","","","[443.20000000298023,572.2000000029802]","./assets/img/ocean/memory/28.jpg","[""ArrowUp"",""ArrowRight""]","value training","ocean","10","{""ArrowUp,ArrowLeft"":26,""ArrowUp,ArrowRight"":10,""ArrowDown,ArrowLeft"":5,""ArrowDown,ArrowRight"":17}","false","ArrowUp,ArrowRight","false","","","revaluation","2","2","","",""
"html-keyboard-response","290","1372415","0.0-4.0-2.1-1.51","spark_pilot_2","7475","7","20","Female","","","","","","","null","<div style=""font-size:60px;"">+</div>","null","fixation","","","","","","","","","","","3","","",""
"revaluation","291","1378457","0.0-4.0-2.1-0.52","spark_pilot_2","7475","7","20","Female","","false","","","","","[744.7000000029802,1253.7999999970198]","./assets/img/ocean/memory/0.jpg","[""ArrowDown"",""ArrowLeft""]","value training","ocean","5","{""ArrowUp,ArrowLeft"":26,""ArrowUp,ArrowRight"":10,""ArrowDown,ArrowLeft"":5,""ArrowDown,ArrowRight"":17}","false","ArrowDown,ArrowLeft","false","","","revaluation","2","4","","",""
"html-keyboard-response","292","1378963","0.0-4.0-2.1-1.52","spark_pilot_2","7475","7","20","Female","","","","","","","null","<div style=""font-size:60px;"">+</div>","null","fixation","","","","","","","","","","","5","","",""
"revaluation","293","1384987","0.0-4.0-2.1-0.53","spark_pilot_2","7475","7","20","Female","","false","","","","","[1321.6000000089407,873.2999999970198]","./assets/img/ocean/memory/10.jpg","[""ArrowDown"",""ArrowRight""]","value training","ocean","17","{""ArrowUp,ArrowLeft"":26,""ArrowUp,ArrowRight"":10,""ArrowDown,ArrowLeft"":5,""ArrowDown,ArrowRight"":17}","false","ArrowDown,ArrowRight","false","","","revaluation","2","6","","",""
"html-keyboard-response","294","1385495","0.0-4.0-2.1-1.53","spark_pilot_2","7475","7","20","Female","","","","","","","null","<div style=""font-size:60px;"">+</div>","null","fixation","","","","","","","","","","","7","","",""
"revaluation","295","1391526","0.0-4.0-2.1-0.54","spark_pilot_2","7475","7","20","Female","","false","","","","","[634.0999999940395,984]","./assets/img/ocean/memory/12.jpg","[""ArrowUp"",""ArrowLeft""]","value training","ocean","26","{""ArrowUp,ArrowLeft"":26,""ArrowUp,ArrowRight"":10,""ArrowDown,ArrowLeft"":5,""ArrowDown,ArrowRight"":17}","true","ArrowUp,ArrowLeft","false","","","revaluation","2","8","","",""
"html-keyboard-response","296","1392031","0.0-4.0-2.1-1.54","spark_pilot_2","7475","7","20","Female","","","","","","","null","<div style=""font-size:60px;"">+</div>","null","fixation","","","","","","","","","","","9","","",""
"revaluation","297","1398054","0.0-4.0-2.1-0.55","spark_pilot_2","7475","7","20","Female","","false","","","","","[626,610.5]","./assets/img/ocean/memory/12.jpg","[""ArrowUp"",""ArrowLeft""]","value training","ocean","26","{""ArrowUp,ArrowLeft"":26,""ArrowUp,ArrowRight"":10,""ArrowDown,ArrowLeft"":5,""ArrowDown,ArrowRight"":17}","true","ArrowUp,ArrowLeft","false","","","revaluation","2","10","","",""
"html-keyboard-response","298","1398566","0.0-4.0-2.1-1.55","spark_pilot_2","7475","7","20","Female","","","","","","","null","<div style=""font-size:60px;"">+</div>","null","fixation","","","","","","","","","","","11","","",""
"revaluation","299","1404587","0.0-4.0-2.1-0.56","spark_pilot_2","7475","7","20","Female","","false","","","","","[511.79999999701977,281.1000000089407]","./assets/img/ocean/memory/41.jpg","[""ArrowUp"",""ArrowLeft""]","value training","ocean","26","{""ArrowUp,ArrowLeft"":26,""ArrowUp,ArrowRight"":10,""ArrowDown,ArrowLeft"":5,""ArrowDown,ArrowRight"":17}","true","ArrowUp,ArrowLeft","false","","","revaluation","2","12","","",""
"html-keyboard-response","300","1405097","0.0-4.0-2.1-1.56","spark_pilot_2","7475","7","20","Female","","","","","","","null","<div style=""font-size:60px;"">+</div>","null","fixation","","","","","","","","","","","13","","",""
"revaluation","301","1411116","0.0-4.0-2.1-0.57","spark_pilot_2","7475","7","20","Female","","false","","","","","[504.6000000089407,434]","./assets/img/ocean/memory/21.jpg","[""ArrowUp"",""ArrowLeft""]","value training","ocean","26","{""ArrowUp,ArrowLeft"":26,""ArrowUp,ArrowRight"":10,""ArrowDown,ArrowLeft"":5,""ArrowDown,ArrowRight"":17}","true","ArrowUp,ArrowLeft","false","","","revaluation","2","14","","",""
"html-keyboard-response","302","1411624","0.0-4.0-2.1-1.57","spark_pilot_2","7475","7","20","Female","","","","","","","null","<div style=""font-size:60px;"">+</div>","null","fixation","","","","","","","","","","","15","","",""
"revaluation","303","1417647","0.0-4.0-2.1-0.58","spark_pilot_2","7475","7","20","Female","","false","","","","","[514,446.29999999701977]","./assets/img/ocean/memory/36.jpg","[""ArrowUp"",""ArrowLeft""]","value training","ocean","26","{""ArrowUp,ArrowLeft"":26,""ArrowUp,ArrowRight"":10,""ArrowDown,ArrowLeft"":5,""ArrowDown,ArrowRight"":17}","true","ArrowUp,ArrowLeft","false","","","revaluation","2","16","","",""
"html-keyboard-response","304","1418149","0.0-4.0-2.1-1.58","spark_pilot_2","7475","7","20","Female","","","","","","","null","<div style=""font-size:60px;"">+</div>","null","fixation","","","","","","","","","","","17","","",""
"revaluation","305","1424175","0.0-4.0-2.1-0.59","spark_pilot_2","7475","7","20","Female","","false","","","","","[461.59999999403954,399.20000000298023]","./assets/img/ocean/memory/39.jpg","[""ArrowUp"",""ArrowLeft""]","value training","ocean","26","{""ArrowUp,ArrowLeft"":26,""ArrowUp,ArrowRight"":10,""ArrowDown,ArrowLeft"":5,""ArrowDown,ArrowRight"":17}","true","ArrowUp,ArrowLeft","false","","","revaluation","2","18","","",""
