"trial_type","trial_index","time_elapsed","internal_node_id","task_version","subject_id","assigned_condition","age","gender","browser_interaction","success","timeout","failed_images","failed_audio","failed_video","rt","stimulus","response","task_part","environment","score","rewardMap","correct","fullState","isCatch","numberMissed","duration","condition","order","trial_num","key_press","ground_truth","bonus"
"pavlovia","0","1455","0.0-0.0","spark_pilot_2","7120","4","8","Female","[{""event"":""blur"",""trial"":1,""time"":4397},{""event"":""focus"",""trial"":1,""time"":6728},{""event"":""fullscreenenter"",""trial"":2,""time"":14221},{""event"":""fullscreenexit"",""trial"":3,""time"":17754}]","","","","","","","","","","","","","","","","","","","","","","",""
"preload","1","12734","0.0-1.0","spark_pilot_2","7120","4","8","Female","[{""event"":""blur"",""trial"":1,""time"":4397},{""event"":""focus"",""trial"":1,""time"":6728},{""event"":""fullscreenenter"",""trial"":2,""time"":14221},{""event"":""fullscreenexit"",""trial"":3,""time"":17754}]","true","false","[]","[]","[]","","","","","","","","","","","","","","","","","",""
"fullscreen","2","15212","0.0-2.0","spark_pilot_2","7120","4","8","Female","[{""event"":""blur"",""trial"":1,""time"":4397},{""event"":""focus"",""trial"":1,""time"":6728},{""event"":""fullscreenenter"",""trial"":2,""time"":14221},{""event"":""fullscreenexit"",""trial"":3,""time"":17754}]","true","","","","","","","","","","","","","","","","","","","","","",""
"audio-button-response","3","20416","0.0-3.0-0.0-0.0","spark_pilot_2","7120","4","8","Female","","","","","","","5072","./assets/audio/audiotest/turtle.mp3","2","audio_test","","","","","","","","","","","","","",""
"learning-instructions","4","30224","0.0-3.0-1.0-0.0","spark_pilot_2","7120","4","8","Female","","","","","","","2814.7000000029802","<p> Welcome! Please remember to stay in fullscreen mode and don't click away from the experiment. </p>","","instructions","","","","","","","","","","","","","",""
"learning-instructions","5","41578","0.0-3.0-1.0-0.1","spark_pilot_2","7120","4","8","Female","","","","","","","2925.7999999970198","<p> Today you will be playing a game to earn treasure. </p>
            <p> At the end of the experiment, you will earn a bonus based on how much treasure you find. </p>
            <img src='./assets/img/instructions/treasure.jpg' class='instructions-image'>","","instructions","","","","","","","","","","","","","",""
"learning-instructions","6","52302","0.0-3.0-1.0-0.2","spark_pilot_2","7120","4","8","Female","","","","","","","2438.6999999955297","<p> Animals have hidden treasure in treasure chests. </p>
            <p> You need to first find an animal and then choose which of their treasure chests to search. </p>
            <img src='./assets/img/space/animals/cat.jpg' class='instructions-image'>","","instructions","","","","","","","","","","","","","",""
"learning-instructions","7","67219","0.0-3.0-1.0-0.3","spark_pilot_2","7120","4","8","Female","","","","","","","1739.3999999985099","<p> In each round, you will search for treasure in a different place. In the real game, there will be two rounds. </p>
            <p> You will begin with a separate, practice round where you will search for treasure in outer space. </p>
            <img src='./assets/img/space/0.jpg' class='instructions-image'>","","instructions","","","","","","","","","","","","","",""
"learning-instructions","8","80550","0.0-3.0-1.0-0.4","spark_pilot_2","7120","4","8","Female","","","","","","","1887","<p> On every turn, you will see a picture of the place that you are in, but the specific image may be different each time. </p>
            <p> For example, both of these images mean you are in outer space. </p>
            <img src='./assets/img/instructions/outerspace.jpg' class='instructions-image'>","","instructions","","","","","","","","","","","","","",""
"learning-instructions","9","89306","0.0-3.0-1.0-0.5","spark_pilot_2","7120","4","8","Female","","","","","","","909.5","<p> You need to decide which direction to travel in. </p>
            <p> You can choose between going <b>up or down</b> by using the arrow keys. </p>
            <img src='./assets/img/instructions/updown.jpg' class='instructions-image'>","","instructions","","","","","","","","","","","","","",""
"learning-instructions","10","99856","0.0-3.0-1.0-0.6","spark_pilot_2","7120","4","8","Female","","","","","","","1726.1000000014901","<p> You will have <b>2 seconds</b> to make your choice. </p>
            <p> If you do not make a choice within 2 seconds, you will not find an animal or earn treasure. </p>
            <img src='./assets/img/instructions/2seconds.jpg' class='instructions-image'>","","instructions","","","","","","","","","","","","","",""
"learning-instructions","11","109947","0.0-3.0-1.0-0.7","spark_pilot_2","7120","4","8","Female","","","","","","","3037.89999999851","<p> Let’s try practicing that now! </p>
            <p> When you see a picture of the place you are in, press the <b>up</b> key to travel up. </p>
            <img src='./assets/img/instructions/pressUp.jpg' class='instructions-image'>","","instructions","","","","","","","","","","","","","",""
"revaluation","12","113976","0.0-3.0-2.0-0.0","spark_pilot_2","7120","4","8","Female","","","false","","","","[1063.1000000014901]","./assets/img/space/0.jpg","[""ArrowUp""]","first stage practice","space","0","null","null","ArrowUp","false","","","","","","","",""
"html-keyboard-response","13","114486","0.0-3.0-2.0-1.0","spark_pilot_2","7120","4","8","Female","","","","","","","null","<div style=""font-size:60px;"">+</div>","null","fixation","","","","","","","","","","","","","",""
"revaluation","14","118503","0.0-3.0-2.0-0.1","spark_pilot_2","7120","4","8","Female","","","false","","","","[1540.8999999985099]","./assets/img/space/1.jpg","[""ArrowUp""]","first stage practice","space","0","null","null","ArrowUp","false","","","","","","","",""
"html-keyboard-response","15","119005","0.0-3.0-2.0-1.1","spark_pilot_2","7120","4","8","Female","","","","","","","null","<div style=""font-size:60px;"">+</div>","null","fixation","","","","","","","","","","","","","",""
"revaluation","16","123026","0.0-3.0-2.0-0.2","spark_pilot_2","7120","4","8","Female","","","false","","","","[737.5]","./assets/img/space/2.jpg","[""ArrowUp""]","first stage practice","space","0","null","null","ArrowUp","false","","","","","","","",""
"html-keyboard-response","17","123533","0.0-3.0-2.0-1.2","spark_pilot_2","7120","4","8","Female","","","","","","","null","<div style=""font-size:60px;"">+</div>","null","fixation","","","","","","","","","","","","","",""
"learning-instructions","18","129914","0.0-3.0-3.0-0.0","spark_pilot_2","7120","4","8","Female","","","","","","","1676.2999999970198","<p> Great job! Now try pressing the <b>down</b> key to travel down. </p>
            <img src='./assets/img/instructions/pressDown.jpg' class='instructions-image'>","","instructions","","","","","","","","","","","","","",""
"revaluation","19","133925","0.0-3.0-4.0-0.0","spark_pilot_2","7120","4","8","Female","","","false","","","","[599.1000000014901]","./assets/img/space/3.jpg","[""ArrowDown""]","first stage practice","space","0","null","null","ArrowDown","false","","","","","","","",""
"html-keyboard-response","20","134429","0.0-3.0-4.0-1.0","spark_pilot_2","7120","4","8","Female","","","","","","","null","<div style=""font-size:60px;"">+</div>","null","fixation","","","","","","","","","","","","","",""
"revaluation","21","138445","0.0-3.0-4.0-0.1","spark_pilot_2","7120","4","8","Female","","","false","","","","[828]","./assets/img/space/4.jpg","[""ArrowDown""]","first stage practice","space","0","null","null","ArrowDown","false","","","","","","","",""
"html-keyboard-response","22","138951","0.0-3.0-4.0-1.1","spark_pilot_2","7120","4","8","Female","","","","","","","null","<div style=""font-size:60px;"">+</div>","null","fixation","","","","","","","","","","","","","",""
"revaluation","23","142968","0.0-3.0-4.0-0.2","spark_pilot_2","7120","4","8","Female","","","false","","","","[762.3999999985099]","./assets/img/space/5.jpg","[""ArrowDown""]","first stage practice","space","0","null","null","ArrowDown","false","","","","","","","",""
"html-keyboard-response","24","143471","0.0-3.0-4.0-1.2","spark_pilot_2","7120","4","8","Female","","","","","","","null","<div style=""font-size:60px;"">+</div>","null","fixation","","","","","","","","","","","","","",""
"learning-instructions","25","154645","0.0-3.0-5.0-0.0","spark_pilot_2","7120","4","8","Female","","","","","","","1308.2999999970198","<p> The animals don’t move, so the animal in the upper part of a place will stay in the upper part of a place, and the animal in the lower part of a place will stay in the lower part of a place. </p>","","instructions","","","","","","","","","","","","","",""
"learning-instructions","26","165269","0.0-3.0-5.0-0.1","spark_pilot_2","7120","4","8","Female","","","","","","","1479.5","<p> Each animal has two treasure chests for you to choose from. </p>
            <p> The amount of treasure in each chest can range from <b> 0 to 40 pieces.</b></p>","","instructions","","","","","","","","","","","","","",""
"learning-instructions","27","177554","0.0-3.0-5.0-0.2","spark_pilot_2","7120","4","8","Female","","","","","","","1086.4000000059605","<p> You should decide which chest to search for treasure by using the <b>left</b> and <b>right</b> arrow keys. </p>
            <p><b> Pay attention to which animal is on the screen, as the animals have different treasure chests. </b></p>
            <img src='./assets/img/instructions/leftright.jpg' class='instructions-image'>","","instructions","","","","","","","","","","","","","",""
"learning-instructions","28","185381","0.0-3.0-5.0-0.3","spark_pilot_2","7120","4","8","Female","","","","","","","1452.8999999985099","<p> Let’s try practicing that now. </p>
            <p> When you see an animal, choose which chest to search for treasure. </p>
            <img src='./assets/img/instructions/chooseChest.jpg' class='instructions-image'>","","instructions","","","","","","","","","","","","","",""
"revaluation","29","189392","0.0-3.0-6.0-0.0","spark_pilot_2","7120","4","8","Female","","","false","","","","[442.19999999552965]","./assets/img/space/animals/cat.jpg","[""ArrowRight""]","second stage practice","space","36","{""ArrowUp,ArrowLeft"":3,""ArrowUp,ArrowRight"":36,""ArrowDown,ArrowLeft"":15,""ArrowDown,ArrowRight"":23}","true","ArrowUp,ArrowRight","","","","","","","","",""
"html-keyboard-response","30","189896","0.0-3.0-6.0-1.0","spark_pilot_2","7120","4","8","Female","","","","","","","null","<div style=""font-size:60px;"">+</div>","null","fixation","","","","","","","","","","","","","",""
"revaluation","31","193914","0.0-3.0-6.0-0.1","spark_pilot_2","7120","4","8","Female","","","false","","","","[1656.1999999955297]","./assets/img/space/animals/cat.jpg","[""ArrowLeft""]","second stage practice","space","3","{""ArrowUp,ArrowLeft"":3,""ArrowUp,ArrowRight"":36,""ArrowDown,ArrowLeft"":15,""ArrowDown,ArrowRight"":23}","false","ArrowUp,ArrowLeft","","","","","","","","",""
"html-keyboard-response","32","194419","0.0-3.0-6.0-1.1","spark_pilot_2","7120","4","8","Female","","","","","","","null","<div style=""font-size:60px;"">+</div>","null","fixation","","","","","","","","","","","","","",""
"revaluation","33","198424","0.0-3.0-6.0-0.2","spark_pilot_2","7120","4","8","Female","","","false","","","","[940.6000000014901]","./assets/img/space/animals/rabbit.jpg","[""ArrowRight""]","second stage practice","space","23","{""ArrowUp,ArrowLeft"":3,""ArrowUp,ArrowRight"":36,""ArrowDown,ArrowLeft"":15,""ArrowDown,ArrowRight"":23}","true","ArrowDown,ArrowRight","","","","","","","","",""
"html-keyboard-response","34","198927","0.0-3.0-6.0-1.2","spark_pilot_2","7120","4","8","Female","","","","","","","null","<div style=""font-size:60px;"">+</div>","null","fixation","","","","","","","","","","","","","",""
"revaluation","35","202942","0.0-3.0-6.0-0.3","spark_pilot_2","7120","4","8","Female","","","false","","","","[917.2000000029802]","./assets/img/space/animals/rabbit.jpg","[""ArrowLeft""]","second stage practice","space","15","{""ArrowUp,ArrowLeft"":3,""ArrowUp,ArrowRight"":36,""ArrowDown,ArrowLeft"":15,""ArrowDown,ArrowRight"":23}","false","ArrowDown,ArrowLeft","","","","","","","","",""
"html-keyboard-response","36","203446","0.0-3.0-6.0-1.3","spark_pilot_2","7120","4","8","Female","","","","","","","null","<div style=""font-size:60px;"">+</div>","null","fixation","","","","","","","","","","","","","",""
"learning-instructions","37","222502","0.0-3.0-7.0-0.0","spark_pilot_2","7120","4","8","Female","","","","","","","2221.10000000149","<p> Great job. Now let’s try putting it together. </p>
            <p> On each turn, you will first see a picture to remind you of the place you are in, and you need to choose whether to go up or down. </p>
            <p> Then you will see an animal and choose which of its chests to search for treasure. </p>","","instructions","","","","","","","","","","","","","",""
"learning-instructions","38","233468","0.0-3.0-7.0-0.1","spark_pilot_2","7120","4","8","Female","","","","","","","2691.39999999851","<p> When you choose whether to go up or down, try to go to the animal with the chest with the most treasure. </p>
            <p> Try practicing that now! </p>","","instructions","","","","","","","","","","","","","",""
"revaluation","39","237478","0.0-3.0-8.0-0.0","spark_pilot_2","7120","4","8","Female","","","true","","","","[]","./assets/img/space/6.jpg","[]","full practice","space","-5","{""ArrowUp,ArrowLeft"":3,""ArrowUp,ArrowRight"":36,""ArrowDown,ArrowLeft"":15,""ArrowDown,ArrowRight"":23}","false","","false","","","","","","","",""
"html-keyboard-response","40","237984","0.0-3.0-8.0-1.0","spark_pilot_2","7120","4","8","Female","","","","","","","null","<div style=""font-size:60px;"">+</div>","null","fixation","","","","","","","","","","","","","",""
"revaluation","41","241998","0.0-3.0-8.0-0.1","spark_pilot_2","7120","4","8","Female","","","true","","","","[]","./assets/img/space/7.jpg","[]","full practice","space","-5","{""ArrowUp,ArrowLeft"":3,""ArrowUp,ArrowRight"":36,""ArrowDown,ArrowLeft"":15,""ArrowDown,ArrowRight"":23}","false","","false","","","","","","","",""
"html-keyboard-response","42","242502","0.0-3.0-8.0-1.1","spark_pilot_2","7120","4","8","Female","","","","","","","null","<div style=""font-size:60px;"">+</div>","null","fixation","","","","","","","","","","","","","",""
"revaluation","43","248526","0.0-3.0-8.0-0.2","spark_pilot_2","7120","4","8","Female","","","false","","","","[393.3999999985099,1377.4000000059605]","./assets/img/space/8.jpg","[""ArrowUp"",""ArrowRight""]","full practice","space","36","{""ArrowUp,ArrowLeft"":3,""ArrowUp,ArrowRight"":36,""ArrowDown,ArrowLeft"":15,""ArrowDown,ArrowRight"":23}","true","ArrowUp,ArrowRight","false","","","","","","","",""
"html-keyboard-response","44","249031","0.0-3.0-8.0-1.2","spark_pilot_2","7120","4","8","Female","","","","","","","null","<div style=""font-size:60px;"">+</div>","null","fixation","","","","","","","","","","","","","",""
"revaluation","45","255054","0.0-3.0-8.0-0.3","spark_pilot_2","7120","4","8","Female","","","false","","","","[632.6000000014901,530.4000000059605]","./assets/img/space/9.jpg","[""ArrowUp"",""ArrowRight""]","full practice","space","36","{""ArrowUp,ArrowLeft"":3,""ArrowUp,ArrowRight"":36,""ArrowDown,ArrowLeft"":15,""ArrowDown,ArrowRight"":23}","true","ArrowUp,ArrowRight","false","","","","","","","",""
"html-keyboard-response","46","255561","0.0-3.0-8.0-1.3","spark_pilot_2","7120","4","8","Female","","","","","","","null","<div style=""font-size:60px;"">+</div>","null","fixation","","","","","","","","","","","","","",""
"revaluation","47","261583","0.0-3.0-8.0-0.4","spark_pilot_2","7120","4","8","Female","","","false","","","","[421.6000000014901,410]","./assets/img/space/10.jpg","[""ArrowUp"",""ArrowRight""]","full practice","space","36","{""ArrowUp,ArrowLeft"":3,""ArrowUp,ArrowRight"":36,""ArrowDown,ArrowLeft"":15,""ArrowDown,ArrowRight"":23}","true","ArrowUp,ArrowRight","false","","","","","","","",""
"html-keyboard-response","48","262089","0.0-3.0-8.0-1.4","spark_pilot_2","7120","4","8","Female","","","","","","","null","<div style=""font-size:60px;"">+</div>","null","fixation","","","","","","","","","","","","","",""
"learning-instructions","49","273945","0.0-3.0-9.0-0.0","spark_pilot_2","7120","4","8","Female","","","","","","","1526.6999999955297","<p> One last thing: sometimes, you will see a robber. The robber can be anywhere in the picture. </p>
            <p> If you do not stop them, you will lose treasure. </p>
            <img src='./assets/img/instructions/robber.jpg' class='instructions-image'>","","instructions","","","","","","","","","","","","","",""
"learning-instructions","50","282723","0.0-3.0-9.0-0.1","spark_pilot_2","7120","4","8","Female","","","","","","","1590.3999999985099","<p> If you see the robber, you should <b>press the space bar</b> rather than using the arrow keys. </p>
            <p> Try practicing that now! </p>","","instructions","","","","","","","","","","","","","",""
"revaluation","51","286738","0.0-3.0-10.0-0.0","spark_pilot_2","7120","4","8","Female","","","false","","","","[1721.2000000029802]","./assets/img/space/catch/0.jpg","[""ArrowUp""]","catch practice","space","-10","{""ArrowUp,ArrowLeft"":3,""ArrowUp,ArrowRight"":36,""ArrowDown,ArrowLeft"":15,""ArrowDown,ArrowRight"":23}","false","ArrowUp","true","","","","","","","",""
"html-keyboard-response","52","287250","0.0-3.0-10.0-1.0","spark_pilot_2","7120","4","8","Female","","","","","","","null","<div style=""font-size:60px;"">+</div>","null","fixation","","","","","","","","","","","","","",""
"revaluation","53","291266","0.0-3.0-10.0-0.1","spark_pilot_2","7120","4","8","Female","","","false","","","","[809.3000000044703]","./assets/img/space/catch/1.jpg","[""spaceBar""]","catch practice","space","0","{""ArrowUp,ArrowLeft"":3,""ArrowUp,ArrowRight"":36,""ArrowDown,ArrowLeft"":15,""ArrowDown,ArrowRight"":23}","true","spaceBar","true","","","","","","","",""
"html-keyboard-response","54","291777","0.0-3.0-10.0-1.1","spark_pilot_2","7120","4","8","Female","","","","","","","null","<div style=""font-size:60px;"">+</div>","null","fixation","","","","","","","","","","","","","",""
"revaluation","55","295794","0.0-3.0-10.0-0.2","spark_pilot_2","7120","4","8","Female","","","false","","","","[652.2000000029802]","./assets/img/space/catch/2.jpg","[""spaceBar""]","catch practice","space","0","{""ArrowUp,ArrowLeft"":3,""ArrowUp,ArrowRight"":36,""ArrowDown,ArrowLeft"":15,""ArrowDown,ArrowRight"":23}","true","spaceBar","true","","","","","","","",""
"html-keyboard-response","56","296306","0.0-3.0-10.0-1.2","spark_pilot_2","7120","4","8","Female","","","","","","","null","<div style=""font-size:60px;"">+</div>","null","fixation","","","","","","","","","","","","","",""
"learning-instructions","57","312786","0.0-3.0-11.0-0.0","spark_pilot_2","7120","4","8","Female","","","","","","","2873.8000000044703","<p> After you explore a place to find treasure, it will be time to play a different game. </p>
            <p> During this game, red dots will appear on the screen and fall down slowly. </p>
            <p><b> You must click on them before they reach the bottom. </b></p>
            <img src='./assets/img/instructions/dotGame.jpg' class='instructions-image'>","","instructions","","","","","","","","","","","","","",""
"learning-instructions","58","319952","0.0-3.0-11.0-0.1","spark_pilot_2","7120","4","8","Female","","","","","","","1356.9000000059605","<p> For every dot you click, you will earn additional treasure. </p>
            <p> Let’s try practicing that now. </p>","","instructions","","","","","","","","","","","","","",""
"revaluation","59","334965","0.0-3.0-12.0-0.0","spark_pilot_2","7120","4","8","Female","","","","","","","[120]","","","rest practice","","10","","","","","0","15000","","","","","",""
"learning-instructions","60","341984","0.0-3.0-13.0-0.0-0.0","spark_pilot_2","7120","4","8","Female","","","","","","","1746.3000000044703","<p> Now, you will practice a shortened version of the game to get a sense of how it all fits together. </p>","","instructions","","","","","","","","","","","","","",""
"learning-instructions","61","346512","0.0-3.0-13.0-0.0-0.1","spark_pilot_2","7120","4","8","Female","","","","","","","1325.3000000044703","<p>This time you are searching for treasure in outer space.</p>","","instructions","","","","","","","","","","","","","",""
"learning-instructions","62","367336","0.0-3.0-13.0-1.0-0.0","spark_pilot_2","7120","4","8","Female","","","","","","","6037.20000000298","<p> Remember, when you see a picture of the place, use the up and down keys to <b>find an animal</b>.</p>
            <p> When you encounter an animal, you should use the left and right keys to <b>select a treasure chest</b>.</p>
            <p> Don't forget to look out for the robber! </p>","","instructions","","","","","","","","","","","","","",""
"revaluation","63","373363","0.0-3.0-13.0-2.0-0.0","spark_pilot_2","7120","4","8","Female","","","false","","","","[970.2000000029802,443]","./assets/img/space/11.jpg","[""ArrowUp"",""ArrowRight""]","practice block","space","36","{""ArrowUp,ArrowLeft"":3,""ArrowUp,ArrowRight"":36,""ArrowDown,ArrowLeft"":15,""ArrowDown,ArrowRight"":23}","true","ArrowUp,ArrowRight","false","","","","","","","",""
"html-keyboard-response","64","373875","0.0-3.0-13.0-2.0-1.0","spark_pilot_2","7120","4","8","Female","","","","","","","null","<div style=""font-size:60px;"">+</div>","null","fixation","","","","","","","","","","","","","",""
"revaluation","65","377891","0.0-3.0-13.0-2.0-0.1","spark_pilot_2","7120","4","8","Female","","","true","","","","[]","./assets/img/space/12.jpg","[]","practice block","space","-5","{""ArrowUp,ArrowLeft"":3,""ArrowUp,ArrowRight"":36,""ArrowDown,ArrowLeft"":15,""ArrowDown,ArrowRight"":23}","false","","false","","","","","","","",""
"html-keyboard-response","66","378403","0.0-3.0-13.0-2.0-1.1","spark_pilot_2","7120","4","8","Female","","","","","","","null","<div style=""font-size:60px;"">+</div>","null","fixation","","","","","","","","","","","","","",""
"revaluation","67","384424","0.0-3.0-13.0-2.0-0.2","spark_pilot_2","7120","4","8","Female","","","false","","","","[569.5,606.1000000014901]","./assets/img/space/13.jpg","[""ArrowUp"",""ArrowRight""]","practice block","space","36","{""ArrowUp,ArrowLeft"":3,""ArrowUp,ArrowRight"":36,""ArrowDown,ArrowLeft"":15,""ArrowDown,ArrowRight"":23}","true","ArrowUp,ArrowRight","false","","","","","","","",""
"html-keyboard-response","68","384931","0.0-3.0-13.0-2.0-1.2","spark_pilot_2","7120","4","8","Female","","","","","","","null","<div style=""font-size:60px;"">+</div>","null","fixation","","","","","","","","","","","","","",""
"revaluation","69","390952","0.0-3.0-13.0-2.0-0.3","spark_pilot_2","7120","4","8","Female","","","false","","","","[536.2000000029802,734.5]","./assets/img/space/14.jpg","[""ArrowUp"",""ArrowRight""]","practice block","space","36","{""ArrowUp,ArrowLeft"":3,""ArrowUp,ArrowRight"":36,""ArrowDown,ArrowLeft"":15,""ArrowDown,ArrowRight"":23}","true","ArrowUp,ArrowRight","false","","","","","","","",""
"html-keyboard-response","70","391456","0.0-3.0-13.0-2.0-1.3","spark_pilot_2","7120","4","8","Female","","","","","","","null","<div style=""font-size:60px;"">+</div>","null","fixation","","","","","","","","","","","","","",""
"revaluation","71","397482","0.0-3.0-13.0-2.0-0.4","spark_pilot_2","7120","4","8","Female","","","false","","","","[705.1000000014901,883.2000000029802]","./assets/img/space/11.jpg","[""ArrowUp"",""ArrowRight""]","practice block","space","36","{""ArrowUp,ArrowLeft"":3,""ArrowUp,ArrowRight"":36,""ArrowDown,ArrowLeft"":15,""ArrowDown,ArrowRight"":23}","true","ArrowUp,ArrowRight","false","","","","","","","",""
"html-keyboard-response","72","397988","0.0-3.0-13.0-2.0-1.4","spark_pilot_2","7120","4","8","Female","","","","","","","null","<div style=""font-size:60px;"">+</div>","null","fixation","","","","","","","","","","","","","",""
"revaluation","73","404008","0.0-3.0-13.0-2.0-0.5","spark_pilot_2","7120","4","8","Female","","","false","","","","[663,675.0999999940395]","./assets/img/space/12.jpg","[""ArrowUp"",""ArrowRight""]","practice block","space","36","{""ArrowUp,ArrowLeft"":3,""ArrowUp,ArrowRight"":36,""ArrowDown,ArrowLeft"":15,""ArrowDown,ArrowRight"":23}","true","ArrowUp,ArrowRight","false","","","","","","","",""
"html-keyboard-response","74","404516","0.0-3.0-13.0-2.0-1.5","spark_pilot_2","7120","4","8","Female","","","","","","","null","<div style=""font-size:60px;"">+</div>","null","fixation","","","","","","","","","","","","","",""
"revaluation","75","410538","0.0-3.0-13.0-2.0-0.6","spark_pilot_2","7120","4","8","Female","","","false","","","","[125.39999999850988,467.8999999985099]","./assets/img/space/13.jpg","[""ArrowUp"",""ArrowRight""]","practice block","space","36","{""ArrowUp,ArrowLeft"":3,""ArrowUp,ArrowRight"":36,""ArrowDown,ArrowLeft"":15,""ArrowDown,ArrowRight"":23}","true","ArrowUp,ArrowRight","false","","","","","","","",""
"html-keyboard-response","76","411044","0.0-3.0-13.0-2.0-1.6","spark_pilot_2","7120","4","8","Female","","","","","","","null","<div style=""font-size:60px;"">+</div>","null","fixation","","","","","","","","","","","","","",""
"revaluation","77","417065","0.0-3.0-13.0-2.0-0.7","spark_pilot_2","7120","4","8","Female","","","false","","","","[552.2000000029802,566.2000000029802]","./assets/img/space/14.jpg","[""ArrowUp"",""ArrowRight""]","practice block","space","36","{""ArrowUp,ArrowLeft"":3,""ArrowUp,ArrowRight"":36,""ArrowDown,ArrowLeft"":15,""ArrowDown,ArrowRight"":23}","true","ArrowUp,ArrowRight","false","","","","","","","",""
"html-keyboard-response","78","417572","0.0-3.0-13.0-2.0-1.7","spark_pilot_2","7120","4","8","Female","","","","","","","null","<div style=""font-size:60px;"">+</div>","null","fixation","","","","","","","","","","","","","",""
"revaluation","79","421588","0.0-3.0-13.0-2.0-0.8","spark_pilot_2","7120","4","8","Female","","","false","","","","[710]","./assets/img/space/catch/3.jpg","[""ArrowDown""]","practice block","space","-10","{""ArrowUp,ArrowLeft"":3,""ArrowUp,ArrowRight"":36,""ArrowDown,ArrowLeft"":15,""ArrowDown,ArrowRight"":23}","false","ArrowDown","true","","","","","","","",""
"html-keyboard-response","80","422099","0.0-3.0-13.0-2.0-1.8","spark_pilot_2","7120","4","8","Female","","","","","","","null","<div style=""font-size:60px;"">+</div>","null","fixation","","","","","","","","","","","","","",""
"learning-instructions","81","440441","0.0-3.0-13.0-3.0-0.0","spark_pilot_2","7120","4","8","Female","","","","","","","5407.5","<p> Now, you will travel with a friend who will choose whether you go up or down first. </p>
            <p> On these turns, you will just see the animal that they found. You will still get to choose which chest to search for treasure.</p>","","instructions","","","","","","","","","","","","","",""
"revaluation","82","444458","0.0-3.0-13.0-4.0-0.0","spark_pilot_2","7120","4","8","Female","","","false","","","","[1700.8999999985099]","./assets/img/space/animals/rabbit.jpg","[""ArrowLeft""]","practice block","space","15","{""ArrowUp,ArrowLeft"":3,""ArrowUp,ArrowRight"":36,""ArrowDown,ArrowLeft"":15,""ArrowDown,ArrowRight"":23}","false","ArrowDown,ArrowLeft","","","","","","","","",""
"html-keyboard-response","83","444963","0.0-3.0-13.0-4.0-1.0","spark_pilot_2","7120","4","8","Female","","","","","","","null","<div style=""font-size:60px;"">+</div>","null","fixation","","","","","","","","","","","","","",""
"revaluation","84","448968","0.0-3.0-13.0-4.0-0.1","spark_pilot_2","7120","4","8","Female","","","false","","","","[1001.3000000044703]","./assets/img/space/animals/cat.jpg","[""ArrowRight""]","practice block","space","36","{""ArrowUp,ArrowLeft"":3,""ArrowUp,ArrowRight"":36,""ArrowDown,ArrowLeft"":15,""ArrowDown,ArrowRight"":23}","true","ArrowUp,ArrowRight","","","","","","","","",""
"html-keyboard-response","85","449476","0.0-3.0-13.0-4.0-1.1","spark_pilot_2","7120","4","8","Female","","","","","","","null","<div style=""font-size:60px;"">+</div>","null","fixation","","","","","","","","","","","","","",""
"revaluation","86","453491","0.0-3.0-13.0-4.0-0.2","spark_pilot_2","7120","4","8","Female","","","false","","","","[1920.8999999985099]","./assets/img/space/animals/rabbit.jpg","[""ArrowRight""]","practice block","space","23","{""ArrowUp,ArrowLeft"":3,""ArrowUp,ArrowRight"":36,""ArrowDown,ArrowLeft"":15,""ArrowDown,ArrowRight"":23}","true","ArrowDown,ArrowRight","","","","","","","","",""
"html-keyboard-response","87","454004","0.0-3.0-13.0-4.0-1.2","spark_pilot_2","7120","4","8","Female","","","","","","","null","<div style=""font-size:60px;"">+</div>","null","fixation","","","","","","","","","","","","","",""
"revaluation","88","458016","0.0-3.0-13.0-4.0-0.3","spark_pilot_2","7120","4","8","Female","","","false","","","","[497.3999999985099]","./assets/img/space/animals/cat.jpg","[""ArrowRight""]","practice block","space","36","{""ArrowUp,ArrowLeft"":3,""ArrowUp,ArrowRight"":36,""ArrowDown,ArrowLeft"":15,""ArrowDown,ArrowRight"":23}","true","ArrowUp,ArrowRight","","","","","","","","",""
"html-keyboard-response","89","458521","0.0-3.0-13.0-4.0-1.3","spark_pilot_2","7120","4","8","Female","","","","","","","null","<div style=""font-size:60px;"">+</div>","null","fixation","","","","","","","","","","","","","",""
"learning-instructions","90","467485","0.0-3.0-13.0-5.0-0.0","spark_pilot_2","7120","4","8","Female","","","","","","","1587.1000000014901","<p> Time to play the dot game! </p>
            <p> For 15 seconds, click the red dots on the following screen as they appear. </p>","","instructions","","","","","","","","","","","","","",""
"revaluation","91","482490","0.0-3.0-13.0-6.0-0.0","spark_pilot_2","7120","4","8","Female","","","","","","","[125]","","","rest practice","","10","","","","","0","15000","","","","","",""
"learning-instructions","92","493172","0.0-3.0-13.0-7.0-0.0","spark_pilot_2","7120","4","8","Female","","","","","","","4543.10000000149","<p> You have almost finished this part of the game! </p>
            <p> We are going to ask you to make a few more choices. </p>","","instructions","","","","","","","","","","","","","",""
"learning-instructions","93","509497","0.0-3.0-13.0-7.0-0.1","spark_pilot_2","7120","4","8","Female","","","","","","","2286.39999999851","<p> First, you need to decide whether to go up or down. When you see each picture, use the arrow keys to make your choice. </p>
            <p><b>You will not see which animal you found, but try to get to the one that will give you the most treasure.</b></p>","","instructions","","","","","","","","","","","","","",""
"revaluation","94","510282","0.0-3.0-13.0-8.0","spark_pilot_2","7120","4","8","Female","","","false","","","","[783]","./assets/img/space/15.jpg","[""ArrowUp""]","practice block","space","0","{""ArrowUp,ArrowLeft"":3,""ArrowUp,ArrowRight"":36,""ArrowDown,ArrowLeft"":15,""ArrowDown,ArrowRight"":23}","true","ArrowUp","false","","","","","","","",""
"html-keyboard-response","95","510788","0.0-3.0-13.0-9.0","spark_pilot_2","7120","4","8","Female","","","","","","","null","<div style=""font-size:60px;"">+</div>","null","fixation","","","","","","","","","","","","","",""
"learning-instructions","96","523424","0.0-3.0-13.0-10.0-0.0","spark_pilot_2","7120","4","8","Female","","","","","","","1248.5","<p> Now you will see the animals again and can search their chests for treasure. </p>
            <p> This time, you will not see how much treasure you earned, but you will earn more bonus money for making better choices. </p>","","instructions","","","","","","","","","","","","","",""
"revaluation","97","524240","0.0-3.0-13.0-11.0-0.0","spark_pilot_2","7120","4","8","Female","","","false","","","","[813.7999999970198]","./assets/img/space/animals/cat.jpg","[""ArrowRight""]","practice block","space","0","{""ArrowUp,ArrowLeft"":3,""ArrowUp,ArrowRight"":36,""ArrowDown,ArrowLeft"":15,""ArrowDown,ArrowRight"":23}","true","ArrowUp,ArrowRight","","","","","","","","",""
"html-keyboard-response","98","524746","0.0-3.0-13.0-11.0-1.0","spark_pilot_2","7120","4","8","Female","","","","","","","null","<div style=""font-size:60px;"">+</div>","null","fixation","","","","","","","","","","","","","",""
"revaluation","99","525313","0.0-3.0-13.0-11.0-0.1","spark_pilot_2","7120","4","8","Female","","","false","","","","[565]","./assets/img/space/animals/rabbit.jpg","[""ArrowRight""]","practice block","space","0","{""ArrowUp,ArrowLeft"":3,""ArrowUp,ArrowRight"":36,""ArrowDown,ArrowLeft"":15,""ArrowDown,ArrowRight"":23}","true","ArrowDown,ArrowRight","","","","","","","","",""
"html-keyboard-response","100","525814","0.0-3.0-13.0-11.0-1.1","spark_pilot_2","7120","4","8","Female","","","","","","","null","<div style=""font-size:60px;"">+</div>","null","fixation","","","","","","","","","","","","","",""
"learning-instructions","101","531652","0.0-3.0-14.0-0.0","spark_pilot_2","7120","4","8","Female","","","","","","","1246.7999999970198","<p> Before you start, we're going to ask you a few questions about how the game works. </p>","","instructions","","","","","","","","","","","","","",""
"comp-q","102","538890","0.0-3.0-15.0-0.0-0.0","spark_pilot_2","7120","4","8","Female","","","","","","","1635","<p> <b> True or False? </b> </p>
            <p> There can be 50 pieces of treasure in a given animal's chest. </p>","1","comp_question","","","","true","","","","","","","","","",""
"comp-q","103","548184","0.0-3.0-15.0-0.0-1.0","spark_pilot_2","7120","4","8","Female","","","","","","","2621.39999999851","<p> <b> That's right! </b> The amount of treasure in each chest can range from 0 to 40 pieces. </p>","0","comp_answer","","","","","","","","","","","","","",""
"comp-q","104","556562","0.0-3.0-15.0-0.1-0.1","spark_pilot_2","7120","4","8","Female","","","","","","","1239.1000000014901","<p> <b> True or False? </b> </p><p> In this game, all animals have the same amount of treasure in their left and right chests. </p>","1","comp_question","","","","true","","","","","","","","","",""
"comp-q","105","564274","0.0-3.0-15.0-0.1-1.1","spark_pilot_2","7120","4","8","Female","","","","","","","2465.8000000044703","<p> <b> That's right! </b> Animals have different amounts of treasure in their treasure chests. </p>","0","comp_answer","","","","","","","","","","","","","",""
"comp-q","106","572014","0.0-3.0-15.0-0.2-0.2","spark_pilot_2","7120","4","8","Female","","","","","","","1874.8999999985099","<p> <b> True or False? </b> </p><p> The same animal will always be there if you go up in the same place. </p>","1","comp_question","","","","false","","","","","","","","","",""
"comp-q","107","580032","0.0-3.0-15.0-0.2-1.2","spark_pilot_2","7120","4","8","Female","","","","","","","1701.3999999985099","<p> <b>Incorrect.</b> One animal lives in the upper part and one lives in the lower part of every place. </p>","0","comp_answer","","","","","","","","","","","","","",""
"comp-q","108","586994","0.0-3.0-15.0-0.3-0.3","spark_pilot_2","7120","4","8","Female","","","","","","","1137.3000000044703","<p> <b> True or False? </b> </p><p> The same animal will always be there if you go up in the same place. </p>","0","comp_question","","","","true","","","","","","","","","",""
"comp-q","109","595448","0.0-3.0-15.0-0.3-1.3","spark_pilot_2","7120","4","8","Female","","","","","","","1997.5","<p> <b> That's right! </b> One animal lives in the upper part and one lives in the lower part of every place. </p>","0","comp_answer","","","","","","","","","","","","","",""
"comp-q","110","602144","0.0-3.0-15.0-0.4-0.4","spark_pilot_2","7120","4","8","Female","","","","","","","1151.8999999985099","<p> <b> True or False? </b> </p><p> If you see a different picture, it means you are in a new place. </p>","1","comp_question","","","","true","","","","","","","","","",""
"comp-q","111","615874","0.0-3.0-15.0-0.4-1.4","spark_pilot_2","7120","4","8","Female","","","","","","","2481.10000000149","<p> <b> That's right! </b> Lots of different images may show the same place. For example,  you may see three different images that all remind you that you are in outer space. </p>","0","comp_answer","","","","","","","","","","","","","",""
"learning-instructions","112","628270","0.0-3.0-16.0-0.0","spark_pilot_2","7120","4","8","Female","","","","","","","2440.5","<p> Good job. Remember to do your best because the amount of treasure you earn will be converted into bonus money. </p>
            <p> It’s time to start the real game! </p>","","instructions","","","","","","","","","","","","","",""
"learning-instructions","113","632203","0.0-4.0-0.0-0.0","spark_pilot_2","7120","4","8","Female","","","","","","","1204.5999999940395","<p> This time you are searching for treasure in the <b>ocean</b>.</p>","","instructions","","","","","","","","","","","","","",""
"learning-instructions","114","650659","0.0-4.0-0.0-0.1","spark_pilot_2","7120","4","8","Female","","","","","","","1137.9000000059605","<p><b>New</b> animals with <b>new</b> treasure chests live here. You need to explore to discover where the animal with the best treasure chest is.</p>
                    <p> Like before, once you figure out which animal has the chest with the most treasure, you should try to get to that animal and select that chest! </p>","","instructions","","","","","","","","","","","","","",""
"learning-instructions","115","666785","0.0-4.0-1.0-0.0","spark_pilot_2","7120","4","8","Female","","","","","","","1396.6000000014901","<p> Remember, when you see a picture of the place, use the up and down keys to <b>find an animal</b>.</p>
            <p> When you encounter an animal, you should use the left and right keys to <b>select a treasure chest</b>.</p>
            <p> Don't forget to look out for the robber! </p>","","instructions","","","","","","","","","","","","","",""
"revaluation","116","672806","0.0-4.0-2.0-0.0","spark_pilot_2","7120","4","8","Female","","","true","","","","[901.7999999970198]","./assets/img/ocean/memory/14.jpg","[""ArrowUp""]","value training","ocean","-5","{""ArrowUp,ArrowLeft"":26,""ArrowUp,ArrowRight"":10,""ArrowDown,ArrowLeft"":5,""ArrowDown,ArrowRight"":17}","false","ArrowUp","false","","","revaluation","1","0","","",""
"html-keyboard-response","117","673318","0.0-4.0-2.0-1.0","spark_pilot_2","7120","4","8","Female","","","","","","","null","<div style=""font-size:60px;"">+</div>","null","fixation","","","","","","","","","","","1","","",""
"revaluation","118","679341","0.0-4.0-2.0-0.1","spark_pilot_2","7120","4","8","Female","","","false","","","","[696.5,385.5]","./assets/img/ocean/memory/32.jpg","[""ArrowUp"",""ArrowRight""]","value training","ocean","10","{""ArrowUp,ArrowLeft"":26,""ArrowUp,ArrowRight"":10,""ArrowDown,ArrowLeft"":5,""ArrowDown,ArrowRight"":17}","false","ArrowUp,ArrowRight","false","","","revaluation","1","2","","",""
"html-keyboard-response","119","679845","0.0-4.0-2.0-1.1","spark_pilot_2","7120","4","8","Female","","","","","","","null","<div style=""font-size:60px;"">+</div>","null","fixation","","","","","","","","","","","3","","",""
"revaluation","120","685868","0.0-4.0-2.0-0.2","spark_pilot_2","7120","4","8","Female","","","false","","","","[529.1999999955297,493.5]","./assets/img/ocean/memory/41.jpg","[""ArrowUp"",""ArrowLeft""]","value training","ocean","26","{""ArrowUp,ArrowLeft"":26,""ArrowUp,ArrowRight"":10,""ArrowDown,ArrowLeft"":5,""ArrowDown,ArrowRight"":17}","true","ArrowUp,ArrowLeft","false","","","revaluation","1","4","","",""
"html-keyboard-response","121","686371","0.0-4.0-2.0-1.2","spark_pilot_2","7120","4","8","Female","","","","","","","null","<div style=""font-size:60px;"">+</div>","null","fixation","","","","","","","","","","","5","","",""
"revaluation","122","692389","0.0-4.0-2.0-0.3","spark_pilot_2","7120","4","8","Female","","","false","","","","[458.69999999552965,453.29999999701977]","./assets/img/ocean/memory/1.jpg","[""ArrowDown"",""ArrowLeft""]","value training","ocean","5","{""ArrowUp,ArrowLeft"":26,""ArrowUp,ArrowRight"":10,""ArrowDown,ArrowLeft"":5,""ArrowDown,ArrowRight"":17}","false","ArrowDown,ArrowLeft","false","","","revaluation","1","6","","",""
"html-keyboard-response","123","692890","0.0-4.0-2.0-1.3","spark_pilot_2","7120","4","8","Female","","","","","","","null","<div style=""font-size:60px;"">+</div>","null","fixation","","","","","","","","","","","7","","",""
"revaluation","124","698916","0.0-4.0-2.0-0.4","spark_pilot_2","7120","4","8","Female","","","false","","","","[413.6000000014901,532.9000000059605]","./assets/img/ocean/memory/17.jpg","[""ArrowUp"",""ArrowRight""]","value training","ocean","10","{""ArrowUp,ArrowLeft"":26,""ArrowUp,ArrowRight"":10,""ArrowDown,ArrowLeft"":5,""ArrowDown,ArrowRight"":17}","false","ArrowUp,ArrowRight","false","","","revaluation","1","8","","",""
"html-keyboard-response","125","699420","0.0-4.0-2.0-1.4","spark_pilot_2","7120","4","8","Female","","","","","","","null","<div style=""font-size:60px;"">+</div>","null","fixation","","","","","","","","","","","9","","",""
"revaluation","126","703436","0.0-4.0-2.0-0.5","spark_pilot_2","7120","4","8","Female","","","false","","","","[1379.0999999940395]","./assets/img/ocean/catch/0.jpg","[""spaceBar""]","value training","ocean","0","{""ArrowUp,ArrowLeft"":26,""ArrowUp,ArrowRight"":10,""ArrowDown,ArrowLeft"":5,""ArrowDown,ArrowRight"":17}","true","spaceBar","true","","","revaluation","1","10","","",""
"html-keyboard-response","127","703943","0.0-4.0-2.0-1.5","spark_pilot_2","7120","4","8","Female","","","","","","","null","<div style=""font-size:60px;"">+</div>","null","fixation","","","","","","","","","","","11","","",""
"revaluation","128","709959","0.0-4.0-2.0-0.6","spark_pilot_2","7120","4","8","Female","","","false","","","","[679.8000000044703,468.3999999985099]","./assets/img/ocean/memory/21.jpg","[""ArrowUp"",""ArrowLeft""]","value training","ocean","26","{""ArrowUp,ArrowLeft"":26,""ArrowUp,ArrowRight"":10,""ArrowDown,ArrowLeft"":5,""ArrowDown,ArrowRight"":17}","true","ArrowUp,ArrowLeft","false","","","revaluation","1","12","","",""
"html-keyboard-response","129","710471","0.0-4.0-2.0-1.6","spark_pilot_2","7120","4","8","Female","","","","","","","null","<div style=""font-size:60px;"">+</div>","null","fixation","","","","","","","","","","","13","","",""
"revaluation","130","716493","0.0-4.0-2.0-0.7","spark_pilot_2","7120","4","8","Female","","","false","","","","[512.5,380.70000000298023]","./assets/img/ocean/memory/21.jpg","[""ArrowUp"",""ArrowLeft""]","value training","ocean","26","{""ArrowUp,ArrowLeft"":26,""ArrowUp,ArrowRight"":10,""ArrowDown,ArrowLeft"":5,""ArrowDown,ArrowRight"":17}","true","ArrowUp,ArrowLeft","false","","","revaluation","1","14","","",""
"html-keyboard-response","131","716999","0.0-4.0-2.0-1.7","spark_pilot_2","7120","4","8","Female","","","","","","","null","<div style=""font-size:60px;"">+</div>","null","fixation","","","","","","","","","","","15","","",""
"revaluation","132","723012","0.0-4.0-2.0-0.8","spark_pilot_2","7120","4","8","Female","","","false","","","","[968.1000000014901,924.6000000014901]","./assets/img/ocean/memory/37.jpg","[""ArrowUp"",""ArrowLeft""]","value training","ocean","26","{""ArrowUp,ArrowLeft"":26,""ArrowUp,ArrowRight"":10,""ArrowDown,ArrowLeft"":5,""ArrowDown,ArrowRight"":17}","true","ArrowUp,ArrowLeft","false","","","revaluation","1","16","","",""
"html-keyboard-response","133","723516","0.0-4.0-2.0-1.8","spark_pilot_2","7120","4","8","Female","","","","","","","null","<div style=""font-size:60px;"">+</div>","null","fixation","","","","","","","","","","","17","","",""
"revaluation","134","729543","0.0-4.0-2.0-0.9","spark_pilot_2","7120","4","8","Female","","","false","","","","[914.8999999985099,465.20000000298023]","./assets/img/ocean/memory/27.jpg","[""ArrowUp"",""ArrowLeft""]","value training","ocean","26","{""ArrowUp,ArrowLeft"":26,""ArrowUp,ArrowRight"":10,""ArrowDown,ArrowLeft"":5,""ArrowDown,ArrowRight"":17}","true","ArrowUp,ArrowLeft","false","","","revaluation","1","18","","",""
"html-keyboard-response","135","730055","0.0-4.0-2.0-1.9","spark_pilot_2","7120","4","8","Female","","","","","","","null","<div style=""font-size:60px;"">+</div>","null","fixation","","","","","","","","","","","19","","",""
"revaluation","136","734066","0.0-4.0-2.0-0.10","spark_pilot_2","7120","4","8","Female","","","false","","","","[1007.1000000014901]","./assets/img/ocean/catch/2.jpg","[""spaceBar""]","value training","ocean","0","{""ArrowUp,ArrowLeft"":26,""ArrowUp,ArrowRight"":10,""ArrowDown,ArrowLeft"":5,""ArrowDown,ArrowRight"":17}","true","spaceBar","true","","","revaluation","1","20","","",""
"html-keyboard-response","137","734573","0.0-4.0-2.0-1.10","spark_pilot_2","7120","4","8","Female","","","","","","","null","<div style=""font-size:60px;"">+</div>","null","fixation","","","","","","","","","","","21","","",""
"revaluation","138","740599","0.0-4.0-2.0-0.11","spark_pilot_2","7120","4","8","Female","","","false","","","","[474.69999999552965,521.7000000029802]","./assets/img/ocean/memory/37.jpg","[""ArrowUp"",""ArrowLeft""]","value training","ocean","26","{""ArrowUp,ArrowLeft"":26,""ArrowUp,ArrowRight"":10,""ArrowDown,ArrowLeft"":5,""ArrowDown,ArrowRight"":17}","true","ArrowUp,ArrowLeft","false","","","revaluation","1","22","","",""
"html-keyboard-response","139","741111","0.0-4.0-2.0-1.11","spark_pilot_2","7120","4","8","Female","","","","","","","null","<div style=""font-size:60px;"">+</div>","null","fixation","","","","","","","","","","","23","","",""
"revaluation","140","747127","0.0-4.0-2.0-0.12","spark_pilot_2","7120","4","8","Female","","","false","","","","[536.1000000014901,556.2999999970198]","./assets/img/ocean/memory/36.jpg","[""ArrowUp"",""ArrowLeft""]","value training","ocean","26","{""ArrowUp,ArrowLeft"":26,""ArrowUp,ArrowRight"":10,""ArrowDown,ArrowLeft"":5,""ArrowDown,ArrowRight"":17}","true","ArrowUp,ArrowLeft","false","","","revaluation","1","24","","",""
"html-keyboard-response","141","747639","0.0-4.0-2.0-1.12","spark_pilot_2","7120","4","8","Female","","","","","","","null","<div style=""font-size:60px;"">+</div>","null","fixation","","","","","","","","","","","25","","",""
"revaluation","142","753663","0.0-4.0-2.0-0.13","spark_pilot_2","7120","4","8","Female","","","false","","","","[798.6000000014901,684.6000000014901]","./assets/img/ocean/memory/30.jpg","[""ArrowUp"",""ArrowLeft""]","value training","ocean","26","{""ArrowUp,ArrowLeft"":26,""ArrowUp,ArrowRight"":10,""ArrowDown,ArrowLeft"":5,""ArrowDown,ArrowRight"":17}","true","ArrowUp,ArrowLeft","false","","","revaluation","1","26","","",""
"html-keyboard-response","143","754173","0.0-4.0-2.0-1.13","spark_pilot_2","7120","4","8","Female","","","","","","","null","<div style=""font-size:60px;"">+</div>","null","fixation","","","","","","","","","","","27","","",""
"revaluation","144","760200","0.0-4.0-2.0-0.14","spark_pilot_2","7120","4","8","Female","","","false","","","","[595.6000000014901,793.3000000044703]","./assets/img/ocean/memory/4.jpg","[""ArrowUp"",""ArrowLeft""]","value training","ocean","26","{""ArrowUp,ArrowLeft"":26,""ArrowUp,ArrowRight"":10,""ArrowDown,ArrowLeft"":5,""ArrowDown,ArrowRight"":17}","true","ArrowUp,ArrowLeft","false","","","revaluation","1","28","","",""
"html-keyboard-response","145","760711","0.0-4.0-2.0-1.14","spark_pilot_2","7120","4","8","Female","","","","","","","null","<div style=""font-size:60px;"">+</div>","null","fixation","","","","","","","","","","","29","","",""
"revaluation","146","766733","0.0-4.0-2.0-0.15","spark_pilot_2","7120","4","8","Female","","","false","","","","[615.3999999985099,749]","./assets/img/ocean/memory/22.jpg","[""ArrowUp"",""ArrowLeft""]","value training","ocean","26","{""ArrowUp,ArrowLeft"":26,""ArrowUp,ArrowRight"":10,""ArrowDown,ArrowLeft"":5,""ArrowDown,ArrowRight"":17}","true","ArrowUp,ArrowLeft","false","","","revaluation","1","30","","",""
"html-keyboard-response","147","767240","0.0-4.0-2.0-1.15","spark_pilot_2","7120","4","8","Female","","","","","","","null","<div style=""font-size:60px;"">+</div>","null","fixation","","","","","","","","","","","31","","",""
"revaluation","148","773261","0.0-4.0-2.0-0.16","spark_pilot_2","7120","4","8","Female","","","false","","","","[567.8000000044703,500.1000000014901]","./assets/img/ocean/memory/4.jpg","[""ArrowUp"",""ArrowLeft""]","value training","ocean","26","{""ArrowUp,ArrowLeft"":26,""ArrowUp,ArrowRight"":10,""ArrowDown,ArrowLeft"":5,""ArrowDown,ArrowRight"":17}","true","ArrowUp,ArrowLeft","false","","","revaluation","1","32","","",""
"html-keyboard-response","149","773768","0.0-4.0-2.0-1.16","spark_pilot_2","7120","4","8","Female","","","","","","","null","<div style=""font-size:60px;"">+</div>","null","fixation","","","","","","","","","","","33","","",""
"revaluation","150","779789","0.0-4.0-2.0-0.17","spark_pilot_2","7120","4","8","Female","","","false","","","","[519.8999999985099,556.6000000014901]","./assets/img/ocean/memory/14.jpg","[""ArrowUp"",""ArrowLeft""]","value training","ocean","26","{""ArrowUp,ArrowLeft"":26,""ArrowUp,ArrowRight"":10,""ArrowDown,ArrowLeft"":5,""ArrowDown,ArrowRight"":17}","true","ArrowUp,ArrowLeft","false","","","revaluation","1","34","","",""
"html-keyboard-response","151","780296","0.0-4.0-2.0-1.17","spark_pilot_2","7120","4","8","Female","","","","","","","null","<div style=""font-size:60px;"">+</div>","null","fixation","","","","","","","","","","","35","","",""
"revaluation","152","786317","0.0-4.0-2.0-0.18","spark_pilot_2","7120","4","8","Female","","","false","","","","[167.59999999403954,420.79999999701977]","./assets/img/ocean/memory/7.jpg","[""ArrowUp"",""ArrowLeft""]","value training","ocean","26","{""ArrowUp,ArrowLeft"":26,""ArrowUp,ArrowRight"":10,""ArrowDown,ArrowLeft"":5,""ArrowDown,ArrowRight"":17}","true","ArrowUp,ArrowLeft","false","","","revaluation","1","36","","",""
"html-keyboard-response","153","786823","0.0-4.0-2.0-1.18","spark_pilot_2","7120","4","8","Female","","","","","","","null","<div style=""font-size:60px;"">+</div>","null","fixation","","","","","","","","","","","37","","",""
"revaluation","154","792845","0.0-4.0-2.0-0.19","spark_pilot_2","7120","4","8","Female","","","false","","","","[664.3999999985099,642.6000000014901]","./assets/img/ocean/memory/17.jpg","[""ArrowUp"",""ArrowLeft""]","value training","ocean","26","{""ArrowUp,ArrowLeft"":26,""ArrowUp,ArrowRight"":10,""ArrowDown,ArrowLeft"":5,""ArrowDown,ArrowRight"":17}","true","ArrowUp,ArrowLeft","false","","","revaluation","1","38","","",""
"html-keyboard-response","155","793352","0.0-4.0-2.0-1.19","spark_pilot_2","7120","4","8","Female","","","","","","","null","<div style=""font-size:60px;"">+</div>","null","fixation","","","","","","","","","","","39","","",""
"revaluation","156","797368","0.0-4.0-2.0-0.20","spark_pilot_2","7120","4","8","Female","","","false","","","","[999.6999999955297]","./assets/img/ocean/catch/1.jpg","[""spaceBar""]","value training","ocean","0","{""ArrowUp,ArrowLeft"":26,""ArrowUp,ArrowRight"":10,""ArrowDown,ArrowLeft"":5,""ArrowDown,ArrowRight"":17}","true","spaceBar","true","","","revaluation","1","40","","",""
"html-keyboard-response","157","797880","0.0-4.0-2.0-1.20","spark_pilot_2","7120","4","8","Female","","","","","","","null","<div style=""font-size:60px;"">+</div>","null","fixation","","","","","","","","","","","41","","",""
"revaluation","158","801888","0.0-4.0-2.0-0.21","spark_pilot_2","7120","4","8","Female","","","false","","","","[471.3999999985099]","./assets/img/ocean/catch/3.jpg","[""ArrowUp""]","value training","ocean","-10","{""ArrowUp,ArrowLeft"":26,""ArrowUp,ArrowRight"":10,""ArrowDown,ArrowLeft"":5,""ArrowDown,ArrowRight"":17}","false","ArrowUp","true","","","revaluation","1","42","","",""
"html-keyboard-response","159","802397","0.0-4.0-2.0-1.21","spark_pilot_2","7120","4","8","Female","","","","","","","null","<div style=""font-size:60px;"">+</div>","null","fixation","","","","","","","","","","","43","","",""
"revaluation","160","808413","0.0-4.0-2.0-0.22","spark_pilot_2","7120","4","8","Female","","","false","","","","[1035.1999999955297,451.19999999552965]","./assets/img/ocean/memory/33.jpg","[""ArrowUp"",""ArrowLeft""]","value training","ocean","26","{""ArrowUp,ArrowLeft"":26,""ArrowUp,ArrowRight"":10,""ArrowDown,ArrowLeft"":5,""ArrowDown,ArrowRight"":17}","true","ArrowUp,ArrowLeft","false","","","revaluation","1","44","","",""
"html-keyboard-response","161","808919","0.0-4.0-2.0-1.22","spark_pilot_2","7120","4","8","Female","","","","","","","null","<div style=""font-size:60px;"">+</div>","null","fixation","","","","","","","","","","","45","","",""
"revaluation","162","812934","0.0-4.0-2.0-0.23","spark_pilot_2","7120","4","8","Female","","","false","","","","[775.7999999970198]","./assets/img/ocean/catch/7.jpg","[""spaceBar""]","value training","ocean","0","{""ArrowUp,ArrowLeft"":26,""ArrowUp,ArrowRight"":10,""ArrowDown,ArrowLeft"":5,""ArrowDown,ArrowRight"":17}","true","spaceBar","true","","","revaluation","1","46","","",""
"html-keyboard-response","163","813437","0.0-4.0-2.0-1.23","spark_pilot_2","7120","4","8","Female","","","","","","","null","<div style=""font-size:60px;"">+</div>","null","fixation","","","","","","","","","","","47","","",""
"revaluation","164","819453","0.0-4.0-2.0-0.24","spark_pilot_2","7120","4","8","Female","","","false","","","","[578.3999999985099,576.5]","./assets/img/ocean/memory/2.jpg","[""ArrowUp"",""ArrowLeft""]","value training","ocean","26","{""ArrowUp,ArrowLeft"":26,""ArrowUp,ArrowRight"":10,""ArrowDown,ArrowLeft"":5,""ArrowDown,ArrowRight"":17}","true","ArrowUp,ArrowLeft","false","","","revaluation","1","48","","",""
"html-keyboard-response","165","819957","0.0-4.0-2.0-1.24","spark_pilot_2","7120","4","8","Female","","","","","","","null","<div style=""font-size:60px;"">+</div>","null","fixation","","","","","","","","","","","49","","",""
"revaluation","166","825982","0.0-4.0-2.0-0.25","spark_pilot_2","7120","4","8","Female","","","false","","","","[523.6999999955297,508.6000000014901]","./assets/img/ocean/memory/33.jpg","[""ArrowUp"",""ArrowLeft""]","value training","ocean","26","{""ArrowUp,ArrowLeft"":26,""ArrowUp,ArrowRight"":10,""ArrowDown,ArrowLeft"":5,""ArrowDown,ArrowRight"":17}","true","ArrowUp,ArrowLeft","false","","","revaluation","1","50","","",""
"html-keyboard-response","167","826488","0.0-4.0-2.0-1.25","spark_pilot_2","7120","4","8","Female","","","","","","","null","<div style=""font-size:60px;"">+</div>","null","fixation","","","","","","","","","","","51","","",""
"revaluation","168","832510","0.0-4.0-2.0-0.26","spark_pilot_2","7120","4","8","Female","","","false","","","","[672.1999999955297,556.3999999985099]","./assets/img/ocean/memory/19.jpg","[""ArrowUp"",""ArrowLeft""]","value training","ocean","26","{""ArrowUp,ArrowLeft"":26,""ArrowUp,ArrowRight"":10,""ArrowDown,ArrowLeft"":5,""ArrowDown,ArrowRight"":17}","true","ArrowUp,ArrowLeft","false","","","revaluation","1","52","","",""
"html-keyboard-response","169","833012","0.0-4.0-2.0-1.26","spark_pilot_2","7120","4","8","Female","","","","","","","null","<div style=""font-size:60px;"">+</div>","null","fixation","","","","","","","","","","","53","","",""
"revaluation","170","839038","0.0-4.0-2.0-0.27","spark_pilot_2","7120","4","8","Female","","","false","","","","[531.8000000044703,1555.7999999970198]","./assets/img/ocean/memory/32.jpg","[""ArrowUp"",""ArrowLeft""]","value training","ocean","26","{""ArrowUp,ArrowLeft"":26,""ArrowUp,ArrowRight"":10,""ArrowDown,ArrowLeft"":5,""ArrowDown,ArrowRight"":17}","true","ArrowUp,ArrowLeft","false","","","revaluation","1","54","","",""
"html-keyboard-response","171","839544","0.0-4.0-2.0-1.27","spark_pilot_2","7120","4","8","Female","","","","","","","null","<div style=""font-size:60px;"">+</div>","null","fixation","","","","","","","","","","","55","","",""
"revaluation","172","843561","0.0-4.0-2.0-0.28","spark_pilot_2","7120","4","8","Female","","","false","","","","[984]","./assets/img/ocean/catch/6.jpg","[""spaceBar""]","value training","ocean","0","{""ArrowUp,ArrowLeft"":26,""ArrowUp,ArrowRight"":10,""ArrowDown,ArrowLeft"":5,""ArrowDown,ArrowRight"":17}","true","spaceBar","true","","","revaluation","1","56","","",""
"html-keyboard-response","173","844072","0.0-4.0-2.0-1.28","spark_pilot_2","7120","4","8","Female","","","","","","","null","<div style=""font-size:60px;"">+</div>","null","fixation","","","","","","","","","","","57","","",""
"revaluation","174","850094","0.0-4.0-2.0-0.29","spark_pilot_2","7120","4","8","Female","","","false","","","","[631.6999999955297,852.5]","./assets/img/ocean/memory/36.jpg","[""ArrowUp"",""ArrowLeft""]","value training","ocean","26","{""ArrowUp,ArrowLeft"":26,""ArrowUp,ArrowRight"":10,""ArrowDown,ArrowLeft"":5,""ArrowDown,ArrowRight"":17}","true","ArrowUp,ArrowLeft","false","","","revaluation","1","58","","",""
"html-keyboard-response","175","850600","0.0-4.0-2.0-1.29","spark_pilot_2","7120","4","8","Female","","","","","","","null","<div style=""font-size:60px;"">+</div>","null","fixation","","","","","","","","","","","59","","",""
"revaluation","176","856622","0.0-4.0-2.0-0.30","spark_pilot_2","7120","4","8","Female","","","false","","","","[1167.6999999955297,966.3999999985099]","./assets/img/ocean/memory/10.jpg","[""ArrowUp"",""ArrowLeft""]","value training","ocean","26","{""ArrowUp,ArrowLeft"":26,""ArrowUp,ArrowRight"":10,""ArrowDown,ArrowLeft"":5,""ArrowDown,ArrowRight"":17}","true","ArrowUp,ArrowLeft","false","","","revaluation","1","60","","",""
"html-keyboard-response","177","857128","0.0-4.0-2.0-1.30","spark_pilot_2","7120","4","8","Female","","","","","","","null","<div style=""font-size:60px;"">+</div>","null","fixation","","","","","","","","","","","61","","",""
"revaluation","178","863224","0.0-4.0-2.0-0.31","spark_pilot_2","7120","4","8","Female","","","false","","","","[551.7999999970198,611.6000000014901]","./assets/img/ocean/memory/5.jpg","[""ArrowUp"",""ArrowLeft""]","value training","ocean","26","{""ArrowUp,ArrowLeft"":26,""ArrowUp,ArrowRight"":10,""ArrowDown,ArrowLeft"":5,""ArrowDown,ArrowRight"":17}","true","ArrowUp,ArrowLeft","false","","","revaluation","1","62","","",""
"html-keyboard-response","179","863727","0.0-4.0-2.0-1.31","spark_pilot_2","7120","4","8","Female","","","","","","","null","<div style=""font-size:60px;"">+</div>","null","fixation","","","","","","","","","","","63","","",""
"revaluation","180","869753","0.0-4.0-2.0-0.32","spark_pilot_2","7120","4","8","Female","","","false","","","","[628.3000000044703,452.5]","./assets/img/ocean/memory/19.jpg","[""ArrowUp"",""ArrowLeft""]","value training","ocean","26","{""ArrowUp,ArrowLeft"":26,""ArrowUp,ArrowRight"":10,""ArrowDown,ArrowLeft"":5,""ArrowDown,ArrowRight"":17}","true","ArrowUp,ArrowLeft","false","","","revaluation","1","64","","",""
"html-keyboard-response","181","870259","0.0-4.0-2.0-1.32","spark_pilot_2","7120","4","8","Female","","","","","","","null","<div style=""font-size:60px;"">+</div>","null","fixation","","","","","","","","","","","65","","",""
"revaluation","182","876281","0.0-4.0-2.0-0.33","spark_pilot_2","7120","4","8","Female","","","false","","","","[455.6000000014901,698.2999999970198]","./assets/img/ocean/memory/10.jpg","[""ArrowUp"",""ArrowLeft""]","value training","ocean","26","{""ArrowUp,ArrowLeft"":26,""ArrowUp,ArrowRight"":10,""ArrowDown,ArrowLeft"":5,""ArrowDown,ArrowRight"":17}","true","ArrowUp,ArrowLeft","false","","","revaluation","1","66","","",""
"html-keyboard-response","183","876788","0.0-4.0-2.0-1.33","spark_pilot_2","7120","4","8","Female","","","","","","","null","<div style=""font-size:60px;"">+</div>","null","fixation","","","","","","","","","","","67","","",""
"revaluation","184","882809","0.0-4.0-2.0-0.34","spark_pilot_2","7120","4","8","Female","","","false","","","","[423.3999999985099,803.7000000029802]","./assets/img/ocean/memory/22.jpg","[""ArrowUp"",""ArrowLeft""]","value training","ocean","26","{""ArrowUp,ArrowLeft"":26,""ArrowUp,ArrowRight"":10,""ArrowDown,ArrowLeft"":5,""ArrowDown,ArrowRight"":17}","true","ArrowUp,ArrowLeft","false","","","revaluation","1","68","","",""
"html-keyboard-response","185","883316","0.0-4.0-2.0-1.34","spark_pilot_2","7120","4","8","Female","","","","","","","null","<div style=""font-size:60px;"">+</div>","null","fixation","","","","","","","","","","","69","","",""
"revaluation","186","889337","0.0-4.0-2.0-0.35","spark_pilot_2","7120","4","8","Female","","","false","","","","[872.1000000014901,828.2999999970198]","./assets/img/ocean/memory/41.jpg","[""ArrowUp"",""ArrowLeft""]","value training","ocean","26","{""ArrowUp,ArrowLeft"":26,""ArrowUp,ArrowRight"":10,""ArrowDown,ArrowLeft"":5,""ArrowDown,ArrowRight"":17}","true","ArrowUp,ArrowLeft","false","","","revaluation","1","70","","",""
"html-keyboard-response","187","889843","0.0-4.0-2.0-1.35","spark_pilot_2","7120","4","8","Female","","","","","","","null","<div style=""font-size:60px;"">+</div>","null","fixation","","","","","","","","","","","71","","",""
"revaluation","188","895868","0.0-4.0-2.0-0.36","spark_pilot_2","7120","4","8","Female","","","false","","","","[849.2999999970198,588.6999999955297]","./assets/img/ocean/memory/27.jpg","[""ArrowUp"",""ArrowLeft""]","value training","ocean","26","{""ArrowUp,ArrowLeft"":26,""ArrowUp,ArrowRight"":10,""ArrowDown,ArrowLeft"":5,""ArrowDown,ArrowRight"":17}","true","ArrowUp,ArrowLeft","false","","","revaluation","1","72","","",""
"html-keyboard-response","189","896377","0.0-4.0-2.0-1.36","spark_pilot_2","7120","4","8","Female","","","","","","","null","<div style=""font-size:60px;"">+</div>","null","fixation","","","","","","","","","","","73","","",""
"revaluation","190","902404","0.0-4.0-2.0-0.37","spark_pilot_2","7120","4","8","Female","","","false","","","","[546.8000000044703,802]","./assets/img/ocean/memory/2.jpg","[""ArrowUp"",""ArrowLeft""]","value training","ocean","26","{""ArrowUp,ArrowLeft"":26,""ArrowUp,ArrowRight"":10,""ArrowDown,ArrowLeft"":5,""ArrowDown,ArrowRight"":17}","true","ArrowUp,ArrowLeft","false","","","revaluation","1","74","","",""
"html-keyboard-response","191","902916","0.0-4.0-2.0-1.37","spark_pilot_2","7120","4","8","Female","","","","","","","null","<div style=""font-size:60px;"">+</div>","null","fixation","","","","","","","","","","","75","","",""
"revaluation","192","908938","0.0-4.0-2.0-0.38","spark_pilot_2","7120","4","8","Female","","","false","","","","[648.3999999985099,588.2999999970198]","./assets/img/ocean/memory/23.jpg","[""ArrowUp"",""ArrowLeft""]","value training","ocean","26","{""ArrowUp,ArrowLeft"":26,""ArrowUp,ArrowRight"":10,""ArrowDown,ArrowLeft"":5,""ArrowDown,ArrowRight"":17}","true","ArrowUp,ArrowLeft","false","","","revaluation","1","76","","",""
"html-keyboard-response","193","909444","0.0-4.0-2.0-1.38","spark_pilot_2","7120","4","8","Female","","","","","","","null","<div style=""font-size:60px;"">+</div>","null","fixation","","","","","","","","","","","77","","",""
"revaluation","194","915468","0.0-4.0-2.0-0.39","spark_pilot_2","7120","4","8","Female","","","false","","","","[711.5999999940395,1009.5]","./assets/img/ocean/memory/30.jpg","[""ArrowUp"",""ArrowLeft""]","value training","ocean","26","{""ArrowUp,ArrowLeft"":26,""ArrowUp,ArrowRight"":10,""ArrowDown,ArrowLeft"":5,""ArrowDown,ArrowRight"":17}","true","ArrowUp,ArrowLeft","false","","","revaluation","1","78","","",""
"html-keyboard-response","195","915978","0.0-4.0-2.0-1.39","spark_pilot_2","7120","4","8","Female","","","","","","","null","<div style=""font-size:60px;"">+</div>","null","fixation","","","","","","","","","","","79","","",""
"revaluation","196","919994","0.0-4.0-2.0-0.40","spark_pilot_2","7120","4","8","Female","","","false","","","","[842.6000000014901]","./assets/img/ocean/catch/4.jpg","[""spaceBar""]","value training","ocean","0","{""ArrowUp,ArrowLeft"":26,""ArrowUp,ArrowRight"":10,""ArrowDown,ArrowLeft"":5,""ArrowDown,ArrowRight"":17}","true","spaceBar","true","","","revaluation","1","80","","",""
"html-keyboard-response","197","920500","0.0-4.0-2.0-1.40","spark_pilot_2","7120","4","8","Female","","","","","","","null","<div style=""font-size:60px;"">+</div>","null","fixation","","","","","","","","","","","81","","",""
"revaluation","198","926522","0.0-4.0-2.0-0.41","spark_pilot_2","7120","4","8","Female","","","false","","","","[520.0999999940395,1076.5999999940395]","./assets/img/ocean/memory/12.jpg","[""ArrowUp"",""ArrowLeft""]","value training","ocean","26","{""ArrowUp,ArrowLeft"":26,""ArrowUp,ArrowRight"":10,""ArrowDown,ArrowLeft"":5,""ArrowDown,ArrowRight"":17}","true","ArrowUp,ArrowLeft","false","","","revaluation","1","82","","",""
"html-keyboard-response","199","927029","0.0-4.0-2.0-1.41","spark_pilot_2","7120","4","8","Female","","","","","","","null","<div style=""font-size:60px;"">+</div>","null","fixation","","","","","","","","","","","83","","",""
"revaluation","200","933050","0.0-4.0-2.0-0.42","spark_pilot_2","7120","4","8","Female","","","false","","","","[592.1000000014901,822.1999999955297]","./assets/img/ocean/memory/12.jpg","[""ArrowUp"",""ArrowLeft""]","value training","ocean","26","{""ArrowUp,ArrowLeft"":26,""ArrowUp,ArrowRight"":10,""ArrowDown,ArrowLeft"":5,""ArrowDown,ArrowRight"":17}","true","ArrowUp,ArrowLeft","false","","","revaluation","1","84","","",""
"html-keyboard-response","201","933557","0.0-4.0-2.0-1.42","spark_pilot_2","7120","4","8","Female","","","","","","","null","<div style=""font-size:60px;"">+</div>","null","fixation","","","","","","","","","","","85","","",""
"revaluation","202","939579","0.0-4.0-2.0-0.43","spark_pilot_2","7120","4","8","Female","","","false","","","","[496.5,612.2999999970198]","./assets/img/ocean/memory/31.jpg","[""ArrowUp"",""ArrowLeft""]","value training","ocean","26","{""ArrowUp,ArrowLeft"":26,""ArrowUp,ArrowRight"":10,""ArrowDown,ArrowLeft"":5,""ArrowDown,ArrowRight"":17}","true","ArrowUp,ArrowLeft","false","","","revaluation","1","86","","",""
"html-keyboard-response","203","940085","0.0-4.0-2.0-1.43","spark_pilot_2","7120","4","8","Female","","","","","","","null","<div style=""font-size:60px;"">+</div>","null","fixation","","","","","","","","","","","87","","",""
"revaluation","204","946107","0.0-4.0-2.0-0.44","spark_pilot_2","7120","4","8","Female","","","false","","","","[9.700000002980232,717.7000000029802]","./assets/img/ocean/memory/31.jpg","[""ArrowUp"",""ArrowLeft""]","value training","ocean","26","{""ArrowUp,ArrowLeft"":26,""ArrowUp,ArrowRight"":10,""ArrowDown,ArrowLeft"":5,""ArrowDown,ArrowRight"":17}","true","ArrowUp,ArrowLeft","false","","","revaluation","1","88","","",""
"html-keyboard-response","205","946614","0.0-4.0-2.0-1.44","spark_pilot_2","7120","4","8","Female","","","","","","","null","<div style=""font-size:60px;"">+</div>","null","fixation","","","","","","","","","","","89","","",""
"revaluation","206","952635","0.0-4.0-2.0-0.45","spark_pilot_2","7120","4","8","Female","","","false","","","","[432.19999999552965,620.6000000014901]","./assets/img/ocean/memory/23.jpg","[""ArrowUp"",""ArrowLeft""]","value training","ocean","26","{""ArrowUp,ArrowLeft"":26,""ArrowUp,ArrowRight"":10,""ArrowDown,ArrowLeft"":5,""ArrowDown,ArrowRight"":17}","true","ArrowUp,ArrowLeft","false","","","revaluation","1","90","","",""
"html-keyboard-response","207","953142","0.0-4.0-2.0-1.45","spark_pilot_2","7120","4","8","Female","","","","","","","null","<div style=""font-size:60px;"">+</div>","null","fixation","","","","","","","","","","","91","","",""
"revaluation","208","957157","0.0-4.0-2.0-0.46","spark_pilot_2","7120","4","8","Female","","","false","","","","[935.5999999940395]","./assets/img/ocean/catch/5.jpg","[""spaceBar""]","value training","ocean","0","{""ArrowUp,ArrowLeft"":26,""ArrowUp,ArrowRight"":10,""ArrowDown,ArrowLeft"":5,""ArrowDown,ArrowRight"":17}","true","spaceBar","true","","","revaluation","1","92","","",""
"html-keyboard-response","209","957670","0.0-4.0-2.0-1.46","spark_pilot_2","7120","4","8","Female","","","","","","","null","<div style=""font-size:60px;"">+</div>","null","fixation","","","","","","","","","","","93","","",""
"revaluation","210","963691","0.0-4.0-2.0-0.47","spark_pilot_2","7120","4","8","Female","","","false","","","","[697.2999999970198,557.1999999955297]","./assets/img/ocean/memory/5.jpg","[""ArrowUp"",""ArrowLeft""]","value training","ocean","26","{""ArrowUp,ArrowLeft"":26,""ArrowUp,ArrowRight"":10,""ArrowDown,ArrowLeft"":5,""ArrowDown,ArrowRight"":17}","true","ArrowUp,ArrowLeft","false","","","revaluation","1","94","","",""
"html-keyboard-response","211","964198","0.0-4.0-2.0-1.47","spark_pilot_2","7120","4","8","Female","","","","","","","null","<div style=""font-size:60px;"">+</div>","null","fixation","","","","","","","","","","","95","","",""
"revaluation","212","970220","0.0-4.0-2.0-0.48","spark_pilot_2","7120","4","8","Female","","","false","","","","[528.5,907.8999999985099]","./assets/img/ocean/memory/1.jpg","[""ArrowUp"",""ArrowLeft""]","value training","ocean","26","{""ArrowUp,ArrowLeft"":26,""ArrowUp,ArrowRight"":10,""ArrowDown,ArrowLeft"":5,""ArrowDown,ArrowRight"":17}","true","ArrowUp,ArrowLeft","false","","","revaluation","1","96","","",""
"html-keyboard-response","213","970726","0.0-4.0-2.0-1.48","spark_pilot_2","7120","4","8","Female","","","","","","","null","<div style=""font-size:60px;"">+</div>","null","fixation","","","","","","","","","","","97","","",""
"revaluation","214","976748","0.0-4.0-2.0-0.49","spark_pilot_2","7120","4","8","Female","","","false","","","","[625.6999999955297,707.7999999970198]","./assets/img/ocean/memory/7.jpg","[""ArrowUp"",""ArrowLeft""]","value training","ocean","26","{""ArrowUp,ArrowLeft"":26,""ArrowUp,ArrowRight"":10,""ArrowDown,ArrowLeft"":5,""ArrowDown,ArrowRight"":17}","true","ArrowUp,ArrowLeft","false","","","revaluation","1","98","","",""
"html-keyboard-response","215","977254","0.0-4.0-2.0-1.49","spark_pilot_2","7120","4","8","Female","","","","","","","null","<div style=""font-size:60px;"">+</div>","null","fixation","","","","","","","","","","","99","","",""
"learning-instructions","216","995699","0.0-4.0-3.0-0.0","spark_pilot_2","7120","4","8","Female","","","","","","","5443.5","<p> Now, you will travel with a friend who will choose whether you go up or down first. </p>
            <p> On these turns, you will just see the animal that they found. You will still get to choose which chest to search for treasure.</p>","","instructions","","","","","","","","","","","","","",""
"revaluation","217","999717","0.0-4.0-4.0-0.0","spark_pilot_2","7120","4","8","Female","","","false","","","","[1582]","./assets/img/ocean/animals/seahorse.jpg","[""ArrowLeft""]","revaluation","ocean","8","{""ArrowUp,ArrowLeft"":2,""ArrowUp,ArrowRight"":11,""ArrowDown,ArrowLeft"":8,""ArrowDown,ArrowRight"":27}","false","ArrowDown,ArrowLeft","","","","revaluation","1","0","","",""
"html-keyboard-response","218","1000229","0.0-4.0-4.0-1.0","spark_pilot_2","7120","4","8","Female","","","","","","","null","<div style=""font-size:60px;"">+</div>","null","fixation","","","","","","","","","","","1","","",""
"revaluation","219","1004243","0.0-4.0-4.0-0.1","spark_pilot_2","7120","4","8","Female","","","true","","","","[]","./assets/img/ocean/animals/seahorse.jpg","[]","revaluation","ocean","-5","{""ArrowUp,ArrowLeft"":2,""ArrowUp,ArrowRight"":11,""ArrowDown,ArrowLeft"":8,""ArrowDown,ArrowRight"":27}","false","ArrowDown","","","","revaluation","1","2","","",""
"html-keyboard-response","220","1004750","0.0-4.0-4.0-1.1","spark_pilot_2","7120","4","8","Female","","","","","","","null","<div style=""font-size:60px;"">+</div>","null","fixation","","","","","","","","","","","3","","",""
"revaluation","221","1008764","0.0-4.0-4.0-0.2","spark_pilot_2","7120","4","8","Female","","","false","","","","[449.20000000298023]","./assets/img/ocean/animals/seahorse.jpg","[""ArrowRight""]","revaluation","ocean","27","{""ArrowUp,ArrowLeft"":2,""ArrowUp,ArrowRight"":11,""ArrowDown,ArrowLeft"":8,""ArrowDown,ArrowRight"":27}","true","ArrowDown,ArrowRight","","","","revaluation","1","4","","",""
"html-keyboard-response","222","1009269","0.0-4.0-4.0-1.2","spark_pilot_2","7120","4","8","Female","","","","","","","null","<div style=""font-size:60px;"">+</div>","null","fixation","","","","","","","","","","","5","","",""
"revaluation","223","1013285","0.0-4.0-4.0-0.3","spark_pilot_2","7120","4","8","Female","","","false","","","","[586.1000000014901]","./assets/img/ocean/animals/seahorse.jpg","[""ArrowRight""]","revaluation","ocean","27","{""ArrowUp,ArrowLeft"":2,""ArrowUp,ArrowRight"":11,""ArrowDown,ArrowLeft"":8,""ArrowDown,ArrowRight"":27}","true","ArrowDown,ArrowRight","","","","revaluation","1","6","","",""
"html-keyboard-response","224","1013792","0.0-4.0-4.0-1.3","spark_pilot_2","7120","4","8","Female","","","","","","","null","<div style=""font-size:60px;"">+</div>","null","fixation","","","","","","","","","","","7","","",""
"revaluation","225","1017808","0.0-4.0-4.0-0.4","spark_pilot_2","7120","4","8","Female","","","false","","","","[487.79999999701977]","./assets/img/ocean/animals/octopus.jpg","[""ArrowRight""]","revaluation","ocean","11","{""ArrowUp,ArrowLeft"":2,""ArrowUp,ArrowRight"":11,""ArrowDown,ArrowLeft"":8,""ArrowDown,ArrowRight"":27}","true","ArrowUp,ArrowRight","","","","revaluation","1","8","","",""
"html-keyboard-response","226","1018317","0.0-4.0-4.0-1.4","spark_pilot_2","7120","4","8","Female","","","","","","","null","<div style=""font-size:60px;"">+</div>","null","fixation","","","","","","","","","","","9","","",""
"revaluation","227","1022332","0.0-4.0-4.0-0.5","spark_pilot_2","7120","4","8","Female","","","false","","","","[994.1000000014901]","./assets/img/ocean/animals/seahorse.jpg","[""ArrowRight""]","revaluation","ocean","27","{""ArrowUp,ArrowLeft"":2,""ArrowUp,ArrowRight"":11,""ArrowDown,ArrowLeft"":8,""ArrowDown,ArrowRight"":27}","true","ArrowDown,ArrowRight","","","","revaluation","1","10","","",""
"html-keyboard-response","228","1022838","0.0-4.0-4.0-1.5","spark_pilot_2","7120","4","8","Female","","","","","","","null","<div style=""font-size:60px;"">+</div>","null","fixation","","","","","","","","","","","11","","",""
"revaluation","229","1026855","0.0-4.0-4.0-0.6","spark_pilot_2","7120","4","8","Female","","","false","","","","[521.1999999955297]","./assets/img/ocean/animals/octopus.jpg","[""ArrowLeft""]","revaluation","ocean","2","{""ArrowUp,ArrowLeft"":2,""ArrowUp,ArrowRight"":11,""ArrowDown,ArrowLeft"":8,""ArrowDown,ArrowRight"":27}","false","ArrowUp,ArrowLeft","","","","revaluation","1","12","","",""
"html-keyboard-response","230","1027366","0.0-4.0-4.0-1.6","spark_pilot_2","7120","4","8","Female","","","","","","","null","<div style=""font-size:60px;"">+</div>","null","fixation","","","","","","","","","","","13","","",""
"revaluation","231","1031383","0.0-4.0-4.0-0.7","spark_pilot_2","7120","4","8","Female","","","false","","","","[665.5]","./assets/img/ocean/animals/octopus.jpg","[""ArrowRight""]","revaluation","ocean","11","{""ArrowUp,ArrowLeft"":2,""ArrowUp,ArrowRight"":11,""ArrowDown,ArrowLeft"":8,""ArrowDown,ArrowRight"":27}","true","ArrowUp,ArrowRight","","","","revaluation","1","14","","",""
"html-keyboard-response","232","1031894","0.0-4.0-4.0-1.7","spark_pilot_2","7120","4","8","Female","","","","","","","null","<div style=""font-size:60px;"">+</div>","null","fixation","","","","","","","","","","","15","","",""
"revaluation","233","1035911","0.0-4.0-4.0-0.8","spark_pilot_2","7120","4","8","Female","","","false","","","","[882.3000000044703]","./assets/img/ocean/animals/octopus.jpg","[""ArrowRight""]","revaluation","ocean","11","{""ArrowUp,ArrowLeft"":2,""ArrowUp,ArrowRight"":11,""ArrowDown,ArrowLeft"":8,""ArrowDown,ArrowRight"":27}","true","ArrowUp,ArrowRight","","","","revaluation","1","16","","",""
"html-keyboard-response","234","1036423","0.0-4.0-4.0-1.8","spark_pilot_2","7120","4","8","Female","","","","","","","null","<div style=""font-size:60px;"">+</div>","null","fixation","","","","","","","","","","","17","","",""
"revaluation","235","1040439","0.0-4.0-4.0-0.9","spark_pilot_2","7120","4","8","Female","","","false","","","","[529.0999999940395]","./assets/img/ocean/animals/seahorse.jpg","[""ArrowRight""]","revaluation","ocean","27","{""ArrowUp,ArrowLeft"":2,""ArrowUp,ArrowRight"":11,""ArrowDown,ArrowLeft"":8,""ArrowDown,ArrowRight"":27}","true","ArrowDown,ArrowRight","","","","revaluation","1","18","","",""
"html-keyboard-response","236","1040951","0.0-4.0-4.0-1.9","spark_pilot_2","7120","4","8","Female","","","","","","","null","<div style=""font-size:60px;"">+</div>","null","fixation","","","","","","","","","","","19","","",""
"revaluation","237","1044967","0.0-4.0-4.0-0.10","spark_pilot_2","7120","4","8","Female","","","false","","","","[545.6000000014901]","./assets/img/ocean/animals/octopus.jpg","[""ArrowRight""]","revaluation","ocean","11","{""ArrowUp,ArrowLeft"":2,""ArrowUp,ArrowRight"":11,""ArrowDown,ArrowLeft"":8,""ArrowDown,ArrowRight"":27}","true","ArrowUp,ArrowRight","","","","revaluation","1","20","","",""
"html-keyboard-response","238","1045472","0.0-4.0-4.0-1.10","spark_pilot_2","7120","4","8","Female","","","","","","","null","<div style=""font-size:60px;"">+</div>","null","fixation","","","","","","","","","","","21","","",""
"revaluation","239","1049488","0.0-4.0-4.0-0.11","spark_pilot_2","7120","4","8","Female","","","false","","","","[616.7999999970198]","./assets/img/ocean/animals/seahorse.jpg","[""ArrowRight""]","revaluation","ocean","27","{""ArrowUp,ArrowLeft"":2,""ArrowUp,ArrowRight"":11,""ArrowDown,ArrowLeft"":8,""ArrowDown,ArrowRight"":27}","true","ArrowDown,ArrowRight","","","","revaluation","1","22","","",""
"html-keyboard-response","240","1050000","0.0-4.0-4.0-1.11","spark_pilot_2","7120","4","8","Female","","","","","","","null","<div style=""font-size:60px;"">+</div>","null","fixation","","","","","","","","","","","23","","",""
"revaluation","241","1054013","0.0-4.0-4.0-0.12","spark_pilot_2","7120","4","8","Female","","","false","","","","[512.7000000029802]","./assets/img/ocean/animals/octopus.jpg","[""ArrowRight""]","revaluation","ocean","11","{""ArrowUp,ArrowLeft"":2,""ArrowUp,ArrowRight"":11,""ArrowDown,ArrowLeft"":8,""ArrowDown,ArrowRight"":27}","true","ArrowUp,ArrowRight","","","","revaluation","1","24","","",""
"html-keyboard-response","242","1054519","0.0-4.0-4.0-1.12","spark_pilot_2","7120","4","8","Female","","","","","","","null","<div style=""font-size:60px;"">+</div>","null","fixation","","","","","","","","","","","25","","",""
"revaluation","243","1058535","0.0-4.0-4.0-0.13","spark_pilot_2","7120","4","8","Female","","","false","","","","[625.8000000044703]","./assets/img/ocean/animals/octopus.jpg","[""ArrowRight""]","revaluation","ocean","11","{""ArrowUp,ArrowLeft"":2,""ArrowUp,ArrowRight"":11,""ArrowDown,ArrowLeft"":8,""ArrowDown,ArrowRight"":27}","true","ArrowUp,ArrowRight","","","","revaluation","1","26","","",""
"html-keyboard-response","244","1059037","0.0-4.0-4.0-1.13","spark_pilot_2","7120","4","8","Female","","","","","","","null","<div style=""font-size:60px;"">+</div>","null","fixation","","","","","","","","","","","27","","",""
"revaluation","245","1063053","0.0-4.0-4.0-0.14","spark_pilot_2","7120","4","8","Female","","","false","","","","[466.3999999985099]","./assets/img/ocean/animals/octopus.jpg","[""ArrowRight""]","revaluation","ocean","11","{""ArrowUp,ArrowLeft"":2,""ArrowUp,ArrowRight"":11,""ArrowDown,ArrowLeft"":8,""ArrowDown,ArrowRight"":27}","true","ArrowUp,ArrowRight","","","","revaluation","1","28","","",""
"html-keyboard-response","246","1063559","0.0-4.0-4.0-1.14","spark_pilot_2","7120","4","8","Female","","","","","","","null","<div style=""font-size:60px;"">+</div>","null","fixation","","","","","","","","","","","29","","",""
"revaluation","247","1067576","0.0-4.0-4.0-0.15","spark_pilot_2","7120","4","8","Female","","","false","","","","[345.8999999985099]","./assets/img/ocean/animals/seahorse.jpg","[""ArrowRight""]","revaluation","ocean","27","{""ArrowUp,ArrowLeft"":2,""ArrowUp,ArrowRight"":11,""ArrowDown,ArrowLeft"":8,""ArrowDown,ArrowRight"":27}","true","ArrowDown,ArrowRight","","","","revaluation","1","30","","",""
"html-keyboard-response","248","1068088","0.0-4.0-4.0-1.15","spark_pilot_2","7120","4","8","Female","","","","","","","null","<div style=""font-size:60px;"">+</div>","null","fixation","","","","","","","","","","","31","","",""
"revaluation","249","1072104","0.0-4.0-4.0-0.16","spark_pilot_2","7120","4","8","Female","","","false","","","","[512.8999999985099]","./assets/img/ocean/animals/seahorse.jpg","[""ArrowRight""]","revaluation","ocean","27","{""ArrowUp,ArrowLeft"":2,""ArrowUp,ArrowRight"":11,""ArrowDown,ArrowLeft"":8,""ArrowDown,ArrowRight"":27}","true","ArrowDown,ArrowRight","","","","revaluation","1","32","","",""
"html-keyboard-response","250","1072605","0.0-4.0-4.0-1.16","spark_pilot_2","7120","4","8","Female","","","","","","","null","<div style=""font-size:60px;"">+</div>","null","fixation","","","","","","","","","","","33","","",""
"revaluation","251","1076621","0.0-4.0-4.0-0.17","spark_pilot_2","7120","4","8","Female","","","false","","","","[524.2000000029802]","./assets/img/ocean/animals/octopus.jpg","[""ArrowRight""]","revaluation","ocean","11","{""ArrowUp,ArrowLeft"":2,""ArrowUp,ArrowRight"":11,""ArrowDown,ArrowLeft"":8,""ArrowDown,ArrowRight"":27}","true","ArrowUp,ArrowRight","","","","revaluation","1","34","","",""
"html-keyboard-response","252","1077128","0.0-4.0-4.0-1.17","spark_pilot_2","7120","4","8","Female","","","","","","","null","<div style=""font-size:60px;"">+</div>","null","fixation","","","","","","","","","","","35","","",""
"learning-instructions","253","1090364","0.0-4.0-5.0-0.0","spark_pilot_2","7120","4","8","Female","","","","","","","1741.7000000029802","<p> Time to play the dot game! </p>
            <p> For one minute, click the red dots on the following screen as they appear. </p>
            <p><b> Don't look away, as you will earn bonus for clicking dots</b>. </p>","","instructions","","","","","","","","","","","","","",""
"revaluation","254","1150373","0.0-4.0-6.0-0.0","spark_pilot_2","7120","4","8","Female","","","","","","","[153,180,114,152,71,113]","","","rest","","60","","","","","0","60000","","","","","",""
"learning-instructions","255","1160006","0.0-4.0-7.0-0.0","spark_pilot_2","7120","4","8","Female","","","","","","","3415.6999999955297","<p> You have almost finished this part of the game! </p>
            <p> We are going to ask you to make a few more choices. </p>","","instructions","","","","","","","","","","","","","",""
"learning-instructions","256","1175797","0.0-4.0-7.0-0.1","spark_pilot_2","7120","4","8","Female","","","","","","","1819.1999999955297","<p> First, you need to decide whether to go up or down. When you see each picture, use the arrow keys to make your choice. </p>
            <p><b>You will not see which animal you found, but try to get to the one that will give you the most treasure.</b></p>","","instructions","","","","","","","","","","","","","",""
"revaluation","257","1176888","0.0-4.0-8.0-0.0","spark_pilot_2","7120","4","8","Female","","","false","","","","[1089.3000000044703]","./assets/img/ocean/test/0.jpg","[""ArrowUp""]","first stage test","ocean","0","{""ArrowUp,ArrowLeft"":2,""ArrowUp,ArrowRight"":11,""ArrowDown,ArrowLeft"":8,""ArrowDown,ArrowRight"":27}","false","ArrowUp","false","","","revaluation","1","","","",""
"html-keyboard-response","258","1177397","0.0-4.0-8.0-1.0","spark_pilot_2","7120","4","8","Female","","","","","","","null","<div style=""font-size:60px;"">+</div>","null","fixation","","","","","","","","","","","","","",""
"revaluation","259","1178275","0.0-4.0-8.0-0.1","spark_pilot_2","7120","4","8","Female","","","false","","","","[876.6000000014901]","./assets/img/ocean/test/2.jpg","[""ArrowUp""]","first stage test","ocean","0","{""ArrowUp,ArrowLeft"":2,""ArrowUp,ArrowRight"":11,""ArrowDown,ArrowLeft"":8,""ArrowDown,ArrowRight"":27}","false","ArrowUp","false","","","revaluation","1","","","",""
"html-keyboard-response","260","1178777","0.0-4.0-8.0-1.1","spark_pilot_2","7120","4","8","Female","","","","","","","null","<div style=""font-size:60px;"">+</div>","null","fixation","","","","","","","","","","","","","",""
"revaluation","261","1179411","0.0-4.0-8.0-0.2","spark_pilot_2","7120","4","8","Female","","","false","","","","[631.7000000029802]","./assets/img/ocean/test/1.jpg","[""ArrowUp""]","first stage test","ocean","0","{""ArrowUp,ArrowLeft"":2,""ArrowUp,ArrowRight"":11,""ArrowDown,ArrowLeft"":8,""ArrowDown,ArrowRight"":27}","false","ArrowUp","false","","","revaluation","1","","","",""
"html-keyboard-response","262","1179913","0.0-4.0-8.0-1.2","spark_pilot_2","7120","4","8","Female","","","","","","","null","<div style=""font-size:60px;"">+</div>","null","fixation","","","","","","","","","","","","","",""
"revaluation","263","1180555","0.0-4.0-8.0-0.3","spark_pilot_2","7120","4","8","Female","","","false","","","","[639.8000000044703]","./assets/img/ocean/test/3.jpg","[""ArrowUp""]","first stage test","ocean","0","{""ArrowUp,ArrowLeft"":2,""ArrowUp,ArrowRight"":11,""ArrowDown,ArrowLeft"":8,""ArrowDown,ArrowRight"":27}","false","ArrowUp","false","","","revaluation","1","","","",""
"html-keyboard-response","264","1181059","0.0-4.0-8.0-1.3","spark_pilot_2","7120","4","8","Female","","","","","","","null","<div style=""font-size:60px;"">+</div>","null","fixation","","","","","","","","","","","","","",""
"learning-instructions","265","1193888","0.0-4.0-9.0-0.0","spark_pilot_2","7120","4","8","Female","","","","","","","1482.6999999955297","<p> Now you will see the animals again and can search their chests for treasure. </p>
            <p> This time, you will not see how much treasure you earned, but you will earn more bonus money for making better choices. </p>","","instructions","","","","","","","","","","","","","",""
"revaluation","266","1195412","0.0-4.0-10.0-0.0","spark_pilot_2","7120","4","8","Female","","","false","","","","[1522.2000000029802]","./assets/img/ocean/animals/octopus.jpg","[""ArrowLeft""]","second stage test","ocean","0","{""ArrowUp,ArrowLeft"":2,""ArrowUp,ArrowRight"":11,""ArrowDown,ArrowLeft"":8,""ArrowDown,ArrowRight"":27}","false","ArrowUp,ArrowLeft","","","","revaluation","1","","","",""
"html-keyboard-response","267","1195916","0.0-4.0-10.0-1.0","spark_pilot_2","7120","4","8","Female","","","","","","","null","<div style=""font-size:60px;"">+</div>","null","fixation","","","","","","","","","","","","","",""
"revaluation","268","1196483","0.0-4.0-10.0-0.1","spark_pilot_2","7120","4","8","Female","","","false","","","","[565.8999999985099]","./assets/img/ocean/animals/octopus.jpg","[""ArrowLeft""]","second stage test","ocean","0","{""ArrowUp,ArrowLeft"":2,""ArrowUp,ArrowRight"":11,""ArrowDown,ArrowLeft"":8,""ArrowDown,ArrowRight"":27}","false","ArrowUp,ArrowLeft","","","","revaluation","1","","","",""
"html-keyboard-response","269","1196986","0.0-4.0-10.0-1.1","spark_pilot_2","7120","4","8","Female","","","","","","","null","<div style=""font-size:60px;"">+</div>","null","fixation","","","","","","","","","","","","","",""
"revaluation","270","1197364","0.0-4.0-10.0-0.2","spark_pilot_2","7120","4","8","Female","","","false","","","","[376.5]","./assets/img/ocean/animals/octopus.jpg","[""ArrowLeft""]","second stage test","ocean","0","{""ArrowUp,ArrowLeft"":2,""ArrowUp,ArrowRight"":11,""ArrowDown,ArrowLeft"":8,""ArrowDown,ArrowRight"":27}","false","ArrowUp,ArrowLeft","","","","revaluation","1","","","",""
"html-keyboard-response","271","1197866","0.0-4.0-10.0-1.2","spark_pilot_2","7120","4","8","Female","","","","","","","null","<div style=""font-size:60px;"">+</div>","null","fixation","","","","","","","","","","","","","",""
"revaluation","272","1198235","0.0-4.0-10.0-0.3","spark_pilot_2","7120","4","8","Female","","","false","","","","[367.70000000298023]","./assets/img/ocean/animals/octopus.jpg","[""ArrowLeft""]","second stage test","ocean","0","{""ArrowUp,ArrowLeft"":2,""ArrowUp,ArrowRight"":11,""ArrowDown,ArrowLeft"":8,""ArrowDown,ArrowRight"":27}","false","ArrowUp,ArrowLeft","","","","revaluation","1","","","",""
"html-keyboard-response","273","1198737","0.0-4.0-10.0-1.3","spark_pilot_2","7120","4","8","Female","","","","","","","null","<div style=""font-size:60px;"">+</div>","null","fixation","","","","","","","","","","","","","",""
"revaluation","274","1199571","0.0-4.0-10.0-0.4","spark_pilot_2","7120","4","8","Female","","","false","","","","[832.3999999985099]","./assets/img/ocean/animals/seahorse.jpg","[""ArrowLeft""]","second stage test","ocean","0","{""ArrowUp,ArrowLeft"":2,""ArrowUp,ArrowRight"":11,""ArrowDown,ArrowLeft"":8,""ArrowDown,ArrowRight"":27}","false","ArrowDown,ArrowLeft","","","","revaluation","1","","","",""
"html-keyboard-response","275","1200074","0.0-4.0-10.0-1.4","spark_pilot_2","7120","4","8","Female","","","","","","","null","<div style=""font-size:60px;"">+</div>","null","fixation","","","","","","","","","","","","","",""
"revaluation","276","1204451","0.0-4.0-10.0-0.5","spark_pilot_2","7120","4","8","Female","","","false","","","","[4375.60000000149]","./assets/img/ocean/animals/seahorse.jpg","[""ArrowRight""]","second stage test","ocean","0","{""ArrowUp,ArrowLeft"":2,""ArrowUp,ArrowRight"":11,""ArrowDown,ArrowLeft"":8,""ArrowDown,ArrowRight"":27}","true","ArrowDown,ArrowRight","","","","revaluation","1","","","",""
"html-keyboard-response","277","1204953","0.0-4.0-10.0-1.5","spark_pilot_2","7120","4","8","Female","","","","","","","null","<div style=""font-size:60px;"">+</div>","null","fixation","","","","","","","","","","","","","",""
"revaluation","278","1205451","0.0-4.0-10.0-0.6","spark_pilot_2","7120","4","8","Female","","","false","","","","[496.20000000298023]","./assets/img/ocean/animals/seahorse.jpg","[""ArrowRight""]","second stage test","ocean","0","{""ArrowUp,ArrowLeft"":2,""ArrowUp,ArrowRight"":11,""ArrowDown,ArrowLeft"":8,""ArrowDown,ArrowRight"":27}","true","ArrowDown,ArrowRight","","","","revaluation","1","","","",""
"html-keyboard-response","279","1205957","0.0-4.0-10.0-1.6","spark_pilot_2","7120","4","8","Female","","","","","","","null","<div style=""font-size:60px;"">+</div>","null","fixation","","","","","","","","","","","","","",""
"revaluation","280","1206379","0.0-4.0-10.0-0.7","spark_pilot_2","7120","4","8","Female","","","false","","","","[420.5]","./assets/img/ocean/animals/seahorse.jpg","[""ArrowRight""]","second stage test","ocean","0","{""ArrowUp,ArrowLeft"":2,""ArrowUp,ArrowRight"":11,""ArrowDown,ArrowLeft"":8,""ArrowDown,ArrowRight"":27}","true","ArrowDown,ArrowRight","","","","revaluation","1","","","",""
"html-keyboard-response","281","1206885","0.0-4.0-10.0-1.7","spark_pilot_2","7120","4","8","Female","","","","","","","null","<div style=""font-size:60px;"">+</div>","null","fixation","","","","","","","","","","","","","",""
"learning-instructions","282","1211916","0.0-4.0-0.1-0.2","spark_pilot_2","7120","4","8","Female","","","","","","","2262.89999999851","<p> This time you are searching for treasure in the <b>canyon</b>.</p>","","instructions","","","","","","","","","","","","","",""
"learning-instructions","283","1230972","0.0-4.0-0.1-0.3","spark_pilot_2","7120","4","8","Female","","","","","","","1803.7999999970198","<p><b>New</b> animals with <b>new</b> treasure chests live here. You need to explore to discover where the animal with the best treasure chest is.</p>
                    <p> Like before, once you figure out which animal has the chest with the most treasure, you should try to get to that animal and select that chest! </p>","","instructions","","","","","","","","","","","","","",""
"learning-instructions","284","1247686","0.0-4.0-1.1-0.1","spark_pilot_2","7120","4","8","Female","","","","","","","1983.3000000044703","<p> Remember, when you see a picture of the place, use the up and down keys to <b>find an animal</b>.</p>
            <p> When you encounter an animal, you should use the left and right keys to <b>select a treasure chest</b>.</p>
            <p> Don't forget to look out for the robber! </p>","","instructions","","","","","","","","","","","","","",""
"revaluation","285","1251702","0.0-4.0-2.1-0.50","spark_pilot_2","7120","4","8","Female","","","true","","","","[]","./assets/img/canyon/memory/19.jpg","[]","value training","canyon","-5","{""ArrowUp,ArrowLeft"":23,""ArrowUp,ArrowRight"":10,""ArrowDown,ArrowLeft"":8,""ArrowDown,ArrowRight"":30}","false","","false","","","original","2","0","","",""
"html-keyboard-response","286","1252212","0.0-4.0-2.1-1.50","spark_pilot_2","7120","4","8","Female","","","","","","","null","<div style=""font-size:60px;"">+</div>","null","fixation","","","","","","","","","","","1","","",""
"revaluation","287","1258239","0.0-4.0-2.1-0.51","spark_pilot_2","7120","4","8","Female","","","false","","","","[421.5,609]","./assets/img/canyon/memory/32.jpg","[""ArrowUp"",""ArrowLeft""]","value training","canyon","23","{""ArrowUp,ArrowLeft"":23,""ArrowUp,ArrowRight"":10,""ArrowDown,ArrowLeft"":8,""ArrowDown,ArrowRight"":30}","false","ArrowUp,ArrowLeft","false","","","original","2","2","","",""
"html-keyboard-response","288","1258747","0.0-4.0-2.1-1.51","spark_pilot_2","7120","4","8","Female","","","","","","","null","<div style=""font-size:60px;"">+</div>","null","fixation","","","","","","","","","","","3","","",""
"revaluation","289","1264775","0.0-4.0-2.1-0.52","spark_pilot_2","7120","4","8","Female","","","false","","","","[462,549.6999999955297]","./assets/img/canyon/memory/41.jpg","[""ArrowUp"",""ArrowRight""]","value training","canyon","10","{""ArrowUp,ArrowLeft"":23,""ArrowUp,ArrowRight"":10,""ArrowDown,ArrowLeft"":8,""ArrowDown,ArrowRight"":30}","false","ArrowUp,ArrowRight","false","","","original","2","4","","",""
"html-keyboard-response","290","1265284","0.0-4.0-2.1-1.52","spark_pilot_2","7120","4","8","Female","","","","","","","null","<div style=""font-size:60px;"">+</div>","null","fixation","","","","","","","","","","","5","","",""
"revaluation","291","1271303","0.0-4.0-2.1-0.53","spark_pilot_2","7120","4","8","Female","","","false","","","","[1214.5,525]","./assets/img/canyon/memory/23.jpg","[""ArrowUp"",""ArrowLeft""]","value training","canyon","23","{""ArrowUp,ArrowLeft"":23,""ArrowUp,ArrowRight"":10,""ArrowDown,ArrowLeft"":8,""ArrowDown,ArrowRight"":30}","false","ArrowUp,ArrowLeft","false","","","original","2","6","","",""
"html-keyboard-response","292","1271814","0.0-4.0-2.1-1.53","spark_pilot_2","7120","4","8","Female","","","","","","","null","<div style=""font-size:60px;"">+</div>","null","fixation","","","","","","","","","","","7","","",""
"revaluation","293","1277837","0.0-4.0-2.1-0.54","spark_pilot_2","7120","4","8","Female","","","false","","","","[395.40000000596046,552.1999999955297]","./assets/img/canyon/memory/21.jpg","[""ArrowDown"",""ArrowLeft""]","value training","canyon","8","{""ArrowUp,ArrowLeft"":23,""ArrowUp,ArrowRight"":10,""ArrowDown,ArrowLeft"":8,""ArrowDown,ArrowRight"":30}","false","ArrowDown,ArrowLeft","false","","","original","2","8","","",""
"html-keyboard-response","294","1278344","0.0-4.0-2.1-1.54","spark_pilot_2","7120","4","8","Female","","","","","","","null","<div style=""font-size:60px;"">+</div>","null","fixation","","","","","","","","","","","9","","",""
"revaluation","295","1284365","0.0-4.0-2.1-0.55","spark_pilot_2","7120","4","8","Female","","","false","","","","[411.80000000447035,641.6000000014901]","./assets/img/canyon/memory/37.jpg","[""ArrowDown"",""ArrowRight""]","value training","canyon","30","{""ArrowUp,ArrowLeft"":23,""ArrowUp,ArrowRight"":10,""ArrowDown,ArrowLeft"":8,""ArrowDown,ArrowRight"":30}","true","ArrowDown,ArrowRight","false","","","original","2","10","","",""
"html-keyboard-response","296","1284872","0.0-4.0-2.1-1.55","spark_pilot_2","7120","4","8","Female","","","","","","","null","<div style=""font-size:60px;"">+</div>","null","fixation","","","","","","","","","","","11","","",""
"revaluation","297","1288888","0.0-4.0-2.1-0.56","spark_pilot_2","7120","4","8","Female","","","false","","","","[978.7000000029802]","./assets/img/canyon/catch/4.jpg","[""ArrowUp""]","value training","canyon","-10","{""ArrowUp,ArrowLeft"":23,""ArrowUp,ArrowRight"":10,""ArrowDown,ArrowLeft"":8,""ArrowDown,ArrowRight"":30}","false","ArrowUp","true","","","original","2","12","","",""
"html-keyboard-response","298","1289400","0.0-4.0-2.1-1.56","spark_pilot_2","7120","4","8","Female","","","","","","","null","<div style=""font-size:60px;"">+</div>","null","fixation","","","","","","","","","","","13","","",""
"revaluation","299","1295424","0.0-4.0-2.1-0.57","spark_pilot_2","7120","4","8","Female","","","false","","","","[1052.3999999985099,472]","./assets/img/canyon/memory/33.jpg","[""ArrowUp"",""ArrowLeft""]","value training","canyon","23","{""ArrowUp,ArrowLeft"":23,""ArrowUp,ArrowRight"":10,""ArrowDown,ArrowLeft"":8,""ArrowDown,ArrowRight"":30}","false","ArrowUp,ArrowLeft","false","","","original","2","14","","",""
"html-keyboard-response","300","1295934","0.0-4.0-2.1-1.57","spark_pilot_2","7120","4","8","Female","","","","","","","null","<div style=""font-size:60px;"">+</div>","null","fixation","","","","","","","","","","","15","","",""
"revaluation","301","1301961","0.0-4.0-2.1-0.58","spark_pilot_2","7120","4","8","Female","","","false","","","","[797,476.79999999701977]","./assets/img/canyon/memory/36.jpg","[""ArrowDown"",""ArrowRight""]","value training","canyon","30","{""ArrowUp,ArrowLeft"":23,""ArrowUp,ArrowRight"":10,""ArrowDown,ArrowLeft"":8,""ArrowDown,ArrowRight"":30}","true","ArrowDown,ArrowRight","false","","","original","2","16","","",""
"html-keyboard-response","302","1302472","0.0-4.0-2.1-1.58","spark_pilot_2","7120","4","8","Female","","","","","","","null","<div style=""font-size:60px;"">+</div>","null","fixation","","","","","","","","","","","17","","",""
"revaluation","303","1306489","0.0-4.0-2.1-0.59","spark_pilot_2","7120","4","8","Female","","","false","","","","[796]","./assets/img/canyon/catch/6.jpg","[""spaceBar""]","value training","canyon","0","{""ArrowUp,ArrowLeft"":23,""ArrowUp,ArrowRight"":10,""ArrowDown,ArrowLeft"":8,""ArrowDown,ArrowRight"":30}","true","spaceBar","true","","","original","2","18","","",""
"html-keyboard-response","304","1307001","0.0-4.0-2.1-1.59","spark_pilot_2","7120","4","8","Female","","","","","","","null","<div style=""font-size:60px;"">+</div>","null","fixation","","","","","","","","","","","19","","",""
"revaluation","305","1313022","0.0-4.0-2.1-0.60","spark_pilot_2","7120","4","8","Female","","","false","","","","[780.3999999985099,662.2000000029802]","./assets/img/canyon/memory/2.jpg","[""ArrowDown"",""ArrowRight""]","value training","canyon","30","{""ArrowUp,ArrowLeft"":23,""ArrowUp,ArrowRight"":10,""ArrowDown,ArrowLeft"":8,""ArrowDown,ArrowRight"":30}","true","ArrowDown,ArrowRight","false","","","original","2","20","","",""
"html-keyboard-response","306","1313529","0.0-4.0-2.1-1.60","spark_pilot_2","7120","4","8","Female","","","","","","","null","<div style=""font-size:60px;"">+</div>","null","fixation","","","","","","","","","","","21","","",""
