"trial_type","trial_index","time_elapsed","internal_node_id","task_version","subject_id","assigned_condition","age","gender","success","timeout","failed_images","failed_audio","failed_video","browser_interaction","rt","stimulus","response","task_part","environment","score","rewardMap","correct","fullState","isCatch","numberMissed","duration","condition","order","trial_num","key_press","ground_truth","bonus"
"pavlovia","0","914","0.0-0.0","spark_pilot_2","7457","7","19","Female","","","","","","","","","","","","","","","","","","","","","","","",""
"preload","1","9669","0.0-1.0","spark_pilot_2","7457","7","19","Female","true","false","[]","[]","[]","[{""event"":""fullscreenenter"",""trial"":2,""time"":12987}]","","","","","","","","","","","","","","","","","",""
"fullscreen","2","13987","0.0-2.0","spark_pilot_2","7457","7","19","Female","true","","","","","","","","","","","","","","","","","","","","","","",""
"audio-button-response","3","17215","0.0-3.0-0.0-0.0","spark_pilot_2","7457","7","19","Female","","","","","","","2541","./assets/audio/audiotest/turtle.mp3","2","audio_test","","","","","","","","","","","","","",""
"learning-instructions","4","27218","0.0-3.0-1.0-0.0","spark_pilot_2","7457","7","19","Female","","","","","","","3007.099999964237","<p> Welcome! Please remember to stay in fullscreen mode and don't click away from the experiment. </p>","","instructions","","","","","","","","","","","","","",""
"learning-instructions","5","37222","0.0-3.0-1.0-0.1","spark_pilot_2","7457","7","19","Female","","","","","","","1610.199999988079","<p> Today you will be playing a game to earn treasure. </p>
            <p> At the end of the experiment, you will earn a bonus based on how much treasure you find. </p>
            <img src='./assets/img/instructions/treasure.jpg' class='instructions-image'>","","instructions","","","","","","","","","","","","","",""
"learning-instructions","6","46488","0.0-3.0-1.0-0.2","spark_pilot_2","7457","7","19","Female","","","","","","","1006.1999999880791","<p> Animals have hidden treasure in treasure chests. </p>
            <p> You need to first find an animal and then choose which of their treasure chests to search. </p>
            <img src='./assets/img/space/animals/cat.jpg' class='instructions-image'>","","instructions","","","","","","","","","","","","","",""
"learning-instructions","7","61253","0.0-3.0-1.0-0.3","spark_pilot_2","7457","7","19","Female","","","","","","","1621.3999999761581","<p> In each round, you will search for treasure in a different place. In the real game, there will be two rounds. </p>
            <p> You will begin with a separate, practice round where you will search for treasure in outer space. </p>
            <img src='./assets/img/space/0.jpg' class='instructions-image'>","","instructions","","","","","","","","","","","","","",""
"learning-instructions","8","73816","0.0-3.0-1.0-0.4","spark_pilot_2","7457","7","19","Female","","","","","","","1144","<p> On every turn, you will see a picture of the place that you are in, but the specific image may be different each time. </p>
            <p> For example, both of these images mean you are in outer space. </p>
            <img src='./assets/img/instructions/outerspace.jpg' class='instructions-image'>","","instructions","","","","","","","","","","","","","",""
"learning-instructions","9","82714","0.0-3.0-1.0-0.5","spark_pilot_2","7457","7","19","Female","","","","","","","1081.5999999642372","<p> You need to decide which direction to travel in. </p>
            <p> You can choose between going <b>up or down</b> by using the arrow keys. </p>
            <img src='./assets/img/instructions/updown.jpg' class='instructions-image'>","","instructions","","","","","","","","","","","","","",""
"learning-instructions","10","92684","0.0-3.0-1.0-0.6","spark_pilot_2","7457","7","19","Female","","","","","","","1162.8999999761581","<p> You will have <b>2 seconds</b> to make your choice. </p>
            <p> If you do not make a choice within 2 seconds, you will not find an animal or earn treasure. </p>
            <img src='./assets/img/instructions/2seconds.jpg' class='instructions-image'>","","instructions","","","","","","","","","","","","","",""
"learning-instructions","11","101087","0.0-3.0-1.0-0.7","spark_pilot_2","7457","7","19","Female","","","","","","","1375.300000011921","<p> Let’s try practicing that now! </p>
            <p> When you see a picture of the place you are in, press the <b>up</b> key to travel up. </p>
            <img src='./assets/img/instructions/pressUp.jpg' class='instructions-image'>","","instructions","","","","","","","","","","","","","",""
"revaluation","12","105110","0.0-3.0-2.0-0.0","spark_pilot_2","7457","7","19","Female","","false","","","","","[1159.199999988079]","./assets/img/space/0.jpg","[""ArrowUp""]","first stage practice","space","0","null","null","ArrowUp","false","","","","","","","",""
"html-keyboard-response","13","105629","0.0-3.0-2.0-1.0","spark_pilot_2","7457","7","19","Female","","","","","","","null","<div style=""font-size:60px;"">+</div>","null","fixation","","","","","","","","","","","","","",""
"revaluation","14","109660","0.0-3.0-2.0-0.1","spark_pilot_2","7457","7","19","Female","","false","","","","","[996.6999999880791]","./assets/img/space/1.jpg","[""ArrowUp""]","first stage practice","space","0","null","null","ArrowUp","false","","","","","","","",""
"html-keyboard-response","15","110179","0.0-3.0-2.0-1.1","spark_pilot_2","7457","7","19","Female","","","","","","","null","<div style=""font-size:60px;"">+</div>","null","fixation","","","","","","","","","","","","","",""
"revaluation","16","114210","0.0-3.0-2.0-0.2","spark_pilot_2","7457","7","19","Female","","false","","","","","[795.1000000238419]","./assets/img/space/2.jpg","[""ArrowUp""]","first stage practice","space","0","null","null","ArrowUp","false","","","","","","","",""
"html-keyboard-response","17","114719","0.0-3.0-2.0-1.2","spark_pilot_2","7457","7","19","Female","","","","","","","null","<div style=""font-size:60px;"">+</div>","null","fixation","","","","","","","","","","","","","",""
"learning-instructions","18","120621","0.0-3.0-3.0-0.0","spark_pilot_2","7457","7","19","Female","","","","","","","1210.3999999761581","<p> Great job! Now try pressing the <b>down</b> key to travel down. </p>
            <img src='./assets/img/instructions/pressDown.jpg' class='instructions-image'>","","instructions","","","","","","","","","","","","","",""
"revaluation","19","124660","0.0-3.0-4.0-0.0","spark_pilot_2","7457","7","19","Female","","false","","","","","[688.1999999880791]","./assets/img/space/3.jpg","[""ArrowDown""]","first stage practice","space","0","null","null","ArrowDown","false","","","","","","","",""
"html-keyboard-response","20","125169","0.0-3.0-4.0-1.0","spark_pilot_2","7457","7","19","Female","","","","","","","null","<div style=""font-size:60px;"">+</div>","null","fixation","","","","","","","","","","","","","",""
"revaluation","21","129209","0.0-3.0-4.0-0.1","spark_pilot_2","7457","7","19","Female","","false","","","","","[695]","./assets/img/space/4.jpg","[""ArrowDown""]","first stage practice","space","0","null","null","ArrowDown","false","","","","","","","",""
"html-keyboard-response","22","129719","0.0-3.0-4.0-1.1","spark_pilot_2","7457","7","19","Female","","","","","","","null","<div style=""font-size:60px;"">+</div>","null","fixation","","","","","","","","","","","","","",""
"revaluation","23","133750","0.0-3.0-4.0-0.2","spark_pilot_2","7457","7","19","Female","","false","","","","","[848.5]","./assets/img/space/5.jpg","[""ArrowDown""]","first stage practice","space","0","null","null","ArrowDown","false","","","","","","","",""
"html-keyboard-response","24","134260","0.0-3.0-4.0-1.2","spark_pilot_2","7457","7","19","Female","","","","","","","null","<div style=""font-size:60px;"">+</div>","null","fixation","","","","","","","","","","","","","",""
"learning-instructions","25","145184","0.0-3.0-5.0-0.0","spark_pilot_2","7457","7","19","Female","","","","","","","1061.800000011921","<p> The animals don’t move, so the animal in the upper part of a place will stay in the upper part of a place, and the animal in the lower part of a place will stay in the lower part of a place. </p>","","instructions","","","","","","","","","","","","","",""
"learning-instructions","26","155623","0.0-3.0-5.0-0.1","spark_pilot_2","7457","7","19","Female","","","","","","","1311.5999999642372","<p> Each animal has two treasure chests for you to choose from. </p>
            <p> The amount of treasure in each chest can range from <b> 0 to 40 pieces.</b></p>","","instructions","","","","","","","","","","","","","",""
"learning-instructions","27","168313","0.0-3.0-5.0-0.2","spark_pilot_2","7457","7","19","Female","","","","","","","1510.8999999761581","<p> You should decide which chest to search for treasure by using the <b>left</b> and <b>right</b> arrow keys. </p>
            <p><b> Pay attention to which animal is on the screen, as the animals have different treasure chests. </b></p>
            <img src='./assets/img/instructions/leftright.jpg' class='instructions-image'>","","instructions","","","","","","","","","","","","","",""
"learning-instructions","28","175852","0.0-3.0-5.0-0.3","spark_pilot_2","7457","7","19","Female","","","","","","","1170.800000011921","<p> Let’s try practicing that now. </p>
            <p> When you see an animal, choose which chest to search for treasure. </p>
            <img src='./assets/img/instructions/chooseChest.jpg' class='instructions-image'>","","instructions","","","","","","","","","","","","","",""
"revaluation","29","179871","0.0-3.0-6.0-0.0","spark_pilot_2","7457","7","19","Female","","false","","","","","[1998.300000011921]","./assets/img/space/animals/rabbit.jpg","[""ArrowRight""]","second stage practice","space","23","{""ArrowUp,ArrowLeft"":3,""ArrowUp,ArrowRight"":36,""ArrowDown,ArrowLeft"":15,""ArrowDown,ArrowRight"":23}","true","ArrowDown,ArrowRight","","","","","","","","",""
"html-keyboard-response","30","180379","0.0-3.0-6.0-1.0","spark_pilot_2","7457","7","19","Female","","","","","","","null","<div style=""font-size:60px;"">+</div>","null","fixation","","","","","","","","","","","","","",""
"revaluation","31","184399","0.0-3.0-6.0-0.1","spark_pilot_2","7457","7","19","Female","","false","","","","","[1544.800000011921]","./assets/img/space/animals/rabbit.jpg","[""ArrowLeft""]","second stage practice","space","15","{""ArrowUp,ArrowLeft"":3,""ArrowUp,ArrowRight"":36,""ArrowDown,ArrowLeft"":15,""ArrowDown,ArrowRight"":23}","false","ArrowDown,ArrowLeft","","","","","","","","",""
"html-keyboard-response","32","184919","0.0-3.0-6.0-1.1","spark_pilot_2","7457","7","19","Female","","","","","","","null","<div style=""font-size:60px;"">+</div>","null","fixation","","","","","","","","","","","","","",""
"revaluation","33","188949","0.0-3.0-6.0-0.2","spark_pilot_2","7457","7","19","Female","","false","","","","","[1649.199999988079]","./assets/img/space/animals/cat.jpg","[""ArrowLeft""]","second stage practice","space","3","{""ArrowUp,ArrowLeft"":3,""ArrowUp,ArrowRight"":36,""ArrowDown,ArrowLeft"":15,""ArrowDown,ArrowRight"":23}","false","ArrowUp,ArrowLeft","","","","","","","","",""
"html-keyboard-response","34","189459","0.0-3.0-6.0-1.2","spark_pilot_2","7457","7","19","Female","","","","","","","null","<div style=""font-size:60px;"">+</div>","null","fixation","","","","","","","","","","","","","",""
"revaluation","35","193479","0.0-3.0-6.0-0.3","spark_pilot_2","7457","7","19","Female","","false","","","","","[855.9000000357628]","./assets/img/space/animals/cat.jpg","[""ArrowRight""]","second stage practice","space","36","{""ArrowUp,ArrowLeft"":3,""ArrowUp,ArrowRight"":36,""ArrowDown,ArrowLeft"":15,""ArrowDown,ArrowRight"":23}","true","ArrowUp,ArrowRight","","","","","","","","",""
"html-keyboard-response","36","193999","0.0-3.0-6.0-1.3","spark_pilot_2","7457","7","19","Female","","","","","","","null","<div style=""font-size:60px;"">+</div>","null","fixation","","","","","","","","","","","","","",""
"learning-instructions","37","212071","0.0-3.0-7.0-0.0","spark_pilot_2","7457","7","19","Female","","","","","","","1270.3999999761581","<p> Great job. Now let’s try putting it together. </p>
            <p> On each turn, you will first see a picture to remind you of the place you are in, and you need to choose whether to go up or down. </p>
            <p> Then you will see an animal and choose which of its chests to search for treasure. </p>","","instructions","","","","","","","","","","","","","",""
"learning-instructions","38","221485","0.0-3.0-7.0-0.1","spark_pilot_2","7457","7","19","Female","","","","","","","1154.0999999642372","<p> When you choose whether to go up or down, try to go to the animal with the chest with the most treasure. </p>
            <p> Try practicing that now! </p>","","instructions","","","","","","","","","","","","","",""
"revaluation","39","227519","0.0-3.0-8.0-0.0","spark_pilot_2","7457","7","19","Female","","false","","","","","[1235.5,913.5999999642372]","./assets/img/space/6.jpg","[""ArrowUp"",""ArrowRight""]","full practice","space","36","{""ArrowUp,ArrowLeft"":3,""ArrowUp,ArrowRight"":36,""ArrowDown,ArrowLeft"":15,""ArrowDown,ArrowRight"":23}","true","ArrowUp,ArrowRight","false","","","","","","","",""
"html-keyboard-response","40","228029","0.0-3.0-8.0-1.0","spark_pilot_2","7457","7","19","Female","","","","","","","null","<div style=""font-size:60px;"">+</div>","null","fixation","","","","","","","","","","","","","",""
"revaluation","41","234089","0.0-3.0-8.0-0.1","spark_pilot_2","7457","7","19","Female","","false","","","","","[835.4000000357628,503.60000002384186]","./assets/img/space/7.jpg","[""ArrowUp"",""ArrowRight""]","full practice","space","36","{""ArrowUp,ArrowLeft"":3,""ArrowUp,ArrowRight"":36,""ArrowDown,ArrowLeft"":15,""ArrowDown,ArrowRight"":23}","true","ArrowUp,ArrowRight","false","","","","","","","",""
"html-keyboard-response","42","234609","0.0-3.0-8.0-1.1","spark_pilot_2","7457","7","19","Female","","","","","","","null","<div style=""font-size:60px;"">+</div>","null","fixation","","","","","","","","","","","","","",""
"revaluation","43","238649","0.0-3.0-8.0-0.2","spark_pilot_2","7457","7","19","Female","","true","","","","","[]","./assets/img/space/8.jpg","[]","full practice","space","-5","{""ArrowUp,ArrowLeft"":3,""ArrowUp,ArrowRight"":36,""ArrowDown,ArrowLeft"":15,""ArrowDown,ArrowRight"":23}","false","","false","","","","","","","",""
"html-keyboard-response","44","239159","0.0-3.0-8.0-1.2","spark_pilot_2","7457","7","19","Female","","","","","","","null","<div style=""font-size:60px;"">+</div>","null","fixation","","","","","","","","","","","","","",""
"revaluation","45","245209","0.0-3.0-8.0-0.3","spark_pilot_2","7457","7","19","Female","","false","","","","","[530.0999999642372,424.0999999642372]","./assets/img/space/9.jpg","[""ArrowDown"",""ArrowRight""]","full practice","space","23","{""ArrowUp,ArrowLeft"":3,""ArrowUp,ArrowRight"":36,""ArrowDown,ArrowLeft"":15,""ArrowDown,ArrowRight"":23}","false","ArrowDown,ArrowRight","false","","","","","","","",""
"html-keyboard-response","46","245729","0.0-3.0-8.0-1.3","spark_pilot_2","7457","7","19","Female","","","","","","","null","<div style=""font-size:60px;"">+</div>","null","fixation","","","","","","","","","","","","","",""
"revaluation","47","251750","0.0-3.0-8.0-0.4","spark_pilot_2","7457","7","19","Female","","false","","","","","[607,446.60000002384186]","./assets/img/space/10.jpg","[""ArrowUp"",""ArrowRight""]","full practice","space","36","{""ArrowUp,ArrowLeft"":3,""ArrowUp,ArrowRight"":36,""ArrowDown,ArrowLeft"":15,""ArrowDown,ArrowRight"":23}","true","ArrowUp,ArrowRight","false","","","","","","","",""
"html-keyboard-response","48","252252","0.0-3.0-8.0-1.4","spark_pilot_2","7457","7","19","Female","","","","","","","null","<div style=""font-size:60px;"">+</div>","null","fixation","","","","","","","","","","","","","",""
"learning-instructions","49","263615","0.0-3.0-9.0-0.0","spark_pilot_2","7457","7","19","Female","","","","","","","1060.5999999642372","<p> One last thing: sometimes, you will see a robber. The robber can be anywhere in the picture. </p>
            <p> If you do not stop them, you will lose treasure. </p>
            <img src='./assets/img/instructions/robber.jpg' class='instructions-image'>","","instructions","","","","","","","","","","","","","",""
"learning-instructions","50","271817","0.0-3.0-9.0-0.1","spark_pilot_2","7457","7","19","Female","","","","","","","1033.800000011921","<p> If you see the robber, you should <b>press the space bar</b> rather than using the arrow keys. </p>
            <p> Try practicing that now! </p>","","instructions","","","","","","","","","","","","","",""
"revaluation","51","275842","0.0-3.0-10.0-0.0","spark_pilot_2","7457","7","19","Female","","false","","","","","[778.8999999761581]","./assets/img/space/catch/0.jpg","[""spaceBar""]","catch practice","space","0","{""ArrowUp,ArrowLeft"":3,""ArrowUp,ArrowRight"":36,""ArrowDown,ArrowLeft"":15,""ArrowDown,ArrowRight"":23}","true","spaceBar","true","","","","","","","",""
"html-keyboard-response","52","276352","0.0-3.0-10.0-1.0","spark_pilot_2","7457","7","19","Female","","","","","","","null","<div style=""font-size:60px;"">+</div>","null","fixation","","","","","","","","","","","","","",""
"revaluation","53","280382","0.0-3.0-10.0-0.1","spark_pilot_2","7457","7","19","Female","","false","","","","","[679.5]","./assets/img/space/catch/1.jpg","[""spaceBar""]","catch practice","space","0","{""ArrowUp,ArrowLeft"":3,""ArrowUp,ArrowRight"":36,""ArrowDown,ArrowLeft"":15,""ArrowDown,ArrowRight"":23}","true","spaceBar","true","","","","","","","",""
"html-keyboard-response","54","280902","0.0-3.0-10.0-1.1","spark_pilot_2","7457","7","19","Female","","","","","","","null","<div style=""font-size:60px;"">+</div>","null","fixation","","","","","","","","","","","","","",""
"revaluation","55","284937","0.0-3.0-10.0-0.2","spark_pilot_2","7457","7","19","Female","","false","","","","","[646.6999999880791]","./assets/img/space/catch/2.jpg","[""spaceBar""]","catch practice","space","0","{""ArrowUp,ArrowLeft"":3,""ArrowUp,ArrowRight"":36,""ArrowDown,ArrowLeft"":15,""ArrowDown,ArrowRight"":23}","true","spaceBar","true","","","","","","","",""
"html-keyboard-response","56","285452","0.0-3.0-10.0-1.2","spark_pilot_2","7457","7","19","Female","","","","","","","null","<div style=""font-size:60px;"">+</div>","null","fixation","","","","","","","","","","","","","",""
"learning-instructions","57","300250","0.0-3.0-11.0-0.0","spark_pilot_2","7457","7","19","Female","","","","","","","1215.6000000238419","<p> After you explore a place to find treasure, it will be time to play a different game. </p>
            <p> During this game, red dots will appear on the screen and fall down slowly. </p>
            <p><b> You must click on them before they reach the bottom. </b></p>
            <img src='./assets/img/instructions/dotGame.jpg' class='instructions-image'>","","instructions","","","","","","","","","","","","","",""
"learning-instructions","58","306927","0.0-3.0-11.0-0.1","spark_pilot_2","7457","7","19","Female","","","","","","","982.8000000119209","<p> For every dot you click, you will earn additional treasure. </p>
            <p> Let’s try practicing that now. </p>","","instructions","","","","","","","","","","","","","",""
"revaluation","59","321935","0.0-3.0-12.0-0.0","spark_pilot_2","7457","7","19","Female","","","","","","","[91]","","","rest practice","","10","","","","","0","15000","","","","","",""
"learning-instructions","60","329519","0.0-3.0-13.0-0.0-0.0","spark_pilot_2","7457","7","19","Female","","","","","","","2334.400000035763","<p> Now, you will practice a shortened version of the game to get a sense of how it all fits together. </p>","","instructions","","","","","","","","","","","","","",""
"learning-instructions","61","333787","0.0-3.0-13.0-0.0-0.1","spark_pilot_2","7457","7","19","Female","","","","","","","1081.8999999761581","<p>This time you are searching for treasure in outer space.</p>","","instructions","","","","","","","","","","","","","",""
"learning-instructions","62","349555","0.0-3.0-13.0-1.0-0.0","spark_pilot_2","7457","7","19","Female","","","","","","","1010.8000000119209","<p> Remember, when you see a picture of the place, use the up and down keys to <b>find an animal</b>.</p>
            <p> When you encounter an animal, you should use the left and right keys to <b>select a treasure chest</b>.</p>
            <p> Don't forget to look out for the robber! </p>","","instructions","","","","","","","","","","","","","",""
"revaluation","63","355612","0.0-3.0-13.0-2.0-0.0","spark_pilot_2","7457","7","19","Female","","false","","","","","[1157.9000000357628,622.9000000357628]","./assets/img/space/11.jpg","[""ArrowUp"",""ArrowRight""]","practice block","space","36","{""ArrowUp,ArrowLeft"":3,""ArrowUp,ArrowRight"":36,""ArrowDown,ArrowLeft"":15,""ArrowDown,ArrowRight"":23}","true","ArrowUp,ArrowRight","false","","","","","","","",""
"html-keyboard-response","64","356122","0.0-3.0-13.0-2.0-1.0","spark_pilot_2","7457","7","19","Female","","","","","","","null","<div style=""font-size:60px;"">+</div>","null","fixation","","","","","","","","","","","","","",""
"revaluation","65","362173","0.0-3.0-13.0-2.0-0.1","spark_pilot_2","7457","7","19","Female","","false","","","","","[979,1089.3999999761581]","./assets/img/space/12.jpg","[""ArrowDown"",""ArrowRight""]","practice block","space","23","{""ArrowUp,ArrowLeft"":3,""ArrowUp,ArrowRight"":36,""ArrowDown,ArrowLeft"":15,""ArrowDown,ArrowRight"":23}","false","ArrowDown,ArrowRight","false","","","","","","","",""
"html-keyboard-response","66","362682","0.0-3.0-13.0-2.0-1.1","spark_pilot_2","7457","7","19","Female","","","","","","","null","<div style=""font-size:60px;"">+</div>","null","fixation","","","","","","","","","","","","","",""
"revaluation","67","368722","0.0-3.0-13.0-2.0-0.2","spark_pilot_2","7457","7","19","Female","","false","","","","","[1038.699999988079,373]","./assets/img/space/13.jpg","[""ArrowUp"",""ArrowLeft""]","practice block","space","3","{""ArrowUp,ArrowLeft"":3,""ArrowUp,ArrowRight"":36,""ArrowDown,ArrowLeft"":15,""ArrowDown,ArrowRight"":23}","false","ArrowUp,ArrowLeft","false","","","","","","","",""
"html-keyboard-response","68","369242","0.0-3.0-13.0-2.0-1.2","spark_pilot_2","7457","7","19","Female","","","","","","","null","<div style=""font-size:60px;"">+</div>","null","fixation","","","","","","","","","","","","","",""
"revaluation","69","375292","0.0-3.0-13.0-2.0-0.3","spark_pilot_2","7457","7","19","Female","","false","","","","","[691.2000000476837,545.5]","./assets/img/space/14.jpg","[""ArrowUp"",""ArrowRight""]","practice block","space","36","{""ArrowUp,ArrowLeft"":3,""ArrowUp,ArrowRight"":36,""ArrowDown,ArrowLeft"":15,""ArrowDown,ArrowRight"":23}","true","ArrowUp,ArrowRight","false","","","","","","","",""
"html-keyboard-response","70","375811","0.0-3.0-13.0-2.0-1.3","spark_pilot_2","7457","7","19","Female","","","","","","","null","<div style=""font-size:60px;"">+</div>","null","fixation","","","","","","","","","","","","","",""
"revaluation","71","381824","0.0-3.0-13.0-2.0-0.4","spark_pilot_2","7457","7","19","Female","","false","","","","","[653.6999999880791,606.5999999642372]","./assets/img/space/11.jpg","[""ArrowUp"",""ArrowRight""]","practice block","space","36","{""ArrowUp,ArrowLeft"":3,""ArrowUp,ArrowRight"":36,""ArrowDown,ArrowLeft"":15,""ArrowDown,ArrowRight"":23}","true","ArrowUp,ArrowRight","false","","","","","","","",""
"html-keyboard-response","72","382325","0.0-3.0-13.0-2.0-1.4","spark_pilot_2","7457","7","19","Female","","","","","","","null","<div style=""font-size:60px;"">+</div>","null","fixation","","","","","","","","","","","","","",""
"revaluation","73","388329","0.0-3.0-13.0-2.0-0.5","spark_pilot_2","7457","7","19","Female","","false","","","","","[780.1999999880791,535]","./assets/img/space/12.jpg","[""ArrowUp"",""ArrowRight""]","practice block","space","36","{""ArrowUp,ArrowLeft"":3,""ArrowUp,ArrowRight"":36,""ArrowDown,ArrowLeft"":15,""ArrowDown,ArrowRight"":23}","true","ArrowUp,ArrowRight","false","","","","","","","",""
"html-keyboard-response","74","388830","0.0-3.0-13.0-2.0-1.5","spark_pilot_2","7457","7","19","Female","","","","","","","null","<div style=""font-size:60px;"">+</div>","null","fixation","","","","","","","","","","","","","",""
"revaluation","75","394836","0.0-3.0-13.0-2.0-0.6","spark_pilot_2","7457","7","19","Female","","false","","","","","[927.3000000119209,546.3000000119209]","./assets/img/space/13.jpg","[""ArrowUp"",""ArrowRight""]","practice block","space","36","{""ArrowUp,ArrowLeft"":3,""ArrowUp,ArrowRight"":36,""ArrowDown,ArrowLeft"":15,""ArrowDown,ArrowRight"":23}","true","ArrowUp,ArrowRight","false","","","","","","","",""
"html-keyboard-response","76","395339","0.0-3.0-13.0-2.0-1.6","spark_pilot_2","7457","7","19","Female","","","","","","","null","<div style=""font-size:60px;"">+</div>","null","fixation","","","","","","","","","","","","","",""
"revaluation","77","401343","0.0-3.0-13.0-2.0-0.7","spark_pilot_2","7457","7","19","Female","","false","","","","","[783.1999999880791,523.6999999880791]","./assets/img/space/14.jpg","[""ArrowUp"",""ArrowRight""]","practice block","space","36","{""ArrowUp,ArrowLeft"":3,""ArrowUp,ArrowRight"":36,""ArrowDown,ArrowLeft"":15,""ArrowDown,ArrowRight"":23}","true","ArrowUp,ArrowRight","false","","","","","","","",""
"html-keyboard-response","78","401845","0.0-3.0-13.0-2.0-1.7","spark_pilot_2","7457","7","19","Female","","","","","","","null","<div style=""font-size:60px;"">+</div>","null","fixation","","","","","","","","","","","","","",""
"revaluation","79","405850","0.0-3.0-13.0-2.0-0.8","spark_pilot_2","7457","7","19","Female","","false","","","","","[601.8000000119209]","./assets/img/space/catch/3.jpg","[""spaceBar""]","practice block","space","0","{""ArrowUp,ArrowLeft"":3,""ArrowUp,ArrowRight"":36,""ArrowDown,ArrowLeft"":15,""ArrowDown,ArrowRight"":23}","true","spaceBar","true","","","","","","","",""
"html-keyboard-response","80","406352","0.0-3.0-13.0-2.0-1.8","spark_pilot_2","7457","7","19","Female","","","","","","","null","<div style=""font-size:60px;"">+</div>","null","fixation","","","","","","","","","","","","","",""
"learning-instructions","81","421574","0.0-3.0-13.0-3.0-0.0","spark_pilot_2","7457","7","19","Female","","","","","","","1272.300000011921","<p> Now, you will travel with a friend who will choose whether you go up or down first. </p>
            <p> On these turns, you will just see the animal that they found. You will still get to choose which chest to search for treasure.</p>","","instructions","","","","","","","","","","","","","",""
"revaluation","82","425601","0.0-3.0-13.0-4.0-0.0","spark_pilot_2","7457","7","19","Female","","false","","","","","[1131.1000000238419]","./assets/img/space/animals/cat.jpg","[""ArrowRight""]","practice block","space","36","{""ArrowUp,ArrowLeft"":3,""ArrowUp,ArrowRight"":36,""ArrowDown,ArrowLeft"":15,""ArrowDown,ArrowRight"":23}","true","ArrowUp,ArrowRight","","","","","","","","",""
"html-keyboard-response","83","426120","0.0-3.0-13.0-4.0-1.0","spark_pilot_2","7457","7","19","Female","","","","","","","null","<div style=""font-size:60px;"">+</div>","null","fixation","","","","","","","","","","","","","",""
"revaluation","84","430150","0.0-3.0-13.0-4.0-0.1","spark_pilot_2","7457","7","19","Female","","false","","","","","[884.6999999880791]","./assets/img/space/animals/cat.jpg","[""ArrowRight""]","practice block","space","36","{""ArrowUp,ArrowLeft"":3,""ArrowUp,ArrowRight"":36,""ArrowDown,ArrowLeft"":15,""ArrowDown,ArrowRight"":23}","true","ArrowUp,ArrowRight","","","","","","","","",""
"html-keyboard-response","85","430670","0.0-3.0-13.0-4.0-1.1","spark_pilot_2","7457","7","19","Female","","","","","","","null","<div style=""font-size:60px;"">+</div>","null","fixation","","","","","","","","","","","","","",""
"revaluation","86","434701","0.0-3.0-13.0-4.0-0.2","spark_pilot_2","7457","7","19","Female","","false","","","","","[1009.7999999523163]","./assets/img/space/animals/rabbit.jpg","[""ArrowRight""]","practice block","space","23","{""ArrowUp,ArrowLeft"":3,""ArrowUp,ArrowRight"":36,""ArrowDown,ArrowLeft"":15,""ArrowDown,ArrowRight"":23}","true","ArrowDown,ArrowRight","","","","","","","","",""
"html-keyboard-response","87","435220","0.0-3.0-13.0-4.0-1.2","spark_pilot_2","7457","7","19","Female","","","","","","","null","<div style=""font-size:60px;"">+</div>","null","fixation","","","","","","","","","","","","","",""
"revaluation","88","439241","0.0-3.0-13.0-4.0-0.3","spark_pilot_2","7457","7","19","Female","","false","","","","","[713.5999999642372]","./assets/img/space/animals/rabbit.jpg","[""ArrowLeft""]","practice block","space","15","{""ArrowUp,ArrowLeft"":3,""ArrowUp,ArrowRight"":36,""ArrowDown,ArrowLeft"":15,""ArrowDown,ArrowRight"":23}","false","ArrowDown,ArrowLeft","","","","","","","","",""
"html-keyboard-response","89","439750","0.0-3.0-13.0-4.0-1.3","spark_pilot_2","7457","7","19","Female","","","","","","","null","<div style=""font-size:60px;"">+</div>","null","fixation","","","","","","","","","","","","","",""
"learning-instructions","90","448068","0.0-3.0-13.0-5.0-0.0","spark_pilot_2","7457","7","19","Female","","","","","","","955.7000000476837","<p> Time to play the dot game! </p>
            <p> For 15 seconds, click the red dots on the following screen as they appear. </p>","","instructions","","","","","","","","","","","","","",""
"revaluation","91","463070","0.0-3.0-13.0-6.0-0.0","spark_pilot_2","7457","7","19","Female","","","","","","","[113]","","","rest practice","","10","","","","","0","15000","","","","","",""
"learning-instructions","92","471325","0.0-3.0-13.0-7.0-0.0","spark_pilot_2","7457","7","19","Female","","","","","","","2132.699999988079","<p> You have almost finished this part of the game! </p>
            <p> We are going to ask you to make a few more choices. </p>","","instructions","","","","","","","","","","","","","",""
"learning-instructions","93","486934","0.0-3.0-13.0-7.0-0.1","spark_pilot_2","7457","7","19","Female","","","","","","","1601.5","<p> First, you need to decide whether to go up or down. When you see each picture, use the arrow keys to make your choice. </p>
            <p><b>You will not see which animal you found, but try to get to the one that will give you the most treasure.</b></p>","","instructions","","","","","","","","","","","","","",""
"revaluation","94","488071","0.0-3.0-13.0-8.0","spark_pilot_2","7457","7","19","Female","","false","","","","","[1134.5999999642372]","./assets/img/space/15.jpg","[""ArrowUp""]","practice block","space","0","{""ArrowUp,ArrowLeft"":3,""ArrowUp,ArrowRight"":36,""ArrowDown,ArrowLeft"":15,""ArrowDown,ArrowRight"":23}","true","ArrowUp","false","","","","","","","",""
"html-keyboard-response","95","488580","0.0-3.0-13.0-9.0","spark_pilot_2","7457","7","19","Female","","","","","","","null","<div style=""font-size:60px;"">+</div>","null","fixation","","","","","","","","","","","","","",""
"learning-instructions","96","500991","0.0-3.0-13.0-10.0-0.0","spark_pilot_2","7457","7","19","Female","","","","","","","1048.300000011921","<p> Now you will see the animals again and can search their chests for treasure. </p>
            <p> This time, you will not see how much treasure you earned, but you will earn more bonus money for making better choices. </p>","","instructions","","","","","","","","","","","","","",""
"revaluation","97","502086","0.0-3.0-13.0-11.0-0.0","spark_pilot_2","7457","7","19","Female","","false","","","","","[1092.199999988079]","./assets/img/space/animals/cat.jpg","[""ArrowRight""]","practice block","space","0","{""ArrowUp,ArrowLeft"":3,""ArrowUp,ArrowRight"":36,""ArrowDown,ArrowLeft"":15,""ArrowDown,ArrowRight"":23}","true","ArrowUp,ArrowRight","","","","","","","","",""
"html-keyboard-response","98","502590","0.0-3.0-13.0-11.0-1.0","spark_pilot_2","7457","7","19","Female","","","","","","","null","<div style=""font-size:60px;"">+</div>","null","fixation","","","","","","","","","","","","","",""
"revaluation","99","503830","0.0-3.0-13.0-11.0-0.1","spark_pilot_2","7457","7","19","Female","","false","","","","","[1237.9000000357628]","./assets/img/space/animals/rabbit.jpg","[""ArrowRight""]","practice block","space","0","{""ArrowUp,ArrowLeft"":3,""ArrowUp,ArrowRight"":36,""ArrowDown,ArrowLeft"":15,""ArrowDown,ArrowRight"":23}","true","ArrowDown,ArrowRight","","","","","","","","",""
"html-keyboard-response","100","504340","0.0-3.0-13.0-11.0-1.1","spark_pilot_2","7457","7","19","Female","","","","","","","null","<div style=""font-size:60px;"">+</div>","null","fixation","","","","","","","","","","","","","",""
"learning-instructions","101","510099","0.0-3.0-14.0-0.0","spark_pilot_2","7457","7","19","Female","","","","","","","1176.4000000357628","<p> Before you start, we're going to ask you a few questions about how the game works. </p>","","instructions","","","","","","","","","","","","","",""
"comp-q","102","518085","0.0-3.0-15.0-0.0-0.0","spark_pilot_2","7457","7","19","Female","","","","","","","2408.699999988079","<p> <b> True or False? </b> </p>
            <p> There can be 50 pieces of treasure in a given animal's chest. </p>","1","comp_question","","","","true","","","","","","","","","",""
"comp-q","103","526638","0.0-3.0-15.0-0.0-1.0","spark_pilot_2","7457","7","19","Female","","","","","","","1896.7999999523163","<p> <b> That's right! </b> The amount of treasure in each chest can range from 0 to 40 pieces. </p>","0","comp_answer","","","","","","","","","","","","","",""
"comp-q","104","535366","0.0-3.0-15.0-0.1-0.1","spark_pilot_2","7457","7","19","Female","","","","","","","1624.1000000238419","<p> <b> True or False? </b> </p><p> In this game, all animals have the same amount of treasure in their left and right chests. </p>","1","comp_question","","","","true","","","","","","","","","",""
"comp-q","105","542030","0.0-3.0-15.0-0.1-1.1","spark_pilot_2","7457","7","19","Female","","","","","","","1438.1000000238419","<p> <b> That's right! </b> Animals have different amounts of treasure in their treasure chests. </p>","0","comp_answer","","","","","","","","","","","","","",""
"comp-q","106","550014","0.0-3.0-15.0-0.2-0.2","spark_pilot_2","7457","7","19","Female","","","","","","","2142.199999988079","<p> <b> True or False? </b> </p><p> The same animal will always be there if you go up in the same place. </p>","0","comp_question","","","","true","","","","","","","","","",""
"comp-q","107","558035","0.0-3.0-15.0-0.2-1.2","spark_pilot_2","7457","7","19","Female","","","","","","","1572.9000000357628","<p> <b> That's right! </b> One animal lives in the upper part and one lives in the lower part of every place. </p>","0","comp_answer","","","","","","","","","","","","","",""
"comp-q","108","564943","0.0-3.0-15.0-0.3-0.3","spark_pilot_2","7457","7","19","Female","","","","","","","1390.9000000357628","<p> <b> True or False? </b> </p><p> If you see a different picture, it means you are in a new place. </p>","1","comp_question","","","","true","","","","","","","","","",""
"comp-q","109","578089","0.0-3.0-15.0-0.3-1.3","spark_pilot_2","7457","7","19","Female","","","","","","","1938.5","<p> <b> That's right! </b> Lots of different images may show the same place. For example,  you may see three different images that all remind you that you are in outer space. </p>","0","comp_answer","","","","","","","","","","","","","",""
"learning-instructions","110","589270","0.0-3.0-16.0-0.0","spark_pilot_2","7457","7","19","Female","","","","","","","1326.5","<p> Good job. Remember to do your best because the amount of treasure you earn will be converted into bonus money. </p>
            <p> It’s time to start the real game! </p>","","instructions","","","","","","","","","","","","","",""
"learning-instructions","111","593903","0.0-4.0-0.0-0.0","spark_pilot_2","7457","7","19","Female","","","","","","","1870.699999988079","<p> This time you are searching for treasure in the <b>canyon</b>.</p>","","instructions","","","","","","","","","","","","","",""
"learning-instructions","112","612548","0.0-4.0-0.0-0.1","spark_pilot_2","7457","7","19","Female","","","","","","","1366.699999988079","<p><b>New</b> animals with <b>new</b> treasure chests live here. You need to explore to discover where the animal with the best treasure chest is.</p>
                    <p> Like before, once you figure out which animal has the chest with the most treasure, you should try to get to that animal and select that chest! </p>","","instructions","","","","","","","","","","","","","",""
"learning-instructions","113","629860","0.0-4.0-1.0-0.0","spark_pilot_2","7457","7","19","Female","","","","","","","2588.5","<p> Remember, when you see a picture of the place, use the up and down keys to <b>find an animal</b>.</p>
            <p> When you encounter an animal, you should use the left and right keys to <b>select a treasure chest</b>.</p>
            <p> Don't forget to look out for the robber! </p>","","instructions","","","","","","","","","","","","","",""
"revaluation","114","633890","0.0-4.0-2.0-0.0","spark_pilot_2","7457","7","19","Female","","false","","","","","[906]","./assets/img/canyon/catch/7.jpg","[""spaceBar""]","value training","canyon","0","{""ArrowUp,ArrowLeft"":23,""ArrowUp,ArrowRight"":10,""ArrowDown,ArrowLeft"":8,""ArrowDown,ArrowRight"":30}","true","spaceBar","true","","","original","1","0","","",""
"html-keyboard-response","115","634410","0.0-4.0-2.0-1.0","spark_pilot_2","7457","7","19","Female","","","","","","","null","<div style=""font-size:60px;"">+</div>","null","fixation","","","","","","","","","","","1","","",""
"revaluation","116","640440","0.0-4.0-2.0-0.1","spark_pilot_2","7457","7","19","Female","","false","","","","","[787,693.5]","./assets/img/canyon/memory/17.jpg","[""ArrowUp"",""ArrowRight""]","value training","canyon","10","{""ArrowUp,ArrowLeft"":23,""ArrowUp,ArrowRight"":10,""ArrowDown,ArrowLeft"":8,""ArrowDown,ArrowRight"":30}","false","ArrowUp,ArrowRight","false","","","original","1","2","","",""
"html-keyboard-response","117","640960","0.0-4.0-2.0-1.1","spark_pilot_2","7457","7","19","Female","","","","","","","null","<div style=""font-size:60px;"">+</div>","null","fixation","","","","","","","","","","","3","","",""
"revaluation","118","647010","0.0-4.0-2.0-0.2","spark_pilot_2","7457","7","19","Female","","false","","","","","[808.4000000357628,616.5999999642372]","./assets/img/canyon/memory/36.jpg","[""ArrowUp"",""ArrowLeft""]","value training","canyon","23","{""ArrowUp,ArrowLeft"":23,""ArrowUp,ArrowRight"":10,""ArrowDown,ArrowLeft"":8,""ArrowDown,ArrowRight"":30}","false","ArrowUp,ArrowLeft","false","","","original","1","4","","",""
"html-keyboard-response","119","647530","0.0-4.0-2.0-1.2","spark_pilot_2","7457","7","19","Female","","","","","","","null","<div style=""font-size:60px;"">+</div>","null","fixation","","","","","","","","","","","5","","",""
"revaluation","120","653570","0.0-4.0-2.0-0.3","spark_pilot_2","7457","7","19","Female","","false","","","","","[979.5,692.5]","./assets/img/canyon/memory/24.jpg","[""ArrowDown"",""ArrowRight""]","value training","canyon","30","{""ArrowUp,ArrowLeft"":23,""ArrowUp,ArrowRight"":10,""ArrowDown,ArrowLeft"":8,""ArrowDown,ArrowRight"":30}","true","ArrowDown,ArrowRight","false","","","original","1","6","","",""
"html-keyboard-response","121","654090","0.0-4.0-2.0-1.3","spark_pilot_2","7457","7","19","Female","","","","","","","null","<div style=""font-size:60px;"">+</div>","null","fixation","","","","","","","","","","","7","","",""
"revaluation","122","660102","0.0-4.0-2.0-0.4","spark_pilot_2","7457","7","19","Female","","false","","","","","[829.8999999761581,342.69999998807907]","./assets/img/canyon/memory/13.jpg","[""ArrowDown"",""ArrowLeft""]","value training","canyon","8","{""ArrowUp,ArrowLeft"":23,""ArrowUp,ArrowRight"":10,""ArrowDown,ArrowLeft"":8,""ArrowDown,ArrowRight"":30}","false","ArrowDown,ArrowLeft","false","","","original","1","8","","",""
"html-keyboard-response","123","660604","0.0-4.0-2.0-1.4","spark_pilot_2","7457","7","19","Female","","","","","","","null","<div style=""font-size:60px;"">+</div>","null","fixation","","","","","","","","","","","9","","",""
"revaluation","124","666623","0.0-4.0-2.0-0.5","spark_pilot_2","7457","7","19","Female","","false","","","","","[652.3000000119209,382.60000002384186]","./assets/img/canyon/memory/1.jpg","[""ArrowDown"",""ArrowRight""]","value training","canyon","30","{""ArrowUp,ArrowLeft"":23,""ArrowUp,ArrowRight"":10,""ArrowDown,ArrowLeft"":8,""ArrowDown,ArrowRight"":30}","true","ArrowDown,ArrowRight","false","","","original","1","10","","",""
"html-keyboard-response","125","667124","0.0-4.0-2.0-1.5","spark_pilot_2","7457","7","19","Female","","","","","","","null","<div style=""font-size:60px;"">+</div>","null","fixation","","","","","","","","","","","11","","",""
"revaluation","126","671129","0.0-4.0-2.0-0.6","spark_pilot_2","7457","7","19","Female","","false","","","","","[587.5]","./assets/img/canyon/catch/2.jpg","[""spaceBar""]","value training","canyon","0","{""ArrowUp,ArrowLeft"":23,""ArrowUp,ArrowRight"":10,""ArrowDown,ArrowLeft"":8,""ArrowDown,ArrowRight"":30}","true","spaceBar","true","","","original","1","12","","",""
"html-keyboard-response","127","671630","0.0-4.0-2.0-1.6","spark_pilot_2","7457","7","19","Female","","","","","","","null","<div style=""font-size:60px;"">+</div>","null","fixation","","","","","","","","","","","13","","",""
"revaluation","128","677639","0.0-4.0-2.0-0.7","spark_pilot_2","7457","7","19","Female","","false","","","","","[602,593.8999999761581]","./assets/img/canyon/memory/34.jpg","[""ArrowDown"",""ArrowRight""]","value training","canyon","30","{""ArrowUp,ArrowLeft"":23,""ArrowUp,ArrowRight"":10,""ArrowDown,ArrowLeft"":8,""ArrowDown,ArrowRight"":30}","true","ArrowDown,ArrowRight","false","","","original","1","14","","",""
"html-keyboard-response","129","678141","0.0-4.0-2.0-1.7","spark_pilot_2","7457","7","19","Female","","","","","","","null","<div style=""font-size:60px;"">+</div>","null","fixation","","","","","","","","","","","15","","",""
"revaluation","130","684146","0.0-4.0-2.0-0.8","spark_pilot_2","7457","7","19","Female","","false","","","","","[675.0999999642372,639.8000000119209]","./assets/img/canyon/memory/9.jpg","[""ArrowDown"",""ArrowRight""]","value training","canyon","30","{""ArrowUp,ArrowLeft"":23,""ArrowUp,ArrowRight"":10,""ArrowDown,ArrowLeft"":8,""ArrowDown,ArrowRight"":30}","true","ArrowDown,ArrowRight","false","","","original","1","16","","",""
"html-keyboard-response","131","684648","0.0-4.0-2.0-1.8","spark_pilot_2","7457","7","19","Female","","","","","","","null","<div style=""font-size:60px;"">+</div>","null","fixation","","","","","","","","","","","17","","",""
"revaluation","132","688653","0.0-4.0-2.0-0.9","spark_pilot_2","7457","7","19","Female","","false","","","","","[682.4000000357628]","./assets/img/canyon/catch/4.jpg","[""spaceBar""]","value training","canyon","0","{""ArrowUp,ArrowLeft"":23,""ArrowUp,ArrowRight"":10,""ArrowDown,ArrowLeft"":8,""ArrowDown,ArrowRight"":30}","true","spaceBar","true","","","original","1","18","","",""
"html-keyboard-response","133","689155","0.0-4.0-2.0-1.9","spark_pilot_2","7457","7","19","Female","","","","","","","null","<div style=""font-size:60px;"">+</div>","null","fixation","","","","","","","","","","","19","","",""
"revaluation","134","695161","0.0-4.0-2.0-0.10","spark_pilot_2","7457","7","19","Female","","false","","","","","[731.8000000119209,496.30000001192093]","./assets/img/canyon/memory/37.jpg","[""ArrowDown"",""ArrowRight""]","value training","canyon","30","{""ArrowUp,ArrowLeft"":23,""ArrowUp,ArrowRight"":10,""ArrowDown,ArrowLeft"":8,""ArrowDown,ArrowRight"":30}","true","ArrowDown,ArrowRight","false","","","original","1","20","","",""
"html-keyboard-response","135","695674","0.0-4.0-2.0-1.10","spark_pilot_2","7457","7","19","Female","","","","","","","null","<div style=""font-size:60px;"">+</div>","null","fixation","","","","","","","","","","","21","","",""
"revaluation","136","701679","0.0-4.0-2.0-0.11","spark_pilot_2","7457","7","19","Female","","false","","","","","[723.4000000357628,548.1999999880791]","./assets/img/canyon/memory/17.jpg","[""ArrowDown"",""ArrowRight""]","value training","canyon","30","{""ArrowUp,ArrowLeft"":23,""ArrowUp,ArrowRight"":10,""ArrowDown,ArrowLeft"":8,""ArrowDown,ArrowRight"":30}","true","ArrowDown,ArrowRight","false","","","original","1","22","","",""
"html-keyboard-response","137","702181","0.0-4.0-2.0-1.11","spark_pilot_2","7457","7","19","Female","","","","","","","null","<div style=""font-size:60px;"">+</div>","null","fixation","","","","","","","","","","","23","","",""
"revaluation","138","708186","0.0-4.0-2.0-0.12","spark_pilot_2","7457","7","19","Female","","false","","","","","[858.6999999880791,559.2000000476837]","./assets/img/canyon/memory/2.jpg","[""ArrowDown"",""ArrowRight""]","value training","canyon","30","{""ArrowUp,ArrowLeft"":23,""ArrowUp,ArrowRight"":10,""ArrowDown,ArrowLeft"":8,""ArrowDown,ArrowRight"":30}","true","ArrowDown,ArrowRight","false","","","original","1","24","","",""
"html-keyboard-response","139","708688","0.0-4.0-2.0-1.12","spark_pilot_2","7457","7","19","Female","","","","","","","null","<div style=""font-size:60px;"">+</div>","null","fixation","","","","","","","","","","","25","","",""
"revaluation","140","714693","0.0-4.0-2.0-0.13","spark_pilot_2","7457","7","19","Female","","false","","","","","[627.1000000238419,528]","./assets/img/canyon/memory/16.jpg","[""ArrowDown"",""ArrowRight""]","value training","canyon","30","{""ArrowUp,ArrowLeft"":23,""ArrowUp,ArrowRight"":10,""ArrowDown,ArrowLeft"":8,""ArrowDown,ArrowRight"":30}","true","ArrowDown,ArrowRight","false","","","original","1","26","","",""
"html-keyboard-response","141","715195","0.0-4.0-2.0-1.13","spark_pilot_2","7457","7","19","Female","","","","","","","null","<div style=""font-size:60px;"">+</div>","null","fixation","","","","","","","","","","","27","","",""
"revaluation","142","721200","0.0-4.0-2.0-0.14","spark_pilot_2","7457","7","19","Female","","false","","","","","[622.5,461.2000000476837]","./assets/img/canyon/memory/10.jpg","[""ArrowDown"",""ArrowRight""]","value training","canyon","30","{""ArrowUp,ArrowLeft"":23,""ArrowUp,ArrowRight"":10,""ArrowDown,ArrowLeft"":8,""ArrowDown,ArrowRight"":30}","true","ArrowDown,ArrowRight","false","","","original","1","28","","",""
"html-keyboard-response","143","721702","0.0-4.0-2.0-1.14","spark_pilot_2","7457","7","19","Female","","","","","","","null","<div style=""font-size:60px;"">+</div>","null","fixation","","","","","","","","","","","29","","",""
"revaluation","144","727707","0.0-4.0-2.0-0.15","spark_pilot_2","7457","7","19","Female","","false","","","","","[649.6999999880791,501.30000001192093]","./assets/img/canyon/memory/4.jpg","[""ArrowDown"",""ArrowRight""]","value training","canyon","30","{""ArrowUp,ArrowLeft"":23,""ArrowUp,ArrowRight"":10,""ArrowDown,ArrowLeft"":8,""ArrowDown,ArrowRight"":30}","true","ArrowDown,ArrowRight","false","","","original","1","30","","",""
"html-keyboard-response","145","728208","0.0-4.0-2.0-1.15","spark_pilot_2","7457","7","19","Female","","","","","","","null","<div style=""font-size:60px;"">+</div>","null","fixation","","","","","","","","","","","31","","",""
"revaluation","146","732213","0.0-4.0-2.0-0.16","spark_pilot_2","7457","7","19","Female","","false","","","","","[534]","./assets/img/canyon/catch/5.jpg","[""spaceBar""]","value training","canyon","0","{""ArrowUp,ArrowLeft"":23,""ArrowUp,ArrowRight"":10,""ArrowDown,ArrowLeft"":8,""ArrowDown,ArrowRight"":30}","true","spaceBar","true","","","original","1","32","","",""
"html-keyboard-response","147","732714","0.0-4.0-2.0-1.16","spark_pilot_2","7457","7","19","Female","","","","","","","null","<div style=""font-size:60px;"">+</div>","null","fixation","","","","","","","","","","","33","","",""
"revaluation","148","738721","0.0-4.0-2.0-0.17","spark_pilot_2","7457","7","19","Female","","false","","","","","[709.1999999880791,505.19999998807907]","./assets/img/canyon/memory/12.jpg","[""ArrowDown"",""ArrowRight""]","value training","canyon","30","{""ArrowUp,ArrowLeft"":23,""ArrowUp,ArrowRight"":10,""ArrowDown,ArrowLeft"":8,""ArrowDown,ArrowRight"":30}","true","ArrowDown,ArrowRight","false","","","original","1","34","","",""
"html-keyboard-response","149","739222","0.0-4.0-2.0-1.17","spark_pilot_2","7457","7","19","Female","","","","","","","null","<div style=""font-size:60px;"">+</div>","null","fixation","","","","","","","","","","","35","","",""
"revaluation","150","745228","0.0-4.0-2.0-0.18","spark_pilot_2","7457","7","19","Female","","false","","","","","[758.2999999523163,502]","./assets/img/canyon/memory/36.jpg","[""ArrowDown"",""ArrowRight""]","value training","canyon","30","{""ArrowUp,ArrowLeft"":23,""ArrowUp,ArrowRight"":10,""ArrowDown,ArrowLeft"":8,""ArrowDown,ArrowRight"":30}","true","ArrowDown,ArrowRight","false","","","original","1","36","","",""
"html-keyboard-response","151","745730","0.0-4.0-2.0-1.18","spark_pilot_2","7457","7","19","Female","","","","","","","null","<div style=""font-size:60px;"">+</div>","null","fixation","","","","","","","","","","","37","","",""
"revaluation","152","751735","0.0-4.0-2.0-0.19","spark_pilot_2","7457","7","19","Female","","false","","","","","[770.5999999642372,610.9000000357628]","./assets/img/canyon/memory/26.jpg","[""ArrowDown"",""ArrowRight""]","value training","canyon","30","{""ArrowUp,ArrowLeft"":23,""ArrowUp,ArrowRight"":10,""ArrowDown,ArrowLeft"":8,""ArrowDown,ArrowRight"":30}","true","ArrowDown,ArrowRight","false","","","original","1","38","","",""
"html-keyboard-response","153","752237","0.0-4.0-2.0-1.19","spark_pilot_2","7457","7","19","Female","","","","","","","null","<div style=""font-size:60px;"">+</div>","null","fixation","","","","","","","","","","","39","","",""
"revaluation","154","758242","0.0-4.0-2.0-0.20","spark_pilot_2","7457","7","19","Female","","false","","","","","[514.1000000238419,343.4000000357628]","./assets/img/canyon/memory/7.jpg","[""ArrowDown"",""ArrowRight""]","value training","canyon","30","{""ArrowUp,ArrowLeft"":23,""ArrowUp,ArrowRight"":10,""ArrowDown,ArrowLeft"":8,""ArrowDown,ArrowRight"":30}","true","ArrowDown,ArrowRight","false","","","original","1","40","","",""
"html-keyboard-response","155","758744","0.0-4.0-2.0-1.20","spark_pilot_2","7457","7","19","Female","","","","","","","null","<div style=""font-size:60px;"">+</div>","null","fixation","","","","","","","","","","","41","","",""
"revaluation","156","764749","0.0-4.0-2.0-0.21","spark_pilot_2","7457","7","19","Female","","false","","","","","[682.8999999761581,419.0999999642372]","./assets/img/canyon/memory/9.jpg","[""ArrowDown"",""ArrowRight""]","value training","canyon","30","{""ArrowUp,ArrowLeft"":23,""ArrowUp,ArrowRight"":10,""ArrowDown,ArrowLeft"":8,""ArrowDown,ArrowRight"":30}","true","ArrowDown,ArrowRight","false","","","original","1","42","","",""
"html-keyboard-response","157","765250","0.0-4.0-2.0-1.21","spark_pilot_2","7457","7","19","Female","","","","","","","null","<div style=""font-size:60px;"">+</div>","null","fixation","","","","","","","","","","","43","","",""
"revaluation","158","771255","0.0-4.0-2.0-0.22","spark_pilot_2","7457","7","19","Female","","false","","","","","[604.5999999642372,639.8999999761581]","./assets/img/canyon/memory/23.jpg","[""ArrowDown"",""ArrowRight""]","value training","canyon","30","{""ArrowUp,ArrowLeft"":23,""ArrowUp,ArrowRight"":10,""ArrowDown,ArrowLeft"":8,""ArrowDown,ArrowRight"":30}","true","ArrowDown,ArrowRight","false","","","original","1","44","","",""
"html-keyboard-response","159","771756","0.0-4.0-2.0-1.22","spark_pilot_2","7457","7","19","Female","","","","","","","null","<div style=""font-size:60px;"">+</div>","null","fixation","","","","","","","","","","","45","","",""
"revaluation","160","777762","0.0-4.0-2.0-0.23","spark_pilot_2","7457","7","19","Female","","false","","","","","[598.7999999523163,488.0999999642372]","./assets/img/canyon/memory/13.jpg","[""ArrowDown"",""ArrowRight""]","value training","canyon","30","{""ArrowUp,ArrowLeft"":23,""ArrowUp,ArrowRight"":10,""ArrowDown,ArrowLeft"":8,""ArrowDown,ArrowRight"":30}","true","ArrowDown,ArrowRight","false","","","original","1","46","","",""
"html-keyboard-response","161","778264","0.0-4.0-2.0-1.23","spark_pilot_2","7457","7","19","Female","","","","","","","null","<div style=""font-size:60px;"">+</div>","null","fixation","","","","","","","","","","","47","","",""
"revaluation","162","784270","0.0-4.0-2.0-0.24","spark_pilot_2","7457","7","19","Female","","false","","","","","[682.5,652.3000000119209]","./assets/img/canyon/memory/6.jpg","[""ArrowDown"",""ArrowRight""]","value training","canyon","30","{""ArrowUp,ArrowLeft"":23,""ArrowUp,ArrowRight"":10,""ArrowDown,ArrowLeft"":8,""ArrowDown,ArrowRight"":30}","true","ArrowDown,ArrowRight","false","","","original","1","48","","",""
"html-keyboard-response","163","784772","0.0-4.0-2.0-1.24","spark_pilot_2","7457","7","19","Female","","","","","","","null","<div style=""font-size:60px;"">+</div>","null","fixation","","","","","","","","","","","49","","",""
"revaluation","164","790777","0.0-4.0-2.0-0.25","spark_pilot_2","7457","7","19","Female","","false","","","","","[726.2000000476837,596.6000000238419]","./assets/img/canyon/memory/37.jpg","[""ArrowDown"",""ArrowRight""]","value training","canyon","30","{""ArrowUp,ArrowLeft"":23,""ArrowUp,ArrowRight"":10,""ArrowDown,ArrowLeft"":8,""ArrowDown,ArrowRight"":30}","true","ArrowDown,ArrowRight","false","","","original","1","50","","",""
"html-keyboard-response","165","791278","0.0-4.0-2.0-1.25","spark_pilot_2","7457","7","19","Female","","","","","","","null","<div style=""font-size:60px;"">+</div>","null","fixation","","","","","","","","","","","51","","",""
"revaluation","166","795283","0.0-4.0-2.0-0.26","spark_pilot_2","7457","7","19","Female","","false","","","","","[651.1000000238419]","./assets/img/canyon/catch/1.jpg","[""spaceBar""]","value training","canyon","0","{""ArrowUp,ArrowLeft"":23,""ArrowUp,ArrowRight"":10,""ArrowDown,ArrowLeft"":8,""ArrowDown,ArrowRight"":30}","true","spaceBar","true","","","original","1","52","","",""
"html-keyboard-response","167","795785","0.0-4.0-2.0-1.26","spark_pilot_2","7457","7","19","Female","","","","","","","null","<div style=""font-size:60px;"">+</div>","null","fixation","","","","","","","","","","","53","","",""
"revaluation","168","801790","0.0-4.0-2.0-0.27","spark_pilot_2","7457","7","19","Female","","false","","","","","[904,683.5]","./assets/img/canyon/memory/30.jpg","[""ArrowDown"",""ArrowRight""]","value training","canyon","30","{""ArrowUp,ArrowLeft"":23,""ArrowUp,ArrowRight"":10,""ArrowDown,ArrowLeft"":8,""ArrowDown,ArrowRight"":30}","true","ArrowDown,ArrowRight","false","","","original","1","54","","",""
"html-keyboard-response","169","802291","0.0-4.0-2.0-1.27","spark_pilot_2","7457","7","19","Female","","","","","","","null","<div style=""font-size:60px;"">+</div>","null","fixation","","","","","","","","","","","55","","",""
"revaluation","170","808296","0.0-4.0-2.0-0.28","spark_pilot_2","7457","7","19","Female","","false","","","","","[755.1000000238419,744.8999999761581]","./assets/img/canyon/memory/3.jpg","[""ArrowDown"",""ArrowRight""]","value training","canyon","30","{""ArrowUp,ArrowLeft"":23,""ArrowUp,ArrowRight"":10,""ArrowDown,ArrowLeft"":8,""ArrowDown,ArrowRight"":30}","true","ArrowDown,ArrowRight","false","","","original","1","56","","",""
"html-keyboard-response","171","808798","0.0-4.0-2.0-1.28","spark_pilot_2","7457","7","19","Female","","","","","","","null","<div style=""font-size:60px;"">+</div>","null","fixation","","","","","","","","","","","57","","",""
"revaluation","172","814803","0.0-4.0-2.0-0.29","spark_pilot_2","7457","7","19","Female","","false","","","","","[742.6999999880791,568.3000000119209]","./assets/img/canyon/memory/20.jpg","[""ArrowDown"",""ArrowRight""]","value training","canyon","30","{""ArrowUp,ArrowLeft"":23,""ArrowUp,ArrowRight"":10,""ArrowDown,ArrowLeft"":8,""ArrowDown,ArrowRight"":30}","true","ArrowDown,ArrowRight","false","","","original","1","58","","",""
"html-keyboard-response","173","815305","0.0-4.0-2.0-1.29","spark_pilot_2","7457","7","19","Female","","","","","","","null","<div style=""font-size:60px;"">+</div>","null","fixation","","","","","","","","","","","59","","",""
"revaluation","174","821311","0.0-4.0-2.0-0.30","spark_pilot_2","7457","7","19","Female","","false","","","","","[1569.8999999761581,742.6999999880791]","./assets/img/canyon/memory/12.jpg","[""ArrowDown"",""ArrowRight""]","value training","canyon","30","{""ArrowUp,ArrowLeft"":23,""ArrowUp,ArrowRight"":10,""ArrowDown,ArrowLeft"":8,""ArrowDown,ArrowRight"":30}","true","ArrowDown,ArrowRight","false","","","original","1","60","","",""
"html-keyboard-response","175","821814","0.0-4.0-2.0-1.30","spark_pilot_2","7457","7","19","Female","","","","","","","null","<div style=""font-size:60px;"">+</div>","null","fixation","","","","","","","","","","","61","","",""
"revaluation","176","827819","0.0-4.0-2.0-0.31","spark_pilot_2","7457","7","19","Female","","false","","","","","[663.9000000357628,603.8000000119209]","./assets/img/canyon/memory/26.jpg","[""ArrowDown"",""ArrowRight""]","value training","canyon","30","{""ArrowUp,ArrowLeft"":23,""ArrowUp,ArrowRight"":10,""ArrowDown,ArrowLeft"":8,""ArrowDown,ArrowRight"":30}","true","ArrowDown,ArrowRight","false","","","original","1","62","","",""
"html-keyboard-response","177","828321","0.0-4.0-2.0-1.31","spark_pilot_2","7457","7","19","Female","","","","","","","null","<div style=""font-size:60px;"">+</div>","null","fixation","","","","","","","","","","","63","","",""
"revaluation","178","834326","0.0-4.0-2.0-0.32","spark_pilot_2","7457","7","19","Female","","false","","","","","[762.8999999761581,458.19999998807907]","./assets/img/canyon/memory/4.jpg","[""ArrowDown"",""ArrowRight""]","value training","canyon","30","{""ArrowUp,ArrowLeft"":23,""ArrowUp,ArrowRight"":10,""ArrowDown,ArrowLeft"":8,""ArrowDown,ArrowRight"":30}","true","ArrowDown,ArrowRight","false","","","original","1","64","","",""
"html-keyboard-response","179","834828","0.0-4.0-2.0-1.32","spark_pilot_2","7457","7","19","Female","","","","","","","null","<div style=""font-size:60px;"">+</div>","null","fixation","","","","","","","","","","","65","","",""
"revaluation","180","840834","0.0-4.0-2.0-0.33","spark_pilot_2","7457","7","19","Female","","false","","","","","[661.5999999642372,491.69999998807907]","./assets/img/canyon/memory/16.jpg","[""ArrowDown"",""ArrowRight""]","value training","canyon","30","{""ArrowUp,ArrowLeft"":23,""ArrowUp,ArrowRight"":10,""ArrowDown,ArrowLeft"":8,""ArrowDown,ArrowRight"":30}","true","ArrowDown,ArrowRight","false","","","original","1","66","","",""
"html-keyboard-response","181","841336","0.0-4.0-2.0-1.33","spark_pilot_2","7457","7","19","Female","","","","","","","null","<div style=""font-size:60px;"">+</div>","null","fixation","","","","","","","","","","","67","","",""
"revaluation","182","847342","0.0-4.0-2.0-0.34","spark_pilot_2","7457","7","19","Female","","false","","","","","[921.8000000119209,610.6999999880791]","./assets/img/canyon/memory/2.jpg","[""ArrowDown"",""ArrowRight""]","value training","canyon","30","{""ArrowUp,ArrowLeft"":23,""ArrowUp,ArrowRight"":10,""ArrowDown,ArrowLeft"":8,""ArrowDown,ArrowRight"":30}","true","ArrowDown,ArrowRight","false","","","original","1","68","","",""
"html-keyboard-response","183","847844","0.0-4.0-2.0-1.34","spark_pilot_2","7457","7","19","Female","","","","","","","null","<div style=""font-size:60px;"">+</div>","null","fixation","","","","","","","","","","","69","","",""
"revaluation","184","853849","0.0-4.0-2.0-0.35","spark_pilot_2","7457","7","19","Female","","false","","","","","[937.9000000357628,482.19999998807907]","./assets/img/canyon/memory/22.jpg","[""ArrowDown"",""ArrowRight""]","value training","canyon","30","{""ArrowUp,ArrowLeft"":23,""ArrowUp,ArrowRight"":10,""ArrowDown,ArrowLeft"":8,""ArrowDown,ArrowRight"":30}","true","ArrowDown,ArrowRight","false","","","original","1","70","","",""
"html-keyboard-response","185","854350","0.0-4.0-2.0-1.35","spark_pilot_2","7457","7","19","Female","","","","","","","null","<div style=""font-size:60px;"">+</div>","null","fixation","","","","","","","","","","","71","","",""
"revaluation","186","860356","0.0-4.0-2.0-0.36","spark_pilot_2","7457","7","19","Female","","false","","","","","[637.8000000119209,572.2000000476837]","./assets/img/canyon/memory/6.jpg","[""ArrowDown"",""ArrowRight""]","value training","canyon","30","{""ArrowUp,ArrowLeft"":23,""ArrowUp,ArrowRight"":10,""ArrowDown,ArrowLeft"":8,""ArrowDown,ArrowRight"":30}","true","ArrowDown,ArrowRight","false","","","original","1","72","","",""
"html-keyboard-response","187","860858","0.0-4.0-2.0-1.36","spark_pilot_2","7457","7","19","Female","","","","","","","null","<div style=""font-size:60px;"">+</div>","null","fixation","","","","","","","","","","","73","","",""
"revaluation","188","864862","0.0-4.0-2.0-0.37","spark_pilot_2","7457","7","19","Female","","false","","","","","[560.6999999880791]","./assets/img/canyon/catch/6.jpg","[""spaceBar""]","value training","canyon","0","{""ArrowUp,ArrowLeft"":23,""ArrowUp,ArrowRight"":10,""ArrowDown,ArrowLeft"":8,""ArrowDown,ArrowRight"":30}","true","spaceBar","true","","","original","1","74","","",""
"html-keyboard-response","189","865364","0.0-4.0-2.0-1.37","spark_pilot_2","7457","7","19","Female","","","","","","","null","<div style=""font-size:60px;"">+</div>","null","fixation","","","","","","","","","","","75","","",""
"revaluation","190","871369","0.0-4.0-2.0-0.38","spark_pilot_2","7457","7","19","Female","","false","","","","","[729,434.19999998807907]","./assets/img/canyon/memory/7.jpg","[""ArrowDown"",""ArrowRight""]","value training","canyon","30","{""ArrowUp,ArrowLeft"":23,""ArrowUp,ArrowRight"":10,""ArrowDown,ArrowLeft"":8,""ArrowDown,ArrowRight"":30}","true","ArrowDown,ArrowRight","false","","","original","1","76","","",""
"html-keyboard-response","191","871871","0.0-4.0-2.0-1.38","spark_pilot_2","7457","7","19","Female","","","","","","","null","<div style=""font-size:60px;"">+</div>","null","fixation","","","","","","","","","","","77","","",""
"revaluation","192","877876","0.0-4.0-2.0-0.39","spark_pilot_2","7457","7","19","Female","","false","","","","","[722.6000000238419,553]","./assets/img/canyon/memory/22.jpg","[""ArrowDown"",""ArrowRight""]","value training","canyon","30","{""ArrowUp,ArrowLeft"":23,""ArrowUp,ArrowRight"":10,""ArrowDown,ArrowLeft"":8,""ArrowDown,ArrowRight"":30}","true","ArrowDown,ArrowRight","false","","","original","1","78","","",""
"html-keyboard-response","193","878377","0.0-4.0-2.0-1.39","spark_pilot_2","7457","7","19","Female","","","","","","","null","<div style=""font-size:60px;"">+</div>","null","fixation","","","","","","","","","","","79","","",""
"revaluation","194","884383","0.0-4.0-2.0-0.40","spark_pilot_2","7457","7","19","Female","","false","","","","","[788.4000000357628,578]","./assets/img/canyon/memory/20.jpg","[""ArrowDown"",""ArrowRight""]","value training","canyon","30","{""ArrowUp,ArrowLeft"":23,""ArrowUp,ArrowRight"":10,""ArrowDown,ArrowLeft"":8,""ArrowDown,ArrowRight"":30}","true","ArrowDown,ArrowRight","false","","","original","1","80","","",""
"html-keyboard-response","195","884885","0.0-4.0-2.0-1.40","spark_pilot_2","7457","7","19","Female","","","","","","","null","<div style=""font-size:60px;"">+</div>","null","fixation","","","","","","","","","","","81","","",""
"revaluation","196","890891","0.0-4.0-2.0-0.41","spark_pilot_2","7457","7","19","Female","","false","","","","","[831.1000000238419,455.80000001192093]","./assets/img/canyon/memory/34.jpg","[""ArrowDown"",""ArrowRight""]","value training","canyon","30","{""ArrowUp,ArrowLeft"":23,""ArrowUp,ArrowRight"":10,""ArrowDown,ArrowLeft"":8,""ArrowDown,ArrowRight"":30}","true","ArrowDown,ArrowRight","false","","","original","1","82","","",""
"html-keyboard-response","197","891392","0.0-4.0-2.0-1.41","spark_pilot_2","7457","7","19","Female","","","","","","","null","<div style=""font-size:60px;"">+</div>","null","fixation","","","","","","","","","","","83","","",""
"revaluation","198","897397","0.0-4.0-2.0-0.42","spark_pilot_2","7457","7","19","Female","","false","","","","","[584.5,544.6999999880791]","./assets/img/canyon/memory/30.jpg","[""ArrowDown"",""ArrowRight""]","value training","canyon","30","{""ArrowUp,ArrowLeft"":23,""ArrowUp,ArrowRight"":10,""ArrowDown,ArrowLeft"":8,""ArrowDown,ArrowRight"":30}","true","ArrowDown,ArrowRight","false","","","original","1","84","","",""
"html-keyboard-response","199","897899","0.0-4.0-2.0-1.42","spark_pilot_2","7457","7","19","Female","","","","","","","null","<div style=""font-size:60px;"">+</div>","null","fixation","","","","","","","","","","","85","","",""
"revaluation","200","901905","0.0-4.0-2.0-0.43","spark_pilot_2","7457","7","19","Female","","false","","","","","[708.6000000238419]","./assets/img/canyon/catch/0.jpg","[""spaceBar""]","value training","canyon","0","{""ArrowUp,ArrowLeft"":23,""ArrowUp,ArrowRight"":10,""ArrowDown,ArrowLeft"":8,""ArrowDown,ArrowRight"":30}","true","spaceBar","true","","","original","1","86","","",""
"html-keyboard-response","201","902406","0.0-4.0-2.0-1.43","spark_pilot_2","7457","7","19","Female","","","","","","","null","<div style=""font-size:60px;"">+</div>","null","fixation","","","","","","","","","","","87","","",""
"revaluation","202","908412","0.0-4.0-2.0-0.44","spark_pilot_2","7457","7","19","Female","","false","","","","","[806.3999999761581,610.9000000357628]","./assets/img/canyon/memory/10.jpg","[""ArrowDown"",""ArrowRight""]","value training","canyon","30","{""ArrowUp,ArrowLeft"":23,""ArrowUp,ArrowRight"":10,""ArrowDown,ArrowLeft"":8,""ArrowDown,ArrowRight"":30}","true","ArrowDown,ArrowRight","false","","","original","1","88","","",""
"html-keyboard-response","203","908914","0.0-4.0-2.0-1.44","spark_pilot_2","7457","7","19","Female","","","","","","","null","<div style=""font-size:60px;"">+</div>","null","fixation","","","","","","","","","","","89","","",""
"revaluation","204","912918","0.0-4.0-2.0-0.45","spark_pilot_2","7457","7","19","Female","","false","","","","","[604.1999999880791]","./assets/img/canyon/catch/3.jpg","[""spaceBar""]","value training","canyon","0","{""ArrowUp,ArrowLeft"":23,""ArrowUp,ArrowRight"":10,""ArrowDown,ArrowLeft"":8,""ArrowDown,ArrowRight"":30}","true","spaceBar","true","","","original","1","90","","",""
"html-keyboard-response","205","913419","0.0-4.0-2.0-1.45","spark_pilot_2","7457","7","19","Female","","","","","","","null","<div style=""font-size:60px;"">+</div>","null","fixation","","","","","","","","","","","91","","",""
"revaluation","206","919425","0.0-4.0-2.0-0.46","spark_pilot_2","7457","7","19","Female","","false","","","","","[734,577.6000000238419]","./assets/img/canyon/memory/24.jpg","[""ArrowDown"",""ArrowRight""]","value training","canyon","30","{""ArrowUp,ArrowLeft"":23,""ArrowUp,ArrowRight"":10,""ArrowDown,ArrowLeft"":8,""ArrowDown,ArrowRight"":30}","true","ArrowDown,ArrowRight","false","","","original","1","92","","",""
"html-keyboard-response","207","919927","0.0-4.0-2.0-1.46","spark_pilot_2","7457","7","19","Female","","","","","","","null","<div style=""font-size:60px;"">+</div>","null","fixation","","","","","","","","","","","93","","",""
"revaluation","208","925932","0.0-4.0-2.0-0.47","spark_pilot_2","7457","7","19","Female","","false","","","","","[666,365.30000001192093]","./assets/img/canyon/memory/23.jpg","[""ArrowDown"",""ArrowRight""]","value training","canyon","30","{""ArrowUp,ArrowLeft"":23,""ArrowUp,ArrowRight"":10,""ArrowDown,ArrowLeft"":8,""ArrowDown,ArrowRight"":30}","true","ArrowDown,ArrowRight","false","","","original","1","94","","",""
"html-keyboard-response","209","926434","0.0-4.0-2.0-1.47","spark_pilot_2","7457","7","19","Female","","","","","","","null","<div style=""font-size:60px;"">+</div>","null","fixation","","","","","","","","","","","95","","",""
"revaluation","210","932439","0.0-4.0-2.0-0.48","spark_pilot_2","7457","7","19","Female","","false","","","","","[675.6999999880791,425.30000001192093]","./assets/img/canyon/memory/3.jpg","[""ArrowDown"",""ArrowRight""]","value training","canyon","30","{""ArrowUp,ArrowLeft"":23,""ArrowUp,ArrowRight"":10,""ArrowDown,ArrowLeft"":8,""ArrowDown,ArrowRight"":30}","true","ArrowDown,ArrowRight","false","","","original","1","96","","",""
"html-keyboard-response","211","932940","0.0-4.0-2.0-1.48","spark_pilot_2","7457","7","19","Female","","","","","","","null","<div style=""font-size:60px;"">+</div>","null","fixation","","","","","","","","","","","97","","",""
"revaluation","212","938946","0.0-4.0-2.0-0.49","spark_pilot_2","7457","7","19","Female","","false","","","","","[745.4000000357628,627.3000000119209]","./assets/img/canyon/memory/1.jpg","[""ArrowDown"",""ArrowRight""]","value training","canyon","30","{""ArrowUp,ArrowLeft"":23,""ArrowUp,ArrowRight"":10,""ArrowDown,ArrowLeft"":8,""ArrowDown,ArrowRight"":30}","true","ArrowDown,ArrowRight","false","","","original","1","98","","",""
"html-keyboard-response","213","939448","0.0-4.0-2.0-1.49","spark_pilot_2","7457","7","19","Female","","","","","","","null","<div style=""font-size:60px;"">+</div>","null","fixation","","","","","","","","","","","99","","",""
"learning-instructions","214","954490","0.0-4.0-3.0-0.0","spark_pilot_2","7457","7","19","Female","","","","","","","1088.9000000357628","<p> Now, you will travel with a friend who will choose whether you go up or down first. </p>
            <p> On these turns, you will just see the animal that they found. You will still get to choose which chest to search for treasure.</p>","","instructions","","","","","","","","","","","","","",""
"revaluation","215","958529","0.0-4.0-4.0-0.0","spark_pilot_2","7457","7","19","Female","","false","","","","","[770.1999999880791]","./assets/img/canyon/animals/lion.jpg","[""ArrowLeft""]","revaluation","canyon","23","{""ArrowUp,ArrowLeft"":23,""ArrowUp,ArrowRight"":10,""ArrowDown,ArrowLeft"":8,""ArrowDown,ArrowRight"":30}","true","ArrowUp,ArrowLeft","","","","original","1","0","","",""
"html-keyboard-response","216","959048","0.0-4.0-4.0-1.0","spark_pilot_2","7457","7","19","Female","","","","","","","null","<div style=""font-size:60px;"">+</div>","null","fixation","","","","","","","","","","","1","","",""
"revaluation","217","963079","0.0-4.0-4.0-0.1","spark_pilot_2","7457","7","19","Female","","false","","","","","[810.3999999761581]","./assets/img/canyon/animals/lion.jpg","[""ArrowLeft""]","revaluation","canyon","23","{""ArrowUp,ArrowLeft"":23,""ArrowUp,ArrowRight"":10,""ArrowDown,ArrowLeft"":8,""ArrowDown,ArrowRight"":30}","true","ArrowUp,ArrowLeft","","","","original","1","2","","",""
"html-keyboard-response","218","963598","0.0-4.0-4.0-1.1","spark_pilot_2","7457","7","19","Female","","","","","","","null","<div style=""font-size:60px;"">+</div>","null","fixation","","","","","","","","","","","3","","",""
"revaluation","219","967629","0.0-4.0-4.0-0.2","spark_pilot_2","7457","7","19","Female","","false","","","","","[845.7000000476837]","./assets/img/canyon/animals/lion.jpg","[""ArrowLeft""]","revaluation","canyon","23","{""ArrowUp,ArrowLeft"":23,""ArrowUp,ArrowRight"":10,""ArrowDown,ArrowLeft"":8,""ArrowDown,ArrowRight"":30}","true","ArrowUp,ArrowLeft","","","","original","1","4","","",""
"html-keyboard-response","220","968149","0.0-4.0-4.0-1.2","spark_pilot_2","7457","7","19","Female","","","","","","","null","<div style=""font-size:60px;"">+</div>","null","fixation","","","","","","","","","","","5","","",""
"revaluation","221","972169","0.0-4.0-4.0-0.3","spark_pilot_2","7457","7","19","Female","","false","","","","","[934.6000000238419]","./assets/img/canyon/animals/lion.jpg","[""ArrowLeft""]","revaluation","canyon","23","{""ArrowUp,ArrowLeft"":23,""ArrowUp,ArrowRight"":10,""ArrowDown,ArrowLeft"":8,""ArrowDown,ArrowRight"":30}","true","ArrowUp,ArrowLeft","","","","original","1","6","","",""
"html-keyboard-response","222","972678","0.0-4.0-4.0-1.3","spark_pilot_2","7457","7","19","Female","","","","","","","null","<div style=""font-size:60px;"">+</div>","null","fixation","","","","","","","","","","","7","","",""
"revaluation","223","976699","0.0-4.0-4.0-0.4","spark_pilot_2","7457","7","19","Female","","false","","","","","[850.8999999761581]","./assets/img/canyon/animals/lion.jpg","[""ArrowLeft""]","revaluation","canyon","23","{""ArrowUp,ArrowLeft"":23,""ArrowUp,ArrowRight"":10,""ArrowDown,ArrowLeft"":8,""ArrowDown,ArrowRight"":30}","true","ArrowUp,ArrowLeft","","","","original","1","8","","",""
"html-keyboard-response","224","977209","0.0-4.0-4.0-1.4","spark_pilot_2","7457","7","19","Female","","","","","","","null","<div style=""font-size:60px;"">+</div>","null","fixation","","","","","","","","","","","9","","",""
"revaluation","225","981229","0.0-4.0-4.0-0.5","spark_pilot_2","7457","7","19","Female","","false","","","","","[874.6999999880791]","./assets/img/canyon/animals/giraffe.jpg","[""ArrowRight""]","revaluation","canyon","30","{""ArrowUp,ArrowLeft"":23,""ArrowUp,ArrowRight"":10,""ArrowDown,ArrowLeft"":8,""ArrowDown,ArrowRight"":30}","true","ArrowDown,ArrowRight","","","","original","1","10","","",""
"html-keyboard-response","226","981749","0.0-4.0-4.0-1.5","spark_pilot_2","7457","7","19","Female","","","","","","","null","<div style=""font-size:60px;"">+</div>","null","fixation","","","","","","","","","","","11","","",""
"revaluation","227","985754","0.0-4.0-4.0-0.6","spark_pilot_2","7457","7","19","Female","","false","","","","","[712.5]","./assets/img/canyon/animals/lion.jpg","[""ArrowLeft""]","revaluation","canyon","23","{""ArrowUp,ArrowLeft"":23,""ArrowUp,ArrowRight"":10,""ArrowDown,ArrowLeft"":8,""ArrowDown,ArrowRight"":30}","true","ArrowUp,ArrowLeft","","","","original","1","12","","",""
"html-keyboard-response","228","986255","0.0-4.0-4.0-1.6","spark_pilot_2","7457","7","19","Female","","","","","","","null","<div style=""font-size:60px;"">+</div>","null","fixation","","","","","","","","","","","13","","",""
"revaluation","229","990260","0.0-4.0-4.0-0.7","spark_pilot_2","7457","7","19","Female","","false","","","","","[742]","./assets/img/canyon/animals/giraffe.jpg","[""ArrowRight""]","revaluation","canyon","30","{""ArrowUp,ArrowLeft"":23,""ArrowUp,ArrowRight"":10,""ArrowDown,ArrowLeft"":8,""ArrowDown,ArrowRight"":30}","true","ArrowDown,ArrowRight","","","","original","1","14","","",""
"html-keyboard-response","230","990762","0.0-4.0-4.0-1.7","spark_pilot_2","7457","7","19","Female","","","","","","","null","<div style=""font-size:60px;"">+</div>","null","fixation","","","","","","","","","","","15","","",""
"revaluation","231","994766","0.0-4.0-4.0-0.8","spark_pilot_2","7457","7","19","Female","","false","","","","","[1477]","./assets/img/canyon/animals/lion.jpg","[""ArrowLeft""]","revaluation","canyon","23","{""ArrowUp,ArrowLeft"":23,""ArrowUp,ArrowRight"":10,""ArrowDown,ArrowLeft"":8,""ArrowDown,ArrowRight"":30}","true","ArrowUp,ArrowLeft","","","","original","1","16","","",""
"html-keyboard-response","232","995268","0.0-4.0-4.0-1.8","spark_pilot_2","7457","7","19","Female","","","","","","","null","<div style=""font-size:60px;"">+</div>","null","fixation","","","","","","","","","","","17","","",""
"revaluation","233","999274","0.0-4.0-4.0-0.9","spark_pilot_2","7457","7","19","Female","","false","","","","","[802.1000000238419]","./assets/img/canyon/animals/lion.jpg","[""ArrowLeft""]","revaluation","canyon","23","{""ArrowUp,ArrowLeft"":23,""ArrowUp,ArrowRight"":10,""ArrowDown,ArrowLeft"":8,""ArrowDown,ArrowRight"":30}","true","ArrowUp,ArrowLeft","","","","original","1","18","","",""
"html-keyboard-response","234","999775","0.0-4.0-4.0-1.9","spark_pilot_2","7457","7","19","Female","","","","","","","null","<div style=""font-size:60px;"">+</div>","null","fixation","","","","","","","","","","","19","","",""
"revaluation","235","1003780","0.0-4.0-4.0-0.10","spark_pilot_2","7457","7","19","Female","","false","","","","","[1054.7999999523163]","./assets/img/canyon/animals/giraffe.jpg","[""ArrowRight""]","revaluation","canyon","30","{""ArrowUp,ArrowLeft"":23,""ArrowUp,ArrowRight"":10,""ArrowDown,ArrowLeft"":8,""ArrowDown,ArrowRight"":30}","true","ArrowDown,ArrowRight","","","","original","1","20","","",""
"html-keyboard-response","236","1004283","0.0-4.0-4.0-1.10","spark_pilot_2","7457","7","19","Female","","","","","","","null","<div style=""font-size:60px;"">+</div>","null","fixation","","","","","","","","","","","21","","",""
"revaluation","237","1008287","0.0-4.0-4.0-0.11","spark_pilot_2","7457","7","19","Female","","false","","","","","[777.5]","./assets/img/canyon/animals/lion.jpg","[""ArrowLeft""]","revaluation","canyon","23","{""ArrowUp,ArrowLeft"":23,""ArrowUp,ArrowRight"":10,""ArrowDown,ArrowLeft"":8,""ArrowDown,ArrowRight"":30}","true","ArrowUp,ArrowLeft","","","","original","1","22","","",""
"html-keyboard-response","238","1008789","0.0-4.0-4.0-1.11","spark_pilot_2","7457","7","19","Female","","","","","","","null","<div style=""font-size:60px;"">+</div>","null","fixation","","","","","","","","","","","23","","",""
"revaluation","239","1012793","0.0-4.0-4.0-0.12","spark_pilot_2","7457","7","19","Female","","false","","","","","[1071.1000000238419]","./assets/img/canyon/animals/giraffe.jpg","[""ArrowRight""]","revaluation","canyon","30","{""ArrowUp,ArrowLeft"":23,""ArrowUp,ArrowRight"":10,""ArrowDown,ArrowLeft"":8,""ArrowDown,ArrowRight"":30}","true","ArrowDown,ArrowRight","","","","original","1","24","","",""
"html-keyboard-response","240","1013295","0.0-4.0-4.0-1.12","spark_pilot_2","7457","7","19","Female","","","","","","","null","<div style=""font-size:60px;"">+</div>","null","fixation","","","","","","","","","","","25","","",""
"revaluation","241","1017299","0.0-4.0-4.0-0.13","spark_pilot_2","7457","7","19","Female","","false","","","","","[1089.800000011921]","./assets/img/canyon/animals/giraffe.jpg","[""ArrowRight""]","revaluation","canyon","30","{""ArrowUp,ArrowLeft"":23,""ArrowUp,ArrowRight"":10,""ArrowDown,ArrowLeft"":8,""ArrowDown,ArrowRight"":30}","true","ArrowDown,ArrowRight","","","","original","1","26","","",""
"html-keyboard-response","242","1017801","0.0-4.0-4.0-1.13","spark_pilot_2","7457","7","19","Female","","","","","","","null","<div style=""font-size:60px;"">+</div>","null","fixation","","","","","","","","","","","27","","",""
"revaluation","243","1021806","0.0-4.0-4.0-0.14","spark_pilot_2","7457","7","19","Female","","false","","","","","[938.5999999642372]","./assets/img/canyon/animals/giraffe.jpg","[""ArrowRight""]","revaluation","canyon","30","{""ArrowUp,ArrowLeft"":23,""ArrowUp,ArrowRight"":10,""ArrowDown,ArrowLeft"":8,""ArrowDown,ArrowRight"":30}","true","ArrowDown,ArrowRight","","","","original","1","28","","",""
"html-keyboard-response","244","1022308","0.0-4.0-4.0-1.14","spark_pilot_2","7457","7","19","Female","","","","","","","null","<div style=""font-size:60px;"">+</div>","null","fixation","","","","","","","","","","","29","","",""
"revaluation","245","1026314","0.0-4.0-4.0-0.15","spark_pilot_2","7457","7","19","Female","","false","","","","","[825.1999999880791]","./assets/img/canyon/animals/giraffe.jpg","[""ArrowRight""]","revaluation","canyon","30","{""ArrowUp,ArrowLeft"":23,""ArrowUp,ArrowRight"":10,""ArrowDown,ArrowLeft"":8,""ArrowDown,ArrowRight"":30}","true","ArrowDown,ArrowRight","","","","original","1","30","","",""
"html-keyboard-response","246","1026816","0.0-4.0-4.0-1.15","spark_pilot_2","7457","7","19","Female","","","","","","","null","<div style=""font-size:60px;"">+</div>","null","fixation","","","","","","","","","","","31","","",""
"revaluation","247","1030820","0.0-4.0-4.0-0.16","spark_pilot_2","7457","7","19","Female","","false","","","","","[987.6999999880791]","./assets/img/canyon/animals/giraffe.jpg","[""ArrowRight""]","revaluation","canyon","30","{""ArrowUp,ArrowLeft"":23,""ArrowUp,ArrowRight"":10,""ArrowDown,ArrowLeft"":8,""ArrowDown,ArrowRight"":30}","true","ArrowDown,ArrowRight","","","","original","1","32","","",""
"html-keyboard-response","248","1031322","0.0-4.0-4.0-1.16","spark_pilot_2","7457","7","19","Female","","","","","","","null","<div style=""font-size:60px;"">+</div>","null","fixation","","","","","","","","","","","33","","",""
"revaluation","249","1035328","0.0-4.0-4.0-0.17","spark_pilot_2","7457","7","19","Female","","false","","","","","[860.1000000238419]","./assets/img/canyon/animals/giraffe.jpg","[""ArrowRight""]","revaluation","canyon","30","{""ArrowUp,ArrowLeft"":23,""ArrowUp,ArrowRight"":10,""ArrowDown,ArrowLeft"":8,""ArrowDown,ArrowRight"":30}","true","ArrowDown,ArrowRight","","","","original","1","34","","",""
"html-keyboard-response","250","1035829","0.0-4.0-4.0-1.17","spark_pilot_2","7457","7","19","Female","","","","","","","null","<div style=""font-size:60px;"">+</div>","null","fixation","","","","","","","","","","","35","","",""
"learning-instructions","251","1049814","0.0-4.0-5.0-0.0","spark_pilot_2","7457","7","19","Female","","","","","","","1573.300000011921","<p> Time to play the dot game! </p>
            <p> For one minute, click the red dots on the following screen as they appear. </p>
            <p><b> Don't look away, as you will earn bonus for clicking dots</b>. </p>","","instructions","","","","","","","","","","","","","",""
"revaluation","252","1109815","0.0-4.0-6.0-0.0","spark_pilot_2","7457","7","19","Female","","","","","","","[83,84,87,105,101,87,88]","","","rest","","70","","","","","0","60000","","","","","",""
"learning-instructions","253","1118617","0.0-4.0-7.0-0.0","spark_pilot_2","7457","7","19","Female","","","","","","","1809.199999988079","<p> You have almost finished this part of the game! </p>
            <p> We are going to ask you to make a few more choices. </p>","","instructions","","","","","","","","","","","","","",""
"learning-instructions","254","1135735","0.0-4.0-7.0-0.1","spark_pilot_2","7457","7","19","Female","","","","","","","3146.800000011921","<p> First, you need to decide whether to go up or down. When you see each picture, use the arrow keys to make your choice. </p>
            <p><b>You will not see which animal you found, but try to get to the one that will give you the most treasure.</b></p>","","instructions","","","","","","","","","","","","","",""
"revaluation","255","1137249","0.0-4.0-8.0-0.0","spark_pilot_2","7457","7","19","Female","","false","","","","","[1511.5]","./assets/img/canyon/test/3.jpg","[""ArrowDown""]","first stage test","canyon","0","{""ArrowUp,ArrowLeft"":23,""ArrowUp,ArrowRight"":10,""ArrowDown,ArrowLeft"":8,""ArrowDown,ArrowRight"":30}","true","ArrowDown","false","","","original","1","","","",""
"html-keyboard-response","256","1137756","0.0-4.0-8.0-1.0","spark_pilot_2","7457","7","19","Female","","","","","","","null","<div style=""font-size:60px;"">+</div>","null","fixation","","","","","","","","","","","","","",""
"revaluation","257","1139127","0.0-4.0-8.0-0.1","spark_pilot_2","7457","7","19","Female","","false","","","","","[1368.1000000238419]","./assets/img/canyon/test/0.jpg","[""ArrowDown""]","first stage test","canyon","0","{""ArrowUp,ArrowLeft"":23,""ArrowUp,ArrowRight"":10,""ArrowDown,ArrowLeft"":8,""ArrowDown,ArrowRight"":30}","true","ArrowDown","false","","","original","1","","","",""
"html-keyboard-response","258","1139646","0.0-4.0-8.0-1.1","spark_pilot_2","7457","7","19","Female","","","","","","","null","<div style=""font-size:60px;"">+</div>","null","fixation","","","","","","","","","","","","","",""
"revaluation","259","1140506","0.0-4.0-8.0-0.2","spark_pilot_2","7457","7","19","Female","","false","","","","","[856.5]","./assets/img/canyon/test/2.jpg","[""ArrowDown""]","first stage test","canyon","0","{""ArrowUp,ArrowLeft"":23,""ArrowUp,ArrowRight"":10,""ArrowDown,ArrowLeft"":8,""ArrowDown,ArrowRight"":30}","true","ArrowDown","false","","","original","1","","","",""
"html-keyboard-response","260","1141025","0.0-4.0-8.0-1.2","spark_pilot_2","7457","7","19","Female","","","","","","","null","<div style=""font-size:60px;"">+</div>","null","fixation","","","","","","","","","","","","","",""
"revaluation","261","1142025","0.0-4.0-8.0-0.3","spark_pilot_2","7457","7","19","Female","","false","","","","","[996.7999999523163]","./assets/img/canyon/test/1.jpg","[""ArrowDown""]","first stage test","canyon","0","{""ArrowUp,ArrowLeft"":23,""ArrowUp,ArrowRight"":10,""ArrowDown,ArrowLeft"":8,""ArrowDown,ArrowRight"":30}","true","ArrowDown","false","","","original","1","","","",""
"html-keyboard-response","262","1142546","0.0-4.0-8.0-1.3","spark_pilot_2","7457","7","19","Female","","","","","","","null","<div style=""font-size:60px;"">+</div>","null","fixation","","","","","","","","","","","","","",""
"learning-instructions","263","1155190","0.0-4.0-9.0-0.0","spark_pilot_2","7457","7","19","Female","","","","","","","1302","<p> Now you will see the animals again and can search their chests for treasure. </p>
            <p> This time, you will not see how much treasure you earned, but you will earn more bonus money for making better choices. </p>","","instructions","","","","","","","","","","","","","",""
"revaluation","264","1157046","0.0-4.0-10.0-0.0","spark_pilot_2","7457","7","19","Female","","false","","","","","[1856.8999999761581]","./assets/img/canyon/animals/lion.jpg","[""ArrowLeft""]","second stage test","canyon","0","{""ArrowUp,ArrowLeft"":23,""ArrowUp,ArrowRight"":10,""ArrowDown,ArrowLeft"":8,""ArrowDown,ArrowRight"":30}","true","ArrowUp,ArrowLeft","","","","original","1","","","",""
"html-keyboard-response","265","1157552","0.0-4.0-10.0-1.0","spark_pilot_2","7457","7","19","Female","","","","","","","null","<div style=""font-size:60px;"">+</div>","null","fixation","","","","","","","","","","","","","",""
"revaluation","266","1158731","0.0-4.0-10.0-0.1","spark_pilot_2","7457","7","19","Female","","false","","","","","[1176.0999999642372]","./assets/img/canyon/animals/lion.jpg","[""ArrowLeft""]","second stage test","canyon","0","{""ArrowUp,ArrowLeft"":23,""ArrowUp,ArrowRight"":10,""ArrowDown,ArrowLeft"":8,""ArrowDown,ArrowRight"":30}","true","ArrowUp,ArrowLeft","","","","original","1","","","",""
"html-keyboard-response","267","1159232","0.0-4.0-10.0-1.1","spark_pilot_2","7457","7","19","Female","","","","","","","null","<div style=""font-size:60px;"">+</div>","null","fixation","","","","","","","","","","","","","",""
"revaluation","268","1160317","0.0-4.0-10.0-0.2","spark_pilot_2","7457","7","19","Female","","false","","","","","[1081.3999999761581]","./assets/img/canyon/animals/lion.jpg","[""ArrowLeft""]","second stage test","canyon","0","{""ArrowUp,ArrowLeft"":23,""ArrowUp,ArrowRight"":10,""ArrowDown,ArrowLeft"":8,""ArrowDown,ArrowRight"":30}","true","ArrowUp,ArrowLeft","","","","original","1","","","",""
"html-keyboard-response","269","1160833","0.0-4.0-10.0-1.2","spark_pilot_2","7457","7","19","Female","","","","","","","null","<div style=""font-size:60px;"">+</div>","null","fixation","","","","","","","","","","","","","",""
"revaluation","270","1161691","0.0-4.0-10.0-0.3","spark_pilot_2","7457","7","19","Female","","false","","","","","[855.3999999761581]","./assets/img/canyon/animals/lion.jpg","[""ArrowLeft""]","second stage test","canyon","0","{""ArrowUp,ArrowLeft"":23,""ArrowUp,ArrowRight"":10,""ArrowDown,ArrowLeft"":8,""ArrowDown,ArrowRight"":30}","true","ArrowUp,ArrowLeft","","","","original","1","","","",""
"html-keyboard-response","271","1162202","0.0-4.0-10.0-1.3","spark_pilot_2","7457","7","19","Female","","","","","","","null","<div style=""font-size:60px;"">+</div>","null","fixation","","","","","","","","","","","","","",""
"revaluation","272","1163131","0.0-4.0-10.0-0.4","spark_pilot_2","7457","7","19","Female","","false","","","","","[926]","./assets/img/canyon/animals/giraffe.jpg","[""ArrowRight""]","second stage test","canyon","0","{""ArrowUp,ArrowLeft"":23,""ArrowUp,ArrowRight"":10,""ArrowDown,ArrowLeft"":8,""ArrowDown,ArrowRight"":30}","true","ArrowDown,ArrowRight","","","","original","1","","","",""
"html-keyboard-response","273","1163632","0.0-4.0-10.0-1.4","spark_pilot_2","7457","7","19","Female","","","","","","","null","<div style=""font-size:60px;"">+</div>","null","fixation","","","","","","","","","","","","","",""
"revaluation","274","1164300","0.0-4.0-10.0-0.5","spark_pilot_2","7457","7","19","Female","","false","","","","","[664.8000000119209]","./assets/img/canyon/animals/giraffe.jpg","[""ArrowRight""]","second stage test","canyon","0","{""ArrowUp,ArrowLeft"":23,""ArrowUp,ArrowRight"":10,""ArrowDown,ArrowLeft"":8,""ArrowDown,ArrowRight"":30}","true","ArrowDown,ArrowRight","","","","original","1","","","",""
"html-keyboard-response","275","1164802","0.0-4.0-10.0-1.5","spark_pilot_2","7457","7","19","Female","","","","","","","null","<div style=""font-size:60px;"">+</div>","null","fixation","","","","","","","","","","","","","",""
"revaluation","276","1165424","0.0-4.0-10.0-0.6","spark_pilot_2","7457","7","19","Female","","false","","","","","[618.8999999761581]","./assets/img/canyon/animals/giraffe.jpg","[""ArrowRight""]","second stage test","canyon","0","{""ArrowUp,ArrowLeft"":23,""ArrowUp,ArrowRight"":10,""ArrowDown,ArrowLeft"":8,""ArrowDown,ArrowRight"":30}","true","ArrowDown,ArrowRight","","","","original","1","","","",""
"html-keyboard-response","277","1165932","0.0-4.0-10.0-1.6","spark_pilot_2","7457","7","19","Female","","","","","","","null","<div style=""font-size:60px;"">+</div>","null","fixation","","","","","","","","","","","","","",""
"revaluation","278","1166657","0.0-4.0-10.0-0.7","spark_pilot_2","7457","7","19","Female","","false","","","","","[723]","./assets/img/canyon/animals/giraffe.jpg","[""ArrowRight""]","second stage test","canyon","0","{""ArrowUp,ArrowLeft"":23,""ArrowUp,ArrowRight"":10,""ArrowDown,ArrowLeft"":8,""ArrowDown,ArrowRight"":30}","true","ArrowDown,ArrowRight","","","","original","1","","","",""
"html-keyboard-response","279","1167162","0.0-4.0-10.0-1.7","spark_pilot_2","7457","7","19","Female","","","","","","","null","<div style=""font-size:60px;"">+</div>","null","fixation","","","","","","","","","","","","","",""
"learning-instructions","280","1171069","0.0-4.0-0.1-0.2","spark_pilot_2","7457","7","19","Female","","","","","","","1194","<p> This time you are searching for treasure in the <b>ocean</b>.</p>","","instructions","","","","","","","","","","","","","",""
"learning-instructions","281","1189476","0.0-4.0-0.1-0.3","spark_pilot_2","7457","7","19","Female","","","","","","","1160.3999999761581","<p><b>New</b> animals with <b>new</b> treasure chests live here. You need to explore to discover where the animal with the best treasure chest is.</p>
                    <p> Like before, once you figure out which animal has the chest with the most treasure, you should try to get to that animal and select that chest! </p>","","instructions","","","","","","","","","","","","","",""
"learning-instructions","282","1205220","0.0-4.0-1.1-0.1","spark_pilot_2","7457","7","19","Female","","","","","","","1014.6999999880791","<p> Remember, when you see a picture of the place, use the up and down keys to <b>find an animal</b>.</p>
            <p> When you encounter an animal, you should use the left and right keys to <b>select a treasure chest</b>.</p>
            <p> Don't forget to look out for the robber! </p>","","instructions","","","","","","","","","","","","","",""
"revaluation","283","1211273","0.0-4.0-2.1-0.50","spark_pilot_2","7457","7","19","Female","","false","","","","","[1366.5999999642372,605.8000000119209]","./assets/img/ocean/memory/37.jpg","[""ArrowUp"",""ArrowLeft""]","value training","ocean","26","{""ArrowUp,ArrowLeft"":26,""ArrowUp,ArrowRight"":10,""ArrowDown,ArrowLeft"":5,""ArrowDown,ArrowRight"":17}","true","ArrowUp,ArrowLeft","false","","","revaluation","2","0","","",""
"html-keyboard-response","284","1211782","0.0-4.0-2.1-1.50","spark_pilot_2","7457","7","19","Female","","","","","","","null","<div style=""font-size:60px;"">+</div>","null","fixation","","","","","","","","","","","1","","",""
"revaluation","285","1217836","0.0-4.0-2.1-0.51","spark_pilot_2","7457","7","19","Female","","false","","","","","[517.8000000119209,306.89999997615814]","./assets/img/ocean/memory/13.jpg","[""ArrowUp"",""ArrowRight""]","value training","ocean","10","{""ArrowUp,ArrowLeft"":26,""ArrowUp,ArrowRight"":10,""ArrowDown,ArrowLeft"":5,""ArrowDown,ArrowRight"":17}","false","ArrowUp,ArrowRight","false","","","revaluation","2","2","","",""
"html-keyboard-response","286","1218346","0.0-4.0-2.1-1.51","spark_pilot_2","7457","7","19","Female","","","","","","","null","<div style=""font-size:60px;"">+</div>","null","fixation","","","","","","","","","","","3","","",""
"revaluation","287","1224386","0.0-4.0-2.1-0.52","spark_pilot_2","7457","7","19","Female","","false","","","","","[609.3000000119209,332.30000001192093]","./assets/img/ocean/memory/24.jpg","[""ArrowDown"",""ArrowLeft""]","value training","ocean","5","{""ArrowUp,ArrowLeft"":26,""ArrowUp,ArrowRight"":10,""ArrowDown,ArrowLeft"":5,""ArrowDown,ArrowRight"":17}","false","ArrowDown,ArrowLeft","false","","","revaluation","2","4","","",""
"html-keyboard-response","288","1224896","0.0-4.0-2.1-1.52","spark_pilot_2","7457","7","19","Female","","","","","","","null","<div style=""font-size:60px;"">+</div>","null","fixation","","","","","","","","","","","5","","",""
"revaluation","289","1230944","0.0-4.0-2.1-0.53","spark_pilot_2","7457","7","19","Female","","false","","","","","[314.30000001192093,415.10000002384186]","./assets/img/ocean/memory/13.jpg","[""ArrowDown"",""ArrowRight""]","value training","ocean","17","{""ArrowUp,ArrowLeft"":26,""ArrowUp,ArrowRight"":10,""ArrowDown,ArrowLeft"":5,""ArrowDown,ArrowRight"":17}","false","ArrowDown,ArrowRight","false","","","revaluation","2","6","","",""
"html-keyboard-response","290","1231466","0.0-4.0-2.1-1.53","spark_pilot_2","7457","7","19","Female","","","","","","","null","<div style=""font-size:60px;"">+</div>","null","fixation","","","","","","","","","","","7","","",""
"revaluation","291","1235477","0.0-4.0-2.1-0.54","spark_pilot_2","7457","7","19","Female","","false","","","","","[658.8000000119209]","./assets/img/ocean/catch/1.jpg","[""spaceBar""]","value training","ocean","0","{""ArrowUp,ArrowLeft"":26,""ArrowUp,ArrowRight"":10,""ArrowDown,ArrowLeft"":5,""ArrowDown,ArrowRight"":17}","true","spaceBar","true","","","revaluation","2","8","","",""
"html-keyboard-response","292","1235978","0.0-4.0-2.1-1.54","spark_pilot_2","7457","7","19","Female","","","","","","","null","<div style=""font-size:60px;"">+</div>","null","fixation","","","","","","","","","","","9","","",""
"revaluation","293","1241982","0.0-4.0-2.1-0.55","spark_pilot_2","7457","7","19","Female","","false","","","","","[480.0999999642372,441.10000002384186]","./assets/img/ocean/memory/23.jpg","[""ArrowUp"",""ArrowLeft""]","value training","ocean","26","{""ArrowUp,ArrowLeft"":26,""ArrowUp,ArrowRight"":10,""ArrowDown,ArrowLeft"":5,""ArrowDown,ArrowRight"":17}","true","ArrowUp,ArrowLeft","false","","","revaluation","2","10","","",""
"html-keyboard-response","294","1242484","0.0-4.0-2.1-1.55","spark_pilot_2","7457","7","19","Female","","","","","","","null","<div style=""font-size:60px;"">+</div>","null","fixation","","","","","","","","","","","11","","",""
"revaluation","295","1248491","0.0-4.0-2.1-0.56","spark_pilot_2","7457","7","19","Female","","false","","","","","[807.2000000476837,566.0999999642372]","./assets/img/ocean/memory/9.jpg","[""ArrowUp"",""ArrowLeft""]","value training","ocean","26","{""ArrowUp,ArrowLeft"":26,""ArrowUp,ArrowRight"":10,""ArrowDown,ArrowLeft"":5,""ArrowDown,ArrowRight"":17}","true","ArrowUp,ArrowLeft","false","","","revaluation","2","12","","",""
"html-keyboard-response","296","1248992","0.0-4.0-2.1-1.56","spark_pilot_2","7457","7","19","Female","","","","","","","null","<div style=""font-size:60px;"">+</div>","null","fixation","","","","","","","","","","","13","","",""
"revaluation","297","1254997","0.0-4.0-2.1-0.57","spark_pilot_2","7457","7","19","Female","","false","","","","","[674.3000000119209,535.5]","./assets/img/ocean/memory/20.jpg","[""ArrowUp"",""ArrowLeft""]","value training","ocean","26","{""ArrowUp,ArrowLeft"":26,""ArrowUp,ArrowRight"":10,""ArrowDown,ArrowLeft"":5,""ArrowDown,ArrowRight"":17}","true","ArrowUp,ArrowLeft","false","","","revaluation","2","14","","",""
"html-keyboard-response","298","1255498","0.0-4.0-2.1-1.57","spark_pilot_2","7457","7","19","Female","","","","","","","null","<div style=""font-size:60px;"">+</div>","null","fixation","","","","","","","","","","","15","","",""
"revaluation","299","1261504","0.0-4.0-2.1-0.58","spark_pilot_2","7457","7","19","Female","","false","","","","","[745.5,574.8000000119209]","./assets/img/ocean/memory/20.jpg","[""ArrowUp"",""ArrowLeft""]","value training","ocean","26","{""ArrowUp,ArrowLeft"":26,""ArrowUp,ArrowRight"":10,""ArrowDown,ArrowLeft"":5,""ArrowDown,ArrowRight"":17}","true","ArrowUp,ArrowLeft","false","","","revaluation","2","16","","",""
"html-keyboard-response","300","1262006","0.0-4.0-2.1-1.58","spark_pilot_2","7457","7","19","Female","","","","","","","null","<div style=""font-size:60px;"">+</div>","null","fixation","","","","","","","","","","","17","","",""
"revaluation","301","1268023","0.0-4.0-2.1-0.59","spark_pilot_2","7457","7","19","Female","","false","","","","","[707.6999999880791,596.9000000357628]","./assets/img/ocean/memory/2.jpg","[""ArrowUp"",""ArrowLeft""]","value training","ocean","26","{""ArrowUp,ArrowLeft"":26,""ArrowUp,ArrowRight"":10,""ArrowDown,ArrowLeft"":5,""ArrowDown,ArrowRight"":17}","true","ArrowUp,ArrowLeft","false","","","revaluation","2","18","","",""
"html-keyboard-response","302","1268525","0.0-4.0-2.1-1.59","spark_pilot_2","7457","7","19","Female","","","","","","","null","<div style=""font-size:60px;"">+</div>","null","fixation","","","","","","","","","","","19","","",""
"revaluation","303","1274531","0.0-4.0-2.1-0.60","spark_pilot_2","7457","7","19","Female","","false","","","","","[649.5999999642372,470.2000000476837]","./assets/img/ocean/memory/34.jpg","[""ArrowUp"",""ArrowLeft""]","value training","ocean","26","{""ArrowUp,ArrowLeft"":26,""ArrowUp,ArrowRight"":10,""ArrowDown,ArrowLeft"":5,""ArrowDown,ArrowRight"":17}","true","ArrowUp,ArrowLeft","false","","","revaluation","2","20","","",""
"html-keyboard-response","304","1275032","0.0-4.0-2.1-1.60","spark_pilot_2","7457","7","19","Female","","","","","","","null","<div style=""font-size:60px;"">+</div>","null","fixation","","","","","","","","","","","21","","",""
"revaluation","305","1281039","0.0-4.0-2.1-0.61","spark_pilot_2","7457","7","19","Female","","false","","","","","[774.3999999761581,599.2999999523163]","./assets/img/ocean/memory/30.jpg","[""ArrowUp"",""ArrowLeft""]","value training","ocean","26","{""ArrowUp,ArrowLeft"":26,""ArrowUp,ArrowRight"":10,""ArrowDown,ArrowLeft"":5,""ArrowDown,ArrowRight"":17}","true","ArrowUp,ArrowLeft","false","","","revaluation","2","22","","",""
