"trial_type","trial_index","time_elapsed","internal_node_id","task_version","subject_id","assigned_condition","age","gender","success","timeout","failed_images","failed_audio","failed_video","browser_interaction","rt","stimulus","response","task_part","environment","score","rewardMap","correct","fullState","isCatch","numberMissed","duration","condition","order","trial_num","key_press","ground_truth","bonus"
"pavlovia","0","1093","0.0-0.0","spark_pilot_2","7327","5","12","Female","","","","","","","","","","","","","","","","","","","","","","","",""
"preload","1","23955","0.0-1.0","spark_pilot_2","7327","5","12","Female","true","false","[]","[]","[]","[{""event"":""fullscreenenter"",""trial"":2,""time"":26294}]","","","","","","","","","","","","","","","","","",""
"fullscreen","2","27278","0.0-2.0","spark_pilot_2","7327","5","12","Female","true","","","","","","","","","","","","","","","","","","","","","","",""
"audio-button-response","3","34572","0.0-3.0-0.0-0.0","spark_pilot_2","7327","5","12","Female","","","","","","","7216","./assets/audio/audiotest/turtle.mp3","2","audio_test","","","","","","","","","","","","","",""
"learning-instructions","4","43491","0.0-3.0-1.0-0.0","spark_pilot_2","7327","5","12","Female","","","","","","","1673.699999988079","<p> Welcome! Please remember to stay in fullscreen mode and don't click away from the experiment. </p>","","instructions","","","","","","","","","","","","","",""
"learning-instructions","5","52727","0.0-3.0-1.0-0.1","spark_pilot_2","7327","5","12","Female","","","","","","","631.7000000476837","<p> Today you will be playing a game to earn treasure. </p>
            <p> At the end of the experiment, you will earn a bonus based on how much treasure you find. </p>
            <img src='./assets/img/instructions/treasure.jpg' class='instructions-image'>","","instructions","","","","","","","","","","","","","",""
"learning-instructions","6","62133","0.0-3.0-1.0-0.2","spark_pilot_2","7327","5","12","Female","","","","","","","946.4000000357628","<p> Animals have hidden treasure in treasure chests. </p>
            <p> You need to first find an animal and then choose which of their treasure chests to search. </p>
            <img src='./assets/img/space/animals/cat.jpg' class='instructions-image'>","","instructions","","","","","","","","","","","","","",""
"learning-instructions","7","76286","0.0-3.0-1.0-0.3","spark_pilot_2","7327","5","12","Female","","","","","","","796.1000000238419","<p> In each round, you will search for treasure in a different place. In the real game, there will be two rounds. </p>
            <p> You will begin with a separate, practice round where you will search for treasure in outer space. </p>
            <img src='./assets/img/space/0.jpg' class='instructions-image'>","","instructions","","","","","","","","","","","","","",""
"learning-instructions","8","88730","0.0-3.0-1.0-0.4","spark_pilot_2","7327","5","12","Female","","","","","","","769.6000000238419","<p> On every turn, you will see a picture of the place that you are in, but the specific image may be different each time. </p>
            <p> For example, both of these images mean you are in outer space. </p>
            <img src='./assets/img/instructions/outerspace.jpg' class='instructions-image'>","","instructions","","","","","","","","","","","","","",""
"learning-instructions","9","98731","0.0-3.0-1.0-0.5","spark_pilot_2","7327","5","12","Female","","","","","","","1889.4000000357628","<p> You need to decide which direction to travel in. </p>
            <p> You can choose between going <b>up or down</b> by using the arrow keys. </p>
            <img src='./assets/img/instructions/updown.jpg' class='instructions-image'>","","instructions","","","","","","","","","","","","","",""
"learning-instructions","10","108238","0.0-3.0-1.0-0.6","spark_pilot_2","7327","5","12","Female","","","","","","","523.1000000238419","<p> You will have <b>2 seconds</b> to make your choice. </p>
            <p> If you do not make a choice within 2 seconds, you will not find an animal or earn treasure. </p>
            <img src='./assets/img/instructions/2seconds.jpg' class='instructions-image'>","","instructions","","","","","","","","","","","","","",""
"learning-instructions","11","117239","0.0-3.0-1.0-0.7","spark_pilot_2","7327","5","12","Female","","","","","","","1767.800000011921","<p> Let’s try practicing that now! </p>
            <p> When you see a picture of the place you are in, press the <b>up</b> key to travel up. </p>
            <img src='./assets/img/instructions/pressUp.jpg' class='instructions-image'>","","instructions","","","","","","","","","","","","","",""
"revaluation","12","121257","0.0-3.0-2.0-0.0","spark_pilot_2","7327","5","12","Female","","false","","","","","[1006.1999999880791]","./assets/img/space/0.jpg","[""ArrowUp""]","first stage practice","space","0","null","null","ArrowUp","false","","","","","","","",""
"html-keyboard-response","13","121759","0.0-3.0-2.0-1.0","spark_pilot_2","7327","5","12","Female","","","","","","","null","<div style=""font-size:60px;"">+</div>","null","fixation","","","","","","","","","","","","","",""
"revaluation","14","125763","0.0-3.0-2.0-0.1","spark_pilot_2","7327","5","12","Female","","false","","","","","[597]","./assets/img/space/1.jpg","[""ArrowUp""]","first stage practice","space","0","null","null","ArrowUp","false","","","","","","","",""
"html-keyboard-response","15","126268","0.0-3.0-2.0-1.1","spark_pilot_2","7327","5","12","Female","","","","","","","null","<div style=""font-size:60px;"">+</div>","null","fixation","","","","","","","","","","","","","",""
"revaluation","16","130274","0.0-3.0-2.0-0.2","spark_pilot_2","7327","5","12","Female","","false","","","","","[655.6000000238419]","./assets/img/space/2.jpg","[""ArrowUp""]","first stage practice","space","0","null","null","ArrowUp","false","","","","","","","",""
"html-keyboard-response","17","130778","0.0-3.0-2.0-1.2","spark_pilot_2","7327","5","12","Female","","","","","","","null","<div style=""font-size:60px;"">+</div>","null","fixation","","","","","","","","","","","","","",""
"learning-instructions","18","136185","0.0-3.0-3.0-0.0","spark_pilot_2","7327","5","12","Female","","","","","","","564.1999999880791","<p> Great job! Now try pressing the <b>down</b> key to travel down. </p>
            <img src='./assets/img/instructions/pressDown.jpg' class='instructions-image'>","","instructions","","","","","","","","","","","","","",""
"revaluation","19","140189","0.0-3.0-4.0-0.0","spark_pilot_2","7327","5","12","Female","","false","","","","","[617.6999999880791]","./assets/img/space/3.jpg","[""ArrowDown""]","first stage practice","space","0","null","null","ArrowDown","false","","","","","","","",""
"html-keyboard-response","20","140694","0.0-3.0-4.0-1.0","spark_pilot_2","7327","5","12","Female","","","","","","","null","<div style=""font-size:60px;"">+</div>","null","fixation","","","","","","","","","","","","","",""
"revaluation","21","144699","0.0-3.0-4.0-0.1","spark_pilot_2","7327","5","12","Female","","false","","","","","[1069.800000011921]","./assets/img/space/4.jpg","[""ArrowDown""]","first stage practice","space","0","null","null","ArrowDown","false","","","","","","","",""
"html-keyboard-response","22","145201","0.0-3.0-4.0-1.1","spark_pilot_2","7327","5","12","Female","","","","","","","null","<div style=""font-size:60px;"">+</div>","null","fixation","","","","","","","","","","","","","",""
"revaluation","23","149210","0.0-3.0-4.0-0.2","spark_pilot_2","7327","5","12","Female","","false","","","","","[657.0999999642372]","./assets/img/space/5.jpg","[""ArrowDown""]","first stage practice","space","0","null","null","ArrowDown","false","","","","","","","",""
"html-keyboard-response","24","149715","0.0-3.0-4.0-1.2","spark_pilot_2","7327","5","12","Female","","","","","","","null","<div style=""font-size:60px;"">+</div>","null","fixation","","","","","","","","","","","","","",""
"learning-instructions","25","160824","0.0-3.0-5.0-0.0","spark_pilot_2","7327","5","12","Female","","","","","","","1123.800000011921","<p> The animals don’t move, so the animal in the upper part of a place will stay in the upper part of a place, and the animal in the lower part of a place will stay in the lower part of a place. </p>","","instructions","","","","","","","","","","","","","",""
"learning-instructions","26","171175","0.0-3.0-5.0-0.1","spark_pilot_2","7327","5","12","Female","","","","","","","1048.4000000357628","<p> Each animal has two treasure chests for you to choose from. </p>
            <p> The amount of treasure in each chest can range from <b> 0 to 40 pieces.</b></p>","","instructions","","","","","","","","","","","","","",""
"learning-instructions","27","183179","0.0-3.0-5.0-0.2","spark_pilot_2","7327","5","12","Female","","","","","","","635.6000000238419","<p> You should decide which chest to search for treasure by using the <b>left</b> and <b>right</b> arrow keys. </p>
            <p><b> Pay attention to which animal is on the screen, as the animals have different treasure chests. </b></p>
            <img src='./assets/img/instructions/leftright.jpg' class='instructions-image'>","","instructions","","","","","","","","","","","","","",""
"learning-instructions","28","190661","0.0-3.0-5.0-0.3","spark_pilot_2","7327","5","12","Female","","","","","","","947.8999999761581","<p> Let’s try practicing that now. </p>
            <p> When you see an animal, choose which chest to search for treasure. </p>
            <img src='./assets/img/instructions/chooseChest.jpg' class='instructions-image'>","","instructions","","","","","","","","","","","","","",""
"revaluation","29","194666","0.0-3.0-6.0-0.0","spark_pilot_2","7327","5","12","Female","","false","","","","","[1215.3999999761581]","./assets/img/space/animals/cat.jpg","[""ArrowRight""]","second stage practice","space","36","{""ArrowUp,ArrowLeft"":3,""ArrowUp,ArrowRight"":36,""ArrowDown,ArrowLeft"":15,""ArrowDown,ArrowRight"":23}","true","ArrowUp,ArrowRight","","","","","","","","",""
"html-keyboard-response","30","195171","0.0-3.0-6.0-1.0","spark_pilot_2","7327","5","12","Female","","","","","","","null","<div style=""font-size:60px;"">+</div>","null","fixation","","","","","","","","","","","","","",""
"revaluation","31","199181","0.0-3.0-6.0-0.1","spark_pilot_2","7327","5","12","Female","","false","","","","","[685]","./assets/img/space/animals/rabbit.jpg","[""ArrowLeft""]","second stage practice","space","15","{""ArrowUp,ArrowLeft"":3,""ArrowUp,ArrowRight"":36,""ArrowDown,ArrowLeft"":15,""ArrowDown,ArrowRight"":23}","false","ArrowDown,ArrowLeft","","","","","","","","",""
"html-keyboard-response","32","199686","0.0-3.0-6.0-1.1","spark_pilot_2","7327","5","12","Female","","","","","","","null","<div style=""font-size:60px;"">+</div>","null","fixation","","","","","","","","","","","","","",""
"revaluation","33","203691","0.0-3.0-6.0-0.2","spark_pilot_2","7327","5","12","Female","","false","","","","","[1290]","./assets/img/space/animals/rabbit.jpg","[""ArrowRight""]","second stage practice","space","23","{""ArrowUp,ArrowLeft"":3,""ArrowUp,ArrowRight"":36,""ArrowDown,ArrowLeft"":15,""ArrowDown,ArrowRight"":23}","true","ArrowDown,ArrowRight","","","","","","","","",""
"html-keyboard-response","34","204196","0.0-3.0-6.0-1.2","spark_pilot_2","7327","5","12","Female","","","","","","","null","<div style=""font-size:60px;"">+</div>","null","fixation","","","","","","","","","","","","","",""
"revaluation","35","208202","0.0-3.0-6.0-0.3","spark_pilot_2","7327","5","12","Female","","false","","","","","[795.5999999642372]","./assets/img/space/animals/cat.jpg","[""ArrowRight""]","second stage practice","space","36","{""ArrowUp,ArrowLeft"":3,""ArrowUp,ArrowRight"":36,""ArrowDown,ArrowLeft"":15,""ArrowDown,ArrowRight"":23}","true","ArrowUp,ArrowRight","","","","","","","","",""
"html-keyboard-response","36","208707","0.0-3.0-6.0-1.3","spark_pilot_2","7327","5","12","Female","","","","","","","null","<div style=""font-size:60px;"">+</div>","null","fixation","","","","","","","","","","","","","",""
"learning-instructions","37","226663","0.0-3.0-7.0-0.0","spark_pilot_2","7327","5","12","Female","","","","","","","859.6000000238419","<p> Great job. Now let’s try putting it together. </p>
            <p> On each turn, you will first see a picture to remind you of the place you are in, and you need to choose whether to go up or down. </p>
            <p> Then you will see an animal and choose which of its chests to search for treasure. </p>","","instructions","","","","","","","","","","","","","",""
"learning-instructions","38","235888","0.0-3.0-7.0-0.1","spark_pilot_2","7327","5","12","Female","","","","","","","779.3000000119209","<p> When you choose whether to go up or down, try to go to the animal with the chest with the most treasure. </p>
            <p> Try practicing that now! </p>","","instructions","","","","","","","","","","","","","",""
"revaluation","39","241901","0.0-3.0-8.0-0.0","spark_pilot_2","7327","5","12","Female","","false","","","","","[1000.6999999880791,1460.699999988079]","./assets/img/space/6.jpg","[""ArrowUp"",""ArrowRight""]","full practice","space","36","{""ArrowUp,ArrowLeft"":3,""ArrowUp,ArrowRight"":36,""ArrowDown,ArrowLeft"":15,""ArrowDown,ArrowRight"":23}","true","ArrowUp,ArrowRight","false","","","","","","","",""
"html-keyboard-response","40","242406","0.0-3.0-8.0-1.0","spark_pilot_2","7327","5","12","Female","","","","","","","null","<div style=""font-size:60px;"">+</div>","null","fixation","","","","","","","","","","","","","",""
"revaluation","41","248414","0.0-3.0-8.0-0.1","spark_pilot_2","7327","5","12","Female","","true","","","","","[1648.800000011921]","./assets/img/space/7.jpg","[""ArrowDown""]","full practice","space","-5","{""ArrowUp,ArrowLeft"":3,""ArrowUp,ArrowRight"":36,""ArrowDown,ArrowLeft"":15,""ArrowDown,ArrowRight"":23}","false","ArrowDown","false","","","","","","","",""
"html-keyboard-response","42","248919","0.0-3.0-8.0-1.1","spark_pilot_2","7327","5","12","Female","","","","","","","null","<div style=""font-size:60px;"">+</div>","null","fixation","","","","","","","","","","","","","",""
"revaluation","43","252925","0.0-3.0-8.0-0.2","spark_pilot_2","7327","5","12","Female","","true","","","","","[]","./assets/img/space/8.jpg","[]","full practice","space","-5","{""ArrowUp,ArrowLeft"":3,""ArrowUp,ArrowRight"":36,""ArrowDown,ArrowLeft"":15,""ArrowDown,ArrowRight"":23}","false","","false","","","","","","","",""
"html-keyboard-response","44","253430","0.0-3.0-8.0-1.2","spark_pilot_2","7327","5","12","Female","","","","","","","null","<div style=""font-size:60px;"">+</div>","null","fixation","","","","","","","","","","","","","",""
"revaluation","45","259438","0.0-3.0-8.0-0.3","spark_pilot_2","7327","5","12","Female","","false","","","","","[728.1000000238419,662.2000000476837]","./assets/img/space/9.jpg","[""ArrowUp"",""ArrowRight""]","full practice","space","36","{""ArrowUp,ArrowLeft"":3,""ArrowUp,ArrowRight"":36,""ArrowDown,ArrowLeft"":15,""ArrowDown,ArrowRight"":23}","true","ArrowUp,ArrowRight","false","","","","","","","",""
"html-keyboard-response","46","259943","0.0-3.0-8.0-1.3","spark_pilot_2","7327","5","12","Female","","","","","","","null","<div style=""font-size:60px;"">+</div>","null","fixation","","","","","","","","","","","","","",""
"revaluation","47","265953","0.0-3.0-8.0-0.4","spark_pilot_2","7327","5","12","Female","","false","","","","","[1235,1067.300000011921]","./assets/img/space/10.jpg","[""ArrowDown"",""ArrowLeft""]","full practice","space","15","{""ArrowUp,ArrowLeft"":3,""ArrowUp,ArrowRight"":36,""ArrowDown,ArrowLeft"":15,""ArrowDown,ArrowRight"":23}","false","ArrowDown,ArrowLeft","false","","","","","","","",""
"html-keyboard-response","48","266458","0.0-3.0-8.0-1.4","spark_pilot_2","7327","5","12","Female","","","","","","","null","<div style=""font-size:60px;"">+</div>","null","fixation","","","","","","","","","","","","","",""
"learning-instructions","49","277786","0.0-3.0-9.0-0.0","spark_pilot_2","7327","5","12","Female","","","","","","","910.8999999761581","<p> One last thing: sometimes, you will see a robber. The robber can be anywhere in the picture. </p>
            <p> If you do not stop them, you will lose treasure. </p>
            <img src='./assets/img/instructions/robber.jpg' class='instructions-image'>","","instructions","","","","","","","","","","","","","",""
"learning-instructions","50","285741","0.0-3.0-9.0-0.1","spark_pilot_2","7327","5","12","Female","","","","","","","662.8999999761581","<p> If you see the robber, you should <b>press the space bar</b> rather than using the arrow keys. </p>
            <p> Try practicing that now! </p>","","instructions","","","","","","","","","","","","","",""
"revaluation","51","289747","0.0-3.0-10.0-0.0","spark_pilot_2","7327","5","12","Female","","false","","","","","[921.1999999880791]","./assets/img/space/catch/0.jpg","[""spaceBar""]","catch practice","space","0","{""ArrowUp,ArrowLeft"":3,""ArrowUp,ArrowRight"":36,""ArrowDown,ArrowLeft"":15,""ArrowDown,ArrowRight"":23}","true","spaceBar","true","","","","","","","",""
"html-keyboard-response","52","290250","0.0-3.0-10.0-1.0","spark_pilot_2","7327","5","12","Female","","","","","","","null","<div style=""font-size:60px;"">+</div>","null","fixation","","","","","","","","","","","","","",""
"revaluation","53","294256","0.0-3.0-10.0-0.1","spark_pilot_2","7327","5","12","Female","","false","","","","","[495.5999999642372]","./assets/img/space/catch/1.jpg","[""spaceBar""]","catch practice","space","0","{""ArrowUp,ArrowLeft"":3,""ArrowUp,ArrowRight"":36,""ArrowDown,ArrowLeft"":15,""ArrowDown,ArrowRight"":23}","true","spaceBar","true","","","","","","","",""
"html-keyboard-response","54","294760","0.0-3.0-10.0-1.1","spark_pilot_2","7327","5","12","Female","","","","","","","null","<div style=""font-size:60px;"">+</div>","null","fixation","","","","","","","","","","","","","",""
"revaluation","55","298772","0.0-3.0-10.0-0.2","spark_pilot_2","7327","5","12","Female","","false","","","","","[620]","./assets/img/space/catch/2.jpg","[""spaceBar""]","catch practice","space","0","{""ArrowUp,ArrowLeft"":3,""ArrowUp,ArrowRight"":36,""ArrowDown,ArrowLeft"":15,""ArrowDown,ArrowRight"":23}","true","spaceBar","true","","","","","","","",""
"html-keyboard-response","56","299277","0.0-3.0-10.0-1.2","spark_pilot_2","7327","5","12","Female","","","","","","","null","<div style=""font-size:60px;"">+</div>","null","fixation","","","","","","","","","","","","","",""
"learning-instructions","57","313979","0.0-3.0-11.0-0.0","spark_pilot_2","7327","5","12","Female","","","","","","","833.3999999761581","<p> After you explore a place to find treasure, it will be time to play a different game. </p>
            <p> During this game, red dots will appear on the screen and fall down slowly. </p>
            <p><b> You must click on them before they reach the bottom. </b></p>
            <img src='./assets/img/instructions/dotGame.jpg' class='instructions-image'>","","instructions","","","","","","","","","","","","","",""
"learning-instructions","58","320809","0.0-3.0-11.0-0.1","spark_pilot_2","7327","5","12","Female","","","","","","","1016.1999999880791","<p> For every dot you click, you will earn additional treasure. </p>
            <p> Let’s try practicing that now. </p>","","instructions","","","","","","","","","","","","","",""
"revaluation","59","335815","0.0-3.0-12.0-0.0","spark_pilot_2","7327","5","12","Female","","","","","","","[84]","","","rest practice","","10","","","","","0","15000","","","","","",""
"learning-instructions","60","342635","0.0-3.0-13.0-0.0-0.0","spark_pilot_2","7327","5","12","Female","","","","","","","1415.3999999761581","<p> Now, you will practice a shortened version of the game to get a sense of how it all fits together. </p>","","instructions","","","","","","","","","","","","","",""
"learning-instructions","61","346404","0.0-3.0-13.0-0.0-0.1","spark_pilot_2","7327","5","12","Female","","","","","","","482.39999997615814","<p>This time you are searching for treasure in outer space.</p>","","instructions","","","","","","","","","","","","","",""
"learning-instructions","62","363888","0.0-3.0-13.0-1.0-0.0","spark_pilot_2","7327","5","12","Female","","","","","","","2477.699999988079","<p> Remember, when you see a picture of the place, use the up and down keys to <b>find an animal</b>.</p>
            <p> When you encounter an animal, you should use the left and right keys to <b>select a treasure chest</b>.</p>
            <p> Don't forget to look out for the robber! </p>","","instructions","","","","","","","","","","","","","",""
"revaluation","63","369897","0.0-3.0-13.0-2.0-0.0","spark_pilot_2","7327","5","12","Female","","false","","","","","[977.3000000119209,797.8999999761581]","./assets/img/space/11.jpg","[""ArrowUp"",""ArrowRight""]","practice block","space","36","{""ArrowUp,ArrowLeft"":3,""ArrowUp,ArrowRight"":36,""ArrowDown,ArrowLeft"":15,""ArrowDown,ArrowRight"":23}","true","ArrowUp,ArrowRight","false","","","","","","","",""
"html-keyboard-response","64","370402","0.0-3.0-13.0-2.0-1.0","spark_pilot_2","7327","5","12","Female","","","","","","","null","<div style=""font-size:60px;"">+</div>","null","fixation","","","","","","","","","","","","","",""
"revaluation","65","376413","0.0-3.0-13.0-2.0-0.1","spark_pilot_2","7327","5","12","Female","","false","","","","","[1010.3000000119209,382.10000002384186]","./assets/img/space/12.jpg","[""ArrowUp"",""ArrowRight""]","practice block","space","36","{""ArrowUp,ArrowLeft"":3,""ArrowUp,ArrowRight"":36,""ArrowDown,ArrowLeft"":15,""ArrowDown,ArrowRight"":23}","true","ArrowUp,ArrowRight","false","","","","","","","",""
"html-keyboard-response","66","376915","0.0-3.0-13.0-2.0-1.1","spark_pilot_2","7327","5","12","Female","","","","","","","null","<div style=""font-size:60px;"">+</div>","null","fixation","","","","","","","","","","","","","",""
"revaluation","67","382924","0.0-3.0-13.0-2.0-0.2","spark_pilot_2","7327","5","12","Female","","false","","","","","[685.4000000357628,866.3999999761581]","./assets/img/space/13.jpg","[""ArrowUp"",""ArrowRight""]","practice block","space","36","{""ArrowUp,ArrowLeft"":3,""ArrowUp,ArrowRight"":36,""ArrowDown,ArrowLeft"":15,""ArrowDown,ArrowRight"":23}","true","ArrowUp,ArrowRight","false","","","","","","","",""
"html-keyboard-response","68","383428","0.0-3.0-13.0-2.0-1.2","spark_pilot_2","7327","5","12","Female","","","","","","","null","<div style=""font-size:60px;"">+</div>","null","fixation","","","","","","","","","","","","","",""
"revaluation","69","389437","0.0-3.0-13.0-2.0-0.3","spark_pilot_2","7327","5","12","Female","","false","","","","","[899.5,338.5]","./assets/img/space/14.jpg","[""ArrowUp"",""ArrowRight""]","practice block","space","36","{""ArrowUp,ArrowLeft"":3,""ArrowUp,ArrowRight"":36,""ArrowDown,ArrowLeft"":15,""ArrowDown,ArrowRight"":23}","true","ArrowUp,ArrowRight","false","","","","","","","",""
"html-keyboard-response","70","389942","0.0-3.0-13.0-2.0-1.3","spark_pilot_2","7327","5","12","Female","","","","","","","null","<div style=""font-size:60px;"">+</div>","null","fixation","","","","","","","","","","","","","",""
"revaluation","71","395951","0.0-3.0-13.0-2.0-0.4","spark_pilot_2","7327","5","12","Female","","false","","","","","[618.8000000119209,394.30000001192093]","./assets/img/space/11.jpg","[""ArrowUp"",""ArrowRight""]","practice block","space","36","{""ArrowUp,ArrowLeft"":3,""ArrowUp,ArrowRight"":36,""ArrowDown,ArrowLeft"":15,""ArrowDown,ArrowRight"":23}","true","ArrowUp,ArrowRight","false","","","","","","","",""
"html-keyboard-response","72","396456","0.0-3.0-13.0-2.0-1.4","spark_pilot_2","7327","5","12","Female","","","","","","","null","<div style=""font-size:60px;"">+</div>","null","fixation","","","","","","","","","","","","","",""
"revaluation","73","402471","0.0-3.0-13.0-2.0-0.5","spark_pilot_2","7327","5","12","Female","","false","","","","","[944.7000000476837,537.5]","./assets/img/space/12.jpg","[""ArrowUp"",""ArrowRight""]","practice block","space","36","{""ArrowUp,ArrowLeft"":3,""ArrowUp,ArrowRight"":36,""ArrowDown,ArrowLeft"":15,""ArrowDown,ArrowRight"":23}","true","ArrowUp,ArrowRight","false","","","","","","","",""
"html-keyboard-response","74","402975","0.0-3.0-13.0-2.0-1.5","spark_pilot_2","7327","5","12","Female","","","","","","","null","<div style=""font-size:60px;"">+</div>","null","fixation","","","","","","","","","","","","","",""
"revaluation","75","408984","0.0-3.0-13.0-2.0-0.6","spark_pilot_2","7327","5","12","Female","","false","","","","","[883.3000000119209,468.80000001192093]","./assets/img/space/13.jpg","[""ArrowUp"",""ArrowRight""]","practice block","space","36","{""ArrowUp,ArrowLeft"":3,""ArrowUp,ArrowRight"":36,""ArrowDown,ArrowLeft"":15,""ArrowDown,ArrowRight"":23}","true","ArrowUp,ArrowRight","false","","","","","","","",""
"html-keyboard-response","76","409489","0.0-3.0-13.0-2.0-1.6","spark_pilot_2","7327","5","12","Female","","","","","","","null","<div style=""font-size:60px;"">+</div>","null","fixation","","","","","","","","","","","","","",""
"revaluation","77","415499","0.0-3.0-13.0-2.0-0.7","spark_pilot_2","7327","5","12","Female","","false","","","","","[445.69999998807907,1032.1000000238419]","./assets/img/space/14.jpg","[""ArrowDown"",""ArrowLeft""]","practice block","space","15","{""ArrowUp,ArrowLeft"":3,""ArrowUp,ArrowRight"":36,""ArrowDown,ArrowLeft"":15,""ArrowDown,ArrowRight"":23}","false","ArrowDown,ArrowLeft","false","","","","","","","",""
"html-keyboard-response","78","416002","0.0-3.0-13.0-2.0-1.7","spark_pilot_2","7327","5","12","Female","","","","","","","null","<div style=""font-size:60px;"">+</div>","null","fixation","","","","","","","","","","","","","",""
"revaluation","79","420010","0.0-3.0-13.0-2.0-0.8","spark_pilot_2","7327","5","12","Female","","false","","","","","[480.10000002384186]","./assets/img/space/catch/3.jpg","[""ArrowDown""]","practice block","space","-10","{""ArrowUp,ArrowLeft"":3,""ArrowUp,ArrowRight"":36,""ArrowDown,ArrowLeft"":15,""ArrowDown,ArrowRight"":23}","false","ArrowDown","true","","","","","","","",""
"html-keyboard-response","80","420513","0.0-3.0-13.0-2.0-1.8","spark_pilot_2","7327","5","12","Female","","","","","","","null","<div style=""font-size:60px;"">+</div>","null","fixation","","","","","","","","","","","","","",""
"learning-instructions","81","435858","0.0-3.0-13.0-3.0-0.0","spark_pilot_2","7327","5","12","Female","","","","","","","2215","<p> Now, you will travel with a friend who will choose whether you go up or down first. </p>
            <p> On these turns, you will just see the animal that they found. You will still get to choose which chest to search for treasure.</p>","","instructions","","","","","","","","","","","","","",""
"revaluation","82","439864","0.0-3.0-13.0-4.0-0.0","spark_pilot_2","7327","5","12","Female","","false","","","","","[1393.9000000357628]","./assets/img/space/animals/cat.jpg","[""ArrowRight""]","practice block","space","36","{""ArrowUp,ArrowLeft"":3,""ArrowUp,ArrowRight"":36,""ArrowDown,ArrowLeft"":15,""ArrowDown,ArrowRight"":23}","true","ArrowUp,ArrowRight","","","","","","","","",""
"html-keyboard-response","83","440367","0.0-3.0-13.0-4.0-1.0","spark_pilot_2","7327","5","12","Female","","","","","","","null","<div style=""font-size:60px;"">+</div>","null","fixation","","","","","","","","","","","","","",""
"revaluation","84","444375","0.0-3.0-13.0-4.0-0.1","spark_pilot_2","7327","5","12","Female","","false","","","","","[496.19999998807907]","./assets/img/space/animals/rabbit.jpg","[""ArrowRight""]","practice block","space","23","{""ArrowUp,ArrowLeft"":3,""ArrowUp,ArrowRight"":36,""ArrowDown,ArrowLeft"":15,""ArrowDown,ArrowRight"":23}","true","ArrowDown,ArrowRight","","","","","","","","",""
"html-keyboard-response","85","444876","0.0-3.0-13.0-4.0-1.1","spark_pilot_2","7327","5","12","Female","","","","","","","null","<div style=""font-size:60px;"">+</div>","null","fixation","","","","","","","","","","","","","",""
"revaluation","86","448882","0.0-3.0-13.0-4.0-0.2","spark_pilot_2","7327","5","12","Female","","false","","","","","[408.69999998807907]","./assets/img/space/animals/cat.jpg","[""ArrowRight""]","practice block","space","36","{""ArrowUp,ArrowLeft"":3,""ArrowUp,ArrowRight"":36,""ArrowDown,ArrowLeft"":15,""ArrowDown,ArrowRight"":23}","true","ArrowUp,ArrowRight","","","","","","","","",""
"html-keyboard-response","87","449386","0.0-3.0-13.0-4.0-1.2","spark_pilot_2","7327","5","12","Female","","","","","","","null","<div style=""font-size:60px;"">+</div>","null","fixation","","","","","","","","","","","","","",""
"revaluation","88","453392","0.0-3.0-13.0-4.0-0.3","spark_pilot_2","7327","5","12","Female","","false","","","","","[364.39999997615814]","./assets/img/space/animals/rabbit.jpg","[""ArrowRight""]","practice block","space","23","{""ArrowUp,ArrowLeft"":3,""ArrowUp,ArrowRight"":36,""ArrowDown,ArrowLeft"":15,""ArrowDown,ArrowRight"":23}","true","ArrowDown,ArrowRight","","","","","","","","",""
"html-keyboard-response","89","453897","0.0-3.0-13.0-4.0-1.3","spark_pilot_2","7327","5","12","Female","","","","","","","null","<div style=""font-size:60px;"">+</div>","null","fixation","","","","","","","","","","","","","",""
"learning-instructions","90","463074","0.0-3.0-13.0-5.0-0.0","spark_pilot_2","7327","5","12","Female","","","","","","","1467.199999988079","<p> Time to play the dot game! </p>
            <p> For 15 seconds, click the red dots on the following screen as they appear. </p>","","instructions","","","","","","","","","","","","","",""
"revaluation","91","478076","0.0-3.0-13.0-6.0-0.0","spark_pilot_2","7327","5","12","Female","","","","","","","[69]","","","rest practice","","10","","","","","0","15000","","","","","",""
"learning-instructions","92","485856","0.0-3.0-13.0-7.0-0.0","spark_pilot_2","7327","5","12","Female","","","","","","","1545.300000011921","<p> You have almost finished this part of the game! </p>
            <p> We are going to ask you to make a few more choices. </p>","","instructions","","","","","","","","","","","","","",""
"learning-instructions","93","500786","0.0-3.0-13.0-7.0-0.1","spark_pilot_2","7327","5","12","Female","","","","","","","673.6000000238419","<p> First, you need to decide whether to go up or down. When you see each picture, use the arrow keys to make your choice. </p>
            <p><b>You will not see which animal you found, but try to get to the one that will give you the most treasure.</b></p>","","instructions","","","","","","","","","","","","","",""
"revaluation","94","501383","0.0-3.0-13.0-8.0","spark_pilot_2","7327","5","12","Female","","false","","","","","[595.3000000119209]","./assets/img/space/15.jpg","[""ArrowUp""]","practice block","space","0","{""ArrowUp,ArrowLeft"":3,""ArrowUp,ArrowRight"":36,""ArrowDown,ArrowLeft"":15,""ArrowDown,ArrowRight"":23}","true","ArrowUp","false","","","","","","","",""
"html-keyboard-response","95","501884","0.0-3.0-13.0-9.0","spark_pilot_2","7327","5","12","Female","","","","","","","null","<div style=""font-size:60px;"">+</div>","null","fixation","","","","","","","","","","","","","",""
"learning-instructions","96","514951","0.0-3.0-13.0-10.0-0.0","spark_pilot_2","7327","5","12","Female","","","","","","","1463","<p> Now you will see the animals again and can search their chests for treasure. </p>
            <p> This time, you will not see how much treasure you earned, but you will earn more bonus money for making better choices. </p>","","instructions","","","","","","","","","","","","","",""
"revaluation","97","516323","0.0-3.0-13.0-11.0-0.0","spark_pilot_2","7327","5","12","Female","","false","","","","","[1370.9000000357628]","./assets/img/space/animals/cat.jpg","[""ArrowRight""]","practice block","space","0","{""ArrowUp,ArrowLeft"":3,""ArrowUp,ArrowRight"":36,""ArrowDown,ArrowLeft"":15,""ArrowDown,ArrowRight"":23}","true","ArrowUp,ArrowRight","","","","","","","","",""
"html-keyboard-response","98","516825","0.0-3.0-13.0-11.0-1.0","spark_pilot_2","7327","5","12","Female","","","","","","","null","<div style=""font-size:60px;"">+</div>","null","fixation","","","","","","","","","","","","","",""
"revaluation","99","517325","0.0-3.0-13.0-11.0-0.1","spark_pilot_2","7327","5","12","Female","","false","","","","","[497.69999998807907]","./assets/img/space/animals/rabbit.jpg","[""ArrowRight""]","practice block","space","0","{""ArrowUp,ArrowLeft"":3,""ArrowUp,ArrowRight"":36,""ArrowDown,ArrowLeft"":15,""ArrowDown,ArrowRight"":23}","true","ArrowDown,ArrowRight","","","","","","","","",""
"html-keyboard-response","100","517825","0.0-3.0-13.0-11.0-1.1","spark_pilot_2","7327","5","12","Female","","","","","","","null","<div style=""font-size:60px;"">+</div>","null","fixation","","","","","","","","","","","","","",""
"learning-instructions","101","523446","0.0-3.0-14.0-0.0","spark_pilot_2","7327","5","12","Female","","","","","","","919.6999999880791","<p> Before you start, we're going to ask you a few questions about how the game works. </p>","","instructions","","","","","","","","","","","","","",""
"comp-q","102","530128","0.0-3.0-15.0-0.0-0.0","spark_pilot_2","7327","5","12","Female","","","","","","","1068.4000000357628","<p> <b> True or False? </b> </p>
            <p> There can be 50 pieces of treasure in a given animal's chest. </p>","1","comp_question","","","","true","","","","","","","","","",""
"comp-q","103","538318","0.0-3.0-15.0-0.0-1.0","spark_pilot_2","7327","5","12","Female","","","","","","","1360","<p> <b> That's right! </b> The amount of treasure in each chest can range from 0 to 40 pieces. </p>","0","comp_answer","","","","","","","","","","","","","",""
"comp-q","104","546408","0.0-3.0-15.0-0.1-0.1","spark_pilot_2","7327","5","12","Female","","","","","","","921.8000000119209","<p> <b> True or False? </b> </p><p> In this game, all animals have the same amount of treasure in their left and right chests. </p>","1","comp_question","","","","true","","","","","","","","","",""
"comp-q","105","553912","0.0-3.0-15.0-0.1-1.1","spark_pilot_2","7327","5","12","Female","","","","","","","2133.100000023842","<p> <b> That's right! </b> Animals have different amounts of treasure in their treasure chests. </p>","0","comp_answer","","","","","","","","","","","","","",""
"comp-q","106","560516","0.0-3.0-15.0-0.2-0.2","spark_pilot_2","7327","5","12","Female","","","","","","","714.8000000119209","<p> <b> True or False? </b> </p><p> The same animal will always be there if you go up in the same place. </p>","0","comp_question","","","","true","","","","","","","","","",""
"comp-q","107","570395","0.0-3.0-15.0-0.2-1.2","spark_pilot_2","7327","5","12","Female","","","","","","","3284","<p> <b> That's right! </b> One animal lives in the upper part and one lives in the lower part of every place. </p>","0","comp_answer","","","","","","","","","","","","","",""
"comp-q","108","577056","0.0-3.0-15.0-0.3-0.3","spark_pilot_2","7327","5","12","Female","","","","","","","1052.300000011921","<p> <b> True or False? </b> </p><p> If you see a different picture, it means you are in a new place. </p>","1","comp_question","","","","true","","","","","","","","","",""
"comp-q","109","589137","0.0-3.0-15.0-0.3-1.3","spark_pilot_2","7327","5","12","Female","","","","","","","699.6999999880791","<p> <b> That's right! </b> Lots of different images may show the same place. For example,  you may see three different images that all remind you that you are in outer space. </p>","0","comp_answer","","","","","","","","","","","","","",""
"learning-instructions","110","618187","0.0-3.0-16.0-0.0","spark_pilot_2","7327","5","12","Female","","","","","","","18776.5","<p> Good job. Remember to do your best because the amount of treasure you earn will be converted into bonus money. </p>
            <p> It’s time to start the real game! </p>","","instructions","","","","","","","","","","","","","",""
"learning-instructions","111","622068","0.0-4.0-0.0-0.0","spark_pilot_2","7327","5","12","Female","","","","","","","1063.5","<p> This time you are searching for treasure in the <b>canyon</b>.</p>","","instructions","","","","","","","","","","","","","",""
"learning-instructions","112","640452","0.0-4.0-0.0-0.1","spark_pilot_2","7327","5","12","Female","","","","","","","876.5","<p><b>New</b> animals with <b>new</b> treasure chests live here. You need to explore to discover where the animal with the best treasure chest is.</p>
                    <p> Like before, once you figure out which animal has the chest with the most treasure, you should try to get to that animal and select that chest! </p>","","instructions","","","","","","","","","","","","","",""
"learning-instructions","113","656563","0.0-4.0-1.0-0.0","spark_pilot_2","7327","5","12","Female","","","","","","","1376.8999999761581","<p> Remember, when you see a picture of the place, use the up and down keys to <b>find an animal</b>.</p>
            <p> When you encounter an animal, you should use the left and right keys to <b>select a treasure chest</b>.</p>
            <p> Don't forget to look out for the robber! </p>","","instructions","","","","","","","","","","","","","",""
"revaluation","114","662571","0.0-4.0-2.0-0.0","spark_pilot_2","7327","5","12","Female","","false","","","","","[1371.3999999761581,1418.699999988079]","./assets/img/canyon/memory/40.jpg","[""ArrowUp"",""ArrowRight""]","value training","canyon","10","{""ArrowUp,ArrowLeft"":26,""ArrowUp,ArrowRight"":10,""ArrowDown,ArrowLeft"":5,""ArrowDown,ArrowRight"":17}","false","ArrowUp,ArrowRight","false","","","original","1","0","","",""
"html-keyboard-response","115","663077","0.0-4.0-2.0-1.0","spark_pilot_2","7327","5","12","Female","","","","","","","null","<div style=""font-size:60px;"">+</div>","null","fixation","","","","","","","","","","","1","","",""
"revaluation","116","669091","0.0-4.0-2.0-0.1","spark_pilot_2","7327","5","12","Female","","false","","","","","[796.6999999880791,1717.800000011921]","./assets/img/canyon/memory/4.jpg","[""ArrowUp"",""ArrowLeft""]","value training","canyon","26","{""ArrowUp,ArrowLeft"":26,""ArrowUp,ArrowRight"":10,""ArrowDown,ArrowLeft"":5,""ArrowDown,ArrowRight"":17}","true","ArrowUp,ArrowLeft","false","","","original","1","2","","",""
"html-keyboard-response","117","669594","0.0-4.0-2.0-1.1","spark_pilot_2","7327","5","12","Female","","","","","","","null","<div style=""font-size:60px;"">+</div>","null","fixation","","","","","","","","","","","3","","",""
"revaluation","118","675602","0.0-4.0-2.0-0.2","spark_pilot_2","7327","5","12","Female","","false","","","","","[798.8000000119209,874.8000000119209]","./assets/img/canyon/memory/33.jpg","[""ArrowDown"",""ArrowRight""]","value training","canyon","17","{""ArrowUp,ArrowLeft"":26,""ArrowUp,ArrowRight"":10,""ArrowDown,ArrowLeft"":5,""ArrowDown,ArrowRight"":17}","false","ArrowDown,ArrowRight","false","","","original","1","4","","",""
"html-keyboard-response","119","676107","0.0-4.0-2.0-1.2","spark_pilot_2","7327","5","12","Female","","","","","","","null","<div style=""font-size:60px;"">+</div>","null","fixation","","","","","","","","","","","5","","",""
"revaluation","120","682116","0.0-4.0-2.0-0.3","spark_pilot_2","7327","5","12","Female","","false","","","","","[1020.3999999761581,1459.9000000357628]","./assets/img/canyon/memory/25.jpg","[""ArrowDown"",""ArrowLeft""]","value training","canyon","5","{""ArrowUp,ArrowLeft"":26,""ArrowUp,ArrowRight"":10,""ArrowDown,ArrowLeft"":5,""ArrowDown,ArrowRight"":17}","false","ArrowDown,ArrowLeft","false","","","original","1","6","","",""
"html-keyboard-response","121","682621","0.0-4.0-2.0-1.3","spark_pilot_2","7327","5","12","Female","","","","","","","null","<div style=""font-size:60px;"">+</div>","null","fixation","","","","","","","","","","","7","","",""
"revaluation","122","688630","0.0-4.0-2.0-0.4","spark_pilot_2","7327","5","12","Female","","false","","","","","[773.3000000119209,550.3999999761581]","./assets/img/canyon/memory/21.jpg","[""ArrowUp"",""ArrowRight""]","value training","canyon","10","{""ArrowUp,ArrowLeft"":26,""ArrowUp,ArrowRight"":10,""ArrowDown,ArrowLeft"":5,""ArrowDown,ArrowRight"":17}","false","ArrowUp,ArrowRight","false","","","original","1","8","","",""
"html-keyboard-response","123","689135","0.0-4.0-2.0-1.4","spark_pilot_2","7327","5","12","Female","","","","","","","null","<div style=""font-size:60px;"">+</div>","null","fixation","","","","","","","","","","","9","","",""
"revaluation","124","693141","0.0-4.0-2.0-0.5","spark_pilot_2","7327","5","12","Female","","false","","","","","[626.3999999761581]","./assets/img/canyon/catch/2.jpg","[""ArrowUp""]","value training","canyon","-10","{""ArrowUp,ArrowLeft"":26,""ArrowUp,ArrowRight"":10,""ArrowDown,ArrowLeft"":5,""ArrowDown,ArrowRight"":17}","false","ArrowUp","true","","","original","1","10","","",""
"html-keyboard-response","125","693646","0.0-4.0-2.0-1.5","spark_pilot_2","7327","5","12","Female","","","","","","","null","<div style=""font-size:60px;"">+</div>","null","fixation","","","","","","","","","","","11","","",""
"revaluation","126","699654","0.0-4.0-2.0-0.6","spark_pilot_2","7327","5","12","Female","","false","","","","","[1066.3999999761581,584]","./assets/img/canyon/memory/1.jpg","[""ArrowUp"",""ArrowLeft""]","value training","canyon","26","{""ArrowUp,ArrowLeft"":26,""ArrowUp,ArrowRight"":10,""ArrowDown,ArrowLeft"":5,""ArrowDown,ArrowRight"":17}","true","ArrowUp,ArrowLeft","false","","","original","1","12","","",""
"html-keyboard-response","127","700159","0.0-4.0-2.0-1.6","spark_pilot_2","7327","5","12","Female","","","","","","","null","<div style=""font-size:60px;"">+</div>","null","fixation","","","","","","","","","","","13","","",""
"revaluation","128","704165","0.0-4.0-2.0-0.7","spark_pilot_2","7327","5","12","Female","","true","","","","","[]","./assets/img/canyon/catch/0.jpg","[]","value training","canyon","-5","{""ArrowUp,ArrowLeft"":26,""ArrowUp,ArrowRight"":10,""ArrowDown,ArrowLeft"":5,""ArrowDown,ArrowRight"":17}","false","","true","","","original","1","14","","",""
"html-keyboard-response","129","704670","0.0-4.0-2.0-1.7","spark_pilot_2","7327","5","12","Female","","","","","","","null","<div style=""font-size:60px;"">+</div>","null","fixation","","","","","","","","","","","15","","",""
"revaluation","130","708675","0.0-4.0-2.0-0.8","spark_pilot_2","7327","5","12","Female","","false","","","","","[1382.800000011921]","./assets/img/canyon/catch/3.jpg","[""spaceBar""]","value training","canyon","0","{""ArrowUp,ArrowLeft"":26,""ArrowUp,ArrowRight"":10,""ArrowDown,ArrowLeft"":5,""ArrowDown,ArrowRight"":17}","true","spaceBar","true","","","original","1","16","","",""
"html-keyboard-response","131","709180","0.0-4.0-2.0-1.8","spark_pilot_2","7327","5","12","Female","","","","","","","null","<div style=""font-size:60px;"">+</div>","null","fixation","","","","","","","","","","","17","","",""
"revaluation","132","713189","0.0-4.0-2.0-0.9","spark_pilot_2","7327","5","12","Female","","false","","","","","[641.1999999880791]","./assets/img/canyon/catch/4.jpg","[""spaceBar""]","value training","canyon","0","{""ArrowUp,ArrowLeft"":26,""ArrowUp,ArrowRight"":10,""ArrowDown,ArrowLeft"":5,""ArrowDown,ArrowRight"":17}","true","spaceBar","true","","","original","1","18","","",""
"html-keyboard-response","133","713693","0.0-4.0-2.0-1.9","spark_pilot_2","7327","5","12","Female","","","","","","","null","<div style=""font-size:60px;"">+</div>","null","fixation","","","","","","","","","","","19","","",""
"revaluation","134","719705","0.0-4.0-2.0-0.10","spark_pilot_2","7327","5","12","Female","","false","","","","","[1033.300000011921,469.4000000357628]","./assets/img/canyon/memory/31.jpg","[""ArrowUp"",""ArrowLeft""]","value training","canyon","26","{""ArrowUp,ArrowLeft"":26,""ArrowUp,ArrowRight"":10,""ArrowDown,ArrowLeft"":5,""ArrowDown,ArrowRight"":17}","true","ArrowUp,ArrowLeft","false","","","original","1","20","","",""
"html-keyboard-response","135","720210","0.0-4.0-2.0-1.10","spark_pilot_2","7327","5","12","Female","","","","","","","null","<div style=""font-size:60px;"">+</div>","null","fixation","","","","","","","","","","","21","","",""
"revaluation","136","726224","0.0-4.0-2.0-0.11","spark_pilot_2","7327","5","12","Female","","false","","","","","[715.5,196.5]","./assets/img/canyon/memory/31.jpg","[""ArrowUp"",""ArrowLeft""]","value training","canyon","26","{""ArrowUp,ArrowLeft"":26,""ArrowUp,ArrowRight"":10,""ArrowDown,ArrowLeft"":5,""ArrowDown,ArrowRight"":17}","true","ArrowUp,ArrowLeft","false","","","original","1","22","","",""
"html-keyboard-response","137","726729","0.0-4.0-2.0-1.11","spark_pilot_2","7327","5","12","Female","","","","","","","null","<div style=""font-size:60px;"">+</div>","null","fixation","","","","","","","","","","","23","","",""
"revaluation","138","732743","0.0-4.0-2.0-0.12","spark_pilot_2","7327","5","12","Female","","false","","","","","[879.6999999880791,359.80000001192093]","./assets/img/canyon/memory/25.jpg","[""ArrowUp"",""ArrowLeft""]","value training","canyon","26","{""ArrowUp,ArrowLeft"":26,""ArrowUp,ArrowRight"":10,""ArrowDown,ArrowLeft"":5,""ArrowDown,ArrowRight"":17}","true","ArrowUp,ArrowLeft","false","","","original","1","24","","",""
"html-keyboard-response","139","733248","0.0-4.0-2.0-1.12","spark_pilot_2","7327","5","12","Female","","","","","","","null","<div style=""font-size:60px;"">+</div>","null","fixation","","","","","","","","","","","25","","",""
"revaluation","140","737254","0.0-4.0-2.0-0.13","spark_pilot_2","7327","5","12","Female","","false","","","","","[1067.699999988079]","./assets/img/canyon/catch/1.jpg","[""spaceBar""]","value training","canyon","0","{""ArrowUp,ArrowLeft"":26,""ArrowUp,ArrowRight"":10,""ArrowDown,ArrowLeft"":5,""ArrowDown,ArrowRight"":17}","true","spaceBar","true","","","original","1","26","","",""
"html-keyboard-response","141","737759","0.0-4.0-2.0-1.13","spark_pilot_2","7327","5","12","Female","","","","","","","null","<div style=""font-size:60px;"">+</div>","null","fixation","","","","","","","","","","","27","","",""
"revaluation","142","743774","0.0-4.0-2.0-0.14","spark_pilot_2","7327","5","12","Female","","false","","","","","[1164.5,434]","./assets/img/canyon/memory/40.jpg","[""ArrowUp"",""ArrowLeft""]","value training","canyon","26","{""ArrowUp,ArrowLeft"":26,""ArrowUp,ArrowRight"":10,""ArrowDown,ArrowLeft"":5,""ArrowDown,ArrowRight"":17}","true","ArrowUp,ArrowLeft","false","","","original","1","28","","",""
"html-keyboard-response","143","744278","0.0-4.0-2.0-1.14","spark_pilot_2","7327","5","12","Female","","","","","","","null","<div style=""font-size:60px;"">+</div>","null","fixation","","","","","","","","","","","29","","",""
"revaluation","144","750287","0.0-4.0-2.0-0.15","spark_pilot_2","7327","5","12","Female","","false","","","","","[994.1999999880791,961.8999999761581]","./assets/img/canyon/memory/3.jpg","[""ArrowUp"",""ArrowLeft""]","value training","canyon","26","{""ArrowUp,ArrowLeft"":26,""ArrowUp,ArrowRight"":10,""ArrowDown,ArrowLeft"":5,""ArrowDown,ArrowRight"":17}","true","ArrowUp,ArrowLeft","false","","","original","1","30","","",""
"html-keyboard-response","145","750792","0.0-4.0-2.0-1.15","spark_pilot_2","7327","5","12","Female","","","","","","","null","<div style=""font-size:60px;"">+</div>","null","fixation","","","","","","","","","","","31","","",""
"revaluation","146","756802","0.0-4.0-2.0-0.16","spark_pilot_2","7327","5","12","Female","","false","","","","","[994.7000000476837,377.80000001192093]","./assets/img/canyon/memory/2.jpg","[""ArrowUp"",""ArrowLeft""]","value training","canyon","26","{""ArrowUp,ArrowLeft"":26,""ArrowUp,ArrowRight"":10,""ArrowDown,ArrowLeft"":5,""ArrowDown,ArrowRight"":17}","true","ArrowUp,ArrowLeft","false","","","original","1","32","","",""
"html-keyboard-response","147","757305","0.0-4.0-2.0-1.16","spark_pilot_2","7327","5","12","Female","","","","","","","null","<div style=""font-size:60px;"">+</div>","null","fixation","","","","","","","","","","","33","","",""
"revaluation","148","763313","0.0-4.0-2.0-0.17","spark_pilot_2","7327","5","12","Female","","false","","","","","[410.39999997615814,153.39999997615814]","./assets/img/canyon/memory/15.jpg","[""ArrowUp"",""ArrowLeft""]","value training","canyon","26","{""ArrowUp,ArrowLeft"":26,""ArrowUp,ArrowRight"":10,""ArrowDown,ArrowLeft"":5,""ArrowDown,ArrowRight"":17}","true","ArrowUp,ArrowLeft","false","","","original","1","34","","",""
"html-keyboard-response","149","763818","0.0-4.0-2.0-1.17","spark_pilot_2","7327","5","12","Female","","","","","","","null","<div style=""font-size:60px;"">+</div>","null","fixation","","","","","","","","","","","35","","",""
"revaluation","150","769827","0.0-4.0-2.0-0.18","spark_pilot_2","7327","5","12","Female","","false","","","","","[1064.1000000238419,522.8000000119209]","./assets/img/canyon/memory/16.jpg","[""ArrowUp"",""ArrowLeft""]","value training","canyon","26","{""ArrowUp,ArrowLeft"":26,""ArrowUp,ArrowRight"":10,""ArrowDown,ArrowLeft"":5,""ArrowDown,ArrowRight"":17}","true","ArrowUp,ArrowLeft","false","","","original","1","36","","",""
"html-keyboard-response","151","770332","0.0-4.0-2.0-1.18","spark_pilot_2","7327","5","12","Female","","","","","","","null","<div style=""font-size:60px;"">+</div>","null","fixation","","","","","","","","","","","37","","",""
"revaluation","152","776340","0.0-4.0-2.0-0.19","spark_pilot_2","7327","5","12","Female","","false","","","","","[1053.5,549.3000000119209]","./assets/img/canyon/memory/19.jpg","[""ArrowUp"",""ArrowLeft""]","value training","canyon","26","{""ArrowUp,ArrowLeft"":26,""ArrowUp,ArrowRight"":10,""ArrowDown,ArrowLeft"":5,""ArrowDown,ArrowRight"":17}","true","ArrowUp,ArrowLeft","false","","","original","1","38","","",""
"html-keyboard-response","153","776845","0.0-4.0-2.0-1.19","spark_pilot_2","7327","5","12","Female","","","","","","","null","<div style=""font-size:60px;"">+</div>","null","fixation","","","","","","","","","","","39","","",""
"revaluation","154","782853","0.0-4.0-2.0-0.20","spark_pilot_2","7327","5","12","Female","","false","","","","","[986.8000000119209,662.5]","./assets/img/canyon/memory/1.jpg","[""ArrowUp"",""ArrowLeft""]","value training","canyon","26","{""ArrowUp,ArrowLeft"":26,""ArrowUp,ArrowRight"":10,""ArrowDown,ArrowLeft"":5,""ArrowDown,ArrowRight"":17}","true","ArrowUp,ArrowLeft","false","","","original","1","40","","",""
"html-keyboard-response","155","783358","0.0-4.0-2.0-1.20","spark_pilot_2","7327","5","12","Female","","","","","","","null","<div style=""font-size:60px;"">+</div>","null","fixation","","","","","","","","","","","41","","",""
"revaluation","156","789367","0.0-4.0-2.0-0.21","spark_pilot_2","7327","5","12","Female","","false","","","","","[526.3000000119209,437.5999999642372]","./assets/img/canyon/memory/10.jpg","[""ArrowUp"",""ArrowLeft""]","value training","canyon","26","{""ArrowUp,ArrowLeft"":26,""ArrowUp,ArrowRight"":10,""ArrowDown,ArrowLeft"":5,""ArrowDown,ArrowRight"":17}","true","ArrowUp,ArrowLeft","false","","","original","1","42","","",""
"html-keyboard-response","157","789872","0.0-4.0-2.0-1.21","spark_pilot_2","7327","5","12","Female","","","","","","","null","<div style=""font-size:60px;"">+</div>","null","fixation","","","","","","","","","","","43","","",""
"revaluation","158","793878","0.0-4.0-2.0-0.22","spark_pilot_2","7327","5","12","Female","","false","","","","","[718]","./assets/img/canyon/catch/6.jpg","[""spaceBar""]","value training","canyon","0","{""ArrowUp,ArrowLeft"":26,""ArrowUp,ArrowRight"":10,""ArrowDown,ArrowLeft"":5,""ArrowDown,ArrowRight"":17}","true","spaceBar","true","","","original","1","44","","",""
"html-keyboard-response","159","794383","0.0-4.0-2.0-1.22","spark_pilot_2","7327","5","12","Female","","","","","","","null","<div style=""font-size:60px;"">+</div>","null","fixation","","","","","","","","","","","45","","",""
"revaluation","160","800391","0.0-4.0-2.0-0.23","spark_pilot_2","7327","5","12","Female","","false","","","","","[1022.6000000238419,506.89999997615814]","./assets/img/canyon/memory/41.jpg","[""ArrowUp"",""ArrowLeft""]","value training","canyon","26","{""ArrowUp,ArrowLeft"":26,""ArrowUp,ArrowRight"":10,""ArrowDown,ArrowLeft"":5,""ArrowDown,ArrowRight"":17}","true","ArrowUp,ArrowLeft","false","","","original","1","46","","",""
"html-keyboard-response","161","800896","0.0-4.0-2.0-1.23","spark_pilot_2","7327","5","12","Female","","","","","","","null","<div style=""font-size:60px;"">+</div>","null","fixation","","","","","","","","","","","47","","",""
"revaluation","162","806905","0.0-4.0-2.0-0.24","spark_pilot_2","7327","5","12","Female","","false","","","","","[1169.8999999761581,676.5]","./assets/img/canyon/memory/10.jpg","[""ArrowUp"",""ArrowLeft""]","value training","canyon","26","{""ArrowUp,ArrowLeft"":26,""ArrowUp,ArrowRight"":10,""ArrowDown,ArrowLeft"":5,""ArrowDown,ArrowRight"":17}","true","ArrowUp,ArrowLeft","false","","","original","1","48","","",""
"html-keyboard-response","163","807409","0.0-4.0-2.0-1.24","spark_pilot_2","7327","5","12","Female","","","","","","","null","<div style=""font-size:60px;"">+</div>","null","fixation","","","","","","","","","","","49","","",""
"revaluation","164","813418","0.0-4.0-2.0-0.25","spark_pilot_2","7327","5","12","Female","","false","","","","","[1035.800000011921,486.0999999642372]","./assets/img/canyon/memory/8.jpg","[""ArrowUp"",""ArrowLeft""]","value training","canyon","26","{""ArrowUp,ArrowLeft"":26,""ArrowUp,ArrowRight"":10,""ArrowDown,ArrowLeft"":5,""ArrowDown,ArrowRight"":17}","true","ArrowUp,ArrowLeft","false","","","original","1","50","","",""
"html-keyboard-response","165","813923","0.0-4.0-2.0-1.25","spark_pilot_2","7327","5","12","Female","","","","","","","null","<div style=""font-size:60px;"">+</div>","null","fixation","","","","","","","","","","","51","","",""
"revaluation","166","819931","0.0-4.0-2.0-0.26","spark_pilot_2","7327","5","12","Female","","false","","","","","[878.9000000357628,992.7999999523163]","./assets/img/canyon/memory/21.jpg","[""ArrowUp"",""ArrowLeft""]","value training","canyon","26","{""ArrowUp,ArrowLeft"":26,""ArrowUp,ArrowRight"":10,""ArrowDown,ArrowLeft"":5,""ArrowDown,ArrowRight"":17}","true","ArrowUp,ArrowLeft","false","","","original","1","52","","",""
"html-keyboard-response","167","820436","0.0-4.0-2.0-1.26","spark_pilot_2","7327","5","12","Female","","","","","","","null","<div style=""font-size:60px;"">+</div>","null","fixation","","","","","","","","","","","53","","",""
"revaluation","168","826451","0.0-4.0-2.0-0.27","spark_pilot_2","7327","5","12","Female","","false","","","","","[812.0999999642372,550.8999999761581]","./assets/img/canyon/memory/16.jpg","[""ArrowUp"",""ArrowLeft""]","value training","canyon","26","{""ArrowUp,ArrowLeft"":26,""ArrowUp,ArrowRight"":10,""ArrowDown,ArrowLeft"":5,""ArrowDown,ArrowRight"":17}","true","ArrowUp,ArrowLeft","false","","","original","1","54","","",""
"html-keyboard-response","169","826955","0.0-4.0-2.0-1.27","spark_pilot_2","7327","5","12","Female","","","","","","","null","<div style=""font-size:60px;"">+</div>","null","fixation","","","","","","","","","","","55","","",""
"revaluation","170","832965","0.0-4.0-2.0-0.28","spark_pilot_2","7327","5","12","Female","","false","","","","","[908.3999999761581,569.8000000119209]","./assets/img/canyon/memory/39.jpg","[""ArrowUp"",""ArrowLeft""]","value training","canyon","26","{""ArrowUp,ArrowLeft"":26,""ArrowUp,ArrowRight"":10,""ArrowDown,ArrowLeft"":5,""ArrowDown,ArrowRight"":17}","true","ArrowUp,ArrowLeft","false","","","original","1","56","","",""
"html-keyboard-response","171","833468","0.0-4.0-2.0-1.28","spark_pilot_2","7327","5","12","Female","","","","","","","null","<div style=""font-size:60px;"">+</div>","null","fixation","","","","","","","","","","","57","","",""
"revaluation","172","839482","0.0-4.0-2.0-0.29","spark_pilot_2","7327","5","12","Female","","false","","","","","[831,550.6000000238419]","./assets/img/canyon/memory/2.jpg","[""ArrowUp"",""ArrowLeft""]","value training","canyon","26","{""ArrowUp,ArrowLeft"":26,""ArrowUp,ArrowRight"":10,""ArrowDown,ArrowLeft"":5,""ArrowDown,ArrowRight"":17}","true","ArrowUp,ArrowLeft","false","","","original","1","58","","",""
"html-keyboard-response","173","839988","0.0-4.0-2.0-1.29","spark_pilot_2","7327","5","12","Female","","","","","","","null","<div style=""font-size:60px;"">+</div>","null","fixation","","","","","","","","","","","59","","",""
"revaluation","174","845996","0.0-4.0-2.0-0.30","spark_pilot_2","7327","5","12","Female","","false","","","","","[915.5,793]","./assets/img/canyon/memory/11.jpg","[""ArrowUp"",""ArrowLeft""]","value training","canyon","26","{""ArrowUp,ArrowLeft"":26,""ArrowUp,ArrowRight"":10,""ArrowDown,ArrowLeft"":5,""ArrowDown,ArrowRight"":17}","true","ArrowUp,ArrowLeft","false","","","original","1","60","","",""
"html-keyboard-response","175","846501","0.0-4.0-2.0-1.30","spark_pilot_2","7327","5","12","Female","","","","","","","null","<div style=""font-size:60px;"">+</div>","null","fixation","","","","","","","","","","","61","","",""
"revaluation","176","852510","0.0-4.0-2.0-0.31","spark_pilot_2","7327","5","12","Female","","false","","","","","[1006.7999999523163,388.89999997615814]","./assets/img/canyon/memory/24.jpg","[""ArrowUp"",""ArrowLeft""]","value training","canyon","26","{""ArrowUp,ArrowLeft"":26,""ArrowUp,ArrowRight"":10,""ArrowDown,ArrowLeft"":5,""ArrowDown,ArrowRight"":17}","true","ArrowUp,ArrowLeft","false","","","original","1","62","","",""
"html-keyboard-response","177","853015","0.0-4.0-2.0-1.31","spark_pilot_2","7327","5","12","Female","","","","","","","null","<div style=""font-size:60px;"">+</div>","null","fixation","","","","","","","","","","","63","","",""
"revaluation","178","859023","0.0-4.0-2.0-0.32","spark_pilot_2","7327","5","12","Female","","false","","","","","[1130.300000011921,333.39999997615814]","./assets/img/canyon/memory/3.jpg","[""ArrowUp"",""ArrowLeft""]","value training","canyon","26","{""ArrowUp,ArrowLeft"":26,""ArrowUp,ArrowRight"":10,""ArrowDown,ArrowLeft"":5,""ArrowDown,ArrowRight"":17}","true","ArrowUp,ArrowLeft","false","","","original","1","64","","",""
"html-keyboard-response","179","859528","0.0-4.0-2.0-1.32","spark_pilot_2","7327","5","12","Female","","","","","","","null","<div style=""font-size:60px;"">+</div>","null","fixation","","","","","","","","","","","65","","",""
"revaluation","180","863534","0.0-4.0-2.0-0.33","spark_pilot_2","7327","5","12","Female","","false","","","","","[816.7000000476837]","./assets/img/canyon/catch/7.jpg","[""spaceBar""]","value training","canyon","0","{""ArrowUp,ArrowLeft"":26,""ArrowUp,ArrowRight"":10,""ArrowDown,ArrowLeft"":5,""ArrowDown,ArrowRight"":17}","true","spaceBar","true","","","original","1","66","","",""
"html-keyboard-response","181","864039","0.0-4.0-2.0-1.33","spark_pilot_2","7327","5","12","Female","","","","","","","null","<div style=""font-size:60px;"">+</div>","null","fixation","","","","","","","","","","","67","","",""
"revaluation","182","870047","0.0-4.0-2.0-0.34","spark_pilot_2","7327","5","12","Female","","false","","","","","[1627.7000000476837,447.39999997615814]","./assets/img/canyon/memory/11.jpg","[""ArrowUp"",""ArrowLeft""]","value training","canyon","26","{""ArrowUp,ArrowLeft"":26,""ArrowUp,ArrowRight"":10,""ArrowDown,ArrowLeft"":5,""ArrowDown,ArrowRight"":17}","true","ArrowUp,ArrowLeft","false","","","original","1","68","","",""
"html-keyboard-response","183","870552","0.0-4.0-2.0-1.34","spark_pilot_2","7327","5","12","Female","","","","","","","null","<div style=""font-size:60px;"">+</div>","null","fixation","","","","","","","","","","","69","","",""
"revaluation","184","876563","0.0-4.0-2.0-0.35","spark_pilot_2","7327","5","12","Female","","false","","","","","[795.3999999761581,369.5]","./assets/img/canyon/memory/8.jpg","[""ArrowUp"",""ArrowLeft""]","value training","canyon","26","{""ArrowUp,ArrowLeft"":26,""ArrowUp,ArrowRight"":10,""ArrowDown,ArrowLeft"":5,""ArrowDown,ArrowRight"":17}","true","ArrowUp,ArrowLeft","false","","","original","1","70","","",""
"html-keyboard-response","185","877068","0.0-4.0-2.0-1.35","spark_pilot_2","7327","5","12","Female","","","","","","","null","<div style=""font-size:60px;"">+</div>","null","fixation","","","","","","","","","","","71","","",""
"revaluation","186","883080","0.0-4.0-2.0-0.36","spark_pilot_2","7327","5","12","Female","","false","","","","","[1075.3999999761581,387.10000002384186]","./assets/img/canyon/memory/33.jpg","[""ArrowUp"",""ArrowLeft""]","value training","canyon","26","{""ArrowUp,ArrowLeft"":26,""ArrowUp,ArrowRight"":10,""ArrowDown,ArrowLeft"":5,""ArrowDown,ArrowRight"":17}","true","ArrowUp,ArrowLeft","false","","","original","1","72","","",""
"html-keyboard-response","187","883585","0.0-4.0-2.0-1.36","spark_pilot_2","7327","5","12","Female","","","","","","","null","<div style=""font-size:60px;"">+</div>","null","fixation","","","","","","","","","","","73","","",""
"revaluation","188","889599","0.0-4.0-2.0-0.37","spark_pilot_2","7327","5","12","Female","","false","","","","","[1038.7000000476837,407.0999999642372]","./assets/img/canyon/memory/24.jpg","[""ArrowUp"",""ArrowLeft""]","value training","canyon","26","{""ArrowUp,ArrowLeft"":26,""ArrowUp,ArrowRight"":10,""ArrowDown,ArrowLeft"":5,""ArrowDown,ArrowRight"":17}","true","ArrowUp,ArrowLeft","false","","","original","1","74","","",""
"html-keyboard-response","189","890104","0.0-4.0-2.0-1.37","spark_pilot_2","7327","5","12","Female","","","","","","","null","<div style=""font-size:60px;"">+</div>","null","fixation","","","","","","","","","","","75","","",""
"revaluation","190","896112","0.0-4.0-2.0-0.38","spark_pilot_2","7327","5","12","Female","","false","","","","","[606.6999999880791,326.60000002384186]","./assets/img/canyon/memory/15.jpg","[""ArrowUp"",""ArrowLeft""]","value training","canyon","26","{""ArrowUp,ArrowLeft"":26,""ArrowUp,ArrowRight"":10,""ArrowDown,ArrowLeft"":5,""ArrowDown,ArrowRight"":17}","true","ArrowUp,ArrowLeft","false","","","original","1","76","","",""
"html-keyboard-response","191","896617","0.0-4.0-2.0-1.38","spark_pilot_2","7327","5","12","Female","","","","","","","null","<div style=""font-size:60px;"">+</div>","null","fixation","","","","","","","","","","","77","","",""
"revaluation","192","902629","0.0-4.0-2.0-0.39","spark_pilot_2","7327","5","12","Female","","false","","","","","[809.1999999880791,360.69999998807907]","./assets/img/canyon/memory/9.jpg","[""ArrowUp"",""ArrowLeft""]","value training","canyon","26","{""ArrowUp,ArrowLeft"":26,""ArrowUp,ArrowRight"":10,""ArrowDown,ArrowLeft"":5,""ArrowDown,ArrowRight"":17}","true","ArrowUp,ArrowLeft","false","","","original","1","78","","",""
"html-keyboard-response","193","903131","0.0-4.0-2.0-1.39","spark_pilot_2","7327","5","12","Female","","","","","","","null","<div style=""font-size:60px;"">+</div>","null","fixation","","","","","","","","","","","79","","",""
"revaluation","194","909139","0.0-4.0-2.0-0.40","spark_pilot_2","7327","5","12","Female","","false","","","","","[1170.199999988079,519]","./assets/img/canyon/memory/9.jpg","[""ArrowUp"",""ArrowLeft""]","value training","canyon","26","{""ArrowUp,ArrowLeft"":26,""ArrowUp,ArrowRight"":10,""ArrowDown,ArrowLeft"":5,""ArrowDown,ArrowRight"":17}","true","ArrowUp,ArrowLeft","false","","","original","1","80","","",""
"html-keyboard-response","195","909644","0.0-4.0-2.0-1.40","spark_pilot_2","7327","5","12","Female","","","","","","","null","<div style=""font-size:60px;"">+</div>","null","fixation","","","","","","","","","","","81","","",""
"revaluation","196","915653","0.0-4.0-2.0-0.41","spark_pilot_2","7327","5","12","Female","","false","","","","","[979.8999999761581,688.5999999642372]","./assets/img/canyon/memory/39.jpg","[""ArrowUp"",""ArrowLeft""]","value training","canyon","26","{""ArrowUp,ArrowLeft"":26,""ArrowUp,ArrowRight"":10,""ArrowDown,ArrowLeft"":5,""ArrowDown,ArrowRight"":17}","true","ArrowUp,ArrowLeft","false","","","original","1","82","","",""
"html-keyboard-response","197","916158","0.0-4.0-2.0-1.41","spark_pilot_2","7327","5","12","Female","","","","","","","null","<div style=""font-size:60px;"">+</div>","null","fixation","","","","","","","","","","","83","","",""
"revaluation","198","920163","0.0-4.0-2.0-0.42","spark_pilot_2","7327","5","12","Female","","false","","","","","[699.1000000238419]","./assets/img/canyon/catch/5.jpg","[""spaceBar""]","value training","canyon","0","{""ArrowUp,ArrowLeft"":26,""ArrowUp,ArrowRight"":10,""ArrowDown,ArrowLeft"":5,""ArrowDown,ArrowRight"":17}","true","spaceBar","true","","","original","1","84","","",""
"html-keyboard-response","199","920668","0.0-4.0-2.0-1.42","spark_pilot_2","7327","5","12","Female","","","","","","","null","<div style=""font-size:60px;"">+</div>","null","fixation","","","","","","","","","","","85","","",""
"revaluation","200","926679","0.0-4.0-2.0-0.43","spark_pilot_2","7327","5","12","Female","","false","","","","","[981.2000000476837,578.1999999880791]","./assets/img/canyon/memory/4.jpg","[""ArrowUp"",""ArrowLeft""]","value training","canyon","26","{""ArrowUp,ArrowLeft"":26,""ArrowUp,ArrowRight"":10,""ArrowDown,ArrowLeft"":5,""ArrowDown,ArrowRight"":17}","true","ArrowUp,ArrowLeft","false","","","original","1","86","","",""
"html-keyboard-response","201","927181","0.0-4.0-2.0-1.43","spark_pilot_2","7327","5","12","Female","","","","","","","null","<div style=""font-size:60px;"">+</div>","null","fixation","","","","","","","","","","","87","","",""
"revaluation","202","933190","0.0-4.0-2.0-0.44","spark_pilot_2","7327","5","12","Female","","false","","","","","[621.9000000357628,600.8000000119209]","./assets/img/canyon/memory/19.jpg","[""ArrowUp"",""ArrowLeft""]","value training","canyon","26","{""ArrowUp,ArrowLeft"":26,""ArrowUp,ArrowRight"":10,""ArrowDown,ArrowLeft"":5,""ArrowDown,ArrowRight"":17}","true","ArrowUp,ArrowLeft","false","","","original","1","88","","",""
"html-keyboard-response","203","933695","0.0-4.0-2.0-1.44","spark_pilot_2","7327","5","12","Female","","","","","","","null","<div style=""font-size:60px;"">+</div>","null","fixation","","","","","","","","","","","89","","",""
"revaluation","204","939703","0.0-4.0-2.0-0.45","spark_pilot_2","7327","5","12","Female","","false","","","","","[971.5999999642372,579.2999999523163]","./assets/img/canyon/memory/0.jpg","[""ArrowUp"",""ArrowLeft""]","value training","canyon","26","{""ArrowUp,ArrowLeft"":26,""ArrowUp,ArrowRight"":10,""ArrowDown,ArrowLeft"":5,""ArrowDown,ArrowRight"":17}","true","ArrowUp,ArrowLeft","false","","","original","1","90","","",""
"html-keyboard-response","205","940208","0.0-4.0-2.0-1.45","spark_pilot_2","7327","5","12","Female","","","","","","","null","<div style=""font-size:60px;"">+</div>","null","fixation","","","","","","","","","","","91","","",""
"revaluation","206","944220","0.0-4.0-2.0-0.46","spark_pilot_2","7327","5","12","Female","","true","","","","","[]","./assets/img/canyon/memory/41.jpg","[]","value training","canyon","-5","{""ArrowUp,ArrowLeft"":26,""ArrowUp,ArrowRight"":10,""ArrowDown,ArrowLeft"":5,""ArrowDown,ArrowRight"":17}","false","","false","","","original","1","92","","",""
"html-keyboard-response","207","944725","0.0-4.0-2.0-1.46","spark_pilot_2","7327","5","12","Female","","","","","","","null","<div style=""font-size:60px;"">+</div>","null","fixation","","","","","","","","","","","93","","",""
"revaluation","208","950733","0.0-4.0-2.0-0.47","spark_pilot_2","7327","5","12","Female","","false","","","","","[764.8000000119209,719.5]","./assets/img/canyon/memory/20.jpg","[""ArrowUp"",""ArrowLeft""]","value training","canyon","26","{""ArrowUp,ArrowLeft"":26,""ArrowUp,ArrowRight"":10,""ArrowDown,ArrowLeft"":5,""ArrowDown,ArrowRight"":17}","true","ArrowUp,ArrowLeft","false","","","original","1","94","","",""
"html-keyboard-response","209","951238","0.0-4.0-2.0-1.47","spark_pilot_2","7327","5","12","Female","","","","","","","null","<div style=""font-size:60px;"">+</div>","null","fixation","","","","","","","","","","","95","","",""
"revaluation","210","957247","0.0-4.0-2.0-0.48","spark_pilot_2","7327","5","12","Female","","false","","","","","[585.5,744.8000000119209]","./assets/img/canyon/memory/20.jpg","[""ArrowUp"",""ArrowLeft""]","value training","canyon","26","{""ArrowUp,ArrowLeft"":26,""ArrowUp,ArrowRight"":10,""ArrowDown,ArrowLeft"":5,""ArrowDown,ArrowRight"":17}","true","ArrowUp,ArrowLeft","false","","","original","1","96","","",""
"html-keyboard-response","211","957752","0.0-4.0-2.0-1.48","spark_pilot_2","7327","5","12","Female","","","","","","","null","<div style=""font-size:60px;"">+</div>","null","fixation","","","","","","","","","","","97","","",""
"revaluation","212","963760","0.0-4.0-2.0-0.49","spark_pilot_2","7327","5","12","Female","","false","","","","","[811.2999999523163,1229.6000000238419]","./assets/img/canyon/memory/0.jpg","[""ArrowUp"",""ArrowLeft""]","value training","canyon","26","{""ArrowUp,ArrowLeft"":26,""ArrowUp,ArrowRight"":10,""ArrowDown,ArrowLeft"":5,""ArrowDown,ArrowRight"":17}","true","ArrowUp,ArrowLeft","false","","","original","1","98","","",""
"html-keyboard-response","213","964265","0.0-4.0-2.0-1.49","spark_pilot_2","7327","5","12","Female","","","","","","","null","<div style=""font-size:60px;"">+</div>","null","fixation","","","","","","","","","","","99","","",""
"learning-instructions","214","978242","0.0-4.0-3.0-0.0","spark_pilot_2","7327","5","12","Female","","","","","","","972.1999999880791","<p> Now, you will travel with a friend who will choose whether you go up or down first. </p>
            <p> On these turns, you will just see the animal that they found. You will still get to choose which chest to search for treasure.</p>","","instructions","","","","","","","","","","","","","",""
"revaluation","215","982251","0.0-4.0-4.0-0.0","spark_pilot_2","7327","5","12","Female","","false","","","","","[1618.9000000357628]","./assets/img/canyon/animals/lion.jpg","[""ArrowLeft""]","revaluation","canyon","26","{""ArrowUp,ArrowLeft"":26,""ArrowUp,ArrowRight"":10,""ArrowDown,ArrowLeft"":5,""ArrowDown,ArrowRight"":17}","true","ArrowUp,ArrowLeft","","","","original","1","0","","",""
"html-keyboard-response","216","982756","0.0-4.0-4.0-1.0","spark_pilot_2","7327","5","12","Female","","","","","","","null","<div style=""font-size:60px;"">+</div>","null","fixation","","","","","","","","","","","1","","",""
"revaluation","217","986761","0.0-4.0-4.0-0.1","spark_pilot_2","7327","5","12","Female","","false","","","","","[749.8000000119209]","./assets/img/canyon/animals/lion.jpg","[""ArrowLeft""]","revaluation","canyon","26","{""ArrowUp,ArrowLeft"":26,""ArrowUp,ArrowRight"":10,""ArrowDown,ArrowLeft"":5,""ArrowDown,ArrowRight"":17}","true","ArrowUp,ArrowLeft","","","","original","1","2","","",""
"html-keyboard-response","218","987266","0.0-4.0-4.0-1.1","spark_pilot_2","7327","5","12","Female","","","","","","","null","<div style=""font-size:60px;"">+</div>","null","fixation","","","","","","","","","","","3","","",""
"revaluation","219","991275","0.0-4.0-4.0-0.2","spark_pilot_2","7327","5","12","Female","","false","","","","","[559.8999999761581]","./assets/img/canyon/animals/lion.jpg","[""ArrowLeft""]","revaluation","canyon","26","{""ArrowUp,ArrowLeft"":26,""ArrowUp,ArrowRight"":10,""ArrowDown,ArrowLeft"":5,""ArrowDown,ArrowRight"":17}","true","ArrowUp,ArrowLeft","","","","original","1","4","","",""
"html-keyboard-response","220","991777","0.0-4.0-4.0-1.2","spark_pilot_2","7327","5","12","Female","","","","","","","null","<div style=""font-size:60px;"">+</div>","null","fixation","","","","","","","","","","","5","","",""
"revaluation","221","995783","0.0-4.0-4.0-0.3","spark_pilot_2","7327","5","12","Female","","false","","","","","[560.8000000119209]","./assets/img/canyon/animals/lion.jpg","[""ArrowLeft""]","revaluation","canyon","26","{""ArrowUp,ArrowLeft"":26,""ArrowUp,ArrowRight"":10,""ArrowDown,ArrowLeft"":5,""ArrowDown,ArrowRight"":17}","true","ArrowUp,ArrowLeft","","","","original","1","6","","",""
"html-keyboard-response","222","996287","0.0-4.0-4.0-1.3","spark_pilot_2","7327","5","12","Female","","","","","","","null","<div style=""font-size:60px;"">+</div>","null","fixation","","","","","","","","","","","7","","",""
"revaluation","223","1000293","0.0-4.0-4.0-0.4","spark_pilot_2","7327","5","12","Female","","false","","","","","[415.60000002384186]","./assets/img/canyon/animals/lion.jpg","[""ArrowLeft""]","revaluation","canyon","26","{""ArrowUp,ArrowLeft"":26,""ArrowUp,ArrowRight"":10,""ArrowDown,ArrowLeft"":5,""ArrowDown,ArrowRight"":17}","true","ArrowUp,ArrowLeft","","","","original","1","8","","",""
"html-keyboard-response","224","1000798","0.0-4.0-4.0-1.4","spark_pilot_2","7327","5","12","Female","","","","","","","null","<div style=""font-size:60px;"">+</div>","null","fixation","","","","","","","","","","","9","","",""
"revaluation","225","1004804","0.0-4.0-4.0-0.5","spark_pilot_2","7327","5","12","Female","","false","","","","","[506.5]","./assets/img/canyon/animals/lion.jpg","[""ArrowLeft""]","revaluation","canyon","26","{""ArrowUp,ArrowLeft"":26,""ArrowUp,ArrowRight"":10,""ArrowDown,ArrowLeft"":5,""ArrowDown,ArrowRight"":17}","true","ArrowUp,ArrowLeft","","","","original","1","10","","",""
"html-keyboard-response","226","1005309","0.0-4.0-4.0-1.5","spark_pilot_2","7327","5","12","Female","","","","","","","null","<div style=""font-size:60px;"">+</div>","null","fixation","","","","","","","","","","","11","","",""
"revaluation","227","1009316","0.0-4.0-4.0-0.6","spark_pilot_2","7327","5","12","Female","","false","","","","","[991.3000000119209]","./assets/img/canyon/animals/giraffe.jpg","[""ArrowRight""]","revaluation","canyon","17","{""ArrowUp,ArrowLeft"":26,""ArrowUp,ArrowRight"":10,""ArrowDown,ArrowLeft"":5,""ArrowDown,ArrowRight"":17}","true","ArrowDown,ArrowRight","","","","original","1","12","","",""
"html-keyboard-response","228","1009820","0.0-4.0-4.0-1.6","spark_pilot_2","7327","5","12","Female","","","","","","","null","<div style=""font-size:60px;"">+</div>","null","fixation","","","","","","","","","","","13","","",""
"revaluation","229","1013826","0.0-4.0-4.0-0.7","spark_pilot_2","7327","5","12","Female","","false","","","","","[754.5]","./assets/img/canyon/animals/lion.jpg","[""ArrowLeft""]","revaluation","canyon","26","{""ArrowUp,ArrowLeft"":26,""ArrowUp,ArrowRight"":10,""ArrowDown,ArrowLeft"":5,""ArrowDown,ArrowRight"":17}","true","ArrowUp,ArrowLeft","","","","original","1","14","","",""
"html-keyboard-response","230","1014331","0.0-4.0-4.0-1.7","spark_pilot_2","7327","5","12","Female","","","","","","","null","<div style=""font-size:60px;"">+</div>","null","fixation","","","","","","","","","","","15","","",""
"revaluation","231","1018337","0.0-4.0-4.0-0.8","spark_pilot_2","7327","5","12","Female","","false","","","","","[1160.699999988079]","./assets/img/canyon/animals/giraffe.jpg","[""ArrowLeft""]","revaluation","canyon","5","{""ArrowUp,ArrowLeft"":26,""ArrowUp,ArrowRight"":10,""ArrowDown,ArrowLeft"":5,""ArrowDown,ArrowRight"":17}","false","ArrowDown,ArrowLeft","","","","original","1","16","","",""
"html-keyboard-response","232","1018842","0.0-4.0-4.0-1.8","spark_pilot_2","7327","5","12","Female","","","","","","","null","<div style=""font-size:60px;"">+</div>","null","fixation","","","","","","","","","","","17","","",""
"revaluation","233","1022847","0.0-4.0-4.0-0.9","spark_pilot_2","7327","5","12","Female","","false","","","","","[902.5]","./assets/img/canyon/animals/giraffe.jpg","[""ArrowRight""]","revaluation","canyon","17","{""ArrowUp,ArrowLeft"":26,""ArrowUp,ArrowRight"":10,""ArrowDown,ArrowLeft"":5,""ArrowDown,ArrowRight"":17}","true","ArrowDown,ArrowRight","","","","original","1","18","","",""
"html-keyboard-response","234","1023352","0.0-4.0-4.0-1.9","spark_pilot_2","7327","5","12","Female","","","","","","","null","<div style=""font-size:60px;"">+</div>","null","fixation","","","","","","","","","","","19","","",""
"revaluation","235","1027358","0.0-4.0-4.0-0.10","spark_pilot_2","7327","5","12","Female","","false","","","","","[813.3000000119209]","./assets/img/canyon/animals/giraffe.jpg","[""ArrowRight""]","revaluation","canyon","17","{""ArrowUp,ArrowLeft"":26,""ArrowUp,ArrowRight"":10,""ArrowDown,ArrowLeft"":5,""ArrowDown,ArrowRight"":17}","true","ArrowDown,ArrowRight","","","","original","1","20","","",""
"html-keyboard-response","236","1027863","0.0-4.0-4.0-1.10","spark_pilot_2","7327","5","12","Female","","","","","","","null","<div style=""font-size:60px;"">+</div>","null","fixation","","","","","","","","","","","21","","",""
"revaluation","237","1031869","0.0-4.0-4.0-0.11","spark_pilot_2","7327","5","12","Female","","false","","","","","[679.2000000476837]","./assets/img/canyon/animals/giraffe.jpg","[""ArrowRight""]","revaluation","canyon","17","{""ArrowUp,ArrowLeft"":26,""ArrowUp,ArrowRight"":10,""ArrowDown,ArrowLeft"":5,""ArrowDown,ArrowRight"":17}","true","ArrowDown,ArrowRight","","","","original","1","22","","",""
"html-keyboard-response","238","1032373","0.0-4.0-4.0-1.11","spark_pilot_2","7327","5","12","Female","","","","","","","null","<div style=""font-size:60px;"">+</div>","null","fixation","","","","","","","","","","","23","","",""
"revaluation","239","1036379","0.0-4.0-4.0-0.12","spark_pilot_2","7327","5","12","Female","","false","","","","","[1017.7999999523163]","./assets/img/canyon/animals/lion.jpg","[""ArrowLeft""]","revaluation","canyon","26","{""ArrowUp,ArrowLeft"":26,""ArrowUp,ArrowRight"":10,""ArrowDown,ArrowLeft"":5,""ArrowDown,ArrowRight"":17}","true","ArrowUp,ArrowLeft","","","","original","1","24","","",""
"html-keyboard-response","240","1036884","0.0-4.0-4.0-1.12","spark_pilot_2","7327","5","12","Female","","","","","","","null","<div style=""font-size:60px;"">+</div>","null","fixation","","","","","","","","","","","25","","",""
"revaluation","241","1040891","0.0-4.0-4.0-0.13","spark_pilot_2","7327","5","12","Female","","false","","","","","[726.1999999880791]","./assets/img/canyon/animals/lion.jpg","[""ArrowLeft""]","revaluation","canyon","26","{""ArrowUp,ArrowLeft"":26,""ArrowUp,ArrowRight"":10,""ArrowDown,ArrowLeft"":5,""ArrowDown,ArrowRight"":17}","true","ArrowUp,ArrowLeft","","","","original","1","26","","",""
"html-keyboard-response","242","1041395","0.0-4.0-4.0-1.13","spark_pilot_2","7327","5","12","Female","","","","","","","null","<div style=""font-size:60px;"">+</div>","null","fixation","","","","","","","","","","","27","","",""
"revaluation","243","1045401","0.0-4.0-4.0-0.14","spark_pilot_2","7327","5","12","Female","","false","","","","","[1233.0999999642372]","./assets/img/canyon/animals/giraffe.jpg","[""ArrowRight""]","revaluation","canyon","17","{""ArrowUp,ArrowLeft"":26,""ArrowUp,ArrowRight"":10,""ArrowDown,ArrowLeft"":5,""ArrowDown,ArrowRight"":17}","true","ArrowDown,ArrowRight","","","","original","1","28","","",""
"html-keyboard-response","244","1045905","0.0-4.0-4.0-1.14","spark_pilot_2","7327","5","12","Female","","","","","","","null","<div style=""font-size:60px;"">+</div>","null","fixation","","","","","","","","","","","29","","",""
"revaluation","245","1049911","0.0-4.0-4.0-0.15","spark_pilot_2","7327","5","12","Female","","false","","","","","[143.10000002384186]","./assets/img/canyon/animals/giraffe.jpg","[""ArrowRight""]","revaluation","canyon","17","{""ArrowUp,ArrowLeft"":26,""ArrowUp,ArrowRight"":10,""ArrowDown,ArrowLeft"":5,""ArrowDown,ArrowRight"":17}","true","ArrowDown,ArrowRight","","","","original","1","30","","",""
"html-keyboard-response","246","1050416","0.0-4.0-4.0-1.15","spark_pilot_2","7327","5","12","Female","","","","","","","null","<div style=""font-size:60px;"">+</div>","null","fixation","","","","","","","","","","","31","","",""
"revaluation","247","1054422","0.0-4.0-4.0-0.16","spark_pilot_2","7327","5","12","Female","","false","","","","","[830.1999999880791]","./assets/img/canyon/animals/giraffe.jpg","[""ArrowRight""]","revaluation","canyon","17","{""ArrowUp,ArrowLeft"":26,""ArrowUp,ArrowRight"":10,""ArrowDown,ArrowLeft"":5,""ArrowDown,ArrowRight"":17}","true","ArrowDown,ArrowRight","","","","original","1","32","","",""
"html-keyboard-response","248","1054926","0.0-4.0-4.0-1.16","spark_pilot_2","7327","5","12","Female","","","","","","","null","<div style=""font-size:60px;"">+</div>","null","fixation","","","","","","","","","","","33","","",""
"revaluation","249","1058938","0.0-4.0-4.0-0.17","spark_pilot_2","7327","5","12","Female","","false","","","","","[774.3999999761581]","./assets/img/canyon/animals/giraffe.jpg","[""ArrowRight""]","revaluation","canyon","17","{""ArrowUp,ArrowLeft"":26,""ArrowUp,ArrowRight"":10,""ArrowDown,ArrowLeft"":5,""ArrowDown,ArrowRight"":17}","true","ArrowDown,ArrowRight","","","","original","1","34","","",""
"html-keyboard-response","250","1059443","0.0-4.0-4.0-1.17","spark_pilot_2","7327","5","12","Female","","","","","","","null","<div style=""font-size:60px;"">+</div>","null","fixation","","","","","","","","","","","35","","",""
"learning-instructions","251","1072309","0.0-4.0-5.0-0.0","spark_pilot_2","7327","5","12","Female","","","","","","","1162.2000000476837","<p> Time to play the dot game! </p>
            <p> For one minute, click the red dots on the following screen as they appear. </p>
            <p><b> Don't look away, as you will earn bonus for clicking dots</b>. </p>","","instructions","","","","","","","","","","","","","",""
"revaluation","252","1132313","0.0-4.0-6.0-0.0","spark_pilot_2","7327","5","12","Female","","","","","","","[76,61,56,158,68,57]","","","rest","","60","","","","","0","60000","","","","","",""
"learning-instructions","253","1140748","0.0-4.0-7.0-0.0","spark_pilot_2","7327","5","12","Female","","","","","","","2329.300000011921","<p> You have almost finished this part of the game! </p>
            <p> We are going to ask you to make a few more choices. </p>","","instructions","","","","","","","","","","","","","",""
"learning-instructions","254","1155869","0.0-4.0-7.0-0.1","spark_pilot_2","7327","5","12","Female","","","","","","","1149.3999999761581","<p> First, you need to decide whether to go up or down. When you see each picture, use the arrow keys to make your choice. </p>
            <p><b>You will not see which animal you found, but try to get to the one that will give you the most treasure.</b></p>","","instructions","","","","","","","","","","","","","",""
"revaluation","255","1156758","0.0-4.0-8.0-0.0","spark_pilot_2","7327","5","12","Female","","false","","","","","[888.0999999642372]","./assets/img/canyon/test/0.jpg","[""ArrowUp""]","first stage test","canyon","0","{""ArrowUp,ArrowLeft"":26,""ArrowUp,ArrowRight"":10,""ArrowDown,ArrowLeft"":5,""ArrowDown,ArrowRight"":17}","true","ArrowUp","false","","","original","1","","","",""
"html-keyboard-response","256","1157261","0.0-4.0-8.0-1.0","spark_pilot_2","7327","5","12","Female","","","","","","","null","<div style=""font-size:60px;"">+</div>","null","fixation","","","","","","","","","","","","","",""
"revaluation","257","1158501","0.0-4.0-8.0-0.1","spark_pilot_2","7327","5","12","Female","","false","","","","","[1238.7000000476837]","./assets/img/canyon/test/3.jpg","[""ArrowUp""]","first stage test","canyon","0","{""ArrowUp,ArrowLeft"":26,""ArrowUp,ArrowRight"":10,""ArrowDown,ArrowLeft"":5,""ArrowDown,ArrowRight"":17}","true","ArrowUp","false","","","original","1","","","",""
"html-keyboard-response","258","1159002","0.0-4.0-8.0-1.1","spark_pilot_2","7327","5","12","Female","","","","","","","null","<div style=""font-size:60px;"">+</div>","null","fixation","","","","","","","","","","","","","",""
"revaluation","259","1160042","0.0-4.0-8.0-0.2","spark_pilot_2","7327","5","12","Female","","false","","","","","[1037.8999999761581]","./assets/img/canyon/test/1.jpg","[""ArrowUp""]","first stage test","canyon","0","{""ArrowUp,ArrowLeft"":26,""ArrowUp,ArrowRight"":10,""ArrowDown,ArrowLeft"":5,""ArrowDown,ArrowRight"":17}","true","ArrowUp","false","","","original","1","","","",""
"html-keyboard-response","260","1160546","0.0-4.0-8.0-1.2","spark_pilot_2","7327","5","12","Female","","","","","","","null","<div style=""font-size:60px;"">+</div>","null","fixation","","","","","","","","","","","","","",""
"revaluation","261","1161145","0.0-4.0-8.0-0.3","spark_pilot_2","7327","5","12","Female","","false","","","","","[596.3999999761581]","./assets/img/canyon/test/2.jpg","[""ArrowUp""]","first stage test","canyon","0","{""ArrowUp,ArrowLeft"":26,""ArrowUp,ArrowRight"":10,""ArrowDown,ArrowLeft"":5,""ArrowDown,ArrowRight"":17}","true","ArrowUp","false","","","original","1","","","",""
"html-keyboard-response","262","1161649","0.0-4.0-8.0-1.3","spark_pilot_2","7327","5","12","Female","","","","","","","null","<div style=""font-size:60px;"">+</div>","null","fixation","","","","","","","","","","","","","",""
"learning-instructions","263","1174961","0.0-4.0-9.0-0.0","spark_pilot_2","7327","5","12","Female","","","","","","","1967.300000011921","<p> Now you will see the animals again and can search their chests for treasure. </p>
            <p> This time, you will not see how much treasure you earned, but you will earn more bonus money for making better choices. </p>","","instructions","","","","","","","","","","","","","",""
"revaluation","264","1176086","0.0-4.0-10.0-0.0","spark_pilot_2","7327","5","12","Female","","false","","","","","[1123.300000011921]","./assets/img/canyon/animals/lion.jpg","[""ArrowLeft""]","second stage test","canyon","0","{""ArrowUp,ArrowLeft"":26,""ArrowUp,ArrowRight"":10,""ArrowDown,ArrowLeft"":5,""ArrowDown,ArrowRight"":17}","true","ArrowUp,ArrowLeft","","","","original","1","","","",""
"html-keyboard-response","265","1176590","0.0-4.0-10.0-1.0","spark_pilot_2","7327","5","12","Female","","","","","","","null","<div style=""font-size:60px;"">+</div>","null","fixation","","","","","","","","","","","","","",""
"revaluation","266","1177357","0.0-4.0-10.0-0.1","spark_pilot_2","7327","5","12","Female","","false","","","","","[765]","./assets/img/canyon/animals/lion.jpg","[""ArrowLeft""]","second stage test","canyon","0","{""ArrowUp,ArrowLeft"":26,""ArrowUp,ArrowRight"":10,""ArrowDown,ArrowLeft"":5,""ArrowDown,ArrowRight"":17}","true","ArrowUp,ArrowLeft","","","","original","1","","","",""
"html-keyboard-response","267","1177859","0.0-4.0-10.0-1.1","spark_pilot_2","7327","5","12","Female","","","","","","","null","<div style=""font-size:60px;"">+</div>","null","fixation","","","","","","","","","","","","","",""
"revaluation","268","1178268","0.0-4.0-10.0-0.2","spark_pilot_2","7327","5","12","Female","","false","","","","","[407.80000001192093]","./assets/img/canyon/animals/lion.jpg","[""ArrowLeft""]","second stage test","canyon","0","{""ArrowUp,ArrowLeft"":26,""ArrowUp,ArrowRight"":10,""ArrowDown,ArrowLeft"":5,""ArrowDown,ArrowRight"":17}","true","ArrowUp,ArrowLeft","","","","original","1","","","",""
"html-keyboard-response","269","1178770","0.0-4.0-10.0-1.2","spark_pilot_2","7327","5","12","Female","","","","","","","null","<div style=""font-size:60px;"">+</div>","null","fixation","","","","","","","","","","","","","",""
"revaluation","270","1179168","0.0-4.0-10.0-0.3","spark_pilot_2","7327","5","12","Female","","false","","","","","[396.80000001192093]","./assets/img/canyon/animals/lion.jpg","[""ArrowLeft""]","second stage test","canyon","0","{""ArrowUp,ArrowLeft"":26,""ArrowUp,ArrowRight"":10,""ArrowDown,ArrowLeft"":5,""ArrowDown,ArrowRight"":17}","true","ArrowUp,ArrowLeft","","","","original","1","","","",""
"html-keyboard-response","271","1179670","0.0-4.0-10.0-1.3","spark_pilot_2","7327","5","12","Female","","","","","","","null","<div style=""font-size:60px;"">+</div>","null","fixation","","","","","","","","","","","","","",""
"revaluation","272","1180811","0.0-4.0-10.0-0.4","spark_pilot_2","7327","5","12","Female","","false","","","","","[1139.2000000476837]","./assets/img/canyon/animals/giraffe.jpg","[""ArrowRight""]","second stage test","canyon","0","{""ArrowUp,ArrowLeft"":26,""ArrowUp,ArrowRight"":10,""ArrowDown,ArrowLeft"":5,""ArrowDown,ArrowRight"":17}","true","ArrowDown,ArrowRight","","","","original","1","","","",""
"html-keyboard-response","273","1181313","0.0-4.0-10.0-1.4","spark_pilot_2","7327","5","12","Female","","","","","","","null","<div style=""font-size:60px;"">+</div>","null","fixation","","","","","","","","","","","","","",""
"revaluation","274","1181835","0.0-4.0-10.0-0.5","spark_pilot_2","7327","5","12","Female","","false","","","","","[520.0999999642372]","./assets/img/canyon/animals/giraffe.jpg","[""ArrowRight""]","second stage test","canyon","0","{""ArrowUp,ArrowLeft"":26,""ArrowUp,ArrowRight"":10,""ArrowDown,ArrowLeft"":5,""ArrowDown,ArrowRight"":17}","true","ArrowDown,ArrowRight","","","","original","1","","","",""
"html-keyboard-response","275","1182337","0.0-4.0-10.0-1.5","spark_pilot_2","7327","5","12","Female","","","","","","","null","<div style=""font-size:60px;"">+</div>","null","fixation","","","","","","","","","","","","","",""
"revaluation","276","1183016","0.0-4.0-10.0-0.6","spark_pilot_2","7327","5","12","Female","","false","","","","","[677.3000000119209]","./assets/img/canyon/animals/giraffe.jpg","[""ArrowRight""]","second stage test","canyon","0","{""ArrowUp,ArrowLeft"":26,""ArrowUp,ArrowRight"":10,""ArrowDown,ArrowLeft"":5,""ArrowDown,ArrowRight"":17}","true","ArrowDown,ArrowRight","","","","original","1","","","",""
"html-keyboard-response","277","1183517","0.0-4.0-10.0-1.6","spark_pilot_2","7327","5","12","Female","","","","","","","null","<div style=""font-size:60px;"">+</div>","null","fixation","","","","","","","","","","","","","",""
"revaluation","278","1183984","0.0-4.0-10.0-0.7","spark_pilot_2","7327","5","12","Female","","false","","","","","[464.69999998807907]","./assets/img/canyon/animals/giraffe.jpg","[""ArrowRight""]","second stage test","canyon","0","{""ArrowUp,ArrowLeft"":26,""ArrowUp,ArrowRight"":10,""ArrowDown,ArrowLeft"":5,""ArrowDown,ArrowRight"":17}","true","ArrowDown,ArrowRight","","","","original","1","","","",""
"html-keyboard-response","279","1184487","0.0-4.0-10.0-1.7","spark_pilot_2","7327","5","12","Female","","","","","","","null","<div style=""font-size:60px;"">+</div>","null","fixation","","","","","","","","","","","","","",""
"learning-instructions","280","1188327","0.0-4.0-0.1-0.2","spark_pilot_2","7327","5","12","Female","","","","","","","976.7000000476837","<p> This time you are searching for treasure in the <b>ocean</b>.</p>","","instructions","","","","","","","","","","","","","",""
"learning-instructions","281","1206598","0.0-4.0-0.1-0.3","spark_pilot_2","7327","5","12","Female","","","","","","","1019.8000000119209","<p><b>New</b> animals with <b>new</b> treasure chests live here. You need to explore to discover where the animal with the best treasure chest is.</p>
                    <p> Like before, once you figure out which animal has the chest with the most treasure, you should try to get to that animal and select that chest! </p>","","instructions","","","","","","","","","","","","","",""
"learning-instructions","282","1222641","0.0-4.0-1.1-0.1","spark_pilot_2","7327","5","12","Female","","","","","","","1307.7000000476837","<p> Remember, when you see a picture of the place, use the up and down keys to <b>find an animal</b>.</p>
            <p> When you encounter an animal, you should use the left and right keys to <b>select a treasure chest</b>.</p>
            <p> Don't forget to look out for the robber! </p>","","instructions","","","","","","","","","","","","","",""
"revaluation","283","1228653","0.0-4.0-2.1-0.50","spark_pilot_2","7327","5","12","Female","","false","","","","","[763.6999999880791,1223.0999999642372]","./assets/img/ocean/memory/20.jpg","[""ArrowUp"",""ArrowLeft""]","value training","ocean","23","{""ArrowUp,ArrowLeft"":23,""ArrowUp,ArrowRight"":10,""ArrowDown,ArrowLeft"":8,""ArrowDown,ArrowRight"":30}","false","ArrowUp,ArrowLeft","false","","","revaluation","2","0","","",""
"html-keyboard-response","284","1229158","0.0-4.0-2.1-1.50","spark_pilot_2","7327","5","12","Female","","","","","","","null","<div style=""font-size:60px;"">+</div>","null","fixation","","","","","","","","","","","1","","",""
"revaluation","285","1235172","0.0-4.0-2.1-0.51","spark_pilot_2","7327","5","12","Female","","false","","","","","[794.7000000476837,533.6999999880791]","./assets/img/ocean/memory/2.jpg","[""ArrowUp"",""ArrowRight""]","value training","ocean","10","{""ArrowUp,ArrowLeft"":23,""ArrowUp,ArrowRight"":10,""ArrowDown,ArrowLeft"":8,""ArrowDown,ArrowRight"":30}","false","ArrowUp,ArrowRight","false","","","revaluation","2","2","","",""
"html-keyboard-response","286","1235677","0.0-4.0-2.1-1.51","spark_pilot_2","7327","5","12","Female","","","","","","","null","<div style=""font-size:60px;"">+</div>","null","fixation","","","","","","","","","","","3","","",""
"revaluation","287","1241686","0.0-4.0-2.1-0.52","spark_pilot_2","7327","5","12","Female","","false","","","","","[766.6999999880791,868]","./assets/img/ocean/memory/4.jpg","[""ArrowDown"",""ArrowLeft""]","value training","ocean","8","{""ArrowUp,ArrowLeft"":23,""ArrowUp,ArrowRight"":10,""ArrowDown,ArrowLeft"":8,""ArrowDown,ArrowRight"":30}","false","ArrowDown,ArrowLeft","false","","","revaluation","2","4","","",""
"html-keyboard-response","288","1242188","0.0-4.0-2.1-1.52","spark_pilot_2","7327","5","12","Female","","","","","","","null","<div style=""font-size:60px;"">+</div>","null","fixation","","","","","","","","","","","5","","",""
"revaluation","289","1248199","0.0-4.0-2.1-0.53","spark_pilot_2","7327","5","12","Female","","false","","","","","[397.9000000357628,645.9000000357628]","./assets/img/ocean/memory/11.jpg","[""ArrowDown"",""ArrowRight""]","value training","ocean","30","{""ArrowUp,ArrowLeft"":23,""ArrowUp,ArrowRight"":10,""ArrowDown,ArrowLeft"":8,""ArrowDown,ArrowRight"":30}","true","ArrowDown,ArrowRight","false","","","revaluation","2","6","","",""
"html-keyboard-response","290","1248703","0.0-4.0-2.1-1.53","spark_pilot_2","7327","5","12","Female","","","","","","","null","<div style=""font-size:60px;"">+</div>","null","fixation","","","","","","","","","","","7","","",""
"revaluation","291","1254715","0.0-4.0-2.1-0.54","spark_pilot_2","7327","5","12","Female","","false","","","","","[914.8000000119209,511.5]","./assets/img/ocean/memory/25.jpg","[""ArrowDown"",""ArrowRight""]","value training","ocean","30","{""ArrowUp,ArrowLeft"":23,""ArrowUp,ArrowRight"":10,""ArrowDown,ArrowLeft"":8,""ArrowDown,ArrowRight"":30}","true","ArrowDown,ArrowRight","false","","","revaluation","2","8","","",""
"html-keyboard-response","292","1255218","0.0-4.0-2.1-1.54","spark_pilot_2","7327","5","12","Female","","","","","","","null","<div style=""font-size:60px;"">+</div>","null","fixation","","","","","","","","","","","9","","",""
"revaluation","293","1261226","0.0-4.0-2.1-0.55","spark_pilot_2","7327","5","12","Female","","false","","","","","[746.1999999880791,634.6000000238419]","./assets/img/ocean/memory/0.jpg","[""ArrowDown"",""ArrowRight""]","value training","ocean","30","{""ArrowUp,ArrowLeft"":23,""ArrowUp,ArrowRight"":10,""ArrowDown,ArrowLeft"":8,""ArrowDown,ArrowRight"":30}","true","ArrowDown,ArrowRight","false","","","revaluation","2","10","","",""
"html-keyboard-response","294","1261731","0.0-4.0-2.1-1.55","spark_pilot_2","7327","5","12","Female","","","","","","","null","<div style=""font-size:60px;"">+</div>","null","fixation","","","","","","","","","","","11","","",""
"revaluation","295","1265739","0.0-4.0-2.1-0.56","spark_pilot_2","7327","5","12","Female","","false","","","","","[847.6000000238419]","./assets/img/ocean/catch/4.jpg","[""spaceBar""]","value training","ocean","0","{""ArrowUp,ArrowLeft"":23,""ArrowUp,ArrowRight"":10,""ArrowDown,ArrowLeft"":8,""ArrowDown,ArrowRight"":30}","true","spaceBar","true","","","revaluation","2","12","","",""
"html-keyboard-response","296","1266244","0.0-4.0-2.1-1.56","spark_pilot_2","7327","5","12","Female","","","","","","","null","<div style=""font-size:60px;"">+</div>","null","fixation","","","","","","","","","","","13","","",""
"revaluation","297","1272256","0.0-4.0-2.1-0.57","spark_pilot_2","7327","5","12","Female","","false","","","","","[947.1999999880791,1305.2000000476837]","./assets/img/ocean/memory/11.jpg","[""ArrowDown"",""ArrowRight""]","value training","ocean","30","{""ArrowUp,ArrowLeft"":23,""ArrowUp,ArrowRight"":10,""ArrowDown,ArrowLeft"":8,""ArrowDown,ArrowRight"":30}","true","ArrowDown,ArrowRight","false","","","revaluation","2","14","","",""
"html-keyboard-response","298","1272761","0.0-4.0-2.1-1.57","spark_pilot_2","7327","5","12","Female","","","","","","","null","<div style=""font-size:60px;"">+</div>","null","fixation","","","","","","","","","","","15","","",""
"revaluation","299","1278769","0.0-4.0-2.1-0.58","spark_pilot_2","7327","5","12","Female","","false","","","","","[685.3999999761581,473.7999999523163]","./assets/img/ocean/memory/8.jpg","[""ArrowDown"",""ArrowRight""]","value training","ocean","30","{""ArrowUp,ArrowLeft"":23,""ArrowUp,ArrowRight"":10,""ArrowDown,ArrowLeft"":8,""ArrowDown,ArrowRight"":30}","true","ArrowDown,ArrowRight","false","","","revaluation","2","16","","",""
"html-keyboard-response","300","1279274","0.0-4.0-2.1-1.58","spark_pilot_2","7327","5","12","Female","","","","","","","null","<div style=""font-size:60px;"">+</div>","null","fixation","","","","","","","","","","","17","","",""
"revaluation","301","1285283","0.0-4.0-2.1-0.59","spark_pilot_2","7327","5","12","Female","","false","","","","","[745,541.9000000357628]","./assets/img/ocean/memory/25.jpg","[""ArrowDown"",""ArrowRight""]","value training","ocean","30","{""ArrowUp,ArrowLeft"":23,""ArrowUp,ArrowRight"":10,""ArrowDown,ArrowLeft"":8,""ArrowDown,ArrowRight"":30}","true","ArrowDown,ArrowRight","false","","","revaluation","2","18","","",""
"html-keyboard-response","302","1285788","0.0-4.0-2.1-1.59","spark_pilot_2","7327","5","12","Female","","","","","","","null","<div style=""font-size:60px;"">+</div>","null","fixation","","","","","","","","","","","19","","",""
"revaluation","303","1289799","0.0-4.0-2.1-0.60","spark_pilot_2","7327","5","12","Female","","false","","","","","[833.2999999523163]","./assets/img/ocean/catch/5.jpg","[""spaceBar""]","value training","ocean","0","{""ArrowUp,ArrowLeft"":23,""ArrowUp,ArrowRight"":10,""ArrowDown,ArrowLeft"":8,""ArrowDown,ArrowRight"":30}","true","spaceBar","true","","","revaluation","2","20","","",""
"html-keyboard-response","304","1290304","0.0-4.0-2.1-1.60","spark_pilot_2","7327","5","12","Female","","","","","","","null","<div style=""font-size:60px;"">+</div>","null","fixation","","","","","","","","","","","21","","",""
"revaluation","305","1296313","0.0-4.0-2.1-0.61","spark_pilot_2","7327","5","12","Female","","false","","","","","[1042.6000000238419,470.5]","./assets/img/ocean/memory/39.jpg","[""ArrowDown"",""ArrowRight""]","value training","ocean","30","{""ArrowUp,ArrowLeft"":23,""ArrowUp,ArrowRight"":10,""ArrowDown,ArrowLeft"":8,""ArrowDown,ArrowRight"":30}","true","ArrowDown,ArrowRight","false","","","revaluation","2","22","","",""
"html-keyboard-response","306","1296818","0.0-4.0-2.1-1.61","spark_pilot_2","7327","5","12","Female","","","","","","","null","<div style=""font-size:60px;"">+</div>","null","fixation","","","","","","","","","","","23","","",""
