"trial_type","trial_index","time_elapsed","internal_node_id","task_version","subject_id","assigned_condition","age","gender","success","timeout","failed_images","failed_audio","failed_video","browser_interaction","rt","stimulus","response","task_part","environment","score","rewardMap","correct","fullState","isCatch","numberMissed","duration","condition","order","trial_num","key_press","ground_truth","bonus"
"pavlovia","0","1481","0.0-0.0","spark_pilot_2","7774","6","7","Female","","","","","","","","","","","","","","","","","","","","","","","",""
"preload","1","11012","0.0-1.0","spark_pilot_2","7774","6","7","Female","true","false","[]","[]","[]","[{""event"":""blur"",""trial"":2,""time"":19132},{""event"":""fullscreenenter"",""trial"":2,""time"":19173},{""event"":""focus"",""trial"":3,""time"":22639},{""event"":""blur"",""trial"":4,""time"":47031},{""event"":""focus"",""trial"":5,""time"":49839},{""event"":""blur"",""trial"":7,""time"":88625},{""event"":""focus"",""trial"":8,""time"":90182},{""event"":""blur"",""trial"":19,""time"":159004},{""event"":""focus"",""trial"":19,""time"":162847},{""event"":""blur"",""trial"":453,""time"":1906843},{""event"":""focus"",""trial"":454,""time"":1908316}]","","","","","","","","","","","","","","","","","",""
"fullscreen","2","20161","0.0-2.0","spark_pilot_2","7774","6","7","Female","true","","","","","[{""event"":""blur"",""trial"":2,""time"":19132},{""event"":""fullscreenenter"",""trial"":2,""time"":19173},{""event"":""focus"",""trial"":3,""time"":22639},{""event"":""blur"",""trial"":4,""time"":47031},{""event"":""focus"",""trial"":5,""time"":49839},{""event"":""blur"",""trial"":7,""time"":88625},{""event"":""focus"",""trial"":8,""time"":90182},{""event"":""blur"",""trial"":19,""time"":159004},{""event"":""focus"",""trial"":19,""time"":162847},{""event"":""blur"",""trial"":453,""time"":1906843},{""event"":""focus"",""trial"":454,""time"":1908316}]","","","","","","","","","","","","","","","","","",""
"audio-button-response","3","32583","0.0-3.0-0.0-0.0","spark_pilot_2","7774","6","7","Female","","","","","","[{""event"":""blur"",""trial"":2,""time"":19132},{""event"":""fullscreenenter"",""trial"":2,""time"":19173},{""event"":""focus"",""trial"":3,""time"":22639},{""event"":""blur"",""trial"":4,""time"":47031},{""event"":""focus"",""trial"":5,""time"":49839},{""event"":""blur"",""trial"":7,""time"":88625},{""event"":""focus"",""trial"":8,""time"":90182},{""event"":""blur"",""trial"":19,""time"":159004},{""event"":""focus"",""trial"":19,""time"":162847},{""event"":""blur"",""trial"":453,""time"":1906843},{""event"":""focus"",""trial"":454,""time"":1908316}]","12399","./assets/audio/audiotest/turtle.mp3","2","audio_test","","","","","","","","","","","","","",""
"learning-instructions","4","47203","0.0-3.0-1.0-0.0","spark_pilot_2","7774","6","7","Female","","","","","","[{""event"":""blur"",""trial"":2,""time"":19132},{""event"":""fullscreenenter"",""trial"":2,""time"":19173},{""event"":""focus"",""trial"":3,""time"":22639},{""event"":""blur"",""trial"":4,""time"":47031},{""event"":""focus"",""trial"":5,""time"":49839},{""event"":""blur"",""trial"":7,""time"":88625},{""event"":""focus"",""trial"":8,""time"":90182},{""event"":""blur"",""trial"":19,""time"":159004},{""event"":""focus"",""trial"":19,""time"":162847},{""event"":""blur"",""trial"":453,""time"":1906843},{""event"":""focus"",""trial"":454,""time"":1908316}]","7631.5","<p> Welcome! Please remember to stay in fullscreen mode and don't click away from the experiment. </p>","","instructions","","","","","","","","","","","","","",""
"learning-instructions","5","60815","0.0-3.0-1.0-0.1","spark_pilot_2","7774","6","7","Female","","","","","","","5186.800000011921","<p> Today you will be playing a game to earn treasure. </p>
            <p> At the end of the experiment, you will earn a bonus based on how much treasure you find. </p>
            <img src='./assets/img/instructions/treasure.jpg' class='instructions-image'>","","instructions","","","","","","","","","","","","","",""
"learning-instructions","6","72397","0.0-3.0-1.0-0.2","spark_pilot_2","7774","6","7","Female","","","","","","[{""event"":""blur"",""trial"":2,""time"":19132},{""event"":""fullscreenenter"",""trial"":2,""time"":19173},{""event"":""focus"",""trial"":3,""time"":22639},{""event"":""blur"",""trial"":4,""time"":47031},{""event"":""focus"",""trial"":5,""time"":49839},{""event"":""blur"",""trial"":7,""time"":88625},{""event"":""focus"",""trial"":8,""time"":90182},{""event"":""blur"",""trial"":19,""time"":159004},{""event"":""focus"",""trial"":19,""time"":162847},{""event"":""blur"",""trial"":453,""time"":1906843},{""event"":""focus"",""trial"":454,""time"":1908316}]","3313.9000000059605","<p> Animals have hidden treasure in treasure chests. </p>
            <p> You need to first find an animal and then choose which of their treasure chests to search. </p>
            <img src='./assets/img/space/animals/cat.jpg' class='instructions-image'>","","instructions","","","","","","","","","","","","","",""
"learning-instructions","7","88829","0.0-3.0-1.0-0.3","spark_pilot_2","7774","6","7","Female","","","","","","[{""event"":""blur"",""trial"":2,""time"":19132},{""event"":""fullscreenenter"",""trial"":2,""time"":19173},{""event"":""focus"",""trial"":3,""time"":22639},{""event"":""blur"",""trial"":4,""time"":47031},{""event"":""focus"",""trial"":5,""time"":49839},{""event"":""blur"",""trial"":7,""time"":88625},{""event"":""focus"",""trial"":8,""time"":90182},{""event"":""blur"",""trial"":19,""time"":159004},{""event"":""focus"",""trial"":19,""time"":162847},{""event"":""blur"",""trial"":453,""time"":1906843},{""event"":""focus"",""trial"":454,""time"":1908316}]","3260","<p> In each round, you will search for treasure in a different place. In the real game, there will be two rounds. </p>
            <p> You will begin with a separate, practice round where you will search for treasure in outer space. </p>
            <img src='./assets/img/space/0.jpg' class='instructions-image'>","","instructions","","","","","","","","","","","","","",""
"learning-instructions","8","103425","0.0-3.0-1.0-0.4","spark_pilot_2","7774","6","7","Female","","","","","","","3163.7999999970198","<p> On every turn, you will see a picture of the place that you are in, but the specific image may be different each time. </p>
            <p> For example, both of these images mean you are in outer space. </p>
            <img src='./assets/img/instructions/outerspace.jpg' class='instructions-image'>","","instructions","","","","","","","","","","","","","",""
"learning-instructions","9","113723","0.0-3.0-1.0-0.5","spark_pilot_2","7774","6","7","Female","","","","","","","2450.4000000059605","<p> You need to decide which direction to travel in. </p>
            <p> You can choose between going <b>up or down</b> by using the arrow keys. </p>
            <img src='./assets/img/instructions/updown.jpg' class='instructions-image'>","","instructions","","","","","","","","","","","","","",""
"learning-instructions","10","125635","0.0-3.0-1.0-0.6","spark_pilot_2","7774","6","7","Female","","","","","","","3088.8999999910593","<p> You will have <b>2 seconds</b> to make your choice. </p>
            <p> If you do not make a choice within 2 seconds, you will not find an animal or earn treasure. </p>
            <img src='./assets/img/instructions/2seconds.jpg' class='instructions-image'>","","instructions","","","","","","","","","","","","","",""
"learning-instructions","11","135400","0.0-3.0-1.0-0.7","spark_pilot_2","7774","6","7","Female","","","","","","","2718.7999999970198","<p> Let’s try practicing that now! </p>
            <p> When you see a picture of the place you are in, press the <b>up</b> key to travel up. </p>
            <img src='./assets/img/instructions/pressUp.jpg' class='instructions-image'>","","instructions","","","","","","","","","","","","","",""
"revaluation","12","139422","0.0-3.0-2.0-0.0","spark_pilot_2","7774","6","7","Female","","false","","","","","[1357.5]","./assets/img/space/0.jpg","[""ArrowUp""]","first stage practice","space","0","null","null","ArrowUp","false","","","","","","","",""
"html-keyboard-response","13","139925","0.0-3.0-2.0-1.0","spark_pilot_2","7774","6","7","Female","","","","","","","null","<div style=""font-size:60px;"">+</div>","null","fixation","","","","","","","","","","","","","",""
"revaluation","14","143934","0.0-3.0-2.0-0.1","spark_pilot_2","7774","6","7","Female","","false","","","","","[1874.2000000029802]","./assets/img/space/1.jpg","[""ArrowUp""]","first stage practice","space","0","null","null","ArrowUp","false","","","","","","","",""
"html-keyboard-response","15","144439","0.0-3.0-2.0-1.1","spark_pilot_2","7774","6","7","Female","","","","","","","null","<div style=""font-size:60px;"">+</div>","null","fixation","","","","","","","","","","","","","",""
"revaluation","16","148453","0.0-3.0-2.0-0.2","spark_pilot_2","7774","6","7","Female","","false","","","","","[892.9000000059605]","./assets/img/space/2.jpg","[""ArrowUp""]","first stage practice","space","0","null","null","ArrowUp","false","","","","","","","",""
"html-keyboard-response","17","148954","0.0-3.0-2.0-1.2","spark_pilot_2","7774","6","7","Female","","","","","","","null","<div style=""font-size:60px;"">+</div>","null","fixation","","","","","","","","","","","","","",""
"learning-instructions","18","158954","0.0-3.0-3.0-0.0","spark_pilot_2","7774","6","7","Female","","","","","","[{""event"":""blur"",""trial"":2,""time"":19132},{""event"":""fullscreenenter"",""trial"":2,""time"":19173},{""event"":""focus"",""trial"":3,""time"":22639},{""event"":""blur"",""trial"":4,""time"":47031},{""event"":""focus"",""trial"":5,""time"":49839},{""event"":""blur"",""trial"":7,""time"":88625},{""event"":""focus"",""trial"":8,""time"":90182},{""event"":""blur"",""trial"":19,""time"":159004},{""event"":""focus"",""trial"":19,""time"":162847},{""event"":""blur"",""trial"":453,""time"":1906843},{""event"":""focus"",""trial"":454,""time"":1908316}]","5288.699999988079","<p> Great job! Now try pressing the <b>down</b> key to travel down. </p>
            <img src='./assets/img/instructions/pressDown.jpg' class='instructions-image'>","","instructions","","","","","","","","","","","","","",""
"revaluation","19","162959","0.0-3.0-4.0-0.0","spark_pilot_2","7774","6","7","Female","","true","","","","","[]","./assets/img/space/3.jpg","[]","first stage practice","space","-5","null","null","","false","","","","","","","",""
"html-keyboard-response","20","163468","0.0-3.0-4.0-1.0","spark_pilot_2","7774","6","7","Female","","","","","","","null","<div style=""font-size:60px;"">+</div>","null","fixation","","","","","","","","","","","","","",""
"revaluation","21","167485","0.0-3.0-4.0-0.1","spark_pilot_2","7774","6","7","Female","","false","","","","","[908.5999999940395]","./assets/img/space/4.jpg","[""ArrowDown""]","first stage practice","space","0","null","null","ArrowDown","false","","","","","","","",""
"html-keyboard-response","22","167990","0.0-3.0-4.0-1.1","spark_pilot_2","7774","6","7","Female","","","","","","","null","<div style=""font-size:60px;"">+</div>","null","fixation","","","","","","","","","","","","","",""
"revaluation","23","172003","0.0-3.0-4.0-0.2","spark_pilot_2","7774","6","7","Female","","false","","","","","[716.2999999970198]","./assets/img/space/5.jpg","[""ArrowDown""]","first stage practice","space","0","null","null","ArrowDown","false","","","","","","","",""
"html-keyboard-response","24","172512","0.0-3.0-4.0-1.2","spark_pilot_2","7774","6","7","Female","","","","","","","null","<div style=""font-size:60px;"">+</div>","null","fixation","","","","","","","","","","","","","",""
"learning-instructions","25","188445","0.0-3.0-5.0-0.0","spark_pilot_2","7774","6","7","Female","","","","","","","6064","<p> The animals don’t move, so the animal in the upper part of a place will stay in the upper part of a place, and the animal in the lower part of a place will stay in the lower part of a place. </p>","","instructions","","","","","","","","","","","","","",""
"learning-instructions","26","199173","0.0-3.0-5.0-0.1","spark_pilot_2","7774","6","7","Female","","","","","","","1582.7000000029802","<p> Each animal has two treasure chests for you to choose from. </p>
            <p> The amount of treasure in each chest can range from <b> 0 to 40 pieces.</b></p>","","instructions","","","","","","","","","","","","","",""
"learning-instructions","27","215013","0.0-3.0-5.0-0.2","spark_pilot_2","7774","6","7","Female","","","","","","","4640.100000008941","<p> You should decide which chest to search for treasure by using the <b>left</b> and <b>right</b> arrow keys. </p>
            <p><b> Pay attention to which animal is on the screen, as the animals have different treasure chests. </b></p>
            <img src='./assets/img/instructions/leftright.jpg' class='instructions-image'>","","instructions","","","","","","","","","","","","","",""
"learning-instructions","28","222695","0.0-3.0-5.0-0.3","spark_pilot_2","7774","6","7","Female","","","","","","","1305","<p> Let’s try practicing that now. </p>
            <p> When you see an animal, choose which chest to search for treasure. </p>
            <img src='./assets/img/instructions/chooseChest.jpg' class='instructions-image'>","","instructions","","","","","","","","","","","","","",""
"revaluation","29","226705","0.0-3.0-6.0-0.0","spark_pilot_2","7774","6","7","Female","","false","","","","","[1102.7999999970198]","./assets/img/space/animals/cat.jpg","[""ArrowRight""]","second stage practice","space","36","{""ArrowUp,ArrowLeft"":3,""ArrowUp,ArrowRight"":36,""ArrowDown,ArrowLeft"":15,""ArrowDown,ArrowRight"":23}","true","ArrowUp,ArrowRight","","","","","","","","",""
"html-keyboard-response","30","227211","0.0-3.0-6.0-1.0","spark_pilot_2","7774","6","7","Female","","","","","","","null","<div style=""font-size:60px;"">+</div>","null","fixation","","","","","","","","","","","","","",""
"revaluation","31","231220","0.0-3.0-6.0-0.1","spark_pilot_2","7774","6","7","Female","","false","","","","","[867]","./assets/img/space/animals/rabbit.jpg","[""ArrowLeft""]","second stage practice","space","15","{""ArrowUp,ArrowLeft"":3,""ArrowUp,ArrowRight"":36,""ArrowDown,ArrowLeft"":15,""ArrowDown,ArrowRight"":23}","false","ArrowDown,ArrowLeft","","","","","","","","",""
"html-keyboard-response","32","231725","0.0-3.0-6.0-1.1","spark_pilot_2","7774","6","7","Female","","","","","","","null","<div style=""font-size:60px;"">+</div>","null","fixation","","","","","","","","","","","","","",""
"revaluation","33","235733","0.0-3.0-6.0-0.2","spark_pilot_2","7774","6","7","Female","","true","","","","","[]","./assets/img/space/animals/cat.jpg","[]","second stage practice","space","-5","{""ArrowUp,ArrowLeft"":3,""ArrowUp,ArrowRight"":36,""ArrowDown,ArrowLeft"":15,""ArrowDown,ArrowRight"":23}","false","ArrowUp","","","","","","","","",""
"html-keyboard-response","34","236244","0.0-3.0-6.0-1.2","spark_pilot_2","7774","6","7","Female","","","","","","","null","<div style=""font-size:60px;"">+</div>","null","fixation","","","","","","","","","","","","","",""
"revaluation","35","240261","0.0-3.0-6.0-0.3","spark_pilot_2","7774","6","7","Female","","false","","","","","[755.5]","./assets/img/space/animals/rabbit.jpg","[""ArrowLeft""]","second stage practice","space","15","{""ArrowUp,ArrowLeft"":3,""ArrowUp,ArrowRight"":36,""ArrowDown,ArrowLeft"":15,""ArrowDown,ArrowRight"":23}","false","ArrowDown,ArrowLeft","","","","","","","","",""
"html-keyboard-response","36","240767","0.0-3.0-6.0-1.3","spark_pilot_2","7774","6","7","Female","","","","","","","null","<div style=""font-size:60px;"">+</div>","null","fixation","","","","","","","","","","","","","",""
"learning-instructions","37","261362","0.0-3.0-7.0-0.0","spark_pilot_2","7774","6","7","Female","","","","","","","3755.7999999970198","<p> Great job. Now let’s try putting it together. </p>
            <p> On each turn, you will first see a picture to remind you of the place you are in, and you need to choose whether to go up or down. </p>
            <p> Then you will see an animal and choose which of its chests to search for treasure. </p>","","instructions","","","","","","","","","","","","","",""
"learning-instructions","38","271511","0.0-3.0-7.0-0.1","spark_pilot_2","7774","6","7","Female","","","","","","","1878","<p> When you choose whether to go up or down, try to go to the animal with the chest with the most treasure. </p>
            <p> Try practicing that now! </p>","","instructions","","","","","","","","","","","","","",""
"revaluation","39","277530","0.0-3.0-8.0-0.0","spark_pilot_2","7774","6","7","Female","","false","","","","","[755.1000000089407,1465.2999999970198]","./assets/img/space/6.jpg","[""ArrowUp"",""ArrowLeft""]","full practice","space","3","{""ArrowUp,ArrowLeft"":3,""ArrowUp,ArrowRight"":36,""ArrowDown,ArrowLeft"":15,""ArrowDown,ArrowRight"":23}","false","ArrowUp,ArrowLeft","false","","","","","","","",""
"html-keyboard-response","40","278033","0.0-3.0-8.0-1.0","spark_pilot_2","7774","6","7","Female","","","","","","","null","<div style=""font-size:60px;"">+</div>","null","fixation","","","","","","","","","","","","","",""
"revaluation","41","284050","0.0-3.0-8.0-0.1","spark_pilot_2","7774","6","7","Female","","false","","","","","[1772.2000000029802,1039.7000000029802]","./assets/img/space/7.jpg","[""ArrowDown"",""ArrowRight""]","full practice","space","23","{""ArrowUp,ArrowLeft"":3,""ArrowUp,ArrowRight"":36,""ArrowDown,ArrowLeft"":15,""ArrowDown,ArrowRight"":23}","false","ArrowDown,ArrowRight","false","","","","","","","",""
"html-keyboard-response","42","284558","0.0-3.0-8.0-1.1","spark_pilot_2","7774","6","7","Female","","","","","","","null","<div style=""font-size:60px;"">+</div>","null","fixation","","","","","","","","","","","","","",""
"revaluation","43","290570","0.0-3.0-8.0-0.2","spark_pilot_2","7774","6","7","Female","","false","","","","","[1482.3999999910593,1431.5999999940395]","./assets/img/space/8.jpg","[""ArrowUp"",""ArrowRight""]","full practice","space","36","{""ArrowUp,ArrowLeft"":3,""ArrowUp,ArrowRight"":36,""ArrowDown,ArrowLeft"":15,""ArrowDown,ArrowRight"":23}","true","ArrowUp,ArrowRight","false","","","","","","","",""
"html-keyboard-response","44","291074","0.0-3.0-8.0-1.2","spark_pilot_2","7774","6","7","Female","","","","","","","null","<div style=""font-size:60px;"">+</div>","null","fixation","","","","","","","","","","","","","",""
"revaluation","45","297084","0.0-3.0-8.0-0.3","spark_pilot_2","7774","6","7","Female","","false","","","","","[1263.9000000059605,1294.9000000059605]","./assets/img/space/9.jpg","[""ArrowUp"",""ArrowLeft""]","full practice","space","3","{""ArrowUp,ArrowLeft"":3,""ArrowUp,ArrowRight"":36,""ArrowDown,ArrowLeft"":15,""ArrowDown,ArrowRight"":23}","false","ArrowUp,ArrowLeft","false","","","","","","","",""
"html-keyboard-response","46","297590","0.0-3.0-8.0-1.3","spark_pilot_2","7774","6","7","Female","","","","","","","null","<div style=""font-size:60px;"">+</div>","null","fixation","","","","","","","","","","","","","",""
"revaluation","47","303599","0.0-3.0-8.0-0.4","spark_pilot_2","7774","6","7","Female","","false","","","","","[779.5,1707.5]","./assets/img/space/10.jpg","[""ArrowDown"",""ArrowRight""]","full practice","space","23","{""ArrowUp,ArrowLeft"":3,""ArrowUp,ArrowRight"":36,""ArrowDown,ArrowLeft"":15,""ArrowDown,ArrowRight"":23}","false","ArrowDown,ArrowRight","false","","","","","","","",""
"html-keyboard-response","48","304108","0.0-3.0-8.0-1.4","spark_pilot_2","7774","6","7","Female","","","","","","","null","<div style=""font-size:60px;"">+</div>","null","fixation","","","","","","","","","","","","","",""
"learning-instructions","49","320232","0.0-3.0-9.0-0.0","spark_pilot_2","7774","6","7","Female","","","","","","","5685.899999991059","<p> One last thing: sometimes, you will see a robber. The robber can be anywhere in the picture. </p>
            <p> If you do not stop them, you will lose treasure. </p>
            <img src='./assets/img/instructions/robber.jpg' class='instructions-image'>","","instructions","","","","","","","","","","","","","",""
"learning-instructions","50","329481","0.0-3.0-9.0-0.1","spark_pilot_2","7774","6","7","Female","","","","","","","1973.1000000089407","<p> If you see the robber, you should <b>press the space bar</b> rather than using the arrow keys. </p>
            <p> Try practicing that now! </p>","","instructions","","","","","","","","","","","","","",""
"revaluation","51","333493","0.0-3.0-10.0-0.0","spark_pilot_2","7774","6","7","Female","","false","","","","","[1083.5]","./assets/img/space/catch/0.jpg","[""spaceBar""]","catch practice","space","0","{""ArrowUp,ArrowLeft"":3,""ArrowUp,ArrowRight"":36,""ArrowDown,ArrowLeft"":15,""ArrowDown,ArrowRight"":23}","true","spaceBar","true","","","","","","","",""
"html-keyboard-response","52","334000","0.0-3.0-10.0-1.0","spark_pilot_2","7774","6","7","Female","","","","","","","null","<div style=""font-size:60px;"">+</div>","null","fixation","","","","","","","","","","","","","",""
"revaluation","53","338003","0.0-3.0-10.0-0.1","spark_pilot_2","7774","6","7","Female","","false","","","","","[644.5]","./assets/img/space/catch/1.jpg","[""spaceBar""]","catch practice","space","0","{""ArrowUp,ArrowLeft"":3,""ArrowUp,ArrowRight"":36,""ArrowDown,ArrowLeft"":15,""ArrowDown,ArrowRight"":23}","true","spaceBar","true","","","","","","","",""
"html-keyboard-response","54","338508","0.0-3.0-10.0-1.1","spark_pilot_2","7774","6","7","Female","","","","","","","null","<div style=""font-size:60px;"">+</div>","null","fixation","","","","","","","","","","","","","",""
"revaluation","55","342519","0.0-3.0-10.0-0.2","spark_pilot_2","7774","6","7","Female","","false","","","","","[495.6000000089407]","./assets/img/space/catch/2.jpg","[""spaceBar""]","catch practice","space","0","{""ArrowUp,ArrowLeft"":3,""ArrowUp,ArrowRight"":36,""ArrowDown,ArrowLeft"":15,""ArrowDown,ArrowRight"":23}","true","spaceBar","true","","","","","","","",""
"html-keyboard-response","56","343028","0.0-3.0-10.0-1.2","spark_pilot_2","7774","6","7","Female","","","","","","","null","<div style=""font-size:60px;"">+</div>","null","fixation","","","","","","","","","","","","","",""
"learning-instructions","57","360968","0.0-3.0-11.0-0.0","spark_pilot_2","7774","6","7","Female","","","","","","","4324.29999999702","<p> After you explore a place to find treasure, it will be time to play a different game. </p>
            <p> During this game, red dots will appear on the screen and fall down slowly. </p>
            <p><b> You must click on them before they reach the bottom. </b></p>
            <img src='./assets/img/instructions/dotGame.jpg' class='instructions-image'>","","instructions","","","","","","","","","","","","","",""
"learning-instructions","58","368591","0.0-3.0-11.0-0.1","spark_pilot_2","7774","6","7","Female","","","","","","","1940.0999999940395","<p> For every dot you click, you will earn additional treasure. </p>
            <p> Let’s try practicing that now. </p>","","instructions","","","","","","","","","","","","","",""
"revaluation","59","383603","0.0-3.0-12.0-0.0","spark_pilot_2","7774","6","7","Female","","","","","","","[131]","","","rest practice","","10","","","","","0","15000","","","","","",""
"learning-instructions","60","392546","0.0-3.0-13.0-0.0-0.0","spark_pilot_2","7774","6","7","Female","","","","","","","3708.2999999970198","<p> Now, you will practice a shortened version of the game to get a sense of how it all fits together. </p>","","instructions","","","","","","","","","","","","","",""
"learning-instructions","61","398557","0.0-3.0-13.0-0.0-0.1","spark_pilot_2","7774","6","7","Female","","","","","","","2816.7000000029802","<p>This time you are searching for treasure in outer space.</p>","","instructions","","","","","","","","","","","","","",""
"learning-instructions","62","415810","0.0-3.0-13.0-1.0-0.0","spark_pilot_2","7774","6","7","Female","","","","","","","2458.2999999970198","<p> Remember, when you see a picture of the place, use the up and down keys to <b>find an animal</b>.</p>
            <p> When you encounter an animal, you should use the left and right keys to <b>select a treasure chest</b>.</p>
            <p> Don't forget to look out for the robber! </p>","","instructions","","","","","","","","","","","","","",""
"revaluation","63","421820","0.0-3.0-13.0-2.0-0.0","spark_pilot_2","7774","6","7","Female","","false","","","","","[1318.9000000059605,1388.5]","./assets/img/space/11.jpg","[""ArrowUp"",""ArrowRight""]","practice block","space","36","{""ArrowUp,ArrowLeft"":3,""ArrowUp,ArrowRight"":36,""ArrowDown,ArrowLeft"":15,""ArrowDown,ArrowRight"":23}","true","ArrowUp,ArrowRight","false","","","","","","","",""
"html-keyboard-response","64","422323","0.0-3.0-13.0-2.0-1.0","spark_pilot_2","7774","6","7","Female","","","","","","","null","<div style=""font-size:60px;"">+</div>","null","fixation","","","","","","","","","","","","","",""
"revaluation","65","428351","0.0-3.0-13.0-2.0-0.1","spark_pilot_2","7774","6","7","Female","","false","","","","","[720.7999999970198,696]","./assets/img/space/12.jpg","[""ArrowDown"",""ArrowRight""]","practice block","space","23","{""ArrowUp,ArrowLeft"":3,""ArrowUp,ArrowRight"":36,""ArrowDown,ArrowLeft"":15,""ArrowDown,ArrowRight"":23}","false","ArrowDown,ArrowRight","false","","","","","","","",""
"html-keyboard-response","66","428853","0.0-3.0-13.0-2.0-1.1","spark_pilot_2","7774","6","7","Female","","","","","","","null","<div style=""font-size:60px;"">+</div>","null","fixation","","","","","","","","","","","","","",""
"revaluation","67","434870","0.0-3.0-13.0-2.0-0.2","spark_pilot_2","7774","6","7","Female","","false","","","","","[713.5,480.20000000298023]","./assets/img/space/13.jpg","[""ArrowUp"",""ArrowRight""]","practice block","space","36","{""ArrowUp,ArrowLeft"":3,""ArrowUp,ArrowRight"":36,""ArrowDown,ArrowLeft"":15,""ArrowDown,ArrowRight"":23}","true","ArrowUp,ArrowRight","false","","","","","","","",""
"html-keyboard-response","68","435382","0.0-3.0-13.0-2.0-1.2","spark_pilot_2","7774","6","7","Female","","","","","","","null","<div style=""font-size:60px;"">+</div>","null","fixation","","","","","","","","","","","","","",""
"revaluation","69","441396","0.0-3.0-13.0-2.0-0.3","spark_pilot_2","7774","6","7","Female","","false","","","","","[1069.7999999970198,515.7000000029802]","./assets/img/space/14.jpg","[""ArrowUp"",""ArrowRight""]","practice block","space","36","{""ArrowUp,ArrowLeft"":3,""ArrowUp,ArrowRight"":36,""ArrowDown,ArrowLeft"":15,""ArrowDown,ArrowRight"":23}","true","ArrowUp,ArrowRight","false","","","","","","","",""
"html-keyboard-response","70","441901","0.0-3.0-13.0-2.0-1.3","spark_pilot_2","7774","6","7","Female","","","","","","","null","<div style=""font-size:60px;"">+</div>","null","fixation","","","","","","","","","","","","","",""
"revaluation","71","447923","0.0-3.0-13.0-2.0-0.4","spark_pilot_2","7774","6","7","Female","","false","","","","","[501.40000000596046,752.9000000059605]","./assets/img/space/11.jpg","[""ArrowDown"",""ArrowRight""]","practice block","space","23","{""ArrowUp,ArrowLeft"":3,""ArrowUp,ArrowRight"":36,""ArrowDown,ArrowLeft"":15,""ArrowDown,ArrowRight"":23}","false","ArrowDown,ArrowRight","false","","","","","","","",""
"html-keyboard-response","72","448426","0.0-3.0-13.0-2.0-1.4","spark_pilot_2","7774","6","7","Female","","","","","","","null","<div style=""font-size:60px;"">+</div>","null","fixation","","","","","","","","","","","","","",""
"revaluation","73","452443","0.0-3.0-13.0-2.0-0.5","spark_pilot_2","7774","6","7","Female","","true","","","","","[]","./assets/img/space/12.jpg","[]","practice block","space","-5","{""ArrowUp,ArrowLeft"":3,""ArrowUp,ArrowRight"":36,""ArrowDown,ArrowLeft"":15,""ArrowDown,ArrowRight"":23}","false","","false","","","","","","","",""
"html-keyboard-response","74","452948","0.0-3.0-13.0-2.0-1.5","spark_pilot_2","7774","6","7","Female","","","","","","","null","<div style=""font-size:60px;"">+</div>","null","fixation","","","","","","","","","","","","","",""
"revaluation","75","458953","0.0-3.0-13.0-2.0-0.6","spark_pilot_2","7774","6","7","Female","","false","","","","","[520.1000000089407,603.2999999970198]","./assets/img/space/13.jpg","[""ArrowUp"",""ArrowRight""]","practice block","space","36","{""ArrowUp,ArrowLeft"":3,""ArrowUp,ArrowRight"":36,""ArrowDown,ArrowLeft"":15,""ArrowDown,ArrowRight"":23}","true","ArrowUp,ArrowRight","false","","","","","","","",""
"html-keyboard-response","76","459463","0.0-3.0-13.0-2.0-1.6","spark_pilot_2","7774","6","7","Female","","","","","","","null","<div style=""font-size:60px;"">+</div>","null","fixation","","","","","","","","","","","","","",""
"revaluation","77","465483","0.0-3.0-13.0-2.0-0.7","spark_pilot_2","7774","6","7","Female","","false","","","","","[1570.2999999970198,959.7999999970198]","./assets/img/space/14.jpg","[""ArrowUp"",""ArrowRight""]","practice block","space","36","{""ArrowUp,ArrowLeft"":3,""ArrowUp,ArrowRight"":36,""ArrowDown,ArrowLeft"":15,""ArrowDown,ArrowRight"":23}","true","ArrowUp,ArrowRight","false","","","","","","","",""
"html-keyboard-response","78","465987","0.0-3.0-13.0-2.0-1.7","spark_pilot_2","7774","6","7","Female","","","","","","","null","<div style=""font-size:60px;"">+</div>","null","fixation","","","","","","","","","","","","","",""
"revaluation","79","470003","0.0-3.0-13.0-2.0-0.8","spark_pilot_2","7774","6","7","Female","","false","","","","","[737.7999999970198]","./assets/img/space/catch/3.jpg","[""ArrowDown""]","practice block","space","-10","{""ArrowUp,ArrowLeft"":3,""ArrowUp,ArrowRight"":36,""ArrowDown,ArrowLeft"":15,""ArrowDown,ArrowRight"":23}","false","ArrowDown","true","","","","","","","",""
"html-keyboard-response","80","470507","0.0-3.0-13.0-2.0-1.8","spark_pilot_2","7774","6","7","Female","","","","","","","null","<div style=""font-size:60px;"">+</div>","null","fixation","","","","","","","","","","","","","",""
"learning-instructions","81","486600","0.0-3.0-13.0-3.0-0.0","spark_pilot_2","7774","6","7","Female","","","","","","","3103.3999999910593","<p> Now, you will travel with a friend who will choose whether you go up or down first. </p>
            <p> On these turns, you will just see the animal that they found. You will still get to choose which chest to search for treasure.</p>","","instructions","","","","","","","","","","","","","",""
"revaluation","82","490614","0.0-3.0-13.0-4.0-0.0","spark_pilot_2","7774","6","7","Female","","false","","","","","[1980.699999988079]","./assets/img/space/animals/cat.jpg","[""ArrowRight""]","practice block","space","36","{""ArrowUp,ArrowLeft"":3,""ArrowUp,ArrowRight"":36,""ArrowDown,ArrowLeft"":15,""ArrowDown,ArrowRight"":23}","true","ArrowUp,ArrowRight","","","","","","","","",""
"html-keyboard-response","83","491115","0.0-3.0-13.0-4.0-1.0","spark_pilot_2","7774","6","7","Female","","","","","","","null","<div style=""font-size:60px;"">+</div>","null","fixation","","","","","","","","","","","","","",""
"revaluation","84","495121","0.0-3.0-13.0-4.0-0.1","spark_pilot_2","7774","6","7","Female","","false","","","","","[828.4000000059605]","./assets/img/space/animals/cat.jpg","[""ArrowRight""]","practice block","space","36","{""ArrowUp,ArrowLeft"":3,""ArrowUp,ArrowRight"":36,""ArrowDown,ArrowLeft"":15,""ArrowDown,ArrowRight"":23}","true","ArrowUp,ArrowRight","","","","","","","","",""
"html-keyboard-response","85","495628","0.0-3.0-13.0-4.0-1.1","spark_pilot_2","7774","6","7","Female","","","","","","","null","<div style=""font-size:60px;"">+</div>","null","fixation","","","","","","","","","","","","","",""
"revaluation","86","499644","0.0-3.0-13.0-4.0-0.2","spark_pilot_2","7774","6","7","Female","","false","","","","","[565.7000000029802]","./assets/img/space/animals/rabbit.jpg","[""ArrowRight""]","practice block","space","23","{""ArrowUp,ArrowLeft"":3,""ArrowUp,ArrowRight"":36,""ArrowDown,ArrowLeft"":15,""ArrowDown,ArrowRight"":23}","true","ArrowDown,ArrowRight","","","","","","","","",""
"html-keyboard-response","87","500148","0.0-3.0-13.0-4.0-1.2","spark_pilot_2","7774","6","7","Female","","","","","","","null","<div style=""font-size:60px;"">+</div>","null","fixation","","","","","","","","","","","","","",""
"revaluation","88","504154","0.0-3.0-13.0-4.0-0.3","spark_pilot_2","7774","6","7","Female","","false","","","","","[494.59999999403954]","./assets/img/space/animals/rabbit.jpg","[""ArrowRight""]","practice block","space","23","{""ArrowUp,ArrowLeft"":3,""ArrowUp,ArrowRight"":36,""ArrowDown,ArrowLeft"":15,""ArrowDown,ArrowRight"":23}","true","ArrowDown,ArrowRight","","","","","","","","",""
"html-keyboard-response","89","504664","0.0-3.0-13.0-4.0-1.3","spark_pilot_2","7774","6","7","Female","","","","","","","null","<div style=""font-size:60px;"">+</div>","null","fixation","","","","","","","","","","","","","",""
"learning-instructions","90","518600","0.0-3.0-13.0-5.0-0.0","spark_pilot_2","7774","6","7","Female","","","","","","","6554.20000000298","<p> Time to play the dot game! </p>
            <p> For 15 seconds, click the red dots on the following screen as they appear. </p>","","instructions","","","","","","","","","","","","","",""
"revaluation","91","533605","0.0-3.0-13.0-6.0-0.0","spark_pilot_2","7774","6","7","Female","","","","","","","[235]","","","rest practice","","10","","","","","0","15000","","","","","",""
"learning-instructions","92","546651","0.0-3.0-13.0-7.0-0.0","spark_pilot_2","7774","6","7","Female","","","","","","","6916.0999999940395","<p> You have almost finished this part of the game! </p>
            <p> We are going to ask you to make a few more choices. </p>","","instructions","","","","","","","","","","","","","",""
"learning-instructions","93","562747","0.0-3.0-13.0-7.0-0.1","spark_pilot_2","7774","6","7","Female","","","","","","","2061.800000011921","<p> First, you need to decide whether to go up or down. When you see each picture, use the arrow keys to make your choice. </p>
            <p><b>You will not see which animal you found, but try to get to the one that will give you the most treasure.</b></p>","","instructions","","","","","","","","","","","","","",""
"revaluation","94","564322","0.0-3.0-13.0-8.0","spark_pilot_2","7774","6","7","Female","","false","","","","","[1572.7999999970198]","./assets/img/space/15.jpg","[""ArrowUp""]","practice block","space","0","{""ArrowUp,ArrowLeft"":3,""ArrowUp,ArrowRight"":36,""ArrowDown,ArrowLeft"":15,""ArrowDown,ArrowRight"":23}","true","ArrowUp","false","","","","","","","",""
"html-keyboard-response","95","564830","0.0-3.0-13.0-9.0","spark_pilot_2","7774","6","7","Female","","","","","","","null","<div style=""font-size:60px;"">+</div>","null","fixation","","","","","","","","","","","","","",""
"learning-instructions","96","579604","0.0-3.0-13.0-10.0-0.0","spark_pilot_2","7774","6","7","Female","","","","","","","3384","<p> Now you will see the animals again and can search their chests for treasure. </p>
            <p> This time, you will not see how much treasure you earned, but you will earn more bonus money for making better choices. </p>","","instructions","","","","","","","","","","","","","",""
"revaluation","97","581438","0.0-3.0-13.0-11.0-0.0","spark_pilot_2","7774","6","7","Female","","false","","","","","[1833]","./assets/img/space/animals/cat.jpg","[""ArrowRight""]","practice block","space","0","{""ArrowUp,ArrowLeft"":3,""ArrowUp,ArrowRight"":36,""ArrowDown,ArrowLeft"":15,""ArrowDown,ArrowRight"":23}","true","ArrowUp,ArrowRight","","","","","","","","",""
"html-keyboard-response","98","581941","0.0-3.0-13.0-11.0-1.0","spark_pilot_2","7774","6","7","Female","","","","","","","null","<div style=""font-size:60px;"">+</div>","null","fixation","","","","","","","","","","","","","",""
"revaluation","99","582870","0.0-3.0-13.0-11.0-0.1","spark_pilot_2","7774","6","7","Female","","false","","","","","[927.5]","./assets/img/space/animals/rabbit.jpg","[""ArrowRight""]","practice block","space","0","{""ArrowUp,ArrowLeft"":3,""ArrowUp,ArrowRight"":36,""ArrowDown,ArrowLeft"":15,""ArrowDown,ArrowRight"":23}","true","ArrowDown,ArrowRight","","","","","","","","",""
"html-keyboard-response","100","583377","0.0-3.0-13.0-11.0-1.1","spark_pilot_2","7774","6","7","Female","","","","","","","null","<div style=""font-size:60px;"">+</div>","null","fixation","","","","","","","","","","","","","",""
"learning-instructions","101","593956","0.0-3.0-14.0-0.0","spark_pilot_2","7774","6","7","Female","","","","","","","5992.70000000298","<p> Before you start, we're going to ask you a few questions about how the game works. </p>","","instructions","","","","","","","","","","","","","",""
"comp-q","102","603270","0.0-3.0-15.0-0.0-0.0","spark_pilot_2","7774","6","7","Female","","","","","","","3722.2999999970198","<p> <b> True or False? </b> </p>
            <p> There can be 50 pieces of treasure in a given animal's chest. </p>","1","comp_question","","","","true","","","","","","","","","",""
"comp-q","103","615081","0.0-3.0-15.0-0.0-1.0","spark_pilot_2","7774","6","7","Female","","","","","","","5145.5999999940395","<p> <b> That's right! </b> The amount of treasure in each chest can range from 0 to 40 pieces. </p>","0","comp_answer","","","","","","","","","","","","","",""
"comp-q","104","625463","0.0-3.0-15.0-0.1-0.1","spark_pilot_2","7774","6","7","Female","","","","","","","3180.0999999940395","<p> <b> True or False? </b> </p><p> In this game, all animals have the same amount of treasure in their left and right chests. </p>","1","comp_question","","","","true","","","","","","","","","",""
"comp-q","105","636994","0.0-3.0-15.0-0.1-1.1","spark_pilot_2","7774","6","7","Female","","","","","","","6293.9000000059605","<p> <b> That's right! </b> Animals have different amounts of treasure in their treasure chests. </p>","0","comp_answer","","","","","","","","","","","","","",""
"comp-q","106","645750","0.0-3.0-15.0-0.2-0.2","spark_pilot_2","7774","6","7","Female","","","","","","","2906.0999999940395","<p> <b> True or False? </b> </p><p> The same animal will always be there if you go up in the same place. </p>","0","comp_question","","","","true","","","","","","","","","",""
"comp-q","107","656943","0.0-3.0-15.0-0.2-1.2","spark_pilot_2","7774","6","7","Female","","","","","","","4741.20000000298","<p> <b> That's right! </b> One animal lives in the upper part and one lives in the lower part of every place. </p>","0","comp_answer","","","","","","","","","","","","","",""
"comp-q","108","665032","0.0-3.0-15.0-0.3-0.3","spark_pilot_2","7774","6","7","Female","","","","","","","2555.800000011921","<p> <b> True or False? </b> </p><p> If you see a different picture, it means you are in a new place. </p>","0","comp_question","","","","false","","","","","","","","","",""
"comp-q","109","677842","0.0-3.0-15.0-0.3-1.3","spark_pilot_2","7774","6","7","Female","","","","","","","1695.2000000029802","<p> <b>Incorrect.</b> Lots of different images may show the same place. For example,  you may see three different images that all remind you that you are in outer space. </p>","0","comp_answer","","","","","","","","","","","","","",""
"comp-q","110","684524","0.0-3.0-15.0-0.4-0.4","spark_pilot_2","7774","6","7","Female","","","","","","","1179","<p> <b> True or False? </b> </p><p> If you see a different picture, it means you are in a new place. </p>","1","comp_question","","","","true","","","","","","","","","",""
"comp-q","111","697974","0.0-3.0-15.0-0.4-1.4","spark_pilot_2","7774","6","7","Female","","","","","","","2205.9000000059605","<p> <b> That's right! </b> Lots of different images may show the same place. For example,  you may see three different images that all remind you that you are in outer space. </p>","0","comp_answer","","","","","","","","","","","","","",""
"learning-instructions","112","712386","0.0-3.0-16.0-0.0","spark_pilot_2","7774","6","7","Female","","","","","","","4544.4000000059605","<p> Good job. Remember to do your best because the amount of treasure you earn will be converted into bonus money. </p>
            <p> It’s time to start the real game! </p>","","instructions","","","","","","","","","","","","","",""
"learning-instructions","113","716777","0.0-4.0-0.0-0.0","spark_pilot_2","7774","6","7","Female","","","","","","","1620.7999999970198","<p> This time you are searching for treasure in the <b>canyon</b>.</p>","","instructions","","","","","","","","","","","","","",""
"learning-instructions","114","736350","0.0-4.0-0.0-0.1","spark_pilot_2","7774","6","7","Female","","","","","","","2252.0999999940395","<p><b>New</b> animals with <b>new</b> treasure chests live here. You need to explore to discover where the animal with the best treasure chest is.</p>
                    <p> Like before, once you figure out which animal has the chest with the most treasure, you should try to get to that animal and select that chest! </p>","","instructions","","","","","","","","","","","","","",""
"learning-instructions","115","753838","0.0-4.0-1.0-0.0","spark_pilot_2","7774","6","7","Female","","","","","","","2754.1000000089407","<p> Remember, when you see a picture of the place, use the up and down keys to <b>find an animal</b>.</p>
            <p> When you encounter an animal, you should use the left and right keys to <b>select a treasure chest</b>.</p>
            <p> Don't forget to look out for the robber! </p>","","instructions","","","","","","","","","","","","","",""
"revaluation","116","759855","0.0-4.0-2.0-0.0","spark_pilot_2","7774","6","7","Female","","false","","","","","[1374.8999999910593,1241.7999999970198]","./assets/img/canyon/memory/9.jpg","[""ArrowUp"",""ArrowRight""]","value training","canyon","10","{""ArrowUp,ArrowLeft"":23,""ArrowUp,ArrowRight"":10,""ArrowDown,ArrowLeft"":8,""ArrowDown,ArrowRight"":30}","false","ArrowUp,ArrowRight","false","","","revaluation","1","0","","",""
"html-keyboard-response","117","760366","0.0-4.0-2.0-1.0","spark_pilot_2","7774","6","7","Female","","","","","","","null","<div style=""font-size:60px;"">+</div>","null","fixation","","","","","","","","","","","1","","",""
"revaluation","118","764379","0.0-4.0-2.0-0.1","spark_pilot_2","7774","6","7","Female","","false","","","","","[564.7999999970198]","./assets/img/canyon/catch/7.jpg","[""ArrowUp""]","value training","canyon","-10","{""ArrowUp,ArrowLeft"":23,""ArrowUp,ArrowRight"":10,""ArrowDown,ArrowLeft"":8,""ArrowDown,ArrowRight"":30}","false","ArrowUp","true","","","revaluation","1","2","","",""
"html-keyboard-response","119","764886","0.0-4.0-2.0-1.1","spark_pilot_2","7774","6","7","Female","","","","","","","null","<div style=""font-size:60px;"">+</div>","null","fixation","","","","","","","","","","","3","","",""
"revaluation","120","768900","0.0-4.0-2.0-0.2","spark_pilot_2","7774","6","7","Female","","true","","","","","[]","./assets/img/canyon/memory/15.jpg","[]","value training","canyon","-5","{""ArrowUp,ArrowLeft"":23,""ArrowUp,ArrowRight"":10,""ArrowDown,ArrowLeft"":8,""ArrowDown,ArrowRight"":30}","false","","false","","","revaluation","1","4","","",""
"html-keyboard-response","121","769409","0.0-4.0-2.0-1.2","spark_pilot_2","7774","6","7","Female","","","","","","","null","<div style=""font-size:60px;"">+</div>","null","fixation","","","","","","","","","","","5","","",""
"revaluation","122","775435","0.0-4.0-2.0-0.3","spark_pilot_2","7774","6","7","Female","","false","","","","","[1372.800000011921,1786.1000000089407]","./assets/img/canyon/memory/7.jpg","[""ArrowUp"",""ArrowLeft""]","value training","canyon","23","{""ArrowUp,ArrowLeft"":23,""ArrowUp,ArrowRight"":10,""ArrowDown,ArrowLeft"":8,""ArrowDown,ArrowRight"":30}","false","ArrowUp,ArrowLeft","false","","","revaluation","1","6","","",""
"html-keyboard-response","123","775943","0.0-4.0-2.0-1.3","spark_pilot_2","7774","6","7","Female","","","","","","","null","<div style=""font-size:60px;"">+</div>","null","fixation","","","","","","","","","","","7","","",""
"revaluation","124","781953","0.0-4.0-2.0-0.4","spark_pilot_2","7774","6","7","Female","","false","","","","","[948.7000000029802,1227.0999999940395]","./assets/img/canyon/memory/33.jpg","[""ArrowDown"",""ArrowLeft""]","value training","canyon","8","{""ArrowUp,ArrowLeft"":23,""ArrowUp,ArrowRight"":10,""ArrowDown,ArrowLeft"":8,""ArrowDown,ArrowRight"":30}","false","ArrowDown,ArrowLeft","false","","","revaluation","1","8","","",""
"html-keyboard-response","125","782457","0.0-4.0-2.0-1.4","spark_pilot_2","7774","6","7","Female","","","","","","","null","<div style=""font-size:60px;"">+</div>","null","fixation","","","","","","","","","","","9","","",""
"revaluation","126","788475","0.0-4.0-2.0-0.5","spark_pilot_2","7774","6","7","Female","","false","","","","","[491.80000001192093,941.5]","./assets/img/canyon/memory/17.jpg","[""ArrowDown"",""ArrowRight""]","value training","canyon","30","{""ArrowUp,ArrowLeft"":23,""ArrowUp,ArrowRight"":10,""ArrowDown,ArrowLeft"":8,""ArrowDown,ArrowRight"":30}","true","ArrowDown,ArrowRight","false","","","revaluation","1","10","","",""
"html-keyboard-response","127","788985","0.0-4.0-2.0-1.5","spark_pilot_2","7774","6","7","Female","","","","","","","null","<div style=""font-size:60px;"">+</div>","null","fixation","","","","","","","","","","","11","","",""
"revaluation","128","795003","0.0-4.0-2.0-0.6","spark_pilot_2","7774","6","7","Female","","false","","","","","[847.5,530.5]","./assets/img/canyon/memory/6.jpg","[""ArrowDown"",""ArrowRight""]","value training","canyon","30","{""ArrowUp,ArrowLeft"":23,""ArrowUp,ArrowRight"":10,""ArrowDown,ArrowLeft"":8,""ArrowDown,ArrowRight"":30}","true","ArrowDown,ArrowRight","false","","","revaluation","1","12","","",""
"html-keyboard-response","129","795516","0.0-4.0-2.0-1.6","spark_pilot_2","7774","6","7","Female","","","","","","","null","<div style=""font-size:60px;"">+</div>","null","fixation","","","","","","","","","","","13","","",""
"revaluation","130","799528","0.0-4.0-2.0-0.7","spark_pilot_2","7774","6","7","Female","","false","","","","","[835.5]","./assets/img/canyon/catch/6.jpg","[""spaceBar""]","value training","canyon","0","{""ArrowUp,ArrowLeft"":23,""ArrowUp,ArrowRight"":10,""ArrowDown,ArrowLeft"":8,""ArrowDown,ArrowRight"":30}","true","spaceBar","true","","","revaluation","1","14","","",""
"html-keyboard-response","131","800032","0.0-4.0-2.0-1.7","spark_pilot_2","7774","6","7","Female","","","","","","","null","<div style=""font-size:60px;"">+</div>","null","fixation","","","","","","","","","","","15","","",""
"revaluation","132","804044","0.0-4.0-2.0-0.8","spark_pilot_2","7774","6","7","Female","","true","","","","","[]","./assets/img/canyon/memory/30.jpg","[]","value training","canyon","-5","{""ArrowUp,ArrowLeft"":23,""ArrowUp,ArrowRight"":10,""ArrowDown,ArrowLeft"":8,""ArrowDown,ArrowRight"":30}","false","","false","","","revaluation","1","16","","",""
"html-keyboard-response","133","804549","0.0-4.0-2.0-1.8","spark_pilot_2","7774","6","7","Female","","","","","","","null","<div style=""font-size:60px;"">+</div>","null","fixation","","","","","","","","","","","17","","",""
"revaluation","134","810569","0.0-4.0-2.0-0.9","spark_pilot_2","7774","6","7","Female","","false","","","","","[640.1000000089407,741]","./assets/img/canyon/memory/14.jpg","[""ArrowDown"",""ArrowRight""]","value training","canyon","30","{""ArrowUp,ArrowLeft"":23,""ArrowUp,ArrowRight"":10,""ArrowDown,ArrowLeft"":8,""ArrowDown,ArrowRight"":30}","true","ArrowDown,ArrowRight","false","","","revaluation","1","18","","",""
"html-keyboard-response","135","811074","0.0-4.0-2.0-1.9","spark_pilot_2","7774","6","7","Female","","","","","","","null","<div style=""font-size:60px;"">+</div>","null","fixation","","","","","","","","","","","19","","",""
"revaluation","136","817086","0.0-4.0-2.0-0.10","spark_pilot_2","7774","6","7","Female","","false","","","","","[1734.8999999910593,690.5]","./assets/img/canyon/memory/24.jpg","[""ArrowDown"",""ArrowRight""]","value training","canyon","30","{""ArrowUp,ArrowLeft"":23,""ArrowUp,ArrowRight"":10,""ArrowDown,ArrowLeft"":8,""ArrowDown,ArrowRight"":30}","true","ArrowDown,ArrowRight","false","","","revaluation","1","20","","",""
"html-keyboard-response","137","817593","0.0-4.0-2.0-1.10","spark_pilot_2","7774","6","7","Female","","","","","","","null","<div style=""font-size:60px;"">+</div>","null","fixation","","","","","","","","","","","21","","",""
"revaluation","138","821602","0.0-4.0-2.0-0.11","spark_pilot_2","7774","6","7","Female","","false","","","","","[865.6000000089407]","./assets/img/canyon/catch/0.jpg","[""spaceBar""]","value training","canyon","0","{""ArrowUp,ArrowLeft"":23,""ArrowUp,ArrowRight"":10,""ArrowDown,ArrowLeft"":8,""ArrowDown,ArrowRight"":30}","true","spaceBar","true","","","revaluation","1","22","","",""
"html-keyboard-response","139","822108","0.0-4.0-2.0-1.11","spark_pilot_2","7774","6","7","Female","","","","","","","null","<div style=""font-size:60px;"">+</div>","null","fixation","","","","","","","","","","","23","","",""
"revaluation","140","828120","0.0-4.0-2.0-0.12","spark_pilot_2","7774","6","7","Female","","false","","","","","[858.5,692.4000000059605]","./assets/img/canyon/memory/0.jpg","[""ArrowDown"",""ArrowRight""]","value training","canyon","30","{""ArrowUp,ArrowLeft"":23,""ArrowUp,ArrowRight"":10,""ArrowDown,ArrowLeft"":8,""ArrowDown,ArrowRight"":30}","true","ArrowDown,ArrowRight","false","","","revaluation","1","24","","",""
"html-keyboard-response","141","828624","0.0-4.0-2.0-1.12","spark_pilot_2","7774","6","7","Female","","","","","","","null","<div style=""font-size:60px;"">+</div>","null","fixation","","","","","","","","","","","25","","",""
"revaluation","142","832637","0.0-4.0-2.0-0.13","spark_pilot_2","7774","6","7","Female","","false","","","","","[1180.7000000029802]","./assets/img/canyon/catch/1.jpg","[""spaceBar""]","value training","canyon","0","{""ArrowUp,ArrowLeft"":23,""ArrowUp,ArrowRight"":10,""ArrowDown,ArrowLeft"":8,""ArrowDown,ArrowRight"":30}","true","spaceBar","true","","","revaluation","1","26","","",""
"html-keyboard-response","143","833145","0.0-4.0-2.0-1.13","spark_pilot_2","7774","6","7","Female","","","","","","","null","<div style=""font-size:60px;"">+</div>","null","fixation","","","","","","","","","","","27","","",""
"revaluation","144","839169","0.0-4.0-2.0-0.14","spark_pilot_2","7774","6","7","Female","","false","","","","","[1107.3999999910593,596.1000000089407]","./assets/img/canyon/memory/7.jpg","[""ArrowDown"",""ArrowRight""]","value training","canyon","30","{""ArrowUp,ArrowLeft"":23,""ArrowUp,ArrowRight"":10,""ArrowDown,ArrowLeft"":8,""ArrowDown,ArrowRight"":30}","true","ArrowDown,ArrowRight","false","","","revaluation","1","28","","",""
"html-keyboard-response","145","839672","0.0-4.0-2.0-1.14","spark_pilot_2","7774","6","7","Female","","","","","","","null","<div style=""font-size:60px;"">+</div>","null","fixation","","","","","","","","","","","29","","",""
"revaluation","146","845688","0.0-4.0-2.0-0.15","spark_pilot_2","7774","6","7","Female","","false","","","","","[927,637.5999999940395]","./assets/img/canyon/memory/18.jpg","[""ArrowDown"",""ArrowRight""]","value training","canyon","30","{""ArrowUp,ArrowLeft"":23,""ArrowUp,ArrowRight"":10,""ArrowDown,ArrowLeft"":8,""ArrowDown,ArrowRight"":30}","true","ArrowDown,ArrowRight","false","","","revaluation","1","30","","",""
"html-keyboard-response","147","846194","0.0-4.0-2.0-1.15","spark_pilot_2","7774","6","7","Female","","","","","","","null","<div style=""font-size:60px;"">+</div>","null","fixation","","","","","","","","","","","31","","",""
"revaluation","148","852203","0.0-4.0-2.0-0.16","spark_pilot_2","7774","6","7","Female","","false","","","","","[1462,576.5]","./assets/img/canyon/memory/4.jpg","[""ArrowDown"",""ArrowRight""]","value training","canyon","30","{""ArrowUp,ArrowLeft"":23,""ArrowUp,ArrowRight"":10,""ArrowDown,ArrowLeft"":8,""ArrowDown,ArrowRight"":30}","true","ArrowDown,ArrowRight","false","","","revaluation","1","32","","",""
"html-keyboard-response","149","852712","0.0-4.0-2.0-1.16","spark_pilot_2","7774","6","7","Female","","","","","","","null","<div style=""font-size:60px;"">+</div>","null","fixation","","","","","","","","","","","33","","",""
"revaluation","150","858729","0.0-4.0-2.0-0.17","spark_pilot_2","7774","6","7","Female","","false","","","","","[731.1999999880791,550.2999999970198]","./assets/img/canyon/memory/1.jpg","[""ArrowDown"",""ArrowRight""]","value training","canyon","30","{""ArrowUp,ArrowLeft"":23,""ArrowUp,ArrowRight"":10,""ArrowDown,ArrowLeft"":8,""ArrowDown,ArrowRight"":30}","true","ArrowDown,ArrowRight","false","","","revaluation","1","34","","",""
"html-keyboard-response","151","859232","0.0-4.0-2.0-1.17","spark_pilot_2","7774","6","7","Female","","","","","","","null","<div style=""font-size:60px;"">+</div>","null","fixation","","","","","","","","","","","35","","",""
"revaluation","152","865240","0.0-4.0-2.0-0.18","spark_pilot_2","7774","6","7","Female","","false","","","","","[1355.5,766]","./assets/img/canyon/memory/24.jpg","[""ArrowDown"",""ArrowRight""]","value training","canyon","30","{""ArrowUp,ArrowLeft"":23,""ArrowUp,ArrowRight"":10,""ArrowDown,ArrowLeft"":8,""ArrowDown,ArrowRight"":30}","true","ArrowDown,ArrowRight","false","","","revaluation","1","36","","",""
"html-keyboard-response","153","865746","0.0-4.0-2.0-1.18","spark_pilot_2","7774","6","7","Female","","","","","","","null","<div style=""font-size:60px;"">+</div>","null","fixation","","","","","","","","","","","37","","",""
"revaluation","154","871769","0.0-4.0-2.0-0.19","spark_pilot_2","7774","6","7","Female","","false","","","","","[1305.199999988079,601.9000000059605]","./assets/img/canyon/memory/27.jpg","[""ArrowDown"",""ArrowRight""]","value training","canyon","30","{""ArrowUp,ArrowLeft"":23,""ArrowUp,ArrowRight"":10,""ArrowDown,ArrowLeft"":8,""ArrowDown,ArrowRight"":30}","true","ArrowDown,ArrowRight","false","","","revaluation","1","38","","",""
"html-keyboard-response","155","872272","0.0-4.0-2.0-1.19","spark_pilot_2","7774","6","7","Female","","","","","","","null","<div style=""font-size:60px;"">+</div>","null","fixation","","","","","","","","","","","39","","",""
"revaluation","156","878289","0.0-4.0-2.0-0.20","spark_pilot_2","7774","6","7","Female","","false","","","","","[975.8999999910593,968.3999999910593]","./assets/img/canyon/memory/16.jpg","[""ArrowDown"",""ArrowRight""]","value training","canyon","30","{""ArrowUp,ArrowLeft"":23,""ArrowUp,ArrowRight"":10,""ArrowDown,ArrowLeft"":8,""ArrowDown,ArrowRight"":30}","true","ArrowDown,ArrowRight","false","","","revaluation","1","40","","",""
"html-keyboard-response","157","878796","0.0-4.0-2.0-1.20","spark_pilot_2","7774","6","7","Female","","","","","","","null","<div style=""font-size:60px;"">+</div>","null","fixation","","","","","","","","","","","41","","",""
"revaluation","158","884810","0.0-4.0-2.0-0.21","spark_pilot_2","7774","6","7","Female","","false","","","","","[964.5999999940395,616.4000000059605]","./assets/img/canyon/memory/37.jpg","[""ArrowDown"",""ArrowRight""]","value training","canyon","30","{""ArrowUp,ArrowLeft"":23,""ArrowUp,ArrowRight"":10,""ArrowDown,ArrowLeft"":8,""ArrowDown,ArrowRight"":30}","true","ArrowDown,ArrowRight","false","","","revaluation","1","42","","",""
"html-keyboard-response","159","885314","0.0-4.0-2.0-1.21","spark_pilot_2","7774","6","7","Female","","","","","","","null","<div style=""font-size:60px;"">+</div>","null","fixation","","","","","","","","","","","43","","",""
"revaluation","160","891323","0.0-4.0-2.0-0.22","spark_pilot_2","7774","6","7","Female","","false","","","","","[1025.2999999970198,818.1000000089407]","./assets/img/canyon/memory/30.jpg","[""ArrowDown"",""ArrowRight""]","value training","canyon","30","{""ArrowUp,ArrowLeft"":23,""ArrowUp,ArrowRight"":10,""ArrowDown,ArrowLeft"":8,""ArrowDown,ArrowRight"":30}","true","ArrowDown,ArrowRight","false","","","revaluation","1","44","","",""
"html-keyboard-response","161","891828","0.0-4.0-2.0-1.22","spark_pilot_2","7774","6","7","Female","","","","","","","null","<div style=""font-size:60px;"">+</div>","null","fixation","","","","","","","","","","","45","","",""
"revaluation","162","897849","0.0-4.0-2.0-0.23","spark_pilot_2","7774","6","7","Female","","false","","","","","[815.9000000059605,627.8999999910593]","./assets/img/canyon/memory/41.jpg","[""ArrowDown"",""ArrowRight""]","value training","canyon","30","{""ArrowUp,ArrowLeft"":23,""ArrowUp,ArrowRight"":10,""ArrowDown,ArrowLeft"":8,""ArrowDown,ArrowRight"":30}","true","ArrowDown,ArrowRight","false","","","revaluation","1","46","","",""
"html-keyboard-response","163","898352","0.0-4.0-2.0-1.23","spark_pilot_2","7774","6","7","Female","","","","","","","null","<div style=""font-size:60px;"">+</div>","null","fixation","","","","","","","","","","","47","","",""
"revaluation","164","904369","0.0-4.0-2.0-0.24","spark_pilot_2","7774","6","7","Female","","false","","","","","[809,848.5]","./assets/img/canyon/memory/15.jpg","[""ArrowDown"",""ArrowRight""]","value training","canyon","30","{""ArrowUp,ArrowLeft"":23,""ArrowUp,ArrowRight"":10,""ArrowDown,ArrowLeft"":8,""ArrowDown,ArrowRight"":30}","true","ArrowDown,ArrowRight","false","","","revaluation","1","48","","",""
"html-keyboard-response","165","904877","0.0-4.0-2.0-1.24","spark_pilot_2","7774","6","7","Female","","","","","","","null","<div style=""font-size:60px;"">+</div>","null","fixation","","","","","","","","","","","49","","",""
"revaluation","166","910889","0.0-4.0-2.0-0.25","spark_pilot_2","7774","6","7","Female","","false","","","","","[836.7999999970198,715.2999999970198]","./assets/img/canyon/memory/33.jpg","[""ArrowDown"",""ArrowRight""]","value training","canyon","30","{""ArrowUp,ArrowLeft"":23,""ArrowUp,ArrowRight"":10,""ArrowDown,ArrowLeft"":8,""ArrowDown,ArrowRight"":30}","true","ArrowDown,ArrowRight","false","","","revaluation","1","50","","",""
"html-keyboard-response","167","911396","0.0-4.0-2.0-1.25","spark_pilot_2","7774","6","7","Female","","","","","","","null","<div style=""font-size:60px;"">+</div>","null","fixation","","","","","","","","","","","51","","",""
"revaluation","168","917416","0.0-4.0-2.0-0.26","spark_pilot_2","7774","6","7","Female","","false","","","","","[976.7999999970198,597.2000000029802]","./assets/img/canyon/memory/23.jpg","[""ArrowDown"",""ArrowRight""]","value training","canyon","30","{""ArrowUp,ArrowLeft"":23,""ArrowUp,ArrowRight"":10,""ArrowDown,ArrowLeft"":8,""ArrowDown,ArrowRight"":30}","true","ArrowDown,ArrowRight","false","","","revaluation","1","52","","",""
"html-keyboard-response","169","917921","0.0-4.0-2.0-1.26","spark_pilot_2","7774","6","7","Female","","","","","","","null","<div style=""font-size:60px;"">+</div>","null","fixation","","","","","","","","","","","53","","",""
"revaluation","170","923935","0.0-4.0-2.0-0.27","spark_pilot_2","7774","6","7","Female","","false","","","","","[1392,558.5]","./assets/img/canyon/memory/25.jpg","[""ArrowDown"",""ArrowRight""]","value training","canyon","30","{""ArrowUp,ArrowLeft"":23,""ArrowUp,ArrowRight"":10,""ArrowDown,ArrowLeft"":8,""ArrowDown,ArrowRight"":30}","true","ArrowDown,ArrowRight","false","","","revaluation","1","54","","",""
"html-keyboard-response","171","924445","0.0-4.0-2.0-1.27","spark_pilot_2","7774","6","7","Female","","","","","","","null","<div style=""font-size:60px;"">+</div>","null","fixation","","","","","","","","","","","55","","",""
"revaluation","172","930453","0.0-4.0-2.0-0.28","spark_pilot_2","7774","6","7","Female","","false","","","","","[770.0999999940395,1505.2999999970198]","./assets/img/canyon/memory/14.jpg","[""ArrowDown"",""ArrowRight""]","value training","canyon","30","{""ArrowUp,ArrowLeft"":23,""ArrowUp,ArrowRight"":10,""ArrowDown,ArrowLeft"":8,""ArrowDown,ArrowRight"":30}","true","ArrowDown,ArrowRight","false","","","revaluation","1","56","","",""
"html-keyboard-response","173","930965","0.0-4.0-2.0-1.28","spark_pilot_2","7774","6","7","Female","","","","","","","null","<div style=""font-size:60px;"">+</div>","null","fixation","","","","","","","","","","","57","","",""
"revaluation","174","936985","0.0-4.0-2.0-0.29","spark_pilot_2","7774","6","7","Female","","false","","","","","[632.0999999940395,998.5]","./assets/img/canyon/memory/0.jpg","[""ArrowDown"",""ArrowRight""]","value training","canyon","30","{""ArrowUp,ArrowLeft"":23,""ArrowUp,ArrowRight"":10,""ArrowDown,ArrowLeft"":8,""ArrowDown,ArrowRight"":30}","true","ArrowDown,ArrowRight","false","","","revaluation","1","58","","",""
"html-keyboard-response","175","937490","0.0-4.0-2.0-1.29","spark_pilot_2","7774","6","7","Female","","","","","","","null","<div style=""font-size:60px;"">+</div>","null","fixation","","","","","","","","","","","59","","",""
"revaluation","176","943509","0.0-4.0-2.0-0.30","spark_pilot_2","7774","6","7","Female","","false","","","","","[1029.7999999970198,497.3999999910593]","./assets/img/canyon/memory/6.jpg","[""ArrowDown"",""ArrowRight""]","value training","canyon","30","{""ArrowUp,ArrowLeft"":23,""ArrowUp,ArrowRight"":10,""ArrowDown,ArrowLeft"":8,""ArrowDown,ArrowRight"":30}","true","ArrowDown,ArrowRight","false","","","revaluation","1","60","","",""
"html-keyboard-response","177","944016","0.0-4.0-2.0-1.30","spark_pilot_2","7774","6","7","Female","","","","","","","null","<div style=""font-size:60px;"">+</div>","null","fixation","","","","","","","","","","","61","","",""
"revaluation","178","950036","0.0-4.0-2.0-0.31","spark_pilot_2","7774","6","7","Female","","false","","","","","[864.3999999910593,830.2000000029802]","./assets/img/canyon/memory/27.jpg","[""ArrowDown"",""ArrowRight""]","value training","canyon","30","{""ArrowUp,ArrowLeft"":23,""ArrowUp,ArrowRight"":10,""ArrowDown,ArrowLeft"":8,""ArrowDown,ArrowRight"":30}","true","ArrowDown,ArrowRight","false","","","revaluation","1","62","","",""
"html-keyboard-response","179","950546","0.0-4.0-2.0-1.31","spark_pilot_2","7774","6","7","Female","","","","","","","null","<div style=""font-size:60px;"">+</div>","null","fixation","","","","","","","","","","","63","","",""
"revaluation","180","956554","0.0-4.0-2.0-0.32","spark_pilot_2","7774","6","7","Female","","false","","","","","[1022.7000000029802,1047.1000000089407]","./assets/img/canyon/memory/41.jpg","[""ArrowDown"",""ArrowRight""]","value training","canyon","30","{""ArrowUp,ArrowLeft"":23,""ArrowUp,ArrowRight"":10,""ArrowDown,ArrowLeft"":8,""ArrowDown,ArrowRight"":30}","true","ArrowDown,ArrowRight","false","","","revaluation","1","64","","",""
"html-keyboard-response","181","957059","0.0-4.0-2.0-1.32","spark_pilot_2","7774","6","7","Female","","","","","","","null","<div style=""font-size:60px;"">+</div>","null","fixation","","","","","","","","","","","65","","",""
"revaluation","182","963073","0.0-4.0-2.0-0.33","spark_pilot_2","7774","6","7","Female","","false","","","","","[656.0999999940395,708.7999999970198]","./assets/img/canyon/memory/28.jpg","[""ArrowDown"",""ArrowRight""]","value training","canyon","30","{""ArrowUp,ArrowLeft"":23,""ArrowUp,ArrowRight"":10,""ArrowDown,ArrowLeft"":8,""ArrowDown,ArrowRight"":30}","true","ArrowDown,ArrowRight","false","","","revaluation","1","66","","",""
"html-keyboard-response","183","963578","0.0-4.0-2.0-1.33","spark_pilot_2","7774","6","7","Female","","","","","","","null","<div style=""font-size:60px;"">+</div>","null","fixation","","","","","","","","","","","67","","",""
"revaluation","184","969587","0.0-4.0-2.0-0.34","spark_pilot_2","7774","6","7","Female","","false","","","","","[1237.7999999970198,617.5999999940395]","./assets/img/canyon/memory/25.jpg","[""ArrowDown"",""ArrowRight""]","value training","canyon","30","{""ArrowUp,ArrowLeft"":23,""ArrowUp,ArrowRight"":10,""ArrowDown,ArrowLeft"":8,""ArrowDown,ArrowRight"":30}","true","ArrowDown,ArrowRight","false","","","revaluation","1","68","","",""
"html-keyboard-response","185","970090","0.0-4.0-2.0-1.34","spark_pilot_2","7774","6","7","Female","","","","","","","null","<div style=""font-size:60px;"">+</div>","null","fixation","","","","","","","","","","","69","","",""
"revaluation","186","974101","0.0-4.0-2.0-0.35","spark_pilot_2","7774","6","7","Female","","false","","","","","[1203]","./assets/img/canyon/catch/3.jpg","[""spaceBar""]","value training","canyon","0","{""ArrowUp,ArrowLeft"":23,""ArrowUp,ArrowRight"":10,""ArrowDown,ArrowLeft"":8,""ArrowDown,ArrowRight"":30}","true","spaceBar","true","","","revaluation","1","70","","",""
"html-keyboard-response","187","974610","0.0-4.0-2.0-1.35","spark_pilot_2","7774","6","7","Female","","","","","","","null","<div style=""font-size:60px;"">+</div>","null","fixation","","","","","","","","","","","71","","",""
"revaluation","188","978619","0.0-4.0-2.0-0.36","spark_pilot_2","7774","6","7","Female","","false","","","","","[1011.5]","./assets/img/canyon/catch/5.jpg","[""spaceBar""]","value training","canyon","0","{""ArrowUp,ArrowLeft"":23,""ArrowUp,ArrowRight"":10,""ArrowDown,ArrowLeft"":8,""ArrowDown,ArrowRight"":30}","true","spaceBar","true","","","revaluation","1","72","","",""
"html-keyboard-response","189","979124","0.0-4.0-2.0-1.36","spark_pilot_2","7774","6","7","Female","","","","","","","null","<div style=""font-size:60px;"">+</div>","null","fixation","","","","","","","","","","","73","","",""
"revaluation","190","985138","0.0-4.0-2.0-0.37","spark_pilot_2","7774","6","7","Female","","false","","","","","[1013.5,579.2999999970198]","./assets/img/canyon/memory/2.jpg","[""ArrowDown"",""ArrowRight""]","value training","canyon","30","{""ArrowUp,ArrowLeft"":23,""ArrowUp,ArrowRight"":10,""ArrowDown,ArrowLeft"":8,""ArrowDown,ArrowRight"":30}","true","ArrowDown,ArrowRight","false","","","revaluation","1","74","","",""
"html-keyboard-response","191","985643","0.0-4.0-2.0-1.37","spark_pilot_2","7774","6","7","Female","","","","","","","null","<div style=""font-size:60px;"">+</div>","null","fixation","","","","","","","","","","","75","","",""
"revaluation","192","991668","0.0-4.0-2.0-0.38","spark_pilot_2","7774","6","7","Female","","false","","","","","[795.8999999910593,715]","./assets/img/canyon/memory/17.jpg","[""ArrowDown"",""ArrowRight""]","value training","canyon","30","{""ArrowUp,ArrowLeft"":23,""ArrowUp,ArrowRight"":10,""ArrowDown,ArrowLeft"":8,""ArrowDown,ArrowRight"":30}","true","ArrowDown,ArrowRight","false","","","revaluation","1","76","","",""
"html-keyboard-response","193","992169","0.0-4.0-2.0-1.38","spark_pilot_2","7774","6","7","Female","","","","","","","null","<div style=""font-size:60px;"">+</div>","null","fixation","","","","","","","","","","","77","","",""
"revaluation","194","998196","0.0-4.0-2.0-0.39","spark_pilot_2","7774","6","7","Female","","false","","","","","[1195.7000000029802,507.59999999403954]","./assets/img/canyon/memory/23.jpg","[""ArrowDown"",""ArrowRight""]","value training","canyon","30","{""ArrowUp,ArrowLeft"":23,""ArrowUp,ArrowRight"":10,""ArrowDown,ArrowLeft"":8,""ArrowDown,ArrowRight"":30}","true","ArrowDown,ArrowRight","false","","","revaluation","1","78","","",""
"html-keyboard-response","195","998699","0.0-4.0-2.0-1.39","spark_pilot_2","7774","6","7","Female","","","","","","","null","<div style=""font-size:60px;"">+</div>","null","fixation","","","","","","","","","","","79","","",""
"revaluation","196","1002707","0.0-4.0-2.0-0.40","spark_pilot_2","7774","6","7","Female","","false","","","","","[735.8000000119209]","./assets/img/canyon/catch/4.jpg","[""spaceBar""]","value training","canyon","0","{""ArrowUp,ArrowLeft"":23,""ArrowUp,ArrowRight"":10,""ArrowDown,ArrowLeft"":8,""ArrowDown,ArrowRight"":30}","true","spaceBar","true","","","revaluation","1","80","","",""
"html-keyboard-response","197","1003210","0.0-4.0-2.0-1.40","spark_pilot_2","7774","6","7","Female","","","","","","","null","<div style=""font-size:60px;"">+</div>","null","fixation","","","","","","","","","","","81","","",""
"revaluation","198","1009225","0.0-4.0-2.0-0.41","spark_pilot_2","7774","6","7","Female","","false","","","","","[870.2000000029802,607.3999999910593]","./assets/img/canyon/memory/4.jpg","[""ArrowDown"",""ArrowRight""]","value training","canyon","30","{""ArrowUp,ArrowLeft"":23,""ArrowUp,ArrowRight"":10,""ArrowDown,ArrowLeft"":8,""ArrowDown,ArrowRight"":30}","true","ArrowDown,ArrowRight","false","","","revaluation","1","82","","",""
"html-keyboard-response","199","1009730","0.0-4.0-2.0-1.41","spark_pilot_2","7774","6","7","Female","","","","","","","null","<div style=""font-size:60px;"">+</div>","null","fixation","","","","","","","","","","","83","","",""
"revaluation","200","1015749","0.0-4.0-2.0-0.42","spark_pilot_2","7774","6","7","Female","","false","","","","","[834.2999999970198,535.0999999940395]","./assets/img/canyon/memory/16.jpg","[""ArrowDown"",""ArrowRight""]","value training","canyon","30","{""ArrowUp,ArrowLeft"":23,""ArrowUp,ArrowRight"":10,""ArrowDown,ArrowLeft"":8,""ArrowDown,ArrowRight"":30}","true","ArrowDown,ArrowRight","false","","","revaluation","1","84","","",""
"html-keyboard-response","201","1016261","0.0-4.0-2.0-1.42","spark_pilot_2","7774","6","7","Female","","","","","","","null","<div style=""font-size:60px;"">+</div>","null","fixation","","","","","","","","","","","85","","",""
"revaluation","202","1022279","0.0-4.0-2.0-0.43","spark_pilot_2","7774","6","7","Female","","false","","","","","[977,756.2000000029802]","./assets/img/canyon/memory/28.jpg","[""ArrowDown"",""ArrowRight""]","value training","canyon","30","{""ArrowUp,ArrowLeft"":23,""ArrowUp,ArrowRight"":10,""ArrowDown,ArrowLeft"":8,""ArrowDown,ArrowRight"":30}","true","ArrowDown,ArrowRight","false","","","revaluation","1","86","","",""
"html-keyboard-response","203","1022784","0.0-4.0-2.0-1.43","spark_pilot_2","7774","6","7","Female","","","","","","","null","<div style=""font-size:60px;"">+</div>","null","fixation","","","","","","","","","","","87","","",""
"revaluation","204","1028810","0.0-4.0-2.0-0.44","spark_pilot_2","7774","6","7","Female","","false","","","","","[1079.5,561.7999999970198]","./assets/img/canyon/memory/1.jpg","[""ArrowDown"",""ArrowRight""]","value training","canyon","30","{""ArrowUp,ArrowLeft"":23,""ArrowUp,ArrowRight"":10,""ArrowDown,ArrowLeft"":8,""ArrowDown,ArrowRight"":30}","true","ArrowDown,ArrowRight","false","","","revaluation","1","88","","",""
"html-keyboard-response","205","1029315","0.0-4.0-2.0-1.44","spark_pilot_2","7774","6","7","Female","","","","","","","null","<div style=""font-size:60px;"">+</div>","null","fixation","","","","","","","","","","","89","","",""
"revaluation","206","1035323","0.0-4.0-2.0-0.45","spark_pilot_2","7774","6","7","Female","","false","","","","","[1260.7999999970198,566.7000000029802]","./assets/img/canyon/memory/18.jpg","[""ArrowDown"",""ArrowRight""]","value training","canyon","30","{""ArrowUp,ArrowLeft"":23,""ArrowUp,ArrowRight"":10,""ArrowDown,ArrowLeft"":8,""ArrowDown,ArrowRight"":30}","true","ArrowDown,ArrowRight","false","","","revaluation","1","90","","",""
"html-keyboard-response","207","1035828","0.0-4.0-2.0-1.45","spark_pilot_2","7774","6","7","Female","","","","","","","null","<div style=""font-size:60px;"">+</div>","null","fixation","","","","","","","","","","","91","","",""
"revaluation","208","1039835","0.0-4.0-2.0-0.46","spark_pilot_2","7774","6","7","Female","","false","","","","","[1037.4000000059605]","./assets/img/canyon/catch/2.jpg","[""spaceBar""]","value training","canyon","0","{""ArrowUp,ArrowLeft"":23,""ArrowUp,ArrowRight"":10,""ArrowDown,ArrowLeft"":8,""ArrowDown,ArrowRight"":30}","true","spaceBar","true","","","revaluation","1","92","","",""
"html-keyboard-response","209","1040339","0.0-4.0-2.0-1.46","spark_pilot_2","7774","6","7","Female","","","","","","","null","<div style=""font-size:60px;"">+</div>","null","fixation","","","","","","","","","","","93","","",""
"revaluation","210","1046359","0.0-4.0-2.0-0.47","spark_pilot_2","7774","6","7","Female","","false","","","","","[993.7000000029802,899.2999999970198]","./assets/img/canyon/memory/37.jpg","[""ArrowDown"",""ArrowRight""]","value training","canyon","30","{""ArrowUp,ArrowLeft"":23,""ArrowUp,ArrowRight"":10,""ArrowDown,ArrowLeft"":8,""ArrowDown,ArrowRight"":30}","true","ArrowDown,ArrowRight","false","","","revaluation","1","94","","",""
"html-keyboard-response","211","1046867","0.0-4.0-2.0-1.47","spark_pilot_2","7774","6","7","Female","","","","","","","null","<div style=""font-size:60px;"">+</div>","null","fixation","","","","","","","","","","","95","","",""
"revaluation","212","1052891","0.0-4.0-2.0-0.48","spark_pilot_2","7774","6","7","Female","","false","","","","","[710.2999999970198,1251.2999999970198]","./assets/img/canyon/memory/9.jpg","[""ArrowDown"",""ArrowRight""]","value training","canyon","30","{""ArrowUp,ArrowLeft"":23,""ArrowUp,ArrowRight"":10,""ArrowDown,ArrowLeft"":8,""ArrowDown,ArrowRight"":30}","true","ArrowDown,ArrowRight","false","","","revaluation","1","96","","",""
"html-keyboard-response","213","1053394","0.0-4.0-2.0-1.48","spark_pilot_2","7774","6","7","Female","","","","","","","null","<div style=""font-size:60px;"">+</div>","null","fixation","","","","","","","","","","","97","","",""
"revaluation","214","1059411","0.0-4.0-2.0-0.49","spark_pilot_2","7774","6","7","Female","","false","","","","","[828.4000000059605,561.7000000029802]","./assets/img/canyon/memory/2.jpg","[""ArrowDown"",""ArrowRight""]","value training","canyon","30","{""ArrowUp,ArrowLeft"":23,""ArrowUp,ArrowRight"":10,""ArrowDown,ArrowLeft"":8,""ArrowDown,ArrowRight"":30}","true","ArrowDown,ArrowRight","false","","","revaluation","1","98","","",""
"html-keyboard-response","215","1059915","0.0-4.0-2.0-1.49","spark_pilot_2","7774","6","7","Female","","","","","","","null","<div style=""font-size:60px;"">+</div>","null","fixation","","","","","","","","","","","99","","",""
"learning-instructions","216","1076400","0.0-4.0-3.0-0.0","spark_pilot_2","7774","6","7","Female","","","","","","","3549","<p> Now, you will travel with a friend who will choose whether you go up or down first. </p>
            <p> On these turns, you will just see the animal that they found. You will still get to choose which chest to search for treasure.</p>","","instructions","","","","","","","","","","","","","",""
"revaluation","217","1080411","0.0-4.0-4.0-0.0","spark_pilot_2","7774","6","7","Female","","false","","","","","[1486.2999999970198]","./assets/img/canyon/animals/giraffe.jpg","[""ArrowRight""]","revaluation","canyon","7","{""ArrowUp,ArrowLeft"":27,""ArrowUp,ArrowRight"":15,""ArrowDown,ArrowLeft"":21,""ArrowDown,ArrowRight"":7}","false","ArrowDown,ArrowRight","","","","revaluation","1","0","","",""
"html-keyboard-response","218","1080918","0.0-4.0-4.0-1.0","spark_pilot_2","7774","6","7","Female","","","","","","","null","<div style=""font-size:60px;"">+</div>","null","fixation","","","","","","","","","","","1","","",""
"revaluation","219","1084933","0.0-4.0-4.0-0.1","spark_pilot_2","7774","6","7","Female","","false","","","","","[1747.7000000029802]","./assets/img/canyon/animals/lion.jpg","[""ArrowRight""]","revaluation","canyon","15","{""ArrowUp,ArrowLeft"":27,""ArrowUp,ArrowRight"":15,""ArrowDown,ArrowLeft"":21,""ArrowDown,ArrowRight"":7}","false","ArrowUp,ArrowRight","","","","revaluation","1","2","","",""
"html-keyboard-response","220","1085439","0.0-4.0-4.0-1.1","spark_pilot_2","7774","6","7","Female","","","","","","","null","<div style=""font-size:60px;"">+</div>","null","fixation","","","","","","","","","","","3","","",""
"revaluation","221","1089452","0.0-4.0-4.0-0.2","spark_pilot_2","7774","6","7","Female","","false","","","","","[933]","./assets/img/canyon/animals/giraffe.jpg","[""ArrowLeft""]","revaluation","canyon","21","{""ArrowUp,ArrowLeft"":27,""ArrowUp,ArrowRight"":15,""ArrowDown,ArrowLeft"":21,""ArrowDown,ArrowRight"":7}","true","ArrowDown,ArrowLeft","","","","revaluation","1","4","","",""
"html-keyboard-response","222","1089959","0.0-4.0-4.0-1.2","spark_pilot_2","7774","6","7","Female","","","","","","","null","<div style=""font-size:60px;"">+</div>","null","fixation","","","","","","","","","","","5","","",""
"revaluation","223","1093969","0.0-4.0-4.0-0.3","spark_pilot_2","7774","6","7","Female","","false","","","","","[785.2999999970198]","./assets/img/canyon/animals/lion.jpg","[""ArrowLeft""]","revaluation","canyon","27","{""ArrowUp,ArrowLeft"":27,""ArrowUp,ArrowRight"":15,""ArrowDown,ArrowLeft"":21,""ArrowDown,ArrowRight"":7}","true","ArrowUp,ArrowLeft","","","","revaluation","1","6","","",""
"html-keyboard-response","224","1094474","0.0-4.0-4.0-1.3","spark_pilot_2","7774","6","7","Female","","","","","","","null","<div style=""font-size:60px;"">+</div>","null","fixation","","","","","","","","","","","7","","",""
"revaluation","225","1098485","0.0-4.0-4.0-0.4","spark_pilot_2","7774","6","7","Female","","false","","","","","[509.70000000298023]","./assets/img/canyon/animals/lion.jpg","[""ArrowLeft""]","revaluation","canyon","27","{""ArrowUp,ArrowLeft"":27,""ArrowUp,ArrowRight"":15,""ArrowDown,ArrowLeft"":21,""ArrowDown,ArrowRight"":7}","true","ArrowUp,ArrowLeft","","","","revaluation","1","8","","",""
"html-keyboard-response","226","1098991","0.0-4.0-4.0-1.4","spark_pilot_2","7774","6","7","Female","","","","","","","null","<div style=""font-size:60px;"">+</div>","null","fixation","","","","","","","","","","","9","","",""
"revaluation","227","1103003","0.0-4.0-4.0-0.5","spark_pilot_2","7774","6","7","Female","","false","","","","","[596.5]","./assets/img/canyon/animals/giraffe.jpg","[""ArrowLeft""]","revaluation","canyon","21","{""ArrowUp,ArrowLeft"":27,""ArrowUp,ArrowRight"":15,""ArrowDown,ArrowLeft"":21,""ArrowDown,ArrowRight"":7}","true","ArrowDown,ArrowLeft","","","","revaluation","1","10","","",""
"html-keyboard-response","228","1103509","0.0-4.0-4.0-1.5","spark_pilot_2","7774","6","7","Female","","","","","","","null","<div style=""font-size:60px;"">+</div>","null","fixation","","","","","","","","","","","11","","",""
"revaluation","229","1107519","0.0-4.0-4.0-0.6","spark_pilot_2","7774","6","7","Female","","false","","","","","[595.6000000089407]","./assets/img/canyon/animals/lion.jpg","[""ArrowLeft""]","revaluation","canyon","27","{""ArrowUp,ArrowLeft"":27,""ArrowUp,ArrowRight"":15,""ArrowDown,ArrowLeft"":21,""ArrowDown,ArrowRight"":7}","true","ArrowUp,ArrowLeft","","","","revaluation","1","12","","",""
"html-keyboard-response","230","1108031","0.0-4.0-4.0-1.6","spark_pilot_2","7774","6","7","Female","","","","","","","null","<div style=""font-size:60px;"">+</div>","null","fixation","","","","","","","","","","","13","","",""
"revaluation","231","1112034","0.0-4.0-4.0-0.7","spark_pilot_2","7774","6","7","Female","","false","","","","","[650.5]","./assets/img/canyon/animals/lion.jpg","[""ArrowLeft""]","revaluation","canyon","27","{""ArrowUp,ArrowLeft"":27,""ArrowUp,ArrowRight"":15,""ArrowDown,ArrowLeft"":21,""ArrowDown,ArrowRight"":7}","true","ArrowUp,ArrowLeft","","","","revaluation","1","14","","",""
"html-keyboard-response","232","1112541","0.0-4.0-4.0-1.7","spark_pilot_2","7774","6","7","Female","","","","","","","null","<div style=""font-size:60px;"">+</div>","null","fixation","","","","","","","","","","","15","","",""
"revaluation","233","1116553","0.0-4.0-4.0-0.8","spark_pilot_2","7774","6","7","Female","","false","","","","","[1713.5]","./assets/img/canyon/animals/giraffe.jpg","[""ArrowLeft""]","revaluation","canyon","21","{""ArrowUp,ArrowLeft"":27,""ArrowUp,ArrowRight"":15,""ArrowDown,ArrowLeft"":21,""ArrowDown,ArrowRight"":7}","true","ArrowDown,ArrowLeft","","","","revaluation","1","16","","",""
"html-keyboard-response","234","1117062","0.0-4.0-4.0-1.8","spark_pilot_2","7774","6","7","Female","","","","","","","null","<div style=""font-size:60px;"">+</div>","null","fixation","","","","","","","","","","","17","","",""
"revaluation","235","1121070","0.0-4.0-4.0-0.9","spark_pilot_2","7774","6","7","Female","","false","","","","","[1007.9000000059605]","./assets/img/canyon/animals/lion.jpg","[""ArrowLeft""]","revaluation","canyon","27","{""ArrowUp,ArrowLeft"":27,""ArrowUp,ArrowRight"":15,""ArrowDown,ArrowLeft"":21,""ArrowDown,ArrowRight"":7}","true","ArrowUp,ArrowLeft","","","","revaluation","1","18","","",""
"html-keyboard-response","236","1121579","0.0-4.0-4.0-1.9","spark_pilot_2","7774","6","7","Female","","","","","","","null","<div style=""font-size:60px;"">+</div>","null","fixation","","","","","","","","","","","19","","",""
"revaluation","237","1125591","0.0-4.0-4.0-0.10","spark_pilot_2","7774","6","7","Female","","false","","","","","[1356.4000000059605]","./assets/img/canyon/animals/giraffe.jpg","[""ArrowLeft""]","revaluation","canyon","21","{""ArrowUp,ArrowLeft"":27,""ArrowUp,ArrowRight"":15,""ArrowDown,ArrowLeft"":21,""ArrowDown,ArrowRight"":7}","true","ArrowDown,ArrowLeft","","","","revaluation","1","20","","",""
"html-keyboard-response","238","1126102","0.0-4.0-4.0-1.10","spark_pilot_2","7774","6","7","Female","","","","","","","null","<div style=""font-size:60px;"">+</div>","null","fixation","","","","","","","","","","","21","","",""
"revaluation","239","1130118","0.0-4.0-4.0-0.11","spark_pilot_2","7774","6","7","Female","","false","","","","","[767.0999999940395]","./assets/img/canyon/animals/giraffe.jpg","[""ArrowLeft""]","revaluation","canyon","21","{""ArrowUp,ArrowLeft"":27,""ArrowUp,ArrowRight"":15,""ArrowDown,ArrowLeft"":21,""ArrowDown,ArrowRight"":7}","true","ArrowDown,ArrowLeft","","","","revaluation","1","22","","",""
"html-keyboard-response","240","1130629","0.0-4.0-4.0-1.11","spark_pilot_2","7774","6","7","Female","","","","","","","null","<div style=""font-size:60px;"">+</div>","null","fixation","","","","","","","","","","","23","","",""
"revaluation","241","1134635","0.0-4.0-4.0-0.12","spark_pilot_2","7774","6","7","Female","","false","","","","","[815]","./assets/img/canyon/animals/giraffe.jpg","[""ArrowLeft""]","revaluation","canyon","21","{""ArrowUp,ArrowLeft"":27,""ArrowUp,ArrowRight"":15,""ArrowDown,ArrowLeft"":21,""ArrowDown,ArrowRight"":7}","true","ArrowDown,ArrowLeft","","","","revaluation","1","24","","",""
"html-keyboard-response","242","1135140","0.0-4.0-4.0-1.12","spark_pilot_2","7774","6","7","Female","","","","","","","null","<div style=""font-size:60px;"">+</div>","null","fixation","","","","","","","","","","","25","","",""
"revaluation","243","1139152","0.0-4.0-4.0-0.13","spark_pilot_2","7774","6","7","Female","","false","","","","","[591.2000000029802]","./assets/img/canyon/animals/lion.jpg","[""ArrowLeft""]","revaluation","canyon","27","{""ArrowUp,ArrowLeft"":27,""ArrowUp,ArrowRight"":15,""ArrowDown,ArrowLeft"":21,""ArrowDown,ArrowRight"":7}","true","ArrowUp,ArrowLeft","","","","revaluation","1","26","","",""
"html-keyboard-response","244","1139662","0.0-4.0-4.0-1.13","spark_pilot_2","7774","6","7","Female","","","","","","","null","<div style=""font-size:60px;"">+</div>","null","fixation","","","","","","","","","","","27","","",""
"revaluation","245","1143668","0.0-4.0-4.0-0.14","spark_pilot_2","7774","6","7","Female","","false","","","","","[762.3999999910593]","./assets/img/canyon/animals/giraffe.jpg","[""ArrowLeft""]","revaluation","canyon","21","{""ArrowUp,ArrowLeft"":27,""ArrowUp,ArrowRight"":15,""ArrowDown,ArrowLeft"":21,""ArrowDown,ArrowRight"":7}","true","ArrowDown,ArrowLeft","","","","revaluation","1","28","","",""
"html-keyboard-response","246","1144173","0.0-4.0-4.0-1.14","spark_pilot_2","7774","6","7","Female","","","","","","","null","<div style=""font-size:60px;"">+</div>","null","fixation","","","","","","","","","","","29","","",""
"revaluation","247","1148183","0.0-4.0-4.0-0.15","spark_pilot_2","7774","6","7","Female","","false","","","","","[893.7000000029802]","./assets/img/canyon/animals/lion.jpg","[""ArrowLeft""]","revaluation","canyon","27","{""ArrowUp,ArrowLeft"":27,""ArrowUp,ArrowRight"":15,""ArrowDown,ArrowLeft"":21,""ArrowDown,ArrowRight"":7}","true","ArrowUp,ArrowLeft","","","","revaluation","1","30","","",""
"html-keyboard-response","248","1148685","0.0-4.0-4.0-1.15","spark_pilot_2","7774","6","7","Female","","","","","","","null","<div style=""font-size:60px;"">+</div>","null","fixation","","","","","","","","","","","31","","",""
"revaluation","249","1152701","0.0-4.0-4.0-0.16","spark_pilot_2","7774","6","7","Female","","false","","","","","[865.4000000059605]","./assets/img/canyon/animals/giraffe.jpg","[""ArrowLeft""]","revaluation","canyon","21","{""ArrowUp,ArrowLeft"":27,""ArrowUp,ArrowRight"":15,""ArrowDown,ArrowLeft"":21,""ArrowDown,ArrowRight"":7}","true","ArrowDown,ArrowLeft","","","","revaluation","1","32","","",""
"html-keyboard-response","250","1153205","0.0-4.0-4.0-1.16","spark_pilot_2","7774","6","7","Female","","","","","","","null","<div style=""font-size:60px;"">+</div>","null","fixation","","","","","","","","","","","33","","",""
"revaluation","251","1157217","0.0-4.0-4.0-0.17","spark_pilot_2","7774","6","7","Female","","false","","","","","[954.6000000089407]","./assets/img/canyon/animals/lion.jpg","[""ArrowLeft""]","revaluation","canyon","27","{""ArrowUp,ArrowLeft"":27,""ArrowUp,ArrowRight"":15,""ArrowDown,ArrowLeft"":21,""ArrowDown,ArrowRight"":7}","true","ArrowUp,ArrowLeft","","","","revaluation","1","34","","",""
"html-keyboard-response","252","1157718","0.0-4.0-4.0-1.17","spark_pilot_2","7774","6","7","Female","","","","","","","null","<div style=""font-size:60px;"">+</div>","null","fixation","","","","","","","","","","","35","","",""
"learning-instructions","253","1172598","0.0-4.0-5.0-0.0","spark_pilot_2","7774","6","7","Female","","","","","","","3448.5","<p> Time to play the dot game! </p>
            <p> For one minute, click the red dots on the following screen as they appear. </p>
            <p><b> Don't look away, as you will earn bonus for clicking dots</b>. </p>","","instructions","","","","","","","","","","","","","",""
"revaluation","254","1232608","0.0-4.0-6.0-0.0","spark_pilot_2","7774","6","7","Female","","","","","","","[120,112,124,100,105,129]","","","rest","","60","","","","","0","60000","","","","","",""
"learning-instructions","255","1242804","0.0-4.0-7.0-0.0","spark_pilot_2","7774","6","7","Female","","","","","","","4050.0999999940395","<p> You have almost finished this part of the game! </p>
            <p> We are going to ask you to make a few more choices. </p>","","instructions","","","","","","","","","","","","","",""
"learning-instructions","256","1259874","0.0-4.0-7.0-0.1","spark_pilot_2","7774","6","7","Female","","","","","","","3101.4000000059605","<p> First, you need to decide whether to go up or down. When you see each picture, use the arrow keys to make your choice. </p>
            <p><b>You will not see which animal you found, but try to get to the one that will give you the most treasure.</b></p>","","instructions","","","","","","","","","","","","","",""
"revaluation","257","1265934","0.0-4.0-8.0-0.0","spark_pilot_2","7774","6","7","Female","","false","","","","","[6058.70000000298]","./assets/img/canyon/test/3.jpg","[""ArrowDown""]","first stage test","canyon","0","{""ArrowUp,ArrowLeft"":27,""ArrowUp,ArrowRight"":15,""ArrowDown,ArrowLeft"":21,""ArrowDown,ArrowRight"":7}","false","ArrowDown","false","","","revaluation","1","","","",""
"html-keyboard-response","258","1266435","0.0-4.0-8.0-1.0","spark_pilot_2","7774","6","7","Female","","","","","","","null","<div style=""font-size:60px;"">+</div>","null","fixation","","","","","","","","","","","","","",""
"revaluation","259","1267708","0.0-4.0-8.0-0.1","spark_pilot_2","7774","6","7","Female","","false","","","","","[1271.9000000059605]","./assets/img/canyon/test/2.jpg","[""ArrowDown""]","first stage test","canyon","0","{""ArrowUp,ArrowLeft"":27,""ArrowUp,ArrowRight"":15,""ArrowDown,ArrowLeft"":21,""ArrowDown,ArrowRight"":7}","false","ArrowDown","false","","","revaluation","1","","","",""
"html-keyboard-response","260","1268215","0.0-4.0-8.0-1.1","spark_pilot_2","7774","6","7","Female","","","","","","","null","<div style=""font-size:60px;"">+</div>","null","fixation","","","","","","","","","","","","","",""
"revaluation","261","1269452","0.0-4.0-8.0-0.2","spark_pilot_2","7774","6","7","Female","","false","","","","","[1235]","./assets/img/canyon/test/0.jpg","[""ArrowDown""]","first stage test","canyon","0","{""ArrowUp,ArrowLeft"":27,""ArrowUp,ArrowRight"":15,""ArrowDown,ArrowLeft"":21,""ArrowDown,ArrowRight"":7}","false","ArrowDown","false","","","revaluation","1","","","",""
"html-keyboard-response","262","1269957","0.0-4.0-8.0-1.2","spark_pilot_2","7774","6","7","Female","","","","","","","null","<div style=""font-size:60px;"">+</div>","null","fixation","","","","","","","","","","","","","",""
"revaluation","263","1270778","0.0-4.0-8.0-0.3","spark_pilot_2","7774","6","7","Female","","false","","","","","[819.9000000059605]","./assets/img/canyon/test/1.jpg","[""ArrowDown""]","first stage test","canyon","0","{""ArrowUp,ArrowLeft"":27,""ArrowUp,ArrowRight"":15,""ArrowDown,ArrowLeft"":21,""ArrowDown,ArrowRight"":7}","false","ArrowDown","false","","","revaluation","1","","","",""
"html-keyboard-response","264","1271284","0.0-4.0-8.0-1.3","spark_pilot_2","7774","6","7","Female","","","","","","","null","<div style=""font-size:60px;"">+</div>","null","fixation","","","","","","","","","","","","","",""
"learning-instructions","265","1287065","0.0-4.0-9.0-0.0","spark_pilot_2","7774","6","7","Female","","","","","","","4437.20000000298","<p> Now you will see the animals again and can search their chests for treasure. </p>
            <p> This time, you will not see how much treasure you earned, but you will earn more bonus money for making better choices. </p>","","instructions","","","","","","","","","","","","","",""
"revaluation","266","1289109","0.0-4.0-10.0-0.0","spark_pilot_2","7774","6","7","Female","","false","","","","","[2042.7999999970198]","./assets/img/canyon/animals/lion.jpg","[""ArrowRight""]","second stage test","canyon","0","{""ArrowUp,ArrowLeft"":27,""ArrowUp,ArrowRight"":15,""ArrowDown,ArrowLeft"":21,""ArrowDown,ArrowRight"":7}","false","ArrowUp,ArrowRight","","","","revaluation","1","","","",""
"html-keyboard-response","267","1289616","0.0-4.0-10.0-1.0","spark_pilot_2","7774","6","7","Female","","","","","","","null","<div style=""font-size:60px;"">+</div>","null","fixation","","","","","","","","","","","","","",""
"revaluation","268","1290483","0.0-4.0-10.0-0.1","spark_pilot_2","7774","6","7","Female","","false","","","","","[864.6000000089407]","./assets/img/canyon/animals/lion.jpg","[""ArrowRight""]","second stage test","canyon","0","{""ArrowUp,ArrowLeft"":27,""ArrowUp,ArrowRight"":15,""ArrowDown,ArrowLeft"":21,""ArrowDown,ArrowRight"":7}","false","ArrowUp,ArrowRight","","","","revaluation","1","","","",""
"html-keyboard-response","269","1290985","0.0-4.0-10.0-1.1","spark_pilot_2","7774","6","7","Female","","","","","","","null","<div style=""font-size:60px;"">+</div>","null","fixation","","","","","","","","","","","","","",""
"revaluation","270","1291584","0.0-4.0-10.0-0.2","spark_pilot_2","7774","6","7","Female","","false","","","","","[596.7999999970198]","./assets/img/canyon/animals/lion.jpg","[""ArrowRight""]","second stage test","canyon","0","{""ArrowUp,ArrowLeft"":27,""ArrowUp,ArrowRight"":15,""ArrowDown,ArrowLeft"":21,""ArrowDown,ArrowRight"":7}","false","ArrowUp,ArrowRight","","","","revaluation","1","","","",""
"html-keyboard-response","271","1292086","0.0-4.0-10.0-1.2","spark_pilot_2","7774","6","7","Female","","","","","","","null","<div style=""font-size:60px;"">+</div>","null","fixation","","","","","","","","","","","","","",""
"revaluation","272","1292646","0.0-4.0-10.0-0.3","spark_pilot_2","7774","6","7","Female","","false","","","","","[558.7999999970198]","./assets/img/canyon/animals/lion.jpg","[""ArrowRight""]","second stage test","canyon","0","{""ArrowUp,ArrowLeft"":27,""ArrowUp,ArrowRight"":15,""ArrowDown,ArrowLeft"":21,""ArrowDown,ArrowRight"":7}","false","ArrowUp,ArrowRight","","","","revaluation","1","","","",""
"html-keyboard-response","273","1293148","0.0-4.0-10.0-1.3","spark_pilot_2","7774","6","7","Female","","","","","","","null","<div style=""font-size:60px;"">+</div>","null","fixation","","","","","","","","","","","","","",""
"revaluation","274","1295573","0.0-4.0-10.0-0.4","spark_pilot_2","7774","6","7","Female","","false","","","","","[2423.7999999970198]","./assets/img/canyon/animals/giraffe.jpg","[""ArrowRight""]","second stage test","canyon","0","{""ArrowUp,ArrowLeft"":27,""ArrowUp,ArrowRight"":15,""ArrowDown,ArrowLeft"":21,""ArrowDown,ArrowRight"":7}","false","ArrowDown,ArrowRight","","","","revaluation","1","","","",""
"html-keyboard-response","275","1296080","0.0-4.0-10.0-1.4","spark_pilot_2","7774","6","7","Female","","","","","","","null","<div style=""font-size:60px;"">+</div>","null","fixation","","","","","","","","","","","","","",""
"revaluation","276","1296549","0.0-4.0-10.0-0.5","spark_pilot_2","7774","6","7","Female","","false","","","","","[467.1000000089407]","./assets/img/canyon/animals/giraffe.jpg","[""ArrowRight""]","second stage test","canyon","0","{""ArrowUp,ArrowLeft"":27,""ArrowUp,ArrowRight"":15,""ArrowDown,ArrowLeft"":21,""ArrowDown,ArrowRight"":7}","false","ArrowDown,ArrowRight","","","","revaluation","1","","","",""
"html-keyboard-response","277","1297051","0.0-4.0-10.0-1.5","spark_pilot_2","7774","6","7","Female","","","","","","","null","<div style=""font-size:60px;"">+</div>","null","fixation","","","","","","","","","","","","","",""
"revaluation","278","1297085","0.0-4.0-10.0-0.6","spark_pilot_2","7774","6","7","Female","","false","","","","","[32.8999999910593]","./assets/img/canyon/animals/giraffe.jpg","[""ArrowRight""]","second stage test","canyon","0","{""ArrowUp,ArrowLeft"":27,""ArrowUp,ArrowRight"":15,""ArrowDown,ArrowLeft"":21,""ArrowDown,ArrowRight"":7}","false","ArrowDown,ArrowRight","","","","revaluation","1","","","",""
"html-keyboard-response","279","1297590","0.0-4.0-10.0-1.6","spark_pilot_2","7774","6","7","Female","","","","","","","null","<div style=""font-size:60px;"">+</div>","null","fixation","","","","","","","","","","","","","",""
"revaluation","280","1297771","0.0-4.0-10.0-0.7","spark_pilot_2","7774","6","7","Female","","false","","","","","[179.3999999910593]","./assets/img/canyon/animals/giraffe.jpg","[""ArrowRight""]","second stage test","canyon","0","{""ArrowUp,ArrowLeft"":27,""ArrowUp,ArrowRight"":15,""ArrowDown,ArrowLeft"":21,""ArrowDown,ArrowRight"":7}","false","ArrowDown,ArrowRight","","","","revaluation","1","","","",""
"html-keyboard-response","281","1298282","0.0-4.0-10.0-1.7","spark_pilot_2","7774","6","7","Female","","","","","","","null","<div style=""font-size:60px;"">+</div>","null","fixation","","","","","","","","","","","","","",""
"learning-instructions","282","1303050","0.0-4.0-0.1-0.2","spark_pilot_2","7774","6","7","Female","","","","","","","2055.5","<p> This time you are searching for treasure in the <b>ocean</b>.</p>","","instructions","","","","","","","","","","","","","",""
"learning-instructions","283","1322621","0.0-4.0-0.1-0.3","spark_pilot_2","7774","6","7","Female","","","","","","","2318.7000000029802","<p><b>New</b> animals with <b>new</b> treasure chests live here. You need to explore to discover where the animal with the best treasure chest is.</p>
                    <p> Like before, once you figure out which animal has the chest with the most treasure, you should try to get to that animal and select that chest! </p>","","instructions","","","","","","","","","","","","","",""
"learning-instructions","284","1340092","0.0-4.0-1.1-0.1","spark_pilot_2","7774","6","7","Female","","","","","","","2740.7999999970198","<p> Remember, when you see a picture of the place, use the up and down keys to <b>find an animal</b>.</p>
            <p> When you encounter an animal, you should use the left and right keys to <b>select a treasure chest</b>.</p>
            <p> Don't forget to look out for the robber! </p>","","instructions","","","","","","","","","","","","","",""
"revaluation","285","1346106","0.0-4.0-2.1-0.50","spark_pilot_2","7774","6","7","Female","","false","","","","","[1785.7999999970198,1463.2999999970198]","./assets/img/ocean/memory/16.jpg","[""ArrowUp"",""ArrowRight""]","value training","ocean","10","{""ArrowUp,ArrowLeft"":26,""ArrowUp,ArrowRight"":10,""ArrowDown,ArrowLeft"":5,""ArrowDown,ArrowRight"":17}","false","ArrowUp,ArrowRight","false","","","original","2","0","","",""
"html-keyboard-response","286","1346616","0.0-4.0-2.1-1.50","spark_pilot_2","7774","6","7","Female","","","","","","","null","<div style=""font-size:60px;"">+</div>","null","fixation","","","","","","","","","","","1","","",""
"revaluation","287","1352635","0.0-4.0-2.1-0.51","spark_pilot_2","7774","6","7","Female","","false","","","","","[837.7999999970198,792.3999999910593]","./assets/img/ocean/memory/0.jpg","[""ArrowUp"",""ArrowLeft""]","value training","ocean","26","{""ArrowUp,ArrowLeft"":26,""ArrowUp,ArrowRight"":10,""ArrowDown,ArrowLeft"":5,""ArrowDown,ArrowRight"":17}","true","ArrowUp,ArrowLeft","false","","","original","2","2","","",""
"html-keyboard-response","288","1353146","0.0-4.0-2.1-1.51","spark_pilot_2","7774","6","7","Female","","","","","","","null","<div style=""font-size:60px;"">+</div>","null","fixation","","","","","","","","","","","3","","",""
"revaluation","289","1359167","0.0-4.0-2.1-0.52","spark_pilot_2","7774","6","7","Female","","false","","","","","[648,881.7999999970198]","./assets/img/ocean/memory/16.jpg","[""ArrowDown"",""ArrowRight""]","value training","ocean","17","{""ArrowUp,ArrowLeft"":26,""ArrowUp,ArrowRight"":10,""ArrowDown,ArrowLeft"":5,""ArrowDown,ArrowRight"":17}","false","ArrowDown,ArrowRight","false","","","original","2","4","","",""
"html-keyboard-response","290","1359671","0.0-4.0-2.1-1.52","spark_pilot_2","7774","6","7","Female","","","","","","","null","<div style=""font-size:60px;"">+</div>","null","fixation","","","","","","","","","","","5","","",""
"revaluation","291","1365688","0.0-4.0-2.1-0.53","spark_pilot_2","7774","6","7","Female","","false","","","","","[868.5999999940395,633]","./assets/img/ocean/memory/28.jpg","[""ArrowDown"",""ArrowLeft""]","value training","ocean","5","{""ArrowUp,ArrowLeft"":26,""ArrowUp,ArrowRight"":10,""ArrowDown,ArrowLeft"":5,""ArrowDown,ArrowRight"":17}","false","ArrowDown,ArrowLeft","false","","","original","2","6","","",""
"html-keyboard-response","292","1366195","0.0-4.0-2.1-1.53","spark_pilot_2","7774","6","7","Female","","","","","","","null","<div style=""font-size:60px;"">+</div>","null","fixation","","","","","","","","","","","7","","",""
"revaluation","293","1372216","0.0-4.0-2.1-0.54","spark_pilot_2","7774","6","7","Female","","false","","","","","[453.79999999701977,553.2000000029802]","./assets/img/ocean/memory/0.jpg","[""ArrowUp"",""ArrowLeft""]","value training","ocean","26","{""ArrowUp,ArrowLeft"":26,""ArrowUp,ArrowRight"":10,""ArrowDown,ArrowLeft"":5,""ArrowDown,ArrowRight"":17}","true","ArrowUp,ArrowLeft","false","","","original","2","8","","",""
"html-keyboard-response","294","1372722","0.0-4.0-2.1-1.54","spark_pilot_2","7774","6","7","Female","","","","","","","null","<div style=""font-size:60px;"">+</div>","null","fixation","","","","","","","","","","","9","","",""
