"trial_type","trial_index","time_elapsed","internal_node_id","task_version","subject_id","assigned_condition","age","gender","success","timeout","failed_images","failed_audio","failed_video","browser_interaction","rt","stimulus","response","task_part","environment","score","rewardMap","correct","fullState","isCatch","numberMissed","duration","condition","order","trial_num","key_press","ground_truth","bonus"
"pavlovia","0","1243","0.0-0.0","spark_pilot_2","7142","7","9","Female","","","","","","","","","","","","","","","","","","","","","","","",""
"preload","1","33946","0.0-1.0","spark_pilot_2","7142","7","9","Female","true","false","[]","[]","[]","[{""event"":""fullscreenenter"",""trial"":2,""time"":205021}]","","","","","","","","","","","","","","","","","",""
"fullscreen","2","206019","0.0-2.0","spark_pilot_2","7142","7","9","Female","true","","","","","","","","","","","","","","","","","","","","","","",""
"audio-button-response","3","213726","0.0-3.0-0.0-0.0","spark_pilot_2","7142","7","9","Female","","","","","","","7120","./assets/audio/audiotest/turtle.mp3","2","audio_test","","","","","","","","","","","","","",""
"learning-instructions","4","223380","0.0-3.0-1.0-0.0","spark_pilot_2","7142","7","9","Female","","","","","","","2629.7999999523163","<p> Welcome! Please remember to stay in fullscreen mode and don't click away from the experiment. </p>","","instructions","","","","","","","","","","","","","",""
"learning-instructions","5","234140","0.0-3.0-1.0-0.1","spark_pilot_2","7142","7","9","Female","","","","","","","2355.4000000953674","<p> Today you will be playing a game to earn treasure. </p>
            <p> At the end of the experiment, you will earn a bonus based on how much treasure you find. </p>
            <img src='./assets/img/instructions/treasure.jpg' class='instructions-image'>","","instructions","","","","","","","","","","","","","",""
"learning-instructions","6","244020","0.0-3.0-1.0-0.2","spark_pilot_2","7142","7","9","Female","","","","","","","1635.5","<p> Animals have hidden treasure in treasure chests. </p>
            <p> You need to first find an animal and then choose which of their treasure chests to search. </p>
            <img src='./assets/img/space/animals/cat.jpg' class='instructions-image'>","","instructions","","","","","","","","","","","","","",""
"learning-instructions","7","258732","0.0-3.0-1.0-0.3","spark_pilot_2","7142","7","9","Female","","","","","","","1567.7999999523163","<p> In each round, you will search for treasure in a different place. In the real game, there will be two rounds. </p>
            <p> You will begin with a separate, practice round where you will search for treasure in outer space. </p>
            <img src='./assets/img/space/0.jpg' class='instructions-image'>","","instructions","","","","","","","","","","","","","",""
"learning-instructions","8","271380","0.0-3.0-1.0-0.4","spark_pilot_2","7142","7","9","Female","","","","","","","1245.2000000476837","<p> On every turn, you will see a picture of the place that you are in, but the specific image may be different each time. </p>
            <p> For example, both of these images mean you are in outer space. </p>
            <img src='./assets/img/instructions/outerspace.jpg' class='instructions-image'>","","instructions","","","","","","","","","","","","","",""
"learning-instructions","9","280492","0.0-3.0-1.0-0.5","spark_pilot_2","7142","7","9","Female","","","","","","","1297.3999998569489","<p> You need to decide which direction to travel in. </p>
            <p> You can choose between going <b>up or down</b> by using the arrow keys. </p>
            <img src='./assets/img/instructions/updown.jpg' class='instructions-image'>","","instructions","","","","","","","","","","","","","",""
"learning-instructions","10","290820","0.0-3.0-1.0-0.6","spark_pilot_2","7142","7","9","Female","","","","","","","1526.1000001430511","<p> You will have <b>2 seconds</b> to make your choice. </p>
            <p> If you do not make a choice within 2 seconds, you will not find an animal or earn treasure. </p>
            <img src='./assets/img/instructions/2seconds.jpg' class='instructions-image'>","","instructions","","","","","","","","","","","","","",""
"learning-instructions","11","299740","0.0-3.0-1.0-0.7","spark_pilot_2","7142","7","9","Female","","","","","","","1895.3000001907349","<p> Let’s try practicing that now! </p>
            <p> When you see a picture of the place you are in, press the <b>up</b> key to travel up. </p>
            <img src='./assets/img/instructions/pressUp.jpg' class='instructions-image'>","","instructions","","","","","","","","","","","","","",""
"revaluation","12","303775","0.0-3.0-2.0-0.0","spark_pilot_2","7142","7","9","Female","","false","","","","","[1865]","./assets/img/space/0.jpg","[""ArrowUp""]","first stage practice","space","0","null","null","ArrowUp","false","","","","","","","",""
"html-keyboard-response","13","304285","0.0-3.0-2.0-1.0","spark_pilot_2","7142","7","9","Female","","","","","","","null","<div style=""font-size:60px;"">+</div>","null","fixation","","","","","","","","","","","","","",""
"revaluation","14","308316","0.0-3.0-2.0-0.1","spark_pilot_2","7142","7","9","Female","","false","","","","","[1450.4000000953674]","./assets/img/space/1.jpg","[""ArrowUp""]","first stage practice","space","0","null","null","ArrowUp","false","","","","","","","",""
"html-keyboard-response","15","308827","0.0-3.0-2.0-1.1","spark_pilot_2","7142","7","9","Female","","","","","","","null","<div style=""font-size:60px;"">+</div>","null","fixation","","","","","","","","","","","","","",""
"revaluation","16","312848","0.0-3.0-2.0-0.2","spark_pilot_2","7142","7","9","Female","","false","","","","","[1004.2000000476837]","./assets/img/space/2.jpg","[""ArrowUp""]","first stage practice","space","0","null","null","ArrowUp","false","","","","","","","",""
"html-keyboard-response","17","313357","0.0-3.0-2.0-1.2","spark_pilot_2","7142","7","9","Female","","","","","","","null","<div style=""font-size:60px;"">+</div>","null","fixation","","","","","","","","","","","","","",""
"learning-instructions","18","321414","0.0-3.0-3.0-0.0","spark_pilot_2","7142","7","9","Female","","","","","","","3169.7000000476837","<p> Great job! Now try pressing the <b>down</b> key to travel down. </p>
            <img src='./assets/img/instructions/pressDown.jpg' class='instructions-image'>","","instructions","","","","","","","","","","","","","",""
"revaluation","19","325420","0.0-3.0-4.0-0.0","spark_pilot_2","7142","7","9","Female","","false","","","","","[893.6000001430511]","./assets/img/space/3.jpg","[""ArrowDown""]","first stage practice","space","0","null","null","ArrowDown","false","","","","","","","",""
"html-keyboard-response","20","325931","0.0-3.0-4.0-1.0","spark_pilot_2","7142","7","9","Female","","","","","","","null","<div style=""font-size:60px;"">+</div>","null","fixation","","","","","","","","","","","","","",""
"revaluation","21","329942","0.0-3.0-4.0-0.1","spark_pilot_2","7142","7","9","Female","","false","","","","","[1220.8999998569489]","./assets/img/space/4.jpg","[""ArrowDown""]","first stage practice","space","0","null","null","ArrowDown","false","","","","","","","",""
"html-keyboard-response","22","330453","0.0-3.0-4.0-1.1","spark_pilot_2","7142","7","9","Female","","","","","","","null","<div style=""font-size:60px;"">+</div>","null","fixation","","","","","","","","","","","","","",""
"revaluation","23","334476","0.0-3.0-4.0-0.2","spark_pilot_2","7142","7","9","Female","","false","","","","","[1707.2999999523163]","./assets/img/space/5.jpg","[""ArrowDown""]","first stage practice","space","0","null","null","ArrowDown","false","","","","","","","",""
"html-keyboard-response","24","334986","0.0-3.0-4.0-1.2","spark_pilot_2","7142","7","9","Female","","","","","","","null","<div style=""font-size:60px;"">+</div>","null","fixation","","","","","","","","","","","","","",""
"learning-instructions","25","346628","0.0-3.0-5.0-0.0","spark_pilot_2","7142","7","9","Female","","","","","","","1734.2000000476837","<p> The animals don’t move, so the animal in the upper part of a place will stay in the upper part of a place, and the animal in the lower part of a place will stay in the lower part of a place. </p>","","instructions","","","","","","","","","","","","","",""
"learning-instructions","26","357316","0.0-3.0-5.0-0.1","spark_pilot_2","7142","7","9","Female","","","","","","","1572.4000000953674","<p> Each animal has two treasure chests for you to choose from. </p>
            <p> The amount of treasure in each chest can range from <b> 0 to 40 pieces.</b></p>","","instructions","","","","","","","","","","","","","",""
"learning-instructions","27","370852","0.0-3.0-5.0-0.2","spark_pilot_2","7142","7","9","Female","","","","","","","2347.5","<p> You should decide which chest to search for treasure by using the <b>left</b> and <b>right</b> arrow keys. </p>
            <p><b> Pay attention to which animal is on the screen, as the animals have different treasure chests. </b></p>
            <img src='./assets/img/instructions/leftright.jpg' class='instructions-image'>","","instructions","","","","","","","","","","","","","",""
"learning-instructions","28","378580","0.0-3.0-5.0-0.3","spark_pilot_2","7142","7","9","Female","","","","","","","1365.7999999523163","<p> Let’s try practicing that now. </p>
            <p> When you see an animal, choose which chest to search for treasure. </p>
            <img src='./assets/img/instructions/chooseChest.jpg' class='instructions-image'>","","instructions","","","","","","","","","","","","","",""
"revaluation","29","382595","0.0-3.0-6.0-0.0","spark_pilot_2","7142","7","9","Female","","false","","","","","[1175.1000001430511]","./assets/img/space/animals/cat.jpg","[""ArrowLeft""]","second stage practice","space","3","{""ArrowUp,ArrowLeft"":3,""ArrowUp,ArrowRight"":36,""ArrowDown,ArrowLeft"":15,""ArrowDown,ArrowRight"":23}","false","ArrowUp,ArrowLeft","","","","","","","","",""
"html-keyboard-response","30","383096","0.0-3.0-6.0-1.0","spark_pilot_2","7142","7","9","Female","","","","","","","null","<div style=""font-size:60px;"">+</div>","null","fixation","","","","","","","","","","","","","",""
"revaluation","31","387105","0.0-3.0-6.0-0.1","spark_pilot_2","7142","7","9","Female","","false","","","","","[904.5]","./assets/img/space/animals/cat.jpg","[""ArrowRight""]","second stage practice","space","36","{""ArrowUp,ArrowLeft"":3,""ArrowUp,ArrowRight"":36,""ArrowDown,ArrowLeft"":15,""ArrowDown,ArrowRight"":23}","true","ArrowUp,ArrowRight","","","","","","","","",""
"html-keyboard-response","32","387615","0.0-3.0-6.0-1.1","spark_pilot_2","7142","7","9","Female","","","","","","","null","<div style=""font-size:60px;"">+</div>","null","fixation","","","","","","","","","","","","","",""
"revaluation","33","391649","0.0-3.0-6.0-0.2","spark_pilot_2","7142","7","9","Female","","false","","","","","[577.5]","./assets/img/space/animals/rabbit.jpg","[""ArrowLeft""]","second stage practice","space","15","{""ArrowUp,ArrowLeft"":3,""ArrowUp,ArrowRight"":36,""ArrowDown,ArrowLeft"":15,""ArrowDown,ArrowRight"":23}","false","ArrowDown,ArrowLeft","","","","","","","","",""
"html-keyboard-response","34","392159","0.0-3.0-6.0-1.2","spark_pilot_2","7142","7","9","Female","","","","","","","null","<div style=""font-size:60px;"">+</div>","null","fixation","","","","","","","","","","","","","",""
"revaluation","35","396172","0.0-3.0-6.0-0.3","spark_pilot_2","7142","7","9","Female","","false","","","","","[473.39999985694885]","./assets/img/space/animals/rabbit.jpg","[""ArrowRight""]","second stage practice","space","23","{""ArrowUp,ArrowLeft"":3,""ArrowUp,ArrowRight"":36,""ArrowDown,ArrowLeft"":15,""ArrowDown,ArrowRight"":23}","true","ArrowDown,ArrowRight","","","","","","","","",""
"html-keyboard-response","36","396680","0.0-3.0-6.0-1.3","spark_pilot_2","7142","7","9","Female","","","","","","","null","<div style=""font-size:60px;"">+</div>","null","fixation","","","","","","","","","","","","","",""
"learning-instructions","37","414780","0.0-3.0-7.0-0.0","spark_pilot_2","7142","7","9","Female","","","","","","","1246.3999998569489","<p> Great job. Now let’s try putting it together. </p>
            <p> On each turn, you will first see a picture to remind you of the place you are in, and you need to choose whether to go up or down. </p>
            <p> Then you will see an animal and choose which of its chests to search for treasure. </p>","","instructions","","","","","","","","","","","","","",""
"learning-instructions","38","424084","0.0-3.0-7.0-0.1","spark_pilot_2","7142","7","9","Female","","","","","","","1060.2000000476837","<p> When you choose whether to go up or down, try to go to the animal with the chest with the most treasure. </p>
            <p> Try practicing that now! </p>","","instructions","","","","","","","","","","","","","",""
"revaluation","39","428108","0.0-3.0-8.0-0.0","spark_pilot_2","7142","7","9","Female","","true","","","","","[]","./assets/img/space/6.jpg","[]","full practice","space","-5","{""ArrowUp,ArrowLeft"":3,""ArrowUp,ArrowRight"":36,""ArrowDown,ArrowLeft"":15,""ArrowDown,ArrowRight"":23}","false","","false","","","","","","","",""
"html-keyboard-response","40","428615","0.0-3.0-8.0-1.0","spark_pilot_2","7142","7","9","Female","","","","","","","null","<div style=""font-size:60px;"">+</div>","null","fixation","","","","","","","","","","","","","",""
"revaluation","41","434640","0.0-3.0-8.0-0.1","spark_pilot_2","7142","7","9","Female","","false","","","","","[601.7000000476837,1290.5]","./assets/img/space/7.jpg","[""ArrowDown"",""ArrowLeft""]","full practice","space","15","{""ArrowUp,ArrowLeft"":3,""ArrowUp,ArrowRight"":36,""ArrowDown,ArrowLeft"":15,""ArrowDown,ArrowRight"":23}","false","ArrowDown,ArrowLeft","false","","","","","","","",""
"html-keyboard-response","42","435154","0.0-3.0-8.0-1.1","spark_pilot_2","7142","7","9","Female","","","","","","","null","<div style=""font-size:60px;"">+</div>","null","fixation","","","","","","","","","","","","","",""
"revaluation","43","441184","0.0-3.0-8.0-0.2","spark_pilot_2","7142","7","9","Female","","false","","","","","[610.7000000476837,1108.7999999523163]","./assets/img/space/8.jpg","[""ArrowDown"",""ArrowLeft""]","full practice","space","15","{""ArrowUp,ArrowLeft"":3,""ArrowUp,ArrowRight"":36,""ArrowDown,ArrowLeft"":15,""ArrowDown,ArrowRight"":23}","false","ArrowDown,ArrowLeft","false","","","","","","","",""
"html-keyboard-response","44","441697","0.0-3.0-8.0-1.2","spark_pilot_2","7142","7","9","Female","","","","","","","null","<div style=""font-size:60px;"">+</div>","null","fixation","","","","","","","","","","","","","",""
"revaluation","45","447713","0.0-3.0-8.0-0.3","spark_pilot_2","7142","7","9","Female","","false","","","","","[752.2000000476837,1500.0999999046326]","./assets/img/space/9.jpg","[""ArrowUp"",""ArrowRight""]","full practice","space","36","{""ArrowUp,ArrowLeft"":3,""ArrowUp,ArrowRight"":36,""ArrowDown,ArrowLeft"":15,""ArrowDown,ArrowRight"":23}","true","ArrowUp,ArrowRight","false","","","","","","","",""
"html-keyboard-response","46","448220","0.0-3.0-8.0-1.3","spark_pilot_2","7142","7","9","Female","","","","","","","null","<div style=""font-size:60px;"">+</div>","null","fixation","","","","","","","","","","","","","",""
"revaluation","47","454245","0.0-3.0-8.0-0.4","spark_pilot_2","7142","7","9","Female","","false","","","","","[1325.8999998569489,918.2999999523163]","./assets/img/space/10.jpg","[""ArrowDown"",""ArrowLeft""]","full practice","space","15","{""ArrowUp,ArrowLeft"":3,""ArrowUp,ArrowRight"":36,""ArrowDown,ArrowLeft"":15,""ArrowDown,ArrowRight"":23}","false","ArrowDown,ArrowLeft","false","","","","","","","",""
"html-keyboard-response","48","454746","0.0-3.0-8.0-1.4","spark_pilot_2","7142","7","9","Female","","","","","","","null","<div style=""font-size:60px;"">+</div>","null","fixation","","","","","","","","","","","","","",""
"learning-instructions","49","467132","0.0-3.0-9.0-0.0","spark_pilot_2","7142","7","9","Female","","","","","","","2057","<p> One last thing: sometimes, you will see a robber. The robber can be anywhere in the picture. </p>
            <p> If you do not stop them, you will lose treasure. </p>
            <img src='./assets/img/instructions/robber.jpg' class='instructions-image'>","","instructions","","","","","","","","","","","","","",""
"learning-instructions","50","475388","0.0-3.0-9.0-0.1","spark_pilot_2","7142","7","9","Female","","","","","","","1105.0999999046326","<p> If you see the robber, you should <b>press the space bar</b> rather than using the arrow keys. </p>
            <p> Try practicing that now! </p>","","instructions","","","","","","","","","","","","","",""
"revaluation","51","479406","0.0-3.0-10.0-0.0","spark_pilot_2","7142","7","9","Female","","false","","","","","[1246.2000000476837]","./assets/img/space/catch/0.jpg","[""ArrowDown""]","catch practice","space","-10","{""ArrowUp,ArrowLeft"":3,""ArrowUp,ArrowRight"":36,""ArrowDown,ArrowLeft"":15,""ArrowDown,ArrowRight"":23}","false","ArrowDown","true","","","","","","","",""
"html-keyboard-response","52","479916","0.0-3.0-10.0-1.0","spark_pilot_2","7142","7","9","Female","","","","","","","null","<div style=""font-size:60px;"">+</div>","null","fixation","","","","","","","","","","","","","",""
"revaluation","53","483931","0.0-3.0-10.0-0.1","spark_pilot_2","7142","7","9","Female","","false","","","","","[1461.5]","./assets/img/space/catch/1.jpg","[""spaceBar""]","catch practice","space","0","{""ArrowUp,ArrowLeft"":3,""ArrowUp,ArrowRight"":36,""ArrowDown,ArrowLeft"":15,""ArrowDown,ArrowRight"":23}","true","spaceBar","true","","","","","","","",""
"html-keyboard-response","54","484433","0.0-3.0-10.0-1.1","spark_pilot_2","7142","7","9","Female","","","","","","","null","<div style=""font-size:60px;"">+</div>","null","fixation","","","","","","","","","","","","","",""
"revaluation","55","488462","0.0-3.0-10.0-0.2","spark_pilot_2","7142","7","9","Female","","false","","","","","[696.7999999523163]","./assets/img/space/catch/2.jpg","[""spaceBar""]","catch practice","space","0","{""ArrowUp,ArrowLeft"":3,""ArrowUp,ArrowRight"":36,""ArrowDown,ArrowLeft"":15,""ArrowDown,ArrowRight"":23}","true","spaceBar","true","","","","","","","",""
"html-keyboard-response","56","488976","0.0-3.0-10.0-1.2","spark_pilot_2","7142","7","9","Female","","","","","","","null","<div style=""font-size:60px;"">+</div>","null","fixation","","","","","","","","","","","","","",""
"learning-instructions","57","504708","0.0-3.0-11.0-0.0","spark_pilot_2","7142","7","9","Female","","","","","","","2102.7000000476837","<p> After you explore a place to find treasure, it will be time to play a different game. </p>
            <p> During this game, red dots will appear on the screen and fall down slowly. </p>
            <p><b> You must click on them before they reach the bottom. </b></p>
            <img src='./assets/img/instructions/dotGame.jpg' class='instructions-image'>","","instructions","","","","","","","","","","","","","",""
"learning-instructions","58","511340","0.0-3.0-11.0-0.1","spark_pilot_2","7142","7","9","Female","","","","","","","955.6000001430511","<p> For every dot you click, you will earn additional treasure. </p>
            <p> Let’s try practicing that now. </p>","","instructions","","","","","","","","","","","","","",""
"revaluation","59","526350","0.0-3.0-12.0-0.0","spark_pilot_2","7142","7","9","Female","","","","","","","[97]","","","rest practice","","10","","","","","0","15000","","","","","",""
"learning-instructions","60","533036","0.0-3.0-13.0-0.0-0.0","spark_pilot_2","7142","7","9","Female","","","","","","","1391.2999999523163","<p> Now, you will practice a shortened version of the game to get a sense of how it all fits together. </p>","","instructions","","","","","","","","","","","","","",""
"learning-instructions","61","537932","0.0-3.0-13.0-0.0-0.1","spark_pilot_2","7142","7","9","Female","","","","","","","1708","<p>This time you are searching for treasure in outer space.</p>","","instructions","","","","","","","","","","","","","",""
"learning-instructions","62","554156","0.0-3.0-13.0-1.0-0.0","spark_pilot_2","7142","7","9","Female","","","","","","","1451.6000001430511","<p> Remember, when you see a picture of the place, use the up and down keys to <b>find an animal</b>.</p>
            <p> When you encounter an animal, you should use the left and right keys to <b>select a treasure chest</b>.</p>
            <p> Don't forget to look out for the robber! </p>","","instructions","","","","","","","","","","","","","",""
"revaluation","63","560189","0.0-3.0-13.0-2.0-0.0","spark_pilot_2","7142","7","9","Female","","false","","","","","[1727.7999999523163,856.4000000953674]","./assets/img/space/11.jpg","[""ArrowDown"",""ArrowLeft""]","practice block","space","15","{""ArrowUp,ArrowLeft"":3,""ArrowUp,ArrowRight"":36,""ArrowDown,ArrowLeft"":15,""ArrowDown,ArrowRight"":23}","false","ArrowDown,ArrowLeft","false","","","","","","","",""
"html-keyboard-response","64","560691","0.0-3.0-13.0-2.0-1.0","spark_pilot_2","7142","7","9","Female","","","","","","","null","<div style=""font-size:60px;"">+</div>","null","fixation","","","","","","","","","","","","","",""
"revaluation","65","564715","0.0-3.0-13.0-2.0-0.1","spark_pilot_2","7142","7","9","Female","","true","","","","","[]","./assets/img/space/12.jpg","[]","practice block","space","-5","{""ArrowUp,ArrowLeft"":3,""ArrowUp,ArrowRight"":36,""ArrowDown,ArrowLeft"":15,""ArrowDown,ArrowRight"":23}","false","","false","","","","","","","",""
"html-keyboard-response","66","565226","0.0-3.0-13.0-2.0-1.1","spark_pilot_2","7142","7","9","Female","","","","","","","null","<div style=""font-size:60px;"">+</div>","null","fixation","","","","","","","","","","","","","",""
"revaluation","67","571257","0.0-3.0-13.0-2.0-0.2","spark_pilot_2","7142","7","9","Female","","false","","","","","[1094.5,903]","./assets/img/space/13.jpg","[""ArrowDown"",""ArrowLeft""]","practice block","space","15","{""ArrowUp,ArrowLeft"":3,""ArrowUp,ArrowRight"":36,""ArrowDown,ArrowLeft"":15,""ArrowDown,ArrowRight"":23}","false","ArrowDown,ArrowLeft","false","","","","","","","",""
"html-keyboard-response","68","571759","0.0-3.0-13.0-2.0-1.2","spark_pilot_2","7142","7","9","Female","","","","","","","null","<div style=""font-size:60px;"">+</div>","null","fixation","","","","","","","","","","","","","",""
"revaluation","69","577797","0.0-3.0-13.0-2.0-0.3","spark_pilot_2","7142","7","9","Female","","false","","","","","[1963.1000001430511,1222.2999999523163]","./assets/img/space/14.jpg","[""ArrowDown"",""ArrowRight""]","practice block","space","23","{""ArrowUp,ArrowLeft"":3,""ArrowUp,ArrowRight"":36,""ArrowDown,ArrowLeft"":15,""ArrowDown,ArrowRight"":23}","false","ArrowDown,ArrowRight","false","","","","","","","",""
"html-keyboard-response","70","578308","0.0-3.0-13.0-2.0-1.3","spark_pilot_2","7142","7","9","Female","","","","","","","null","<div style=""font-size:60px;"">+</div>","null","fixation","","","","","","","","","","","","","",""
"revaluation","71","584321","0.0-3.0-13.0-2.0-0.4","spark_pilot_2","7142","7","9","Female","","false","","","","","[1429.3999998569489,1033]","./assets/img/space/11.jpg","[""ArrowDown"",""ArrowLeft""]","practice block","space","15","{""ArrowUp,ArrowLeft"":3,""ArrowUp,ArrowRight"":36,""ArrowDown,ArrowLeft"":15,""ArrowDown,ArrowRight"":23}","false","ArrowDown,ArrowLeft","false","","","","","","","",""
"html-keyboard-response","72","584823","0.0-3.0-13.0-2.0-1.4","spark_pilot_2","7142","7","9","Female","","","","","","","null","<div style=""font-size:60px;"">+</div>","null","fixation","","","","","","","","","","","","","",""
"revaluation","73","590831","0.0-3.0-13.0-2.0-0.5","spark_pilot_2","7142","7","9","Female","","false","","","","","[978,808.6999998092651]","./assets/img/space/12.jpg","[""ArrowUp"",""ArrowRight""]","practice block","space","36","{""ArrowUp,ArrowLeft"":3,""ArrowUp,ArrowRight"":36,""ArrowDown,ArrowLeft"":15,""ArrowDown,ArrowRight"":23}","true","ArrowUp,ArrowRight","false","","","","","","","",""
"html-keyboard-response","74","591333","0.0-3.0-13.0-2.0-1.5","spark_pilot_2","7142","7","9","Female","","","","","","","null","<div style=""font-size:60px;"">+</div>","null","fixation","","","","","","","","","","","","","",""
"revaluation","75","597342","0.0-3.0-13.0-2.0-0.6","spark_pilot_2","7142","7","9","Female","","false","","","","","[1083.6000001430511,1001.7999999523163]","./assets/img/space/13.jpg","[""ArrowDown"",""ArrowLeft""]","practice block","space","15","{""ArrowUp,ArrowLeft"":3,""ArrowUp,ArrowRight"":36,""ArrowDown,ArrowLeft"":15,""ArrowDown,ArrowRight"":23}","false","ArrowDown,ArrowLeft","false","","","","","","","",""
"html-keyboard-response","76","597844","0.0-3.0-13.0-2.0-1.6","spark_pilot_2","7142","7","9","Female","","","","","","","null","<div style=""font-size:60px;"">+</div>","null","fixation","","","","","","","","","","","","","",""
"revaluation","77","603851","0.0-3.0-13.0-2.0-0.7","spark_pilot_2","7142","7","9","Female","","false","","","","","[1342,1029.5]","./assets/img/space/14.jpg","[""ArrowDown"",""ArrowRight""]","practice block","space","23","{""ArrowUp,ArrowLeft"":3,""ArrowUp,ArrowRight"":36,""ArrowDown,ArrowLeft"":15,""ArrowDown,ArrowRight"":23}","false","ArrowDown,ArrowRight","false","","","","","","","",""
"html-keyboard-response","78","604352","0.0-3.0-13.0-2.0-1.7","spark_pilot_2","7142","7","9","Female","","","","","","","null","<div style=""font-size:60px;"">+</div>","null","fixation","","","","","","","","","","","","","",""
"revaluation","79","608359","0.0-3.0-13.0-2.0-0.8","spark_pilot_2","7142","7","9","Female","","false","","","","","[977.2999999523163]","./assets/img/space/catch/3.jpg","[""ArrowUp""]","practice block","space","-10","{""ArrowUp,ArrowLeft"":3,""ArrowUp,ArrowRight"":36,""ArrowDown,ArrowLeft"":15,""ArrowDown,ArrowRight"":23}","false","ArrowUp","true","","","","","","","",""
"html-keyboard-response","80","608861","0.0-3.0-13.0-2.0-1.8","spark_pilot_2","7142","7","9","Female","","","","","","","null","<div style=""font-size:60px;"">+</div>","null","fixation","","","","","","","","","","","","","",""
"learning-instructions","81","624133","0.0-3.0-13.0-3.0-0.0","spark_pilot_2","7142","7","9","Female","","","","","","","2074.7000000476837","<p> Now, you will travel with a friend who will choose whether you go up or down first. </p>
            <p> On these turns, you will just see the animal that they found. You will still get to choose which chest to search for treasure.</p>","","instructions","","","","","","","","","","","","","",""
"revaluation","82","628142","0.0-3.0-13.0-4.0-0.0","spark_pilot_2","7142","7","9","Female","","false","","","","","[1648.0999999046326]","./assets/img/space/animals/cat.jpg","[""ArrowRight""]","practice block","space","36","{""ArrowUp,ArrowLeft"":3,""ArrowUp,ArrowRight"":36,""ArrowDown,ArrowLeft"":15,""ArrowDown,ArrowRight"":23}","true","ArrowUp,ArrowRight","","","","","","","","",""
"html-keyboard-response","83","628644","0.0-3.0-13.0-4.0-1.0","spark_pilot_2","7142","7","9","Female","","","","","","","null","<div style=""font-size:60px;"">+</div>","null","fixation","","","","","","","","","","","","","",""
"revaluation","84","632674","0.0-3.0-13.0-4.0-0.1","spark_pilot_2","7142","7","9","Female","","false","","","","","[1284.6000001430511]","./assets/img/space/animals/rabbit.jpg","[""ArrowLeft""]","practice block","space","15","{""ArrowUp,ArrowLeft"":3,""ArrowUp,ArrowRight"":36,""ArrowDown,ArrowLeft"":15,""ArrowDown,ArrowRight"":23}","false","ArrowDown,ArrowLeft","","","","","","","","",""
"html-keyboard-response","85","633182","0.0-3.0-13.0-4.0-1.1","spark_pilot_2","7142","7","9","Female","","","","","","","null","<div style=""font-size:60px;"">+</div>","null","fixation","","","","","","","","","","","","","",""
"revaluation","86","637213","0.0-3.0-13.0-4.0-0.2","spark_pilot_2","7142","7","9","Female","","false","","","","","[1116.0999999046326]","./assets/img/space/animals/rabbit.jpg","[""ArrowRight""]","practice block","space","23","{""ArrowUp,ArrowLeft"":3,""ArrowUp,ArrowRight"":36,""ArrowDown,ArrowLeft"":15,""ArrowDown,ArrowRight"":23}","true","ArrowDown,ArrowRight","","","","","","","","",""
"html-keyboard-response","87","637721","0.0-3.0-13.0-4.0-1.2","spark_pilot_2","7142","7","9","Female","","","","","","","null","<div style=""font-size:60px;"">+</div>","null","fixation","","","","","","","","","","","","","",""
"revaluation","88","641737","0.0-3.0-13.0-4.0-0.3","spark_pilot_2","7142","7","9","Female","","false","","","","","[1135.7999999523163]","./assets/img/space/animals/cat.jpg","[""ArrowRight""]","practice block","space","36","{""ArrowUp,ArrowLeft"":3,""ArrowUp,ArrowRight"":36,""ArrowDown,ArrowLeft"":15,""ArrowDown,ArrowRight"":23}","true","ArrowUp,ArrowRight","","","","","","","","",""
"html-keyboard-response","89","642241","0.0-3.0-13.0-4.0-1.3","spark_pilot_2","7142","7","9","Female","","","","","","","null","<div style=""font-size:60px;"">+</div>","null","fixation","","","","","","","","","","","","","",""
"learning-instructions","90","654548","0.0-3.0-13.0-5.0-0.0","spark_pilot_2","7142","7","9","Female","","","","","","","4610.800000190735","<p> Time to play the dot game! </p>
            <p> For 15 seconds, click the red dots on the following screen as they appear. </p>","","instructions","","","","","","","","","","","","","",""
"revaluation","91","669550","0.0-3.0-13.0-6.0-0.0","spark_pilot_2","7142","7","9","Female","","","","","","","[101]","","","rest practice","","10","","","","","0","15000","","","","","",""
"learning-instructions","92","677556","0.0-3.0-13.0-7.0-0.0","spark_pilot_2","7142","7","9","Female","","","","","","","1859","<p> You have almost finished this part of the game! </p>
            <p> We are going to ask you to make a few more choices. </p>","","instructions","","","","","","","","","","","","","",""
"learning-instructions","93","693405","0.0-3.0-13.0-7.0-0.1","spark_pilot_2","7142","7","9","Female","","","","","","","1836.9000000953674","<p> First, you need to decide whether to go up or down. When you see each picture, use the arrow keys to make your choice. </p>
            <p><b>You will not see which animal you found, but try to get to the one that will give you the most treasure.</b></p>","","instructions","","","","","","","","","","","","","",""
"revaluation","94","694470","0.0-3.0-13.0-8.0","spark_pilot_2","7142","7","9","Female","","false","","","","","[1063.2999999523163]","./assets/img/space/15.jpg","[""ArrowDown""]","practice block","space","0","{""ArrowUp,ArrowLeft"":3,""ArrowUp,ArrowRight"":36,""ArrowDown,ArrowLeft"":15,""ArrowDown,ArrowRight"":23}","false","ArrowDown","false","","","","","","","",""
"html-keyboard-response","95","694978","0.0-3.0-13.0-9.0","spark_pilot_2","7142","7","9","Female","","","","","","","null","<div style=""font-size:60px;"">+</div>","null","fixation","","","","","","","","","","","","","",""
"learning-instructions","96","708381","0.0-3.0-13.0-10.0-0.0","spark_pilot_2","7142","7","9","Female","","","","","","","1992.9000000953674","<p> Now you will see the animals again and can search their chests for treasure. </p>
            <p> This time, you will not see how much treasure you earned, but you will earn more bonus money for making better choices. </p>","","instructions","","","","","","","","","","","","","",""
"revaluation","97","709406","0.0-3.0-13.0-11.0-0.0","spark_pilot_2","7142","7","9","Female","","false","","","","","[1023.5999999046326]","./assets/img/space/animals/cat.jpg","[""ArrowRight""]","practice block","space","0","{""ArrowUp,ArrowLeft"":3,""ArrowUp,ArrowRight"":36,""ArrowDown,ArrowLeft"":15,""ArrowDown,ArrowRight"":23}","true","ArrowUp,ArrowRight","","","","","","","","",""
"html-keyboard-response","98","709915","0.0-3.0-13.0-11.0-1.0","spark_pilot_2","7142","7","9","Female","","","","","","","null","<div style=""font-size:60px;"">+</div>","null","fixation","","","","","","","","","","","","","",""
"revaluation","99","711374","0.0-3.0-13.0-11.0-0.1","spark_pilot_2","7142","7","9","Female","","false","","","","","[1454.9000000953674]","./assets/img/space/animals/rabbit.jpg","[""ArrowRight""]","practice block","space","0","{""ArrowUp,ArrowLeft"":3,""ArrowUp,ArrowRight"":36,""ArrowDown,ArrowLeft"":15,""ArrowDown,ArrowRight"":23}","true","ArrowDown,ArrowRight","","","","","","","","",""
"html-keyboard-response","100","711884","0.0-3.0-13.0-11.0-1.1","spark_pilot_2","7142","7","9","Female","","","","","","","null","<div style=""font-size:60px;"">+</div>","null","fixation","","","","","","","","","","","","","",""
"learning-instructions","101","717829","0.0-3.0-14.0-0.0","spark_pilot_2","7142","7","9","Female","","","","","","","1330","<p> Before you start, we're going to ask you a few questions about how the game works. </p>","","instructions","","","","","","","","","","","","","",""
"comp-q","102","725261","0.0-3.0-15.0-0.0-0.0","spark_pilot_2","7142","7","9","Female","","","","","","","1855.4000000953674","<p> <b> True or False? </b> </p>
            <p> There can be 50 pieces of treasure in a given animal's chest. </p>","1","comp_question","","","","true","","","","","","","","","",""
"comp-q","103","734469","0.0-3.0-15.0-0.0-1.0","spark_pilot_2","7142","7","9","Female","","","","","","","2561.300000190735","<p> <b> That's right! </b> The amount of treasure in each chest can range from 0 to 40 pieces. </p>","0","comp_answer","","","","","","","","","","","","","",""
"comp-q","104","743189","0.0-3.0-15.0-0.1-0.1","spark_pilot_2","7142","7","9","Female","","","","","","","1610.5","<p> <b> True or False? </b> </p><p> In this game, all animals have the same amount of treasure in their left and right chests. </p>","1","comp_question","","","","true","","","","","","","","","",""
"comp-q","105","749757","0.0-3.0-15.0-0.1-1.1","spark_pilot_2","7142","7","9","Female","","","","","","","1348.7000000476837","<p> <b> That's right! </b> Animals have different amounts of treasure in their treasure chests. </p>","0","comp_answer","","","","","","","","","","","","","",""
"comp-q","106","757005","0.0-3.0-15.0-0.2-0.2","spark_pilot_2","7142","7","9","Female","","","","","","","1416.7999999523163","<p> <b> True or False? </b> </p><p> The same animal will always be there if you go up in the same place. </p>","0","comp_question","","","","true","","","","","","","","","",""
"comp-q","107","764734","0.0-3.0-15.0-0.2-1.2","spark_pilot_2","7142","7","9","Female","","","","","","","1285.3999998569489","<p> <b> That's right! </b> One animal lives in the upper part and one lives in the lower part of every place. </p>","0","comp_answer","","","","","","","","","","","","","",""
"comp-q","108","771317","0.0-3.0-15.0-0.3-0.3","spark_pilot_2","7142","7","9","Female","","","","","","","1058.7000000476837","<p> <b> True or False? </b> </p><p> If you see a different picture, it means you are in a new place. </p>","0","comp_question","","","","false","","","","","","","","","",""
"comp-q","109","784453","0.0-3.0-15.0-0.3-1.3","spark_pilot_2","7142","7","9","Female","","","","","","","2044.6999998092651","<p> <b>Incorrect.</b> Lots of different images may show the same place. For example,  you may see three different images that all remind you that you are in outer space. </p>","0","comp_answer","","","","","","","","","","","","","",""
"comp-q","110","791037","0.0-3.0-15.0-0.4-0.4","spark_pilot_2","7142","7","9","Female","","","","","","","1088.2000000476837","<p> <b> True or False? </b> </p><p> If you see a different picture, it means you are in a new place. </p>","1","comp_question","","","","true","","","","","","","","","",""
"comp-q","111","803477","0.0-3.0-15.0-0.4-1.4","spark_pilot_2","7142","7","9","Female","","","","","","","1218.4000000953674","<p> <b> That's right! </b> Lots of different images may show the same place. For example,  you may see three different images that all remind you that you are in outer space. </p>","0","comp_answer","","","","","","","","","","","","","",""
"learning-instructions","112","816949","0.0-3.0-16.0-0.0","spark_pilot_2","7142","7","9","Female","","","","","","","3620.2999999523163","<p> Good job. Remember to do your best because the amount of treasure you earn will be converted into bonus money. </p>
            <p> It’s time to start the real game! </p>","","instructions","","","","","","","","","","","","","",""
"learning-instructions","113","821317","0.0-4.0-0.0-0.0","spark_pilot_2","7142","7","9","Female","","","","","","","1609.6000001430511","<p> This time you are searching for treasure in the <b>canyon</b>.</p>","","instructions","","","","","","","","","","","","","",""
"learning-instructions","114","839725","0.0-4.0-0.0-0.1","spark_pilot_2","7142","7","9","Female","","","","","","","1116.3999998569489","<p><b>New</b> animals with <b>new</b> treasure chests live here. You need to explore to discover where the animal with the best treasure chest is.</p>
                    <p> Like before, once you figure out which animal has the chest with the most treasure, you should try to get to that animal and select that chest! </p>","","instructions","","","","","","","","","","","","","",""
"learning-instructions","115","855773","0.0-4.0-1.0-0.0","spark_pilot_2","7142","7","9","Female","","","","","","","1325","<p> Remember, when you see a picture of the place, use the up and down keys to <b>find an animal</b>.</p>
            <p> When you encounter an animal, you should use the left and right keys to <b>select a treasure chest</b>.</p>
            <p> Don't forget to look out for the robber! </p>","","instructions","","","","","","","","","","","","","",""
"revaluation","116","861804","0.0-4.0-2.0-0.0","spark_pilot_2","7142","7","9","Female","","false","","","","","[1079.6999998092651,1002.0999999046326]","./assets/img/canyon/memory/10.jpg","[""ArrowDown"",""ArrowLeft""]","value training","canyon","8","{""ArrowUp,ArrowLeft"":23,""ArrowUp,ArrowRight"":10,""ArrowDown,ArrowLeft"":8,""ArrowDown,ArrowRight"":30}","false","ArrowDown,ArrowLeft","false","","","original","1","0","","",""
"html-keyboard-response","117","862313","0.0-4.0-2.0-1.0","spark_pilot_2","7142","7","9","Female","","","","","","","null","<div style=""font-size:60px;"">+</div>","null","fixation","","","","","","","","","","","1","","",""
"revaluation","118","868337","0.0-4.0-2.0-0.1","spark_pilot_2","7142","7","9","Female","","false","","","","","[1225.2999999523163,1071]","./assets/img/canyon/memory/3.jpg","[""ArrowDown"",""ArrowRight""]","value training","canyon","30","{""ArrowUp,ArrowLeft"":23,""ArrowUp,ArrowRight"":10,""ArrowDown,ArrowLeft"":8,""ArrowDown,ArrowRight"":30}","true","ArrowDown,ArrowRight","false","","","original","1","2","","",""
"html-keyboard-response","119","868844","0.0-4.0-2.0-1.1","spark_pilot_2","7142","7","9","Female","","","","","","","null","<div style=""font-size:60px;"">+</div>","null","fixation","","","","","","","","","","","3","","",""
"revaluation","120","874873","0.0-4.0-2.0-0.2","spark_pilot_2","7142","7","9","Female","","false","","","","","[1437.2999999523163,1173.5999999046326]","./assets/img/canyon/memory/20.jpg","[""ArrowUp"",""ArrowRight""]","value training","canyon","10","{""ArrowUp,ArrowLeft"":23,""ArrowUp,ArrowRight"":10,""ArrowDown,ArrowLeft"":8,""ArrowDown,ArrowRight"":30}","false","ArrowUp,ArrowRight","false","","","original","1","4","","",""
"html-keyboard-response","121","875374","0.0-4.0-2.0-1.2","spark_pilot_2","7142","7","9","Female","","","","","","","null","<div style=""font-size:60px;"">+</div>","null","fixation","","","","","","","","","","","5","","",""
"revaluation","122","881406","0.0-4.0-2.0-0.3","spark_pilot_2","7142","7","9","Female","","false","","","","","[1268.2000000476837,1145.7999999523163]","./assets/img/canyon/memory/18.jpg","[""ArrowDown"",""ArrowLeft""]","value training","canyon","8","{""ArrowUp,ArrowLeft"":23,""ArrowUp,ArrowRight"":10,""ArrowDown,ArrowLeft"":8,""ArrowDown,ArrowRight"":30}","false","ArrowDown,ArrowLeft","false","","","original","1","6","","",""
"html-keyboard-response","123","881916","0.0-4.0-2.0-1.3","spark_pilot_2","7142","7","9","Female","","","","","","","null","<div style=""font-size:60px;"">+</div>","null","fixation","","","","","","","","","","","7","","",""
"revaluation","124","887932","0.0-4.0-2.0-0.4","spark_pilot_2","7142","7","9","Female","","false","","","","","[998.2999999523163,827.8999998569489]","./assets/img/canyon/memory/7.jpg","[""ArrowUp"",""ArrowLeft""]","value training","canyon","23","{""ArrowUp,ArrowLeft"":23,""ArrowUp,ArrowRight"":10,""ArrowDown,ArrowLeft"":8,""ArrowDown,ArrowRight"":30}","false","ArrowUp,ArrowLeft","false","","","original","1","8","","",""
"html-keyboard-response","125","888434","0.0-4.0-2.0-1.4","spark_pilot_2","7142","7","9","Female","","","","","","","null","<div style=""font-size:60px;"">+</div>","null","fixation","","","","","","","","","","","9","","",""
"revaluation","126","892440","0.0-4.0-2.0-0.5","spark_pilot_2","7142","7","9","Female","","false","","","","","[1447.5999999046326]","./assets/img/canyon/catch/1.jpg","[""ArrowUp""]","value training","canyon","-10","{""ArrowUp,ArrowLeft"":23,""ArrowUp,ArrowRight"":10,""ArrowDown,ArrowLeft"":8,""ArrowDown,ArrowRight"":30}","false","ArrowUp","true","","","original","1","10","","",""
"html-keyboard-response","127","892942","0.0-4.0-2.0-1.5","spark_pilot_2","7142","7","9","Female","","","","","","","null","<div style=""font-size:60px;"">+</div>","null","fixation","","","","","","","","","","","11","","",""
"revaluation","128","898949","0.0-4.0-2.0-0.6","spark_pilot_2","7142","7","9","Female","","false","","","","","[1020.2999999523163,1019]","./assets/img/canyon/memory/13.jpg","[""ArrowDown"",""ArrowRight""]","value training","canyon","30","{""ArrowUp,ArrowLeft"":23,""ArrowUp,ArrowRight"":10,""ArrowDown,ArrowLeft"":8,""ArrowDown,ArrowRight"":30}","true","ArrowDown,ArrowRight","false","","","original","1","12","","",""
"html-keyboard-response","129","899451","0.0-4.0-2.0-1.6","spark_pilot_2","7142","7","9","Female","","","","","","","null","<div style=""font-size:60px;"">+</div>","null","fixation","","","","","","","","","","","13","","",""
"revaluation","130","905457","0.0-4.0-2.0-0.7","spark_pilot_2","7142","7","9","Female","","false","","","","","[1174.7000000476837,926.2999999523163]","./assets/img/canyon/memory/3.jpg","[""ArrowUp"",""ArrowLeft""]","value training","canyon","23","{""ArrowUp,ArrowLeft"":23,""ArrowUp,ArrowRight"":10,""ArrowDown,ArrowLeft"":8,""ArrowDown,ArrowRight"":30}","false","ArrowUp,ArrowLeft","false","","","original","1","14","","",""
"html-keyboard-response","131","905959","0.0-4.0-2.0-1.7","spark_pilot_2","7142","7","9","Female","","","","","","","null","<div style=""font-size:60px;"">+</div>","null","fixation","","","","","","","","","","","15","","",""
"revaluation","132","909966","0.0-4.0-2.0-0.8","spark_pilot_2","7142","7","9","Female","","false","","","","","[1274.4000000953674]","./assets/img/canyon/catch/3.jpg","[""spaceBar""]","value training","canyon","0","{""ArrowUp,ArrowLeft"":23,""ArrowUp,ArrowRight"":10,""ArrowDown,ArrowLeft"":8,""ArrowDown,ArrowRight"":30}","true","spaceBar","true","","","original","1","16","","",""
"html-keyboard-response","133","910471","0.0-4.0-2.0-1.8","spark_pilot_2","7142","7","9","Female","","","","","","","null","<div style=""font-size:60px;"">+</div>","null","fixation","","","","","","","","","","","17","","",""
"revaluation","134","914477","0.0-4.0-2.0-0.9","spark_pilot_2","7142","7","9","Female","","false","","","","","[1218.7999999523163]","./assets/img/canyon/catch/6.jpg","[""spaceBar""]","value training","canyon","0","{""ArrowUp,ArrowLeft"":23,""ArrowUp,ArrowRight"":10,""ArrowDown,ArrowLeft"":8,""ArrowDown,ArrowRight"":30}","true","spaceBar","true","","","original","1","18","","",""
"html-keyboard-response","135","914978","0.0-4.0-2.0-1.9","spark_pilot_2","7142","7","9","Female","","","","","","","null","<div style=""font-size:60px;"">+</div>","null","fixation","","","","","","","","","","","19","","",""
"revaluation","136","918985","0.0-4.0-2.0-0.10","spark_pilot_2","7142","7","9","Female","","false","","","","","[1399.1000001430511]","./assets/img/canyon/catch/2.jpg","[""spaceBar""]","value training","canyon","0","{""ArrowUp,ArrowLeft"":23,""ArrowUp,ArrowRight"":10,""ArrowDown,ArrowLeft"":8,""ArrowDown,ArrowRight"":30}","true","spaceBar","true","","","original","1","20","","",""
"html-keyboard-response","137","919487","0.0-4.0-2.0-1.10","spark_pilot_2","7142","7","9","Female","","","","","","","null","<div style=""font-size:60px;"">+</div>","null","fixation","","","","","","","","","","","21","","",""
"revaluation","138","925493","0.0-4.0-2.0-0.11","spark_pilot_2","7142","7","9","Female","","false","","","","","[1163.2000000476837,930.3999998569489]","./assets/img/canyon/memory/35.jpg","[""ArrowDown"",""ArrowRight""]","value training","canyon","30","{""ArrowUp,ArrowLeft"":23,""ArrowUp,ArrowRight"":10,""ArrowDown,ArrowLeft"":8,""ArrowDown,ArrowRight"":30}","true","ArrowDown,ArrowRight","false","","","original","1","22","","",""
"html-keyboard-response","139","925995","0.0-4.0-2.0-1.11","spark_pilot_2","7142","7","9","Female","","","","","","","null","<div style=""font-size:60px;"">+</div>","null","fixation","","","","","","","","","","","23","","",""
"revaluation","140","932003","0.0-4.0-2.0-0.12","spark_pilot_2","7142","7","9","Female","","false","","","","","[1206.2999999523163,1077.0999999046326]","./assets/img/canyon/memory/16.jpg","[""ArrowUp"",""ArrowLeft""]","value training","canyon","23","{""ArrowUp,ArrowLeft"":23,""ArrowUp,ArrowRight"":10,""ArrowDown,ArrowLeft"":8,""ArrowDown,ArrowRight"":30}","false","ArrowUp,ArrowLeft","false","","","original","1","24","","",""
"html-keyboard-response","141","932505","0.0-4.0-2.0-1.12","spark_pilot_2","7142","7","9","Female","","","","","","","null","<div style=""font-size:60px;"">+</div>","null","fixation","","","","","","","","","","","25","","",""
"revaluation","142","938513","0.0-4.0-2.0-0.13","spark_pilot_2","7142","7","9","Female","","false","","","","","[1168.5999999046326,1135.2000000476837]","./assets/img/canyon/memory/8.jpg","[""ArrowDown"",""ArrowRight""]","value training","canyon","30","{""ArrowUp,ArrowLeft"":23,""ArrowUp,ArrowRight"":10,""ArrowDown,ArrowLeft"":8,""ArrowDown,ArrowRight"":30}","true","ArrowDown,ArrowRight","false","","","original","1","26","","",""
"html-keyboard-response","143","939014","0.0-4.0-2.0-1.13","spark_pilot_2","7142","7","9","Female","","","","","","","null","<div style=""font-size:60px;"">+</div>","null","fixation","","","","","","","","","","","27","","",""
"revaluation","144","945021","0.0-4.0-2.0-0.14","spark_pilot_2","7142","7","9","Female","","false","","","","","[1267,1250.0999999046326]","./assets/img/canyon/memory/31.jpg","[""ArrowUp"",""ArrowRight""]","value training","canyon","10","{""ArrowUp,ArrowLeft"":23,""ArrowUp,ArrowRight"":10,""ArrowDown,ArrowLeft"":8,""ArrowDown,ArrowRight"":30}","false","ArrowUp,ArrowRight","false","","","original","1","28","","",""
"html-keyboard-response","145","945524","0.0-4.0-2.0-1.14","spark_pilot_2","7142","7","9","Female","","","","","","","null","<div style=""font-size:60px;"">+</div>","null","fixation","","","","","","","","","","","29","","",""
"revaluation","146","951531","0.0-4.0-2.0-0.15","spark_pilot_2","7142","7","9","Female","","false","","","","","[1182.5999999046326,1165.5]","./assets/img/canyon/memory/6.jpg","[""ArrowUp"",""ArrowLeft""]","value training","canyon","23","{""ArrowUp,ArrowLeft"":23,""ArrowUp,ArrowRight"":10,""ArrowDown,ArrowLeft"":8,""ArrowDown,ArrowRight"":30}","false","ArrowUp,ArrowLeft","false","","","original","1","30","","",""
"html-keyboard-response","147","952033","0.0-4.0-2.0-1.15","spark_pilot_2","7142","7","9","Female","","","","","","","null","<div style=""font-size:60px;"">+</div>","null","fixation","","","","","","","","","","","31","","",""
"revaluation","148","958040","0.0-4.0-2.0-0.16","spark_pilot_2","7142","7","9","Female","","false","","","","","[1194.5,1456.7999999523163]","./assets/img/canyon/memory/1.jpg","[""ArrowDown"",""ArrowRight""]","value training","canyon","30","{""ArrowUp,ArrowLeft"":23,""ArrowUp,ArrowRight"":10,""ArrowDown,ArrowLeft"":8,""ArrowDown,ArrowRight"":30}","true","ArrowDown,ArrowRight","false","","","original","1","32","","",""
"html-keyboard-response","149","958543","0.0-4.0-2.0-1.16","spark_pilot_2","7142","7","9","Female","","","","","","","null","<div style=""font-size:60px;"">+</div>","null","fixation","","","","","","","","","","","33","","",""
"revaluation","150","962551","0.0-4.0-2.0-0.17","spark_pilot_2","7142","7","9","Female","","false","","","","","[1090.5]","./assets/img/canyon/catch/5.jpg","[""spaceBar""]","value training","canyon","0","{""ArrowUp,ArrowLeft"":23,""ArrowUp,ArrowRight"":10,""ArrowDown,ArrowLeft"":8,""ArrowDown,ArrowRight"":30}","true","spaceBar","true","","","original","1","34","","",""
"html-keyboard-response","151","963053","0.0-4.0-2.0-1.17","spark_pilot_2","7142","7","9","Female","","","","","","","null","<div style=""font-size:60px;"">+</div>","null","fixation","","","","","","","","","","","35","","",""
"revaluation","152","969060","0.0-4.0-2.0-0.18","spark_pilot_2","7142","7","9","Female","","false","","","","","[1132.5999999046326,1083.7999999523163]","./assets/img/canyon/memory/16.jpg","[""ArrowUp"",""ArrowRight""]","value training","canyon","10","{""ArrowUp,ArrowLeft"":23,""ArrowUp,ArrowRight"":10,""ArrowDown,ArrowLeft"":8,""ArrowDown,ArrowRight"":30}","false","ArrowUp,ArrowRight","false","","","original","1","36","","",""
"html-keyboard-response","153","969561","0.0-4.0-2.0-1.18","spark_pilot_2","7142","7","9","Female","","","","","","","null","<div style=""font-size:60px;"">+</div>","null","fixation","","","","","","","","","","","37","","",""
"revaluation","154","973574","0.0-4.0-2.0-0.19","spark_pilot_2","7142","7","9","Female","","false","","","","","[1232.7000000476837]","./assets/img/canyon/catch/0.jpg","[""spaceBar""]","value training","canyon","0","{""ArrowUp,ArrowLeft"":23,""ArrowUp,ArrowRight"":10,""ArrowDown,ArrowLeft"":8,""ArrowDown,ArrowRight"":30}","true","spaceBar","true","","","original","1","38","","",""
"html-keyboard-response","155","974077","0.0-4.0-2.0-1.19","spark_pilot_2","7142","7","9","Female","","","","","","","null","<div style=""font-size:60px;"">+</div>","null","fixation","","","","","","","","","","","39","","",""
"revaluation","156","980087","0.0-4.0-2.0-0.20","spark_pilot_2","7142","7","9","Female","","false","","","","","[1073.5999999046326,1041.5999999046326]","./assets/img/canyon/memory/5.jpg","[""ArrowDown"",""ArrowLeft""]","value training","canyon","8","{""ArrowUp,ArrowLeft"":23,""ArrowUp,ArrowRight"":10,""ArrowDown,ArrowLeft"":8,""ArrowDown,ArrowRight"":30}","false","ArrowDown,ArrowLeft","false","","","original","1","40","","",""
"html-keyboard-response","157","980590","0.0-4.0-2.0-1.20","spark_pilot_2","7142","7","9","Female","","","","","","","null","<div style=""font-size:60px;"">+</div>","null","fixation","","","","","","","","","","","41","","",""
"revaluation","158","986598","0.0-4.0-2.0-0.21","spark_pilot_2","7142","7","9","Female","","false","","","","","[1100.5,987.2999999523163]","./assets/img/canyon/memory/9.jpg","[""ArrowDown"",""ArrowRight""]","value training","canyon","30","{""ArrowUp,ArrowLeft"":23,""ArrowUp,ArrowRight"":10,""ArrowDown,ArrowLeft"":8,""ArrowDown,ArrowRight"":30}","true","ArrowDown,ArrowRight","false","","","original","1","42","","",""
"html-keyboard-response","159","987100","0.0-4.0-2.0-1.21","spark_pilot_2","7142","7","9","Female","","","","","","","null","<div style=""font-size:60px;"">+</div>","null","fixation","","","","","","","","","","","43","","",""
"revaluation","160","993107","0.0-4.0-2.0-0.22","spark_pilot_2","7142","7","9","Female","","false","","","","","[1013.5999999046326,1213]","./assets/img/canyon/memory/24.jpg","[""ArrowUp"",""ArrowRight""]","value training","canyon","10","{""ArrowUp,ArrowLeft"":23,""ArrowUp,ArrowRight"":10,""ArrowDown,ArrowLeft"":8,""ArrowDown,ArrowRight"":30}","false","ArrowUp,ArrowRight","false","","","original","1","44","","",""
"html-keyboard-response","161","993610","0.0-4.0-2.0-1.22","spark_pilot_2","7142","7","9","Female","","","","","","","null","<div style=""font-size:60px;"">+</div>","null","fixation","","","","","","","","","","","45","","",""
"revaluation","162","999618","0.0-4.0-2.0-0.23","spark_pilot_2","7142","7","9","Female","","false","","","","","[943.7999999523163,926.3999998569489]","./assets/img/canyon/memory/38.jpg","[""ArrowUp"",""ArrowLeft""]","value training","canyon","23","{""ArrowUp,ArrowLeft"":23,""ArrowUp,ArrowRight"":10,""ArrowDown,ArrowLeft"":8,""ArrowDown,ArrowRight"":30}","false","ArrowUp,ArrowLeft","false","","","original","1","46","","",""
"html-keyboard-response","163","1000120","0.0-4.0-2.0-1.23","spark_pilot_2","7142","7","9","Female","","","","","","","null","<div style=""font-size:60px;"">+</div>","null","fixation","","","","","","","","","","","47","","",""
"revaluation","164","1004126","0.0-4.0-2.0-0.24","spark_pilot_2","7142","7","9","Female","","true","","","","","[]","./assets/img/canyon/memory/18.jpg","[]","value training","canyon","-5","{""ArrowUp,ArrowLeft"":23,""ArrowUp,ArrowRight"":10,""ArrowDown,ArrowLeft"":8,""ArrowDown,ArrowRight"":30}","false","","false","","","original","1","48","","",""
"html-keyboard-response","165","1004630","0.0-4.0-2.0-1.24","spark_pilot_2","7142","7","9","Female","","","","","","","null","<div style=""font-size:60px;"">+</div>","null","fixation","","","","","","","","","","","49","","",""
"revaluation","166","1010639","0.0-4.0-2.0-0.25","spark_pilot_2","7142","7","9","Female","","false","","","","","[738.8999998569489,849.8999998569489]","./assets/img/canyon/memory/35.jpg","[""ArrowDown"",""ArrowRight""]","value training","canyon","30","{""ArrowUp,ArrowLeft"":23,""ArrowUp,ArrowRight"":10,""ArrowDown,ArrowLeft"":8,""ArrowDown,ArrowRight"":30}","true","ArrowDown,ArrowRight","false","","","original","1","50","","",""
"html-keyboard-response","167","1011141","0.0-4.0-2.0-1.25","spark_pilot_2","7142","7","9","Female","","","","","","","null","<div style=""font-size:60px;"">+</div>","null","fixation","","","","","","","","","","","51","","",""
"revaluation","168","1017149","0.0-4.0-2.0-0.26","spark_pilot_2","7142","7","9","Female","","false","","","","","[1084.1999998092651,571.2000000476837]","./assets/img/canyon/memory/26.jpg","[""ArrowUp"",""ArrowRight""]","value training","canyon","10","{""ArrowUp,ArrowLeft"":23,""ArrowUp,ArrowRight"":10,""ArrowDown,ArrowLeft"":8,""ArrowDown,ArrowRight"":30}","false","ArrowUp,ArrowRight","false","","","original","1","52","","",""
"html-keyboard-response","169","1017650","0.0-4.0-2.0-1.26","spark_pilot_2","7142","7","9","Female","","","","","","","null","<div style=""font-size:60px;"">+</div>","null","fixation","","","","","","","","","","","53","","",""
"revaluation","170","1023656","0.0-4.0-2.0-0.27","spark_pilot_2","7142","7","9","Female","","false","","","","","[1095.0999999046326,926.3999998569489]","./assets/img/canyon/memory/1.jpg","[""ArrowUp"",""ArrowLeft""]","value training","canyon","23","{""ArrowUp,ArrowLeft"":23,""ArrowUp,ArrowRight"":10,""ArrowDown,ArrowLeft"":8,""ArrowDown,ArrowRight"":30}","false","ArrowUp,ArrowLeft","false","","","original","1","54","","",""
"html-keyboard-response","171","1024159","0.0-4.0-2.0-1.27","spark_pilot_2","7142","7","9","Female","","","","","","","null","<div style=""font-size:60px;"">+</div>","null","fixation","","","","","","","","","","","55","","",""
"revaluation","172","1030168","0.0-4.0-2.0-0.28","spark_pilot_2","7142","7","9","Female","","false","","","","","[1042.0999999046326,1296.7999999523163]","./assets/img/canyon/memory/24.jpg","[""ArrowDown"",""ArrowLeft""]","value training","canyon","8","{""ArrowUp,ArrowLeft"":23,""ArrowUp,ArrowRight"":10,""ArrowDown,ArrowLeft"":8,""ArrowDown,ArrowRight"":30}","false","ArrowDown,ArrowLeft","false","","","original","1","56","","",""
"html-keyboard-response","173","1030670","0.0-4.0-2.0-1.28","spark_pilot_2","7142","7","9","Female","","","","","","","null","<div style=""font-size:60px;"">+</div>","null","fixation","","","","","","","","","","","57","","",""
"revaluation","174","1036677","0.0-4.0-2.0-0.29","spark_pilot_2","7142","7","9","Female","","false","","","","","[1020.2999999523163,929.5999999046326]","./assets/img/canyon/memory/12.jpg","[""ArrowDown"",""ArrowRight""]","value training","canyon","30","{""ArrowUp,ArrowLeft"":23,""ArrowUp,ArrowRight"":10,""ArrowDown,ArrowLeft"":8,""ArrowDown,ArrowRight"":30}","true","ArrowDown,ArrowRight","false","","","original","1","58","","",""
"html-keyboard-response","175","1037179","0.0-4.0-2.0-1.29","spark_pilot_2","7142","7","9","Female","","","","","","","null","<div style=""font-size:60px;"">+</div>","null","fixation","","","","","","","","","","","59","","",""
"revaluation","176","1043186","0.0-4.0-2.0-0.30","spark_pilot_2","7142","7","9","Female","","false","","","","","[1325.9000000953674,1501.7999999523163]","./assets/img/canyon/memory/32.jpg","[""ArrowUp"",""ArrowRight""]","value training","canyon","10","{""ArrowUp,ArrowLeft"":23,""ArrowUp,ArrowRight"":10,""ArrowDown,ArrowLeft"":8,""ArrowDown,ArrowRight"":30}","false","ArrowUp,ArrowRight","false","","","original","1","60","","",""
"html-keyboard-response","177","1043688","0.0-4.0-2.0-1.30","spark_pilot_2","7142","7","9","Female","","","","","","","null","<div style=""font-size:60px;"">+</div>","null","fixation","","","","","","","","","","","61","","",""
"revaluation","178","1049694","0.0-4.0-2.0-0.31","spark_pilot_2","7142","7","9","Female","","false","","","","","[1226.2000000476837,1137.2999999523163]","./assets/img/canyon/memory/37.jpg","[""ArrowUp"",""ArrowLeft""]","value training","canyon","23","{""ArrowUp,ArrowLeft"":23,""ArrowUp,ArrowRight"":10,""ArrowDown,ArrowLeft"":8,""ArrowDown,ArrowRight"":30}","false","ArrowUp,ArrowLeft","false","","","original","1","62","","",""
"html-keyboard-response","179","1050197","0.0-4.0-2.0-1.31","spark_pilot_2","7142","7","9","Female","","","","","","","null","<div style=""font-size:60px;"">+</div>","null","fixation","","","","","","","","","","","63","","",""
"revaluation","180","1056204","0.0-4.0-2.0-0.32","spark_pilot_2","7142","7","9","Female","","false","","","","","[1363.9000000953674,1035.1000001430511]","./assets/img/canyon/memory/19.jpg","[""ArrowUp"",""ArrowRight""]","value training","canyon","10","{""ArrowUp,ArrowLeft"":23,""ArrowUp,ArrowRight"":10,""ArrowDown,ArrowLeft"":8,""ArrowDown,ArrowRight"":30}","false","ArrowUp,ArrowRight","false","","","original","1","64","","",""
"html-keyboard-response","181","1056707","0.0-4.0-2.0-1.32","spark_pilot_2","7142","7","9","Female","","","","","","","null","<div style=""font-size:60px;"">+</div>","null","fixation","","","","","","","","","","","65","","",""
"revaluation","182","1062715","0.0-4.0-2.0-0.33","spark_pilot_2","7142","7","9","Female","","false","","","","","[1119.2999999523163,636.7999999523163]","./assets/img/canyon/memory/6.jpg","[""ArrowDown"",""ArrowLeft""]","value training","canyon","8","{""ArrowUp,ArrowLeft"":23,""ArrowUp,ArrowRight"":10,""ArrowDown,ArrowLeft"":8,""ArrowDown,ArrowRight"":30}","false","ArrowDown,ArrowLeft","false","","","original","1","66","","",""
"html-keyboard-response","183","1063217","0.0-4.0-2.0-1.33","spark_pilot_2","7142","7","9","Female","","","","","","","null","<div style=""font-size:60px;"">+</div>","null","fixation","","","","","","","","","","","67","","",""
"revaluation","184","1069224","0.0-4.0-2.0-0.34","spark_pilot_2","7142","7","9","Female","","false","","","","","[1112.8999998569489,880.5]","./assets/img/canyon/memory/10.jpg","[""ArrowUp"",""ArrowRight""]","value training","canyon","10","{""ArrowUp,ArrowLeft"":23,""ArrowUp,ArrowRight"":10,""ArrowDown,ArrowLeft"":8,""ArrowDown,ArrowRight"":30}","false","ArrowUp,ArrowRight","false","","","original","1","68","","",""
"html-keyboard-response","185","1069727","0.0-4.0-2.0-1.34","spark_pilot_2","7142","7","9","Female","","","","","","","null","<div style=""font-size:60px;"">+</div>","null","fixation","","","","","","","","","","","69","","",""
"revaluation","186","1075734","0.0-4.0-2.0-0.35","spark_pilot_2","7142","7","9","Female","","false","","","","","[1123.1000001430511,1074.2000000476837]","./assets/img/canyon/memory/5.jpg","[""ArrowDown"",""ArrowRight""]","value training","canyon","30","{""ArrowUp,ArrowLeft"":23,""ArrowUp,ArrowRight"":10,""ArrowDown,ArrowLeft"":8,""ArrowDown,ArrowRight"":30}","true","ArrowDown,ArrowRight","false","","","original","1","70","","",""
"html-keyboard-response","187","1076237","0.0-4.0-2.0-1.35","spark_pilot_2","7142","7","9","Female","","","","","","","null","<div style=""font-size:60px;"">+</div>","null","fixation","","","","","","","","","","","71","","",""
"revaluation","188","1082243","0.0-4.0-2.0-0.36","spark_pilot_2","7142","7","9","Female","","false","","","","","[957.2999999523163,724.8999998569489]","./assets/img/canyon/memory/19.jpg","[""ArrowDown"",""ArrowRight""]","value training","canyon","30","{""ArrowUp,ArrowLeft"":23,""ArrowUp,ArrowRight"":10,""ArrowDown,ArrowLeft"":8,""ArrowDown,ArrowRight"":30}","true","ArrowDown,ArrowRight","false","","","original","1","72","","",""
"html-keyboard-response","189","1082745","0.0-4.0-2.0-1.36","spark_pilot_2","7142","7","9","Female","","","","","","","null","<div style=""font-size:60px;"">+</div>","null","fixation","","","","","","","","","","","73","","",""
"revaluation","190","1088757","0.0-4.0-2.0-0.37","spark_pilot_2","7142","7","9","Female","","false","","","","","[1144.7999999523163,934.2999999523163]","./assets/img/canyon/memory/26.jpg","[""ArrowDown"",""ArrowRight""]","value training","canyon","30","{""ArrowUp,ArrowLeft"":23,""ArrowUp,ArrowRight"":10,""ArrowDown,ArrowLeft"":8,""ArrowDown,ArrowRight"":30}","true","ArrowDown,ArrowRight","false","","","original","1","74","","",""
"html-keyboard-response","191","1089259","0.0-4.0-2.0-1.37","spark_pilot_2","7142","7","9","Female","","","","","","","null","<div style=""font-size:60px;"">+</div>","null","fixation","","","","","","","","","","","75","","",""
"revaluation","192","1093265","0.0-4.0-2.0-0.38","spark_pilot_2","7142","7","9","Female","","false","","","","","[1286.5]","./assets/img/canyon/catch/7.jpg","[""spaceBar""]","value training","canyon","0","{""ArrowUp,ArrowLeft"":23,""ArrowUp,ArrowRight"":10,""ArrowDown,ArrowLeft"":8,""ArrowDown,ArrowRight"":30}","true","spaceBar","true","","","original","1","76","","",""
"html-keyboard-response","193","1093768","0.0-4.0-2.0-1.38","spark_pilot_2","7142","7","9","Female","","","","","","","null","<div style=""font-size:60px;"">+</div>","null","fixation","","","","","","","","","","","77","","",""
"revaluation","194","1099775","0.0-4.0-2.0-0.39","spark_pilot_2","7142","7","9","Female","","false","","","","","[1515.4000000953674,1002.2999999523163]","./assets/img/canyon/memory/9.jpg","[""ArrowDown"",""ArrowRight""]","value training","canyon","30","{""ArrowUp,ArrowLeft"":23,""ArrowUp,ArrowRight"":10,""ArrowDown,ArrowLeft"":8,""ArrowDown,ArrowRight"":30}","true","ArrowDown,ArrowRight","false","","","original","1","78","","",""
"html-keyboard-response","195","1100277","0.0-4.0-2.0-1.39","spark_pilot_2","7142","7","9","Female","","","","","","","null","<div style=""font-size:60px;"">+</div>","null","fixation","","","","","","","","","","","79","","",""
"revaluation","196","1106283","0.0-4.0-2.0-0.40","spark_pilot_2","7142","7","9","Female","","false","","","","","[1068.7999999523163,772.5999999046326]","./assets/img/canyon/memory/37.jpg","[""ArrowDown"",""ArrowRight""]","value training","canyon","30","{""ArrowUp,ArrowLeft"":23,""ArrowUp,ArrowRight"":10,""ArrowDown,ArrowLeft"":8,""ArrowDown,ArrowRight"":30}","true","ArrowDown,ArrowRight","false","","","original","1","80","","",""
"html-keyboard-response","197","1106786","0.0-4.0-2.0-1.40","spark_pilot_2","7142","7","9","Female","","","","","","","null","<div style=""font-size:60px;"">+</div>","null","fixation","","","","","","","","","","","81","","",""
"revaluation","198","1112796","0.0-4.0-2.0-0.41","spark_pilot_2","7142","7","9","Female","","false","","","","","[1000.4000000953674,590.4000000953674]","./assets/img/canyon/memory/7.jpg","[""ArrowDown"",""ArrowRight""]","value training","canyon","30","{""ArrowUp,ArrowLeft"":23,""ArrowUp,ArrowRight"":10,""ArrowDown,ArrowLeft"":8,""ArrowDown,ArrowRight"":30}","true","ArrowDown,ArrowRight","false","","","original","1","82","","",""
"html-keyboard-response","199","1113297","0.0-4.0-2.0-1.41","spark_pilot_2","7142","7","9","Female","","","","","","","null","<div style=""font-size:60px;"">+</div>","null","fixation","","","","","","","","","","","83","","",""
"revaluation","200","1119304","0.0-4.0-2.0-0.42","spark_pilot_2","7142","7","9","Female","","false","","","","","[1112.5,504]","./assets/img/canyon/memory/20.jpg","[""ArrowDown"",""ArrowRight""]","value training","canyon","30","{""ArrowUp,ArrowLeft"":23,""ArrowUp,ArrowRight"":10,""ArrowDown,ArrowLeft"":8,""ArrowDown,ArrowRight"":30}","true","ArrowDown,ArrowRight","false","","","original","1","84","","",""
"html-keyboard-response","201","1119806","0.0-4.0-2.0-1.42","spark_pilot_2","7142","7","9","Female","","","","","","","null","<div style=""font-size:60px;"">+</div>","null","fixation","","","","","","","","","","","85","","",""
"revaluation","202","1125815","0.0-4.0-2.0-0.43","spark_pilot_2","7142","7","9","Female","","false","","","","","[1171.7000000476837,1354.8999998569489]","./assets/img/canyon/memory/13.jpg","[""ArrowDown"",""ArrowRight""]","value training","canyon","30","{""ArrowUp,ArrowLeft"":23,""ArrowUp,ArrowRight"":10,""ArrowDown,ArrowLeft"":8,""ArrowDown,ArrowRight"":30}","true","ArrowDown,ArrowRight","false","","","original","1","86","","",""
"html-keyboard-response","203","1126317","0.0-4.0-2.0-1.43","spark_pilot_2","7142","7","9","Female","","","","","","","null","<div style=""font-size:60px;"">+</div>","null","fixation","","","","","","","","","","","87","","",""
"revaluation","204","1130322","0.0-4.0-2.0-0.44","spark_pilot_2","7142","7","9","Female","","false","","","","","[1150]","./assets/img/canyon/catch/4.jpg","[""spaceBar""]","value training","canyon","0","{""ArrowUp,ArrowLeft"":23,""ArrowUp,ArrowRight"":10,""ArrowDown,ArrowLeft"":8,""ArrowDown,ArrowRight"":30}","true","spaceBar","true","","","original","1","88","","",""
"html-keyboard-response","205","1130824","0.0-4.0-2.0-1.44","spark_pilot_2","7142","7","9","Female","","","","","","","null","<div style=""font-size:60px;"">+</div>","null","fixation","","","","","","","","","","","89","","",""
"revaluation","206","1136831","0.0-4.0-2.0-0.45","spark_pilot_2","7142","7","9","Female","","false","","","","","[1187.2999999523163,922.5]","./assets/img/canyon/memory/32.jpg","[""ArrowDown"",""ArrowRight""]","value training","canyon","30","{""ArrowUp,ArrowLeft"":23,""ArrowUp,ArrowRight"":10,""ArrowDown,ArrowLeft"":8,""ArrowDown,ArrowRight"":30}","true","ArrowDown,ArrowRight","false","","","original","1","90","","",""
"html-keyboard-response","207","1137333","0.0-4.0-2.0-1.45","spark_pilot_2","7142","7","9","Female","","","","","","","null","<div style=""font-size:60px;"">+</div>","null","fixation","","","","","","","","","","","91","","",""
"revaluation","208","1143355","0.0-4.0-2.0-0.46","spark_pilot_2","7142","7","9","Female","","false","","","","","[1132.5999999046326,964.2000000476837]","./assets/img/canyon/memory/38.jpg","[""ArrowDown"",""ArrowRight""]","value training","canyon","30","{""ArrowUp,ArrowLeft"":23,""ArrowUp,ArrowRight"":10,""ArrowDown,ArrowLeft"":8,""ArrowDown,ArrowRight"":30}","true","ArrowDown,ArrowRight","false","","","original","1","92","","",""
"html-keyboard-response","209","1143857","0.0-4.0-2.0-1.46","spark_pilot_2","7142","7","9","Female","","","","","","","null","<div style=""font-size:60px;"">+</div>","null","fixation","","","","","","","","","","","93","","",""
"revaluation","210","1149865","0.0-4.0-2.0-0.47","spark_pilot_2","7142","7","9","Female","","false","","","","","[1177.7999999523163,848.3999998569489]","./assets/img/canyon/memory/12.jpg","[""ArrowDown"",""ArrowRight""]","value training","canyon","30","{""ArrowUp,ArrowLeft"":23,""ArrowUp,ArrowRight"":10,""ArrowDown,ArrowLeft"":8,""ArrowDown,ArrowRight"":30}","true","ArrowDown,ArrowRight","false","","","original","1","94","","",""
"html-keyboard-response","211","1150366","0.0-4.0-2.0-1.47","spark_pilot_2","7142","7","9","Female","","","","","","","null","<div style=""font-size:60px;"">+</div>","null","fixation","","","","","","","","","","","95","","",""
"revaluation","212","1156384","0.0-4.0-2.0-0.48","spark_pilot_2","7142","7","9","Female","","false","","","","","[523.2000000476837,640.3000001907349]","./assets/img/canyon/memory/8.jpg","[""ArrowDown"",""ArrowRight""]","value training","canyon","30","{""ArrowUp,ArrowLeft"":23,""ArrowUp,ArrowRight"":10,""ArrowDown,ArrowLeft"":8,""ArrowDown,ArrowRight"":30}","true","ArrowDown,ArrowRight","false","","","original","1","96","","",""
"html-keyboard-response","213","1156886","0.0-4.0-2.0-1.48","spark_pilot_2","7142","7","9","Female","","","","","","","null","<div style=""font-size:60px;"">+</div>","null","fixation","","","","","","","","","","","97","","",""
"revaluation","214","1162893","0.0-4.0-2.0-0.49","spark_pilot_2","7142","7","9","Female","","false","","","","","[1020.7000000476837,1003.3000001907349]","./assets/img/canyon/memory/31.jpg","[""ArrowDown"",""ArrowRight""]","value training","canyon","30","{""ArrowUp,ArrowLeft"":23,""ArrowUp,ArrowRight"":10,""ArrowDown,ArrowLeft"":8,""ArrowDown,ArrowRight"":30}","true","ArrowDown,ArrowRight","false","","","original","1","98","","",""
"html-keyboard-response","215","1163395","0.0-4.0-2.0-1.49","spark_pilot_2","7142","7","9","Female","","","","","","","null","<div style=""font-size:60px;"">+</div>","null","fixation","","","","","","","","","","","99","","",""
"learning-instructions","216","1179101","0.0-4.0-3.0-0.0","spark_pilot_2","7142","7","9","Female","","","","","","","2543.0999999046326","<p> Now, you will travel with a friend who will choose whether you go up or down first. </p>
            <p> On these turns, you will just see the animal that they found. You will still get to choose which chest to search for treasure.</p>","","instructions","","","","","","","","","","","","","",""
"revaluation","217","1183123","0.0-4.0-4.0-0.0","spark_pilot_2","7142","7","9","Female","","true","","","","","[]","./assets/img/canyon/animals/giraffe.jpg","[]","revaluation","canyon","-5","{""ArrowUp,ArrowLeft"":23,""ArrowUp,ArrowRight"":10,""ArrowDown,ArrowLeft"":8,""ArrowDown,ArrowRight"":30}","false","ArrowDown","","","","original","1","0","","",""
"html-keyboard-response","218","1183632","0.0-4.0-4.0-1.0","spark_pilot_2","7142","7","9","Female","","","","","","","null","<div style=""font-size:60px;"">+</div>","null","fixation","","","","","","","","","","","1","","",""
"revaluation","219","1187657","0.0-4.0-4.0-0.1","spark_pilot_2","7142","7","9","Female","","false","","","","","[737.5999999046326]","./assets/img/canyon/animals/lion.jpg","[""ArrowRight""]","revaluation","canyon","10","{""ArrowUp,ArrowLeft"":23,""ArrowUp,ArrowRight"":10,""ArrowDown,ArrowLeft"":8,""ArrowDown,ArrowRight"":30}","false","ArrowUp,ArrowRight","","","","original","1","2","","",""
"html-keyboard-response","220","1188159","0.0-4.0-4.0-1.1","spark_pilot_2","7142","7","9","Female","","","","","","","null","<div style=""font-size:60px;"">+</div>","null","fixation","","","","","","","","","","","3","","",""
"revaluation","221","1192169","0.0-4.0-4.0-0.2","spark_pilot_2","7142","7","9","Female","","false","","","","","[602.4000000953674]","./assets/img/canyon/animals/giraffe.jpg","[""ArrowLeft""]","revaluation","canyon","8","{""ArrowUp,ArrowLeft"":23,""ArrowUp,ArrowRight"":10,""ArrowDown,ArrowLeft"":8,""ArrowDown,ArrowRight"":30}","false","ArrowDown,ArrowLeft","","","","original","1","4","","",""
"html-keyboard-response","222","1192680","0.0-4.0-4.0-1.2","spark_pilot_2","7142","7","9","Female","","","","","","","null","<div style=""font-size:60px;"">+</div>","null","fixation","","","","","","","","","","","5","","",""
"revaluation","223","1196687","0.0-4.0-4.0-0.3","spark_pilot_2","7142","7","9","Female","","false","","","","","[617.8999998569489]","./assets/img/canyon/animals/lion.jpg","[""ArrowRight""]","revaluation","canyon","10","{""ArrowUp,ArrowLeft"":23,""ArrowUp,ArrowRight"":10,""ArrowDown,ArrowLeft"":8,""ArrowDown,ArrowRight"":30}","false","ArrowUp,ArrowRight","","","","original","1","6","","",""
"html-keyboard-response","224","1197203","0.0-4.0-4.0-1.3","spark_pilot_2","7142","7","9","Female","","","","","","","null","<div style=""font-size:60px;"">+</div>","null","fixation","","","","","","","","","","","7","","",""
"revaluation","225","1201213","0.0-4.0-4.0-0.4","spark_pilot_2","7142","7","9","Female","","false","","","","","[891.8000001907349]","./assets/img/canyon/animals/lion.jpg","[""ArrowLeft""]","revaluation","canyon","23","{""ArrowUp,ArrowLeft"":23,""ArrowUp,ArrowRight"":10,""ArrowDown,ArrowLeft"":8,""ArrowDown,ArrowRight"":30}","true","ArrowUp,ArrowLeft","","","","original","1","8","","",""
"html-keyboard-response","226","1201715","0.0-4.0-4.0-1.4","spark_pilot_2","7142","7","9","Female","","","","","","","null","<div style=""font-size:60px;"">+</div>","null","fixation","","","","","","","","","","","9","","",""
"revaluation","227","1205721","0.0-4.0-4.0-0.5","spark_pilot_2","7142","7","9","Female","","false","","","","","[1007.7000000476837]","./assets/img/canyon/animals/lion.jpg","[""ArrowLeft""]","revaluation","canyon","23","{""ArrowUp,ArrowLeft"":23,""ArrowUp,ArrowRight"":10,""ArrowDown,ArrowLeft"":8,""ArrowDown,ArrowRight"":30}","true","ArrowUp,ArrowLeft","","","","original","1","10","","",""
"html-keyboard-response","228","1206234","0.0-4.0-4.0-1.5","spark_pilot_2","7142","7","9","Female","","","","","","","null","<div style=""font-size:60px;"">+</div>","null","fixation","","","","","","","","","","","11","","",""
"revaluation","229","1210241","0.0-4.0-4.0-0.6","spark_pilot_2","7142","7","9","Female","","false","","","","","[768.2999999523163]","./assets/img/canyon/animals/giraffe.jpg","[""ArrowRight""]","revaluation","canyon","30","{""ArrowUp,ArrowLeft"":23,""ArrowUp,ArrowRight"":10,""ArrowDown,ArrowLeft"":8,""ArrowDown,ArrowRight"":30}","true","ArrowDown,ArrowRight","","","","original","1","12","","",""
"html-keyboard-response","230","1210743","0.0-4.0-4.0-1.6","spark_pilot_2","7142","7","9","Female","","","","","","","null","<div style=""font-size:60px;"">+</div>","null","fixation","","","","","","","","","","","13","","",""
"revaluation","231","1214750","0.0-4.0-4.0-0.7","spark_pilot_2","7142","7","9","Female","","false","","","","","[1274.7999999523163]","./assets/img/canyon/animals/lion.jpg","[""ArrowLeft""]","revaluation","canyon","23","{""ArrowUp,ArrowLeft"":23,""ArrowUp,ArrowRight"":10,""ArrowDown,ArrowLeft"":8,""ArrowDown,ArrowRight"":30}","true","ArrowUp,ArrowLeft","","","","original","1","14","","",""
"html-keyboard-response","232","1215253","0.0-4.0-4.0-1.7","spark_pilot_2","7142","7","9","Female","","","","","","","null","<div style=""font-size:60px;"">+</div>","null","fixation","","","","","","","","","","","15","","",""
"revaluation","233","1219260","0.0-4.0-4.0-0.8","spark_pilot_2","7142","7","9","Female","","false","","","","","[612.5]","./assets/img/canyon/animals/lion.jpg","[""ArrowRight""]","revaluation","canyon","10","{""ArrowUp,ArrowLeft"":23,""ArrowUp,ArrowRight"":10,""ArrowDown,ArrowLeft"":8,""ArrowDown,ArrowRight"":30}","false","ArrowUp,ArrowRight","","","","original","1","16","","",""
"html-keyboard-response","234","1219762","0.0-4.0-4.0-1.8","spark_pilot_2","7142","7","9","Female","","","","","","","null","<div style=""font-size:60px;"">+</div>","null","fixation","","","","","","","","","","","17","","",""
"revaluation","235","1223768","0.0-4.0-4.0-0.9","spark_pilot_2","7142","7","9","Female","","false","","","","","[1105.7999999523163]","./assets/img/canyon/animals/giraffe.jpg","[""ArrowRight""]","revaluation","canyon","30","{""ArrowUp,ArrowLeft"":23,""ArrowUp,ArrowRight"":10,""ArrowDown,ArrowLeft"":8,""ArrowDown,ArrowRight"":30}","true","ArrowDown,ArrowRight","","","","original","1","18","","",""
"html-keyboard-response","236","1224269","0.0-4.0-4.0-1.9","spark_pilot_2","7142","7","9","Female","","","","","","","null","<div style=""font-size:60px;"">+</div>","null","fixation","","","","","","","","","","","19","","",""
"revaluation","237","1228276","0.0-4.0-4.0-0.10","spark_pilot_2","7142","7","9","Female","","false","","","","","[692.5999999046326]","./assets/img/canyon/animals/lion.jpg","[""ArrowLeft""]","revaluation","canyon","23","{""ArrowUp,ArrowLeft"":23,""ArrowUp,ArrowRight"":10,""ArrowDown,ArrowLeft"":8,""ArrowDown,ArrowRight"":30}","true","ArrowUp,ArrowLeft","","","","original","1","20","","",""
"html-keyboard-response","238","1228780","0.0-4.0-4.0-1.10","spark_pilot_2","7142","7","9","Female","","","","","","","null","<div style=""font-size:60px;"">+</div>","null","fixation","","","","","","","","","","","21","","",""
"revaluation","239","1232787","0.0-4.0-4.0-0.11","spark_pilot_2","7142","7","9","Female","","false","","","","","[733.9000000953674]","./assets/img/canyon/animals/giraffe.jpg","[""ArrowRight""]","revaluation","canyon","30","{""ArrowUp,ArrowLeft"":23,""ArrowUp,ArrowRight"":10,""ArrowDown,ArrowLeft"":8,""ArrowDown,ArrowRight"":30}","true","ArrowDown,ArrowRight","","","","original","1","22","","",""
"html-keyboard-response","240","1233289","0.0-4.0-4.0-1.11","spark_pilot_2","7142","7","9","Female","","","","","","","null","<div style=""font-size:60px;"">+</div>","null","fixation","","","","","","","","","","","23","","",""
"revaluation","241","1237295","0.0-4.0-4.0-0.12","spark_pilot_2","7142","7","9","Female","","false","","","","","[681.2999999523163]","./assets/img/canyon/animals/giraffe.jpg","[""ArrowLeft""]","revaluation","canyon","8","{""ArrowUp,ArrowLeft"":23,""ArrowUp,ArrowRight"":10,""ArrowDown,ArrowLeft"":8,""ArrowDown,ArrowRight"":30}","false","ArrowDown,ArrowLeft","","","","original","1","24","","",""
"html-keyboard-response","242","1237801","0.0-4.0-4.0-1.12","spark_pilot_2","7142","7","9","Female","","","","","","","null","<div style=""font-size:60px;"">+</div>","null","fixation","","","","","","","","","","","25","","",""
"revaluation","243","1241808","0.0-4.0-4.0-0.13","spark_pilot_2","7142","7","9","Female","","false","","","","","[352.80000019073486]","./assets/img/canyon/animals/lion.jpg","[""ArrowRight""]","revaluation","canyon","10","{""ArrowUp,ArrowLeft"":23,""ArrowUp,ArrowRight"":10,""ArrowDown,ArrowLeft"":8,""ArrowDown,ArrowRight"":30}","false","ArrowUp,ArrowRight","","","","original","1","26","","",""
"html-keyboard-response","244","1242309","0.0-4.0-4.0-1.13","spark_pilot_2","7142","7","9","Female","","","","","","","null","<div style=""font-size:60px;"">+</div>","null","fixation","","","","","","","","","","","27","","",""
"revaluation","245","1246315","0.0-4.0-4.0-0.14","spark_pilot_2","7142","7","9","Female","","false","","","","","[876.5]","./assets/img/canyon/animals/giraffe.jpg","[""ArrowRight""]","revaluation","canyon","30","{""ArrowUp,ArrowLeft"":23,""ArrowUp,ArrowRight"":10,""ArrowDown,ArrowLeft"":8,""ArrowDown,ArrowRight"":30}","true","ArrowDown,ArrowRight","","","","original","1","28","","",""
"html-keyboard-response","246","1246818","0.0-4.0-4.0-1.14","spark_pilot_2","7142","7","9","Female","","","","","","","null","<div style=""font-size:60px;"">+</div>","null","fixation","","","","","","","","","","","29","","",""
"revaluation","247","1250824","0.0-4.0-4.0-0.15","spark_pilot_2","7142","7","9","Female","","false","","","","","[840.3000001907349]","./assets/img/canyon/animals/giraffe.jpg","[""ArrowRight""]","revaluation","canyon","30","{""ArrowUp,ArrowLeft"":23,""ArrowUp,ArrowRight"":10,""ArrowDown,ArrowLeft"":8,""ArrowDown,ArrowRight"":30}","true","ArrowDown,ArrowRight","","","","original","1","30","","",""
"html-keyboard-response","248","1251327","0.0-4.0-4.0-1.15","spark_pilot_2","7142","7","9","Female","","","","","","","null","<div style=""font-size:60px;"">+</div>","null","fixation","","","","","","","","","","","31","","",""
"revaluation","249","1255334","0.0-4.0-4.0-0.16","spark_pilot_2","7142","7","9","Female","","false","","","","","[690.6000001430511]","./assets/img/canyon/animals/giraffe.jpg","[""ArrowRight""]","revaluation","canyon","30","{""ArrowUp,ArrowLeft"":23,""ArrowUp,ArrowRight"":10,""ArrowDown,ArrowLeft"":8,""ArrowDown,ArrowRight"":30}","true","ArrowDown,ArrowRight","","","","original","1","32","","",""
"html-keyboard-response","250","1255835","0.0-4.0-4.0-1.16","spark_pilot_2","7142","7","9","Female","","","","","","","null","<div style=""font-size:60px;"">+</div>","null","fixation","","","","","","","","","","","33","","",""
"revaluation","251","1259840","0.0-4.0-4.0-0.17","spark_pilot_2","7142","7","9","Female","","false","","","","","[830.8000001907349]","./assets/img/canyon/animals/lion.jpg","[""ArrowLeft""]","revaluation","canyon","23","{""ArrowUp,ArrowLeft"":23,""ArrowUp,ArrowRight"":10,""ArrowDown,ArrowLeft"":8,""ArrowDown,ArrowRight"":30}","true","ArrowUp,ArrowLeft","","","","original","1","34","","",""
"html-keyboard-response","252","1260342","0.0-4.0-4.0-1.17","spark_pilot_2","7142","7","9","Female","","","","","","","null","<div style=""font-size:60px;"">+</div>","null","fixation","","","","","","","","","","","35","","",""
"learning-instructions","253","1273701","0.0-4.0-5.0-0.0","spark_pilot_2","7142","7","9","Female","","","","","","","1635.6999998092651","<p> Time to play the dot game! </p>
            <p> For one minute, click the red dots on the following screen as they appear. </p>
            <p><b> Don't look away, as you will earn bonus for clicking dots</b>. </p>","","instructions","","","","","","","","","","","","","",""
"revaluation","254","1333713","0.0-4.0-6.0-0.0","spark_pilot_2","7142","7","9","Female","","","","","","","[108,97,76,84,85,77,85]","","","rest","","70","","","","","0","60000","","","","","",""
"learning-instructions","255","1342213","0.0-4.0-7.0-0.0","spark_pilot_2","7142","7","9","Female","","","","","","","2137.9000000953674","<p> You have almost finished this part of the game! </p>
            <p> We are going to ask you to make a few more choices. </p>","","instructions","","","","","","","","","","","","","",""
"learning-instructions","256","1357149","0.0-4.0-7.0-0.1","spark_pilot_2","7142","7","9","Female","","","","","","","963.5","<p> First, you need to decide whether to go up or down. When you see each picture, use the arrow keys to make your choice. </p>
            <p><b>You will not see which animal you found, but try to get to the one that will give you the most treasure.</b></p>","","instructions","","","","","","","","","","","","","",""
"revaluation","257","1358390","0.0-4.0-8.0-0.0","spark_pilot_2","7142","7","9","Female","","false","","","","","[1239.2000000476837]","./assets/img/canyon/test/2.jpg","[""ArrowDown""]","first stage test","canyon","0","{""ArrowUp,ArrowLeft"":23,""ArrowUp,ArrowRight"":10,""ArrowDown,ArrowLeft"":8,""ArrowDown,ArrowRight"":30}","true","ArrowDown","false","","","original","1","","","",""
"html-keyboard-response","258","1358900","0.0-4.0-8.0-1.0","spark_pilot_2","7142","7","9","Female","","","","","","","null","<div style=""font-size:60px;"">+</div>","null","fixation","","","","","","","","","","","","","",""
"revaluation","259","1359910","0.0-4.0-8.0-0.1","spark_pilot_2","7142","7","9","Female","","false","","","","","[1006]","./assets/img/canyon/test/1.jpg","[""ArrowDown""]","first stage test","canyon","0","{""ArrowUp,ArrowLeft"":23,""ArrowUp,ArrowRight"":10,""ArrowDown,ArrowLeft"":8,""ArrowDown,ArrowRight"":30}","true","ArrowDown","false","","","original","1","","","",""
"html-keyboard-response","260","1360417","0.0-4.0-8.0-1.1","spark_pilot_2","7142","7","9","Female","","","","","","","null","<div style=""font-size:60px;"">+</div>","null","fixation","","","","","","","","","","","","","",""
"revaluation","261","1361614","0.0-4.0-8.0-0.2","spark_pilot_2","7142","7","9","Female","","false","","","","","[1192.0999999046326]","./assets/img/canyon/test/3.jpg","[""ArrowDown""]","first stage test","canyon","0","{""ArrowUp,ArrowLeft"":23,""ArrowUp,ArrowRight"":10,""ArrowDown,ArrowLeft"":8,""ArrowDown,ArrowRight"":30}","true","ArrowDown","false","","","original","1","","","",""
"html-keyboard-response","262","1362120","0.0-4.0-8.0-1.2","spark_pilot_2","7142","7","9","Female","","","","","","","null","<div style=""font-size:60px;"">+</div>","null","fixation","","","","","","","","","","","","","",""
"revaluation","263","1362894","0.0-4.0-8.0-0.3","spark_pilot_2","7142","7","9","Female","","false","","","","","[769.7000000476837]","./assets/img/canyon/test/0.jpg","[""ArrowDown""]","first stage test","canyon","0","{""ArrowUp,ArrowLeft"":23,""ArrowUp,ArrowRight"":10,""ArrowDown,ArrowLeft"":8,""ArrowDown,ArrowRight"":30}","true","ArrowDown","false","","","original","1","","","",""
"html-keyboard-response","264","1363407","0.0-4.0-8.0-1.3","spark_pilot_2","7142","7","9","Female","","","","","","","null","<div style=""font-size:60px;"">+</div>","null","fixation","","","","","","","","","","","","","",""
"learning-instructions","265","1376301","0.0-4.0-9.0-0.0","spark_pilot_2","7142","7","9","Female","","","","","","","1555.5","<p> Now you will see the animals again and can search their chests for treasure. </p>
            <p> This time, you will not see how much treasure you earned, but you will earn more bonus money for making better choices. </p>","","instructions","","","","","","","","","","","","","",""
"revaluation","266","1377773","0.0-4.0-10.0-0.0","spark_pilot_2","7142","7","9","Female","","false","","","","","[1470.9000000953674]","./assets/img/canyon/animals/lion.jpg","[""ArrowRight""]","second stage test","canyon","0","{""ArrowUp,ArrowLeft"":23,""ArrowUp,ArrowRight"":10,""ArrowDown,ArrowLeft"":8,""ArrowDown,ArrowRight"":30}","false","ArrowUp,ArrowRight","","","","original","1","","","",""
"html-keyboard-response","267","1378278","0.0-4.0-10.0-1.0","spark_pilot_2","7142","7","9","Female","","","","","","","null","<div style=""font-size:60px;"">+</div>","null","fixation","","","","","","","","","","","","","",""
"revaluation","268","1378926","0.0-4.0-10.0-0.1","spark_pilot_2","7142","7","9","Female","","false","","","","","[645.1999998092651]","./assets/img/canyon/animals/lion.jpg","[""ArrowRight""]","second stage test","canyon","0","{""ArrowUp,ArrowLeft"":23,""ArrowUp,ArrowRight"":10,""ArrowDown,ArrowLeft"":8,""ArrowDown,ArrowRight"":30}","false","ArrowUp,ArrowRight","","","","original","1","","","",""
"html-keyboard-response","269","1379442","0.0-4.0-10.0-1.1","spark_pilot_2","7142","7","9","Female","","","","","","","null","<div style=""font-size:60px;"">+</div>","null","fixation","","","","","","","","","","","","","",""
"revaluation","270","1380822","0.0-4.0-10.0-0.2","spark_pilot_2","7142","7","9","Female","","false","","","","","[1372.9000000953674]","./assets/img/canyon/animals/lion.jpg","[""ArrowRight""]","second stage test","canyon","0","{""ArrowUp,ArrowLeft"":23,""ArrowUp,ArrowRight"":10,""ArrowDown,ArrowLeft"":8,""ArrowDown,ArrowRight"":30}","false","ArrowUp,ArrowRight","","","","original","1","","","",""
"html-keyboard-response","271","1381330","0.0-4.0-10.0-1.2","spark_pilot_2","7142","7","9","Female","","","","","","","null","<div style=""font-size:60px;"">+</div>","null","fixation","","","","","","","","","","","","","",""
"revaluation","272","1381838","0.0-4.0-10.0-0.3","spark_pilot_2","7142","7","9","Female","","false","","","","","[503.90000009536743]","./assets/img/canyon/animals/lion.jpg","[""ArrowRight""]","second stage test","canyon","0","{""ArrowUp,ArrowLeft"":23,""ArrowUp,ArrowRight"":10,""ArrowDown,ArrowLeft"":8,""ArrowDown,ArrowRight"":30}","false","ArrowUp,ArrowRight","","","","original","1","","","",""
"html-keyboard-response","273","1382355","0.0-4.0-10.0-1.3","spark_pilot_2","7142","7","9","Female","","","","","","","null","<div style=""font-size:60px;"">+</div>","null","fixation","","","","","","","","","","","","","",""
"revaluation","274","1383166","0.0-4.0-10.0-0.4","spark_pilot_2","7142","7","9","Female","","false","","","","","[806.2999999523163]","./assets/img/canyon/animals/giraffe.jpg","[""ArrowRight""]","second stage test","canyon","0","{""ArrowUp,ArrowLeft"":23,""ArrowUp,ArrowRight"":10,""ArrowDown,ArrowLeft"":8,""ArrowDown,ArrowRight"":30}","true","ArrowDown,ArrowRight","","","","original","1","","","",""
"html-keyboard-response","275","1383670","0.0-4.0-10.0-1.4","spark_pilot_2","7142","7","9","Female","","","","","","","null","<div style=""font-size:60px;"">+</div>","null","fixation","","","","","","","","","","","","","",""
"revaluation","276","1385151","0.0-4.0-10.0-0.5","spark_pilot_2","7142","7","9","Female","","false","","","","","[1476.4000000953674]","./assets/img/canyon/animals/giraffe.jpg","[""ArrowRight""]","second stage test","canyon","0","{""ArrowUp,ArrowLeft"":23,""ArrowUp,ArrowRight"":10,""ArrowDown,ArrowLeft"":8,""ArrowDown,ArrowRight"":30}","true","ArrowDown,ArrowRight","","","","original","1","","","",""
"html-keyboard-response","277","1385657","0.0-4.0-10.0-1.5","spark_pilot_2","7142","7","9","Female","","","","","","","null","<div style=""font-size:60px;"">+</div>","null","fixation","","","","","","","","","","","","","",""
"revaluation","278","1386543","0.0-4.0-10.0-0.6","spark_pilot_2","7142","7","9","Female","","false","","","","","[881]","./assets/img/canyon/animals/giraffe.jpg","[""ArrowRight""]","second stage test","canyon","0","{""ArrowUp,ArrowLeft"":23,""ArrowUp,ArrowRight"":10,""ArrowDown,ArrowLeft"":8,""ArrowDown,ArrowRight"":30}","true","ArrowDown,ArrowRight","","","","original","1","","","",""
"html-keyboard-response","279","1387052","0.0-4.0-10.0-1.6","spark_pilot_2","7142","7","9","Female","","","","","","","null","<div style=""font-size:60px;"">+</div>","null","fixation","","","","","","","","","","","","","",""
"revaluation","280","1387606","0.0-4.0-10.0-0.7","spark_pilot_2","7142","7","9","Female","","false","","","","","[549.6999998092651]","./assets/img/canyon/animals/giraffe.jpg","[""ArrowRight""]","second stage test","canyon","0","{""ArrowUp,ArrowLeft"":23,""ArrowUp,ArrowRight"":10,""ArrowDown,ArrowLeft"":8,""ArrowDown,ArrowRight"":30}","true","ArrowDown,ArrowRight","","","","original","1","","","",""
"html-keyboard-response","281","1388120","0.0-4.0-10.0-1.7","spark_pilot_2","7142","7","9","Female","","","","","","","null","<div style=""font-size:60px;"">+</div>","null","fixation","","","","","","","","","","","","","",""
"learning-instructions","282","1393117","0.0-4.0-0.1-0.2","spark_pilot_2","7142","7","9","Female","","","","","","","2261.5","<p> This time you are searching for treasure in the <b>ocean</b>.</p>","","instructions","","","","","","","","","","","","","",""
"learning-instructions","283","1411157","0.0-4.0-0.1-0.3","spark_pilot_2","7142","7","9","Female","","","","","","","781.9000000953674","<p><b>New</b> animals with <b>new</b> treasure chests live here. You need to explore to discover where the animal with the best treasure chest is.</p>
                    <p> Like before, once you figure out which animal has the chest with the most treasure, you should try to get to that animal and select that chest! </p>","","instructions","","","","","","","","","","","","","",""
"learning-instructions","284","1427110","0.0-4.0-1.1-0.1","spark_pilot_2","7142","7","9","Female","","","","","","","1214","<p> Remember, when you see a picture of the place, use the up and down keys to <b>find an animal</b>.</p>
            <p> When you encounter an animal, you should use the left and right keys to <b>select a treasure chest</b>.</p>
            <p> Don't forget to look out for the robber! </p>","","instructions","","","","","","","","","","","","","",""
"revaluation","285","1433154","0.0-4.0-2.1-0.50","spark_pilot_2","7142","7","9","Female","","false","","","","","[630.4000000953674,720.4000000953674]","./assets/img/ocean/memory/16.jpg","[""ArrowDown"",""ArrowRight""]","value training","ocean","17","{""ArrowUp,ArrowLeft"":26,""ArrowUp,ArrowRight"":10,""ArrowDown,ArrowLeft"":5,""ArrowDown,ArrowRight"":17}","false","ArrowDown,ArrowRight","false","","","revaluation","2","0","","",""
"html-keyboard-response","286","1433665","0.0-4.0-2.1-1.50","spark_pilot_2","7142","7","9","Female","","","","","","","null","<div style=""font-size:60px;"">+</div>","null","fixation","","","","","","","","","","","1","","",""
"revaluation","287","1439711","0.0-4.0-2.1-0.51","spark_pilot_2","7142","7","9","Female","","false","","","","","[568.7999999523163,1125.6999998092651]","./assets/img/ocean/memory/19.jpg","[""ArrowDown"",""ArrowLeft""]","value training","ocean","5","{""ArrowUp,ArrowLeft"":26,""ArrowUp,ArrowRight"":10,""ArrowDown,ArrowLeft"":5,""ArrowDown,ArrowRight"":17}","false","ArrowDown,ArrowLeft","false","","","revaluation","2","2","","",""
"html-keyboard-response","288","1440214","0.0-4.0-2.1-1.51","spark_pilot_2","7142","7","9","Female","","","","","","","null","<div style=""font-size:60px;"">+</div>","null","fixation","","","","","","","","","","","3","","",""
"revaluation","289","1446246","0.0-4.0-2.1-0.52","spark_pilot_2","7142","7","9","Female","","false","","","","","[1164.6000001430511,882.5]","./assets/img/ocean/memory/1.jpg","[""ArrowUp"",""ArrowRight""]","value training","ocean","10","{""ArrowUp,ArrowLeft"":26,""ArrowUp,ArrowRight"":10,""ArrowDown,ArrowLeft"":5,""ArrowDown,ArrowRight"":17}","false","ArrowUp,ArrowRight","false","","","revaluation","2","4","","",""
"html-keyboard-response","290","1446759","0.0-4.0-2.1-1.52","spark_pilot_2","7142","7","9","Female","","","","","","","null","<div style=""font-size:60px;"">+</div>","null","fixation","","","","","","","","","","","5","","",""
"revaluation","291","1452782","0.0-4.0-2.1-0.53","spark_pilot_2","7142","7","9","Female","","false","","","","","[571.9000000953674,569.6999998092651]","./assets/img/ocean/memory/5.jpg","[""ArrowUp"",""ArrowLeft""]","value training","ocean","26","{""ArrowUp,ArrowLeft"":26,""ArrowUp,ArrowRight"":10,""ArrowDown,ArrowLeft"":5,""ArrowDown,ArrowRight"":17}","true","ArrowUp,ArrowLeft","false","","","revaluation","2","6","","",""
"html-keyboard-response","292","1453293","0.0-4.0-2.1-1.53","spark_pilot_2","7142","7","9","Female","","","","","","","null","<div style=""font-size:60px;"">+</div>","null","fixation","","","","","","","","","","","7","","",""
"revaluation","293","1459315","0.0-4.0-2.1-0.54","spark_pilot_2","7142","7","9","Female","","false","","","","","[949.9000000953674,1758]","./assets/img/ocean/memory/9.jpg","[""ArrowDown"",""ArrowRight""]","value training","ocean","17","{""ArrowUp,ArrowLeft"":26,""ArrowUp,ArrowRight"":10,""ArrowDown,ArrowLeft"":5,""ArrowDown,ArrowRight"":17}","false","ArrowDown,ArrowRight","false","","","revaluation","2","8","","",""
"html-keyboard-response","294","1459820","0.0-4.0-2.1-1.54","spark_pilot_2","7142","7","9","Female","","","","","","","null","<div style=""font-size:60px;"">+</div>","null","fixation","","","","","","","","","","","9","","",""
"revaluation","295","1463826","0.0-4.0-2.1-0.55","spark_pilot_2","7142","7","9","Female","","true","","","","","[]","./assets/img/ocean/memory/32.jpg","[]","value training","ocean","-5","{""ArrowUp,ArrowLeft"":26,""ArrowUp,ArrowRight"":10,""ArrowDown,ArrowLeft"":5,""ArrowDown,ArrowRight"":17}","false","","false","","","revaluation","2","10","","",""
"html-keyboard-response","296","1464328","0.0-4.0-2.1-1.55","spark_pilot_2","7142","7","9","Female","","","","","","","null","<div style=""font-size:60px;"">+</div>","null","fixation","","","","","","","","","","","11","","",""
"revaluation","297","1470336","0.0-4.0-2.1-0.56","spark_pilot_2","7142","7","9","Female","","false","","","","","[666.4000000953674,1008.7999999523163]","./assets/img/ocean/memory/18.jpg","[""ArrowUp"",""ArrowRight""]","value training","ocean","10","{""ArrowUp,ArrowLeft"":26,""ArrowUp,ArrowRight"":10,""ArrowDown,ArrowLeft"":5,""ArrowDown,ArrowRight"":17}","false","ArrowUp,ArrowRight","false","","","revaluation","2","12","","",""
"html-keyboard-response","298","1470838","0.0-4.0-2.1-1.56","spark_pilot_2","7142","7","9","Female","","","","","","","null","<div style=""font-size:60px;"">+</div>","null","fixation","","","","","","","","","","","13","","",""
"revaluation","299","1476846","0.0-4.0-2.1-0.57","spark_pilot_2","7142","7","9","Female","","false","","","","","[668.5,466.2999999523163]","./assets/img/ocean/memory/31.jpg","[""ArrowUp"",""ArrowLeft""]","value training","ocean","26","{""ArrowUp,ArrowLeft"":26,""ArrowUp,ArrowRight"":10,""ArrowDown,ArrowLeft"":5,""ArrowDown,ArrowRight"":17}","true","ArrowUp,ArrowLeft","false","","","revaluation","2","14","","",""
"html-keyboard-response","300","1477348","0.0-4.0-2.1-1.57","spark_pilot_2","7142","7","9","Female","","","","","","","null","<div style=""font-size:60px;"">+</div>","null","fixation","","","","","","","","","","","15","","",""
"revaluation","301","1483354","0.0-4.0-2.1-0.58","spark_pilot_2","7142","7","9","Female","","false","","","","","[630.8999998569489,821.7999999523163]","./assets/img/ocean/memory/6.jpg","[""ArrowDown"",""ArrowRight""]","value training","ocean","17","{""ArrowUp,ArrowLeft"":26,""ArrowUp,ArrowRight"":10,""ArrowDown,ArrowLeft"":5,""ArrowDown,ArrowRight"":17}","false","ArrowDown,ArrowRight","false","","","revaluation","2","16","","",""
"html-keyboard-response","302","1483857","0.0-4.0-2.1-1.58","spark_pilot_2","7142","7","9","Female","","","","","","","null","<div style=""font-size:60px;"">+</div>","null","fixation","","","","","","","","","","","17","","",""
"revaluation","303","1489870","0.0-4.0-2.1-0.59","spark_pilot_2","7142","7","9","Female","","false","","","","","[1592.6000001430511,1209.7000000476837]","./assets/img/ocean/memory/10.jpg","[""ArrowDown"",""ArrowRight""]","value training","ocean","17","{""ArrowUp,ArrowLeft"":26,""ArrowUp,ArrowRight"":10,""ArrowDown,ArrowLeft"":5,""ArrowDown,ArrowRight"":17}","false","ArrowDown,ArrowRight","false","","","revaluation","2","18","","",""
"html-keyboard-response","304","1490372","0.0-4.0-2.1-1.59","spark_pilot_2","7142","7","9","Female","","","","","","","null","<div style=""font-size:60px;"">+</div>","null","fixation","","","","","","","","","","","19","","",""
"revaluation","305","1496381","0.0-4.0-2.1-0.60","spark_pilot_2","7142","7","9","Female","","false","","","","","[1278.4000000953674,733]","./assets/img/ocean/memory/5.jpg","[""ArrowDown"",""ArrowLeft""]","value training","ocean","5","{""ArrowUp,ArrowLeft"":26,""ArrowUp,ArrowRight"":10,""ArrowDown,ArrowLeft"":5,""ArrowDown,ArrowRight"":17}","false","ArrowDown,ArrowLeft","false","","","revaluation","2","20","","",""
"html-keyboard-response","306","1496882","0.0-4.0-2.1-1.60","spark_pilot_2","7142","7","9","Female","","","","","","","null","<div style=""font-size:60px;"">+</div>","null","fixation","","","","","","","","","","","21","","",""
