"trial_type","trial_index","time_elapsed","internal_node_id","task_version","subject_id","assigned_condition","age","gender","success","timeout","failed_images","failed_audio","failed_video","browser_interaction","rt","stimulus","response","task_part","environment","score","rewardMap","correct","fullState","isCatch","numberMissed","duration","condition","order","trial_num","key_press","ground_truth","bonus"
"pavlovia","0","982","0.0-0.0","spark_pilot_2","7787","8","20","Female","","","","","","","","","","","","","","","","","","","","","","","",""
"preload","1","8049","0.0-1.0","spark_pilot_2","7787","8","20","Female","true","false","[]","[]","[]","[{""event"":""fullscreenenter"",""trial"":2,""time"":9424},{""event"":""blur"",""trial"":60,""time"":508836},{""event"":""focus"",""trial"":60,""time"":600456},{""event"":""blur"",""trial"":112,""time"":991835},{""event"":""focus"",""trial"":112,""time"":1014581}]","","","","","","","","","","","","","","","","","",""
"fullscreen","2","10424","0.0-2.0","spark_pilot_2","7787","8","20","Female","true","","","","","","","","","","","","","","","","","","","","","","",""
"audio-button-response","3","12080","0.0-3.0-0.0-0.0","spark_pilot_2","7787","8","20","Female","","","","","","","1600","./assets/audio/audiotest/turtle.mp3","2","audio_test","","","","","","","","","","","","","",""
"learning-instructions","4","20215","0.0-3.0-1.0-0.0","spark_pilot_2","7787","8","20","Female","","","","","","","1158.5","<p> Welcome! Please remember to stay in fullscreen mode and don't click away from the experiment. </p>","","instructions","","","","","","","","","","","","","",""
"learning-instructions","5","29131","0.0-3.0-1.0-0.1","spark_pilot_2","7787","8","20","Female","","","","","","","506.10000002384186","<p> Today you will be playing a game to earn treasure. </p>
            <p> At the end of the experiment, you will earn a bonus based on how much treasure you find. </p>
            <img src='./assets/img/instructions/treasure.jpg' class='instructions-image'>","","instructions","","","","","","","","","","","","","",""
"learning-instructions","6","38212","0.0-3.0-1.0-0.2","spark_pilot_2","7787","8","20","Female","","","","","","","825","<p> Animals have hidden treasure in treasure chests. </p>
            <p> You need to first find an animal and then choose which of their treasure chests to search. </p>
            <img src='./assets/img/space/animals/cat.jpg' class='instructions-image'>","","instructions","","","","","","","","","","","","","",""
"learning-instructions","7","51999","0.0-3.0-1.0-0.3","spark_pilot_2","7787","8","20","Female","","","","","","","638.6000000238419","<p> In each round, you will search for treasure in a different place. In the real game, there will be two rounds. </p>
            <p> You will begin with a separate, practice round where you will search for treasure in outer space. </p>
            <img src='./assets/img/space/0.jpg' class='instructions-image'>","","instructions","","","","","","","","","","","","","",""
"learning-instructions","8","64048","0.0-3.0-1.0-0.4","spark_pilot_2","7787","8","20","Female","","","","","","","639.8999999761581","<p> On every turn, you will see a picture of the place that you are in, but the specific image may be different each time. </p>
            <p> For example, both of these images mean you are in outer space. </p>
            <img src='./assets/img/instructions/outerspace.jpg' class='instructions-image'>","","instructions","","","","","","","","","","","","","",""
"learning-instructions","9","73146","0.0-3.0-1.0-0.5","spark_pilot_2","7787","8","20","Female","","","","","","","1273","<p> You need to decide which direction to travel in. </p>
            <p> You can choose between going <b>up or down</b> by using the arrow keys. </p>
            <img src='./assets/img/instructions/updown.jpg' class='instructions-image'>","","instructions","","","","","","","","","","","","","",""
"learning-instructions","10","82665","0.0-3.0-1.0-0.6","spark_pilot_2","7787","8","20","Female","","","","","","","712.7000000476837","<p> You will have <b>2 seconds</b> to make your choice. </p>
            <p> If you do not make a choice within 2 seconds, you will not find an animal or earn treasure. </p>
            <img src='./assets/img/instructions/2seconds.jpg' class='instructions-image'>","","instructions","","","","","","","","","","","","","",""
"learning-instructions","11","90481","0.0-3.0-1.0-0.7","spark_pilot_2","7787","8","20","Female","","","","","","","779.6000000238419","<p> Let’s try practicing that now! </p>
            <p> When you see a picture of the place you are in, press the <b>up</b> key to travel up. </p>
            <img src='./assets/img/instructions/pressUp.jpg' class='instructions-image'>","","instructions","","","","","","","","","","","","","",""
"revaluation","12","94509","0.0-3.0-2.0-0.0","spark_pilot_2","7787","8","20","Female","","false","","","","","[1182.2000000476837]","./assets/img/space/0.jpg","[""ArrowUp""]","first stage practice","space","0","null","null","ArrowUp","false","","","","","","","",""
"html-keyboard-response","13","95022","0.0-3.0-2.0-1.0","spark_pilot_2","7787","8","20","Female","","","","","","","null","<div style=""font-size:60px;"">+</div>","null","fixation","","","","","","","","","","","","","",""
"revaluation","14","99044","0.0-3.0-2.0-0.1","spark_pilot_2","7787","8","20","Female","","false","","","","","[591.0999999046326]","./assets/img/space/1.jpg","[""ArrowUp""]","first stage practice","space","0","null","null","ArrowUp","false","","","","","","","",""
"html-keyboard-response","15","99550","0.0-3.0-2.0-1.1","spark_pilot_2","7787","8","20","Female","","","","","","","null","<div style=""font-size:60px;"">+</div>","null","fixation","","","","","","","","","","","","","",""
"revaluation","16","103575","0.0-3.0-2.0-0.2","spark_pilot_2","7787","8","20","Female","","false","","","","","[362.6999999284744]","./assets/img/space/2.jpg","[""ArrowUp""]","first stage practice","space","0","null","null","ArrowUp","false","","","","","","","",""
"html-keyboard-response","17","104082","0.0-3.0-2.0-1.2","spark_pilot_2","7787","8","20","Female","","","","","","","null","<div style=""font-size:60px;"">+</div>","null","fixation","","","","","","","","","","","","","",""
"learning-instructions","18","110748","0.0-3.0-3.0-0.0","spark_pilot_2","7787","8","20","Female","","","","","","","1964.1000000238419","<p> Great job! Now try pressing the <b>down</b> key to travel down. </p>
            <img src='./assets/img/instructions/pressDown.jpg' class='instructions-image'>","","instructions","","","","","","","","","","","","","",""
"revaluation","19","114765","0.0-3.0-4.0-0.0","spark_pilot_2","7787","8","20","Female","","false","","","","","[1060.6000000238419]","./assets/img/space/3.jpg","[""ArrowDown""]","first stage practice","space","0","null","null","ArrowDown","false","","","","","","","",""
"html-keyboard-response","20","115278","0.0-3.0-4.0-1.0","spark_pilot_2","7787","8","20","Female","","","","","","","null","<div style=""font-size:60px;"">+</div>","null","fixation","","","","","","","","","","","","","",""
"revaluation","21","119301","0.0-3.0-4.0-0.1","spark_pilot_2","7787","8","20","Female","","false","","","","","[506.2000000476837]","./assets/img/space/4.jpg","[""ArrowDown""]","first stage practice","space","0","null","null","ArrowDown","false","","","","","","","",""
"html-keyboard-response","22","119814","0.0-3.0-4.0-1.1","spark_pilot_2","7787","8","20","Female","","","","","","","null","<div style=""font-size:60px;"">+</div>","null","fixation","","","","","","","","","","","","","",""
"revaluation","23","123838","0.0-3.0-4.0-0.2","spark_pilot_2","7787","8","20","Female","","false","","","","","[830.4000000953674]","./assets/img/space/5.jpg","[""ArrowDown""]","first stage practice","space","0","null","null","ArrowDown","false","","","","","","","",""
"html-keyboard-response","24","124346","0.0-3.0-4.0-1.2","spark_pilot_2","7787","8","20","Female","","","","","","","null","<div style=""font-size:60px;"">+</div>","null","fixation","","","","","","","","","","","","","",""
"learning-instructions","25","135014","0.0-3.0-5.0-0.0","spark_pilot_2","7787","8","20","Female","","","","","","","817.6000000238419","<p> The animals don’t move, so the animal in the upper part of a place will stay in the upper part of a place, and the animal in the lower part of a place will stay in the lower part of a place. </p>","","instructions","","","","","","","","","","","","","",""
"learning-instructions","26","144498","0.0-3.0-5.0-0.1","spark_pilot_2","7787","8","20","Female","","","","","","","359.89999997615814","<p> Each animal has two treasure chests for you to choose from. </p>
            <p> The amount of treasure in each chest can range from <b> 0 to 40 pieces.</b></p>","","instructions","","","","","","","","","","","","","",""
"learning-instructions","27","162832","0.0-3.0-5.0-0.2","spark_pilot_2","7787","8","20","Female","","","","","","","7152","<p> You should decide which chest to search for treasure by using the <b>left</b> and <b>right</b> arrow keys. </p>
            <p><b> Pay attention to which animal is on the screen, as the animals have different treasure chests. </b></p>
            <img src='./assets/img/instructions/leftright.jpg' class='instructions-image'>","","instructions","","","","","","","","","","","","","",""
"learning-instructions","28","169931","0.0-3.0-5.0-0.3","spark_pilot_2","7787","8","20","Female","","","","","","","741.2000000476837","<p> Let’s try practicing that now. </p>
            <p> When you see an animal, choose which chest to search for treasure. </p>
            <img src='./assets/img/instructions/chooseChest.jpg' class='instructions-image'>","","instructions","","","","","","","","","","","","","",""
"revaluation","29","173945","0.0-3.0-6.0-0.0","spark_pilot_2","7787","8","20","Female","","false","","","","","[758.6000000238419]","./assets/img/space/animals/cat.jpg","[""ArrowLeft""]","second stage practice","space","3","{""ArrowUp,ArrowLeft"":3,""ArrowUp,ArrowRight"":36,""ArrowDown,ArrowLeft"":15,""ArrowDown,ArrowRight"":23}","false","ArrowUp,ArrowLeft","","","","","","","","",""
"html-keyboard-response","30","174452","0.0-3.0-6.0-1.0","spark_pilot_2","7787","8","20","Female","","","","","","","null","<div style=""font-size:60px;"">+</div>","null","fixation","","","","","","","","","","","","","",""
"revaluation","31","178477","0.0-3.0-6.0-0.1","spark_pilot_2","7787","8","20","Female","","false","","","","","[592.8999999761581]","./assets/img/space/animals/rabbit.jpg","[""ArrowRight""]","second stage practice","space","23","{""ArrowUp,ArrowLeft"":3,""ArrowUp,ArrowRight"":36,""ArrowDown,ArrowLeft"":15,""ArrowDown,ArrowRight"":23}","true","ArrowDown,ArrowRight","","","","","","","","",""
"html-keyboard-response","32","178988","0.0-3.0-6.0-1.1","spark_pilot_2","7787","8","20","Female","","","","","","","null","<div style=""font-size:60px;"">+</div>","null","fixation","","","","","","","","","","","","","",""
"revaluation","33","183009","0.0-3.0-6.0-0.2","spark_pilot_2","7787","8","20","Female","","false","","","","","[378.1999999284744]","./assets/img/space/animals/rabbit.jpg","[""ArrowRight""]","second stage practice","space","23","{""ArrowUp,ArrowLeft"":3,""ArrowUp,ArrowRight"":36,""ArrowDown,ArrowLeft"":15,""ArrowDown,ArrowRight"":23}","true","ArrowDown,ArrowRight","","","","","","","","",""
"html-keyboard-response","34","183512","0.0-3.0-6.0-1.2","spark_pilot_2","7787","8","20","Female","","","","","","","null","<div style=""font-size:60px;"">+</div>","null","fixation","","","","","","","","","","","","","",""
"revaluation","35","187532","0.0-3.0-6.0-0.3","spark_pilot_2","7787","8","20","Female","","false","","","","","[399]","./assets/img/space/animals/cat.jpg","[""ArrowRight""]","second stage practice","space","36","{""ArrowUp,ArrowLeft"":3,""ArrowUp,ArrowRight"":36,""ArrowDown,ArrowLeft"":15,""ArrowDown,ArrowRight"":23}","true","ArrowUp,ArrowRight","","","","","","","","",""
"html-keyboard-response","36","188040","0.0-3.0-6.0-1.3","spark_pilot_2","7787","8","20","Female","","","","","","","null","<div style=""font-size:60px;"">+</div>","null","fixation","","","","","","","","","","","","","",""
"learning-instructions","37","258382","0.0-3.0-7.0-0.0","spark_pilot_2","7787","8","20","Female","","","","","","","53531","<p> Great job. Now let’s try putting it together. </p>
            <p> On each turn, you will first see a picture to remind you of the place you are in, and you need to choose whether to go up or down. </p>
            <p> Then you will see an animal and choose which of its chests to search for treasure. </p>","","instructions","","","","","","","","","","","","","",""
"learning-instructions","38","267081","0.0-3.0-7.0-0.1","spark_pilot_2","7787","8","20","Female","","","","","","","395","<p> When you choose whether to go up or down, try to go to the animal with the chest with the most treasure. </p>
            <p> Try practicing that now! </p>","","instructions","","","","","","","","","","","","","",""
"revaluation","39","273106","0.0-3.0-8.0-0.0","spark_pilot_2","7787","8","20","Female","","false","","","","","[1258.3999999761581,436.2000000476837]","./assets/img/space/6.jpg","[""ArrowUp"",""ArrowLeft""]","full practice","space","3","{""ArrowUp,ArrowLeft"":3,""ArrowUp,ArrowRight"":36,""ArrowDown,ArrowLeft"":15,""ArrowDown,ArrowRight"":23}","false","ArrowUp,ArrowLeft","false","","","","","","","",""
"html-keyboard-response","40","273616","0.0-3.0-8.0-1.0","spark_pilot_2","7787","8","20","Female","","","","","","","null","<div style=""font-size:60px;"">+</div>","null","fixation","","","","","","","","","","","","","",""
"revaluation","41","279642","0.0-3.0-8.0-0.1","spark_pilot_2","7787","8","20","Female","","false","","","","","[399.39999997615814,582.7999999523163]","./assets/img/space/7.jpg","[""ArrowUp"",""ArrowRight""]","full practice","space","36","{""ArrowUp,ArrowLeft"":3,""ArrowUp,ArrowRight"":36,""ArrowDown,ArrowLeft"":15,""ArrowDown,ArrowRight"":23}","true","ArrowUp,ArrowRight","false","","","","","","","",""
"html-keyboard-response","42","280154","0.0-3.0-8.0-1.1","spark_pilot_2","7787","8","20","Female","","","","","","","null","<div style=""font-size:60px;"">+</div>","null","fixation","","","","","","","","","","","","","",""
"revaluation","43","286186","0.0-3.0-8.0-0.2","spark_pilot_2","7787","8","20","Female","","false","","","","","[430.39999997615814,397.6999999284744]","./assets/img/space/8.jpg","[""ArrowDown"",""ArrowLeft""]","full practice","space","15","{""ArrowUp,ArrowLeft"":3,""ArrowUp,ArrowRight"":36,""ArrowDown,ArrowLeft"":15,""ArrowDown,ArrowRight"":23}","false","ArrowDown,ArrowLeft","false","","","","","","","",""
"html-keyboard-response","44","286697","0.0-3.0-8.0-1.2","spark_pilot_2","7787","8","20","Female","","","","","","","null","<div style=""font-size:60px;"">+</div>","null","fixation","","","","","","","","","","","","","",""
"revaluation","45","292729","0.0-3.0-8.0-0.3","spark_pilot_2","7787","8","20","Female","","false","","","","","[352,332.09999990463257]","./assets/img/space/9.jpg","[""ArrowDown"",""ArrowRight""]","full practice","space","23","{""ArrowUp,ArrowLeft"":3,""ArrowUp,ArrowRight"":36,""ArrowDown,ArrowLeft"":15,""ArrowDown,ArrowRight"":23}","false","ArrowDown,ArrowRight","false","","","","","","","",""
"html-keyboard-response","46","293238","0.0-3.0-8.0-1.3","spark_pilot_2","7787","8","20","Female","","","","","","","null","<div style=""font-size:60px;"">+</div>","null","fixation","","","","","","","","","","","","","",""
"revaluation","47","299266","0.0-3.0-8.0-0.4","spark_pilot_2","7787","8","20","Female","","false","","","","","[373,301.60000002384186]","./assets/img/space/10.jpg","[""ArrowUp"",""ArrowRight""]","full practice","space","36","{""ArrowUp,ArrowLeft"":3,""ArrowUp,ArrowRight"":36,""ArrowDown,ArrowLeft"":15,""ArrowDown,ArrowRight"":23}","true","ArrowUp,ArrowRight","false","","","","","","","",""
"html-keyboard-response","48","299774","0.0-3.0-8.0-1.4","spark_pilot_2","7787","8","20","Female","","","","","","","null","<div style=""font-size:60px;"">+</div>","null","fixation","","","","","","","","","","","","","",""
"learning-instructions","49","310632","0.0-3.0-9.0-0.0","spark_pilot_2","7787","8","20","Female","","","","","","","470.5","<p> One last thing: sometimes, you will see a robber. The robber can be anywhere in the picture. </p>
            <p> If you do not stop them, you will lose treasure. </p>
            <img src='./assets/img/instructions/robber.jpg' class='instructions-image'>","","instructions","","","","","","","","","","","","","",""
"learning-instructions","50","318198","0.0-3.0-9.0-0.1","spark_pilot_2","7787","8","20","Female","","","","","","","405.10000002384186","<p> If you see the robber, you should <b>press the space bar</b> rather than using the arrow keys. </p>
            <p> Try practicing that now! </p>","","instructions","","","","","","","","","","","","","",""
"revaluation","51","322216","0.0-3.0-10.0-0.0","spark_pilot_2","7787","8","20","Female","","false","","","","","[805.3999999761581]","./assets/img/space/catch/0.jpg","[""spaceBar""]","catch practice","space","0","{""ArrowUp,ArrowLeft"":3,""ArrowUp,ArrowRight"":36,""ArrowDown,ArrowLeft"":15,""ArrowDown,ArrowRight"":23}","true","spaceBar","true","","","","","","","",""
"html-keyboard-response","52","322728","0.0-3.0-10.0-1.0","spark_pilot_2","7787","8","20","Female","","","","","","","null","<div style=""font-size:60px;"">+</div>","null","fixation","","","","","","","","","","","","","",""
"revaluation","53","326753","0.0-3.0-10.0-0.1","spark_pilot_2","7787","8","20","Female","","false","","","","","[507.2999999523163]","./assets/img/space/catch/1.jpg","[""spaceBar""]","catch practice","space","0","{""ArrowUp,ArrowLeft"":3,""ArrowUp,ArrowRight"":36,""ArrowDown,ArrowLeft"":15,""ArrowDown,ArrowRight"":23}","true","spaceBar","true","","","","","","","",""
"html-keyboard-response","54","327261","0.0-3.0-10.0-1.1","spark_pilot_2","7787","8","20","Female","","","","","","","null","<div style=""font-size:60px;"">+</div>","null","fixation","","","","","","","","","","","","","",""
"revaluation","55","331277","0.0-3.0-10.0-0.2","spark_pilot_2","7787","8","20","Female","","false","","","","","[392.39999997615814]","./assets/img/space/catch/2.jpg","[""spaceBar""]","catch practice","space","0","{""ArrowUp,ArrowLeft"":3,""ArrowUp,ArrowRight"":36,""ArrowDown,ArrowLeft"":15,""ArrowDown,ArrowRight"":23}","true","spaceBar","true","","","","","","","",""
"html-keyboard-response","56","331784","0.0-3.0-10.0-1.2","spark_pilot_2","7787","8","20","Female","","","","","","","null","<div style=""font-size:60px;"">+</div>","null","fixation","","","","","","","","","","","","","",""
"learning-instructions","57","352099","0.0-3.0-11.0-0.0","spark_pilot_2","7787","8","20","Female","","","","","","","6732.600000023842","<p> After you explore a place to find treasure, it will be time to play a different game. </p>
            <p> During this game, red dots will appear on the screen and fall down slowly. </p>
            <p><b> You must click on them before they reach the bottom. </b></p>
            <img src='./assets/img/instructions/dotGame.jpg' class='instructions-image'>","","instructions","","","","","","","","","","","","","",""
"learning-instructions","58","358882","0.0-3.0-11.0-0.1","spark_pilot_2","7787","8","20","Female","","","","","","","1110.8999999761581","<p> For every dot you click, you will earn additional treasure. </p>
            <p> Let’s try practicing that now. </p>","","instructions","","","","","","","","","","","","","",""
"revaluation","59","373894","0.0-3.0-12.0-0.0","spark_pilot_2","7787","8","20","Female","","","","","","[{""event"":""fullscreenenter"",""trial"":2,""time"":9424},{""event"":""blur"",""trial"":60,""time"":508836},{""event"":""focus"",""trial"":60,""time"":600456},{""event"":""blur"",""trial"":112,""time"":991835},{""event"":""focus"",""trial"":112,""time"":1014581}]","[79,85]","","","rest practice","","20","","","","","0","15000","","","","","",""
"learning-instructions","60","601968","0.0-3.0-13.0-0.0-0.0","spark_pilot_2","7787","8","20","Female","","","","","","","222821.5","<p> Now, you will practice a shortened version of the game to get a sense of how it all fits together. </p>","","instructions","","","","","","","","","","","","","",""
"learning-instructions","61","605801","0.0-3.0-13.0-0.0-0.1","spark_pilot_2","7787","8","20","Female","","","","","","","564.8000000715256","<p>This time you are searching for treasure in outer space.</p>","","instructions","","","","","","","","","","","","","",""
"learning-instructions","62","621134","0.0-3.0-13.0-1.0-0.0","spark_pilot_2","7787","8","20","Female","","","","","","","564.3999999761581","<p> Remember, when you see a picture of the place, use the up and down keys to <b>find an animal</b>.</p>
            <p> When you encounter an animal, you should use the left and right keys to <b>select a treasure chest</b>.</p>
            <p> Don't forget to look out for the robber! </p>","","instructions","","","","","","","","","","","","","",""
"revaluation","63","627158","0.0-3.0-13.0-2.0-0.0","spark_pilot_2","7787","8","20","Female","","false","","","","","[1131.6000000238419,322.7999999523163]","./assets/img/space/11.jpg","[""ArrowUp"",""ArrowLeft""]","practice block","space","3","{""ArrowUp,ArrowLeft"":3,""ArrowUp,ArrowRight"":36,""ArrowDown,ArrowLeft"":15,""ArrowDown,ArrowRight"":23}","false","ArrowUp,ArrowLeft","false","","","","","","","",""
"html-keyboard-response","64","627668","0.0-3.0-13.0-2.0-1.0","spark_pilot_2","7787","8","20","Female","","","","","","","null","<div style=""font-size:60px;"">+</div>","null","fixation","","","","","","","","","","","","","",""
"revaluation","65","633692","0.0-3.0-13.0-2.0-0.1","spark_pilot_2","7787","8","20","Female","","false","","","","","[375.60000002384186,364.89999997615814]","./assets/img/space/12.jpg","[""ArrowUp"",""ArrowRight""]","practice block","space","36","{""ArrowUp,ArrowLeft"":3,""ArrowUp,ArrowRight"":36,""ArrowDown,ArrowLeft"":15,""ArrowDown,ArrowRight"":23}","true","ArrowUp,ArrowRight","false","","","","","","","",""
"html-keyboard-response","66","634200","0.0-3.0-13.0-2.0-1.1","spark_pilot_2","7787","8","20","Female","","","","","","","null","<div style=""font-size:60px;"">+</div>","null","fixation","","","","","","","","","","","","","",""
"revaluation","67","640228","0.0-3.0-13.0-2.0-0.2","spark_pilot_2","7787","8","20","Female","","false","","","","","[397.7000000476837,347.3000000715256]","./assets/img/space/13.jpg","[""ArrowDown"",""ArrowLeft""]","practice block","space","15","{""ArrowUp,ArrowLeft"":3,""ArrowUp,ArrowRight"":36,""ArrowDown,ArrowLeft"":15,""ArrowDown,ArrowRight"":23}","false","ArrowDown,ArrowLeft","false","","","","","","","",""
"html-keyboard-response","68","640732","0.0-3.0-13.0-2.0-1.2","spark_pilot_2","7787","8","20","Female","","","","","","","null","<div style=""font-size:60px;"">+</div>","null","fixation","","","","","","","","","","","","","",""
"revaluation","69","646757","0.0-3.0-13.0-2.0-0.3","spark_pilot_2","7787","8","20","Female","","false","","","","","[415.7999999523163,448.2999999523163]","./assets/img/space/14.jpg","[""ArrowDown"",""ArrowRight""]","practice block","space","23","{""ArrowUp,ArrowLeft"":3,""ArrowUp,ArrowRight"":36,""ArrowDown,ArrowLeft"":15,""ArrowDown,ArrowRight"":23}","false","ArrowDown,ArrowRight","false","","","","","","","",""
"html-keyboard-response","70","647269","0.0-3.0-13.0-2.0-1.3","spark_pilot_2","7787","8","20","Female","","","","","","","null","<div style=""font-size:60px;"">+</div>","null","fixation","","","","","","","","","","","","","",""
"revaluation","71","653296","0.0-3.0-13.0-2.0-0.4","spark_pilot_2","7787","8","20","Female","","false","","","","","[513.2000000476837,336.39999997615814]","./assets/img/space/11.jpg","[""ArrowUp"",""ArrowRight""]","practice block","space","36","{""ArrowUp,ArrowLeft"":3,""ArrowUp,ArrowRight"":36,""ArrowDown,ArrowLeft"":15,""ArrowDown,ArrowRight"":23}","true","ArrowUp,ArrowRight","false","","","","","","","",""
"html-keyboard-response","72","653806","0.0-3.0-13.0-2.0-1.4","spark_pilot_2","7787","8","20","Female","","","","","","","null","<div style=""font-size:60px;"">+</div>","null","fixation","","","","","","","","","","","","","",""
"revaluation","73","659829","0.0-3.0-13.0-2.0-0.5","spark_pilot_2","7787","8","20","Female","","false","","","","","[439.5,299.40000009536743]","./assets/img/space/12.jpg","[""ArrowUp"",""ArrowRight""]","practice block","space","36","{""ArrowUp,ArrowLeft"":3,""ArrowUp,ArrowRight"":36,""ArrowDown,ArrowLeft"":15,""ArrowDown,ArrowRight"":23}","true","ArrowUp,ArrowRight","false","","","","","","","",""
"html-keyboard-response","74","660339","0.0-3.0-13.0-2.0-1.5","spark_pilot_2","7787","8","20","Female","","","","","","","null","<div style=""font-size:60px;"">+</div>","null","fixation","","","","","","","","","","","","","",""
"revaluation","75","666367","0.0-3.0-13.0-2.0-0.6","spark_pilot_2","7787","8","20","Female","","false","","","","","[458.3000000715256,287.5]","./assets/img/space/13.jpg","[""ArrowUp"",""ArrowRight""]","practice block","space","36","{""ArrowUp,ArrowLeft"":3,""ArrowUp,ArrowRight"":36,""ArrowDown,ArrowLeft"":15,""ArrowDown,ArrowRight"":23}","true","ArrowUp,ArrowRight","false","","","","","","","",""
"html-keyboard-response","76","666879","0.0-3.0-13.0-2.0-1.6","spark_pilot_2","7787","8","20","Female","","","","","","","null","<div style=""font-size:60px;"">+</div>","null","fixation","","","","","","","","","","","","","",""
"revaluation","77","672911","0.0-3.0-13.0-2.0-0.7","spark_pilot_2","7787","8","20","Female","","false","","","","","[425.39999997615814,267.7000000476837]","./assets/img/space/14.jpg","[""ArrowUp"",""ArrowRight""]","practice block","space","36","{""ArrowUp,ArrowLeft"":3,""ArrowUp,ArrowRight"":36,""ArrowDown,ArrowLeft"":15,""ArrowDown,ArrowRight"":23}","true","ArrowUp,ArrowRight","false","","","","","","","",""
"html-keyboard-response","78","673422","0.0-3.0-13.0-2.0-1.7","spark_pilot_2","7787","8","20","Female","","","","","","","null","<div style=""font-size:60px;"">+</div>","null","fixation","","","","","","","","","","","","","",""
"revaluation","79","677444","0.0-3.0-13.0-2.0-0.8","spark_pilot_2","7787","8","20","Female","","false","","","","","[580]","./assets/img/space/catch/3.jpg","[""spaceBar""]","practice block","space","0","{""ArrowUp,ArrowLeft"":3,""ArrowUp,ArrowRight"":36,""ArrowDown,ArrowLeft"":15,""ArrowDown,ArrowRight"":23}","true","spaceBar","true","","","","","","","",""
"html-keyboard-response","80","677950","0.0-3.0-13.0-2.0-1.8","spark_pilot_2","7787","8","20","Female","","","","","","","null","<div style=""font-size:60px;"">+</div>","null","fixation","","","","","","","","","","","","","",""
"learning-instructions","81","692951","0.0-3.0-13.0-3.0-0.0","spark_pilot_2","7787","8","20","Female","","","","","","","2044.8999999761581","<p> Now, you will travel with a friend who will choose whether you go up or down first. </p>
            <p> On these turns, you will just see the animal that they found. You will still get to choose which chest to search for treasure.</p>","","instructions","","","","","","","","","","","","","",""
"revaluation","82","696963","0.0-3.0-13.0-4.0-0.0","spark_pilot_2","7787","8","20","Female","","false","","","","","[937.8999999761581]","./assets/img/space/animals/cat.jpg","[""ArrowRight""]","practice block","space","36","{""ArrowUp,ArrowLeft"":3,""ArrowUp,ArrowRight"":36,""ArrowDown,ArrowLeft"":15,""ArrowDown,ArrowRight"":23}","true","ArrowUp,ArrowRight","","","","","","","","",""
"html-keyboard-response","83","697466","0.0-3.0-13.0-4.0-1.0","spark_pilot_2","7787","8","20","Female","","","","","","","null","<div style=""font-size:60px;"">+</div>","null","fixation","","","","","","","","","","","","","",""
"revaluation","84","701483","0.0-3.0-13.0-4.0-0.1","spark_pilot_2","7787","8","20","Female","","false","","","","","[361.7000000476837]","./assets/img/space/animals/rabbit.jpg","[""ArrowRight""]","practice block","space","23","{""ArrowUp,ArrowLeft"":3,""ArrowUp,ArrowRight"":36,""ArrowDown,ArrowLeft"":15,""ArrowDown,ArrowRight"":23}","true","ArrowDown,ArrowRight","","","","","","","","",""
"html-keyboard-response","85","701987","0.0-3.0-13.0-4.0-1.1","spark_pilot_2","7787","8","20","Female","","","","","","","null","<div style=""font-size:60px;"">+</div>","null","fixation","","","","","","","","","","","","","",""
"revaluation","86","706004","0.0-3.0-13.0-4.0-0.2","spark_pilot_2","7787","8","20","Female","","false","","","","","[374.5]","./assets/img/space/animals/cat.jpg","[""ArrowRight""]","practice block","space","36","{""ArrowUp,ArrowLeft"":3,""ArrowUp,ArrowRight"":36,""ArrowDown,ArrowLeft"":15,""ArrowDown,ArrowRight"":23}","true","ArrowUp,ArrowRight","","","","","","","","",""
"html-keyboard-response","87","706515","0.0-3.0-13.0-4.0-1.2","spark_pilot_2","7787","8","20","Female","","","","","","","null","<div style=""font-size:60px;"">+</div>","null","fixation","","","","","","","","","","","","","",""
"revaluation","88","710534","0.0-3.0-13.0-4.0-0.3","spark_pilot_2","7787","8","20","Female","","false","","","","","[367.5]","./assets/img/space/animals/rabbit.jpg","[""ArrowRight""]","practice block","space","23","{""ArrowUp,ArrowLeft"":3,""ArrowUp,ArrowRight"":36,""ArrowDown,ArrowLeft"":15,""ArrowDown,ArrowRight"":23}","true","ArrowDown,ArrowRight","","","","","","","","",""
"html-keyboard-response","89","711045","0.0-3.0-13.0-4.0-1.3","spark_pilot_2","7787","8","20","Female","","","","","","","null","<div style=""font-size:60px;"">+</div>","null","fixation","","","","","","","","","","","","","",""
"learning-instructions","90","718951","0.0-3.0-13.0-5.0-0.0","spark_pilot_2","7787","8","20","Female","","","","","","","541.5","<p> Time to play the dot game! </p>
            <p> For 15 seconds, click the red dots on the following screen as they appear. </p>","","instructions","","","","","","","","","","","","","",""
"revaluation","91","733960","0.0-3.0-13.0-6.0-0.0","spark_pilot_2","7787","8","20","Female","","","","","","","[93]","","","rest practice","","10","","","","","0","15000","","","","","",""
"learning-instructions","92","741167","0.0-3.0-13.0-7.0-0.0","spark_pilot_2","7787","8","20","Female","","","","","","","1082.6999999284744","<p> You have almost finished this part of the game! </p>
            <p> We are going to ask you to make a few more choices. </p>","","instructions","","","","","","","","","","","","","",""
"learning-instructions","93","756198","0.0-3.0-13.0-7.0-0.1","spark_pilot_2","7787","8","20","Female","","","","","","","1025.5","<p> First, you need to decide whether to go up or down. When you see each picture, use the arrow keys to make your choice. </p>
            <p><b>You will not see which animal you found, but try to get to the one that will give you the most treasure.</b></p>","","instructions","","","","","","","","","","","","","",""
"revaluation","94","757280","0.0-3.0-13.0-8.0","spark_pilot_2","7787","8","20","Female","","false","","","","","[1078.7999999523163]","./assets/img/space/15.jpg","[""ArrowUp""]","practice block","space","0","{""ArrowUp,ArrowLeft"":3,""ArrowUp,ArrowRight"":36,""ArrowDown,ArrowLeft"":15,""ArrowDown,ArrowRight"":23}","true","ArrowUp","false","","","","","","","",""
"html-keyboard-response","95","757784","0.0-3.0-13.0-9.0","spark_pilot_2","7787","8","20","Female","","","","","","","null","<div style=""font-size:60px;"">+</div>","null","fixation","","","","","","","","","","","","","",""
"learning-instructions","96","769864","0.0-3.0-13.0-10.0-0.0","spark_pilot_2","7787","8","20","Female","","","","","","","702.0999999046326","<p> Now you will see the animals again and can search their chests for treasure. </p>
            <p> This time, you will not see how much treasure you earned, but you will earn more bonus money for making better choices. </p>","","instructions","","","","","","","","","","","","","",""
"revaluation","97","770352","0.0-3.0-13.0-11.0-0.0","spark_pilot_2","7787","8","20","Female","","false","","","","","[484.6999999284744]","./assets/img/space/animals/cat.jpg","[""ArrowRight""]","practice block","space","0","{""ArrowUp,ArrowLeft"":3,""ArrowUp,ArrowRight"":36,""ArrowDown,ArrowLeft"":15,""ArrowDown,ArrowRight"":23}","true","ArrowUp,ArrowRight","","","","","","","","",""
"html-keyboard-response","98","770860","0.0-3.0-13.0-11.0-1.0","spark_pilot_2","7787","8","20","Female","","","","","","","null","<div style=""font-size:60px;"">+</div>","null","fixation","","","","","","","","","","","","","",""
"revaluation","99","771658","0.0-3.0-13.0-11.0-0.1","spark_pilot_2","7787","8","20","Female","","false","","","","","[793.1000000238419]","./assets/img/space/animals/rabbit.jpg","[""ArrowRight""]","practice block","space","0","{""ArrowUp,ArrowLeft"":3,""ArrowUp,ArrowRight"":36,""ArrowDown,ArrowLeft"":15,""ArrowDown,ArrowRight"":23}","true","ArrowDown,ArrowRight","","","","","","","","",""
"html-keyboard-response","100","772163","0.0-3.0-13.0-11.0-1.1","spark_pilot_2","7787","8","20","Female","","","","","","","null","<div style=""font-size:60px;"">+</div>","null","fixation","","","","","","","","","","","","","",""
"learning-instructions","101","777633","0.0-3.0-14.0-0.0","spark_pilot_2","7787","8","20","Female","","","","","","","892.8999999761581","<p> Before you start, we're going to ask you a few questions about how the game works. </p>","","instructions","","","","","","","","","","","","","",""
"comp-q","102","784168","0.0-3.0-15.0-0.0-0.0","spark_pilot_2","7787","8","20","Female","","","","","","","949.5","<p> <b> True or False? </b> </p>
            <p> There can be 50 pieces of treasure in a given animal's chest. </p>","1","comp_question","","","","true","","","","","","","","","",""
"comp-q","103","792917","0.0-3.0-15.0-0.0-1.0","spark_pilot_2","7787","8","20","Female","","","","","","","2096.7999999523163","<p> <b> That's right! </b> The amount of treasure in each chest can range from 0 to 40 pieces. </p>","0","comp_answer","","","","","","","","","","","","","",""
"comp-q","104","801752","0.0-3.0-15.0-0.1-0.1","spark_pilot_2","7787","8","20","Female","","","","","","","1720.6000000238419","<p> <b> True or False? </b> </p><p> In this game, all animals have the same amount of treasure in their left and right chests. </p>","1","comp_question","","","","true","","","","","","","","","",""
"comp-q","105","807797","0.0-3.0-15.0-0.1-1.1","spark_pilot_2","7787","8","20","Female","","","","","","","817.1000000238419","<p> <b> That's right! </b> Animals have different amounts of treasure in their treasure chests. </p>","0","comp_answer","","","","","","","","","","","","","",""
"comp-q","106","815867","0.0-3.0-15.0-0.2-0.2","spark_pilot_2","7787","8","20","Female","","","","","","","2226.100000023842","<p> <b> True or False? </b> </p><p> The same animal will always be there if you go up in the same place. </p>","0","comp_question","","","","true","","","","","","","","","",""
"comp-q","107","823250","0.0-3.0-15.0-0.2-1.2","spark_pilot_2","7787","8","20","Female","","","","","","","942.5","<p> <b> That's right! </b> One animal lives in the upper part and one lives in the lower part of every place. </p>","0","comp_answer","","","","","","","","","","","","","",""
"comp-q","108","829718","0.0-3.0-15.0-0.3-0.3","spark_pilot_2","7787","8","20","Female","","","","","","","945.5999999046326","<p> <b> True or False? </b> </p><p> If you see a different picture, it means you are in a new place. </p>","0","comp_question","","","","false","","","","","","","","","",""
"comp-q","109","841601","0.0-3.0-15.0-0.3-1.3","spark_pilot_2","7787","8","20","Female","","","","","","","791.6000000238419","<p> <b>Incorrect.</b> Lots of different images may show the same place. For example,  you may see three different images that all remind you that you are in outer space. </p>","0","comp_answer","","","","","","","","","","","","","",""
"comp-q","110","847734","0.0-3.0-15.0-0.4-0.4","spark_pilot_2","7787","8","20","Female","","","","","","","631.1000000238419","<p> <b> True or False? </b> </p><p> If you see a different picture, it means you are in a new place. </p>","1","comp_question","","","","true","","","","","","","","","",""
"comp-q","111","860068","0.0-3.0-15.0-0.4-1.4","spark_pilot_2","7787","8","20","Female","","","","","","[{""event"":""fullscreenenter"",""trial"":2,""time"":9424},{""event"":""blur"",""trial"":60,""time"":508836},{""event"":""focus"",""trial"":60,""time"":600456},{""event"":""blur"",""trial"":112,""time"":991835},{""event"":""focus"",""trial"":112,""time"":1014581}]","1109.6000000238419","<p> <b> That's right! </b> Lots of different images may show the same place. For example,  you may see three different images that all remind you that you are in outer space. </p>","0","comp_answer","","","","","","","","","","","","","",""
"learning-instructions","112","1015821","0.0-3.0-16.0-0.0","spark_pilot_2","7787","8","20","Female","","","","","","","145906.5","<p> Good job. Remember to do your best because the amount of treasure you earn will be converted into bonus money. </p>
            <p> It’s time to start the real game! </p>","","instructions","","","","","","","","","","","","","",""
"learning-instructions","113","1019487","0.0-4.0-0.0-0.0","spark_pilot_2","7787","8","20","Female","","","","","","","829.2999999523163","<p> This time you are searching for treasure in the <b>canyon</b>.</p>","","instructions","","","","","","","","","","","","","",""
"learning-instructions","114","1037420","0.0-4.0-0.0-0.1","spark_pilot_2","7787","8","20","Female","","","","","","","639.8999999761581","<p><b>New</b> animals with <b>new</b> treasure chests live here. You need to explore to discover where the animal with the best treasure chest is.</p>
                    <p> Like before, once you figure out which animal has the chest with the most treasure, you should try to get to that animal and select that chest! </p>","","instructions","","","","","","","","","","","","","",""
"learning-instructions","115","1052839","0.0-4.0-1.0-0.0","spark_pilot_2","7787","8","20","Female","","","","","","","687.2000000476837","<p> Remember, when you see a picture of the place, use the up and down keys to <b>find an animal</b>.</p>
            <p> When you encounter an animal, you should use the left and right keys to <b>select a treasure chest</b>.</p>
            <p> Don't forget to look out for the robber! </p>","","instructions","","","","","","","","","","","","","",""
"revaluation","116","1058869","0.0-4.0-2.0-0.0","spark_pilot_2","7787","8","20","Female","","false","","","","","[1087.3000000715256,387.5]","./assets/img/canyon/memory/22.jpg","[""ArrowUp"",""ArrowLeft""]","value training","canyon","26","{""ArrowUp,ArrowLeft"":26,""ArrowUp,ArrowRight"":10,""ArrowDown,ArrowLeft"":5,""ArrowDown,ArrowRight"":17}","true","ArrowUp,ArrowLeft","false","","","revaluation","1","0","","",""
"html-keyboard-response","117","1059376","0.0-4.0-2.0-1.0","spark_pilot_2","7787","8","20","Female","","","","","","","null","<div style=""font-size:60px;"">+</div>","null","fixation","","","","","","","","","","","1","","",""
"revaluation","118","1065400","0.0-4.0-2.0-0.1","spark_pilot_2","7787","8","20","Female","","false","","","","","[375.2000000476837,367.7999999523163]","./assets/img/canyon/memory/9.jpg","[""ArrowUp"",""ArrowRight""]","value training","canyon","10","{""ArrowUp,ArrowLeft"":26,""ArrowUp,ArrowRight"":10,""ArrowDown,ArrowLeft"":5,""ArrowDown,ArrowRight"":17}","false","ArrowUp,ArrowRight","false","","","revaluation","1","2","","",""
"html-keyboard-response","119","1065908","0.0-4.0-2.0-1.1","spark_pilot_2","7787","8","20","Female","","","","","","","null","<div style=""font-size:60px;"">+</div>","null","fixation","","","","","","","","","","","3","","",""
"revaluation","120","1069930","0.0-4.0-2.0-0.2","spark_pilot_2","7787","8","20","Female","","false","","","","","[310.6999999284744]","./assets/img/canyon/catch/5.jpg","[""ArrowDown""]","value training","canyon","-10","{""ArrowUp,ArrowLeft"":26,""ArrowUp,ArrowRight"":10,""ArrowDown,ArrowLeft"":5,""ArrowDown,ArrowRight"":17}","false","ArrowDown","true","","","revaluation","1","4","","",""
"html-keyboard-response","121","1070444","0.0-4.0-2.0-1.2","spark_pilot_2","7787","8","20","Female","","","","","","","null","<div style=""font-size:60px;"">+</div>","null","fixation","","","","","","","","","","","5","","",""
"revaluation","122","1076475","0.0-4.0-2.0-0.3","spark_pilot_2","7787","8","20","Female","","false","","","","","[600.7000000476837,472.7999999523163]","./assets/img/canyon/memory/5.jpg","[""ArrowDown"",""ArrowLeft""]","value training","canyon","5","{""ArrowUp,ArrowLeft"":26,""ArrowUp,ArrowRight"":10,""ArrowDown,ArrowLeft"":5,""ArrowDown,ArrowRight"":17}","false","ArrowDown,ArrowLeft","false","","","revaluation","1","6","","",""
"html-keyboard-response","123","1076980","0.0-4.0-2.0-1.3","spark_pilot_2","7787","8","20","Female","","","","","","","null","<div style=""font-size:60px;"">+</div>","null","fixation","","","","","","","","","","","7","","",""
"revaluation","124","1083010","0.0-4.0-2.0-0.4","spark_pilot_2","7787","8","20","Female","","false","","","","","[376.7999999523163,555.7999999523163]","./assets/img/canyon/memory/41.jpg","[""ArrowDown"",""ArrowRight""]","value training","canyon","17","{""ArrowUp,ArrowLeft"":26,""ArrowUp,ArrowRight"":10,""ArrowDown,ArrowLeft"":5,""ArrowDown,ArrowRight"":17}","false","ArrowDown,ArrowRight","false","","","revaluation","1","8","","",""
"html-keyboard-response","125","1083522","0.0-4.0-2.0-1.4","spark_pilot_2","7787","8","20","Female","","","","","","","null","<div style=""font-size:60px;"">+</div>","null","fixation","","","","","","","","","","","9","","",""
"revaluation","126","1089545","0.0-4.0-2.0-0.5","spark_pilot_2","7787","8","20","Female","","false","","","","","[458.60000002384186,297.7999999523163]","./assets/img/canyon/memory/34.jpg","[""ArrowUp"",""ArrowLeft""]","value training","canyon","26","{""ArrowUp,ArrowLeft"":26,""ArrowUp,ArrowRight"":10,""ArrowDown,ArrowLeft"":5,""ArrowDown,ArrowRight"":17}","true","ArrowUp,ArrowLeft","false","","","revaluation","1","10","","",""
"html-keyboard-response","127","1090055","0.0-4.0-2.0-1.5","spark_pilot_2","7787","8","20","Female","","","","","","","null","<div style=""font-size:60px;"">+</div>","null","fixation","","","","","","","","","","","11","","",""
"revaluation","128","1096082","0.0-4.0-2.0-0.6","spark_pilot_2","7787","8","20","Female","","false","","","","","[420.7999999523163,601.6000000238419]","./assets/img/canyon/memory/20.jpg","[""ArrowUp"",""ArrowLeft""]","value training","canyon","26","{""ArrowUp,ArrowLeft"":26,""ArrowUp,ArrowRight"":10,""ArrowDown,ArrowLeft"":5,""ArrowDown,ArrowRight"":17}","true","ArrowUp,ArrowLeft","false","","","revaluation","1","12","","",""
"html-keyboard-response","129","1096594","0.0-4.0-2.0-1.6","spark_pilot_2","7787","8","20","Female","","","","","","","null","<div style=""font-size:60px;"">+</div>","null","fixation","","","","","","","","","","","13","","",""
"revaluation","130","1102616","0.0-4.0-2.0-0.7","spark_pilot_2","7787","8","20","Female","","false","","","","","[403.89999997615814,481.7999999523163]","./assets/img/canyon/memory/34.jpg","[""ArrowUp"",""ArrowLeft""]","value training","canyon","26","{""ArrowUp,ArrowLeft"":26,""ArrowUp,ArrowRight"":10,""ArrowDown,ArrowLeft"":5,""ArrowDown,ArrowRight"":17}","true","ArrowUp,ArrowLeft","false","","","revaluation","1","14","","",""
"html-keyboard-response","131","1103122","0.0-4.0-2.0-1.7","spark_pilot_2","7787","8","20","Female","","","","","","","null","<div style=""font-size:60px;"">+</div>","null","fixation","","","","","","","","","","","15","","",""
"revaluation","132","1109143","0.0-4.0-2.0-0.8","spark_pilot_2","7787","8","20","Female","","false","","","","","[457.39999997615814,347.60000002384186]","./assets/img/canyon/memory/8.jpg","[""ArrowUp"",""ArrowLeft""]","value training","canyon","26","{""ArrowUp,ArrowLeft"":26,""ArrowUp,ArrowRight"":10,""ArrowDown,ArrowLeft"":5,""ArrowDown,ArrowRight"":17}","true","ArrowUp,ArrowLeft","false","","","revaluation","1","16","","",""
"html-keyboard-response","133","1109650","0.0-4.0-2.0-1.8","spark_pilot_2","7787","8","20","Female","","","","","","","null","<div style=""font-size:60px;"">+</div>","null","fixation","","","","","","","","","","","17","","",""
"revaluation","134","1115671","0.0-4.0-2.0-0.9","spark_pilot_2","7787","8","20","Female","","false","","","","","[405.7000000476837,362.7000000476837]","./assets/img/canyon/memory/1.jpg","[""ArrowUp"",""ArrowLeft""]","value training","canyon","26","{""ArrowUp,ArrowLeft"":26,""ArrowUp,ArrowRight"":10,""ArrowDown,ArrowLeft"":5,""ArrowDown,ArrowRight"":17}","true","ArrowUp,ArrowLeft","false","","","revaluation","1","18","","",""
"html-keyboard-response","135","1116177","0.0-4.0-2.0-1.9","spark_pilot_2","7787","8","20","Female","","","","","","","null","<div style=""font-size:60px;"">+</div>","null","fixation","","","","","","","","","","","19","","",""
"revaluation","136","1122199","0.0-4.0-2.0-0.10","spark_pilot_2","7787","8","20","Female","","false","","","","","[456.7999999523163,351.39999997615814]","./assets/img/canyon/memory/36.jpg","[""ArrowUp"",""ArrowLeft""]","value training","canyon","26","{""ArrowUp,ArrowLeft"":26,""ArrowUp,ArrowRight"":10,""ArrowDown,ArrowLeft"":5,""ArrowDown,ArrowRight"":17}","true","ArrowUp,ArrowLeft","false","","","revaluation","1","20","","",""
"html-keyboard-response","137","1122705","0.0-4.0-2.0-1.10","spark_pilot_2","7787","8","20","Female","","","","","","","null","<div style=""font-size:60px;"">+</div>","null","fixation","","","","","","","","","","","21","","",""
"revaluation","138","1128727","0.0-4.0-2.0-0.11","spark_pilot_2","7787","8","20","Female","","false","","","","","[438.8000000715256,310.10000002384186]","./assets/img/canyon/memory/14.jpg","[""ArrowUp"",""ArrowLeft""]","value training","canyon","26","{""ArrowUp,ArrowLeft"":26,""ArrowUp,ArrowRight"":10,""ArrowDown,ArrowLeft"":5,""ArrowDown,ArrowRight"":17}","true","ArrowUp,ArrowLeft","false","","","revaluation","1","22","","",""
"html-keyboard-response","139","1129233","0.0-4.0-2.0-1.11","spark_pilot_2","7787","8","20","Female","","","","","","","null","<div style=""font-size:60px;"">+</div>","null","fixation","","","","","","","","","","","23","","",""
"revaluation","140","1135255","0.0-4.0-2.0-0.12","spark_pilot_2","7787","8","20","Female","","false","","","","","[595.2999999523163,349]","./assets/img/canyon/memory/41.jpg","[""ArrowUp"",""ArrowLeft""]","value training","canyon","26","{""ArrowUp,ArrowLeft"":26,""ArrowUp,ArrowRight"":10,""ArrowDown,ArrowLeft"":5,""ArrowDown,ArrowRight"":17}","true","ArrowUp,ArrowLeft","false","","","revaluation","1","24","","",""
"html-keyboard-response","141","1135762","0.0-4.0-2.0-1.12","spark_pilot_2","7787","8","20","Female","","","","","","","null","<div style=""font-size:60px;"">+</div>","null","fixation","","","","","","","","","","","25","","",""
"revaluation","142","1141783","0.0-4.0-2.0-0.13","spark_pilot_2","7787","8","20","Female","","false","","","","","[413,293.2000000476837]","./assets/img/canyon/memory/4.jpg","[""ArrowUp"",""ArrowLeft""]","value training","canyon","26","{""ArrowUp,ArrowLeft"":26,""ArrowUp,ArrowRight"":10,""ArrowDown,ArrowLeft"":5,""ArrowDown,ArrowRight"":17}","true","ArrowUp,ArrowLeft","false","","","revaluation","1","26","","",""
"html-keyboard-response","143","1142289","0.0-4.0-2.0-1.13","spark_pilot_2","7787","8","20","Female","","","","","","","null","<div style=""font-size:60px;"">+</div>","null","fixation","","","","","","","","","","","27","","",""
"revaluation","144","1148310","0.0-4.0-2.0-0.14","spark_pilot_2","7787","8","20","Female","","false","","","","","[396.7999999523163,289.5]","./assets/img/canyon/memory/20.jpg","[""ArrowUp"",""ArrowLeft""]","value training","canyon","26","{""ArrowUp,ArrowLeft"":26,""ArrowUp,ArrowRight"":10,""ArrowDown,ArrowLeft"":5,""ArrowDown,ArrowRight"":17}","true","ArrowUp,ArrowLeft","false","","","revaluation","1","28","","",""
"html-keyboard-response","145","1148817","0.0-4.0-2.0-1.14","spark_pilot_2","7787","8","20","Female","","","","","","","null","<div style=""font-size:60px;"">+</div>","null","fixation","","","","","","","","","","","29","","",""
"revaluation","146","1154838","0.0-4.0-2.0-0.15","spark_pilot_2","7787","8","20","Female","","false","","","","","[392.89999997615814,472.10000002384186]","./assets/img/canyon/memory/38.jpg","[""ArrowUp"",""ArrowLeft""]","value training","canyon","26","{""ArrowUp,ArrowLeft"":26,""ArrowUp,ArrowRight"":10,""ArrowDown,ArrowLeft"":5,""ArrowDown,ArrowRight"":17}","true","ArrowUp,ArrowLeft","false","","","revaluation","1","30","","",""
"html-keyboard-response","147","1155344","0.0-4.0-2.0-1.15","spark_pilot_2","7787","8","20","Female","","","","","","","null","<div style=""font-size:60px;"">+</div>","null","fixation","","","","","","","","","","","31","","",""
"revaluation","148","1159361","0.0-4.0-2.0-0.16","spark_pilot_2","7787","8","20","Female","","false","","","","","[621.4000000953674]","./assets/img/canyon/catch/6.jpg","[""spaceBar""]","value training","canyon","0","{""ArrowUp,ArrowLeft"":26,""ArrowUp,ArrowRight"":10,""ArrowDown,ArrowLeft"":5,""ArrowDown,ArrowRight"":17}","true","spaceBar","true","","","revaluation","1","32","","",""
"html-keyboard-response","149","1159872","0.0-4.0-2.0-1.16","spark_pilot_2","7787","8","20","Female","","","","","","","null","<div style=""font-size:60px;"">+</div>","null","fixation","","","","","","","","","","","33","","",""
"revaluation","150","1165894","0.0-4.0-2.0-0.17","spark_pilot_2","7787","8","20","Female","","false","","","","","[395.10000002384186,326.6999999284744]","./assets/img/canyon/memory/36.jpg","[""ArrowUp"",""ArrowLeft""]","value training","canyon","26","{""ArrowUp,ArrowLeft"":26,""ArrowUp,ArrowRight"":10,""ArrowDown,ArrowLeft"":5,""ArrowDown,ArrowRight"":17}","true","ArrowUp,ArrowLeft","false","","","revaluation","1","34","","",""
"html-keyboard-response","151","1166400","0.0-4.0-2.0-1.17","spark_pilot_2","7787","8","20","Female","","","","","","","null","<div style=""font-size:60px;"">+</div>","null","fixation","","","","","","","","","","","35","","",""
"revaluation","152","1172422","0.0-4.0-2.0-0.18","spark_pilot_2","7787","8","20","Female","","false","","","","","[424.7999999523163,328]","./assets/img/canyon/memory/30.jpg","[""ArrowUp"",""ArrowLeft""]","value training","canyon","26","{""ArrowUp,ArrowLeft"":26,""ArrowUp,ArrowRight"":10,""ArrowDown,ArrowLeft"":5,""ArrowDown,ArrowRight"":17}","true","ArrowUp,ArrowLeft","false","","","revaluation","1","36","","",""
"html-keyboard-response","153","1172928","0.0-4.0-2.0-1.18","spark_pilot_2","7787","8","20","Female","","","","","","","null","<div style=""font-size:60px;"">+</div>","null","fixation","","","","","","","","","","","37","","",""
"revaluation","154","1178950","0.0-4.0-2.0-0.19","spark_pilot_2","7787","8","20","Female","","false","","","","","[392.59999990463257,320.5]","./assets/img/canyon/memory/26.jpg","[""ArrowUp"",""ArrowLeft""]","value training","canyon","26","{""ArrowUp,ArrowLeft"":26,""ArrowUp,ArrowRight"":10,""ArrowDown,ArrowLeft"":5,""ArrowDown,ArrowRight"":17}","true","ArrowUp,ArrowLeft","false","","","revaluation","1","38","","",""
"html-keyboard-response","155","1179455","0.0-4.0-2.0-1.19","spark_pilot_2","7787","8","20","Female","","","","","","","null","<div style=""font-size:60px;"">+</div>","null","fixation","","","","","","","","","","","39","","",""
"revaluation","156","1185477","0.0-4.0-2.0-0.20","spark_pilot_2","7787","8","20","Female","","false","","","","","[385.60000002384186,411.3000000715256]","./assets/img/canyon/memory/21.jpg","[""ArrowUp"",""ArrowLeft""]","value training","canyon","26","{""ArrowUp,ArrowLeft"":26,""ArrowUp,ArrowRight"":10,""ArrowDown,ArrowLeft"":5,""ArrowDown,ArrowRight"":17}","true","ArrowUp,ArrowLeft","false","","","revaluation","1","40","","",""
"html-keyboard-response","157","1185981","0.0-4.0-2.0-1.20","spark_pilot_2","7787","8","20","Female","","","","","","","null","<div style=""font-size:60px;"">+</div>","null","fixation","","","","","","","","","","","41","","",""
"revaluation","158","1192005","0.0-4.0-2.0-0.21","spark_pilot_2","7787","8","20","Female","","false","","","","","[424.2000000476837,293.7999999523163]","./assets/img/canyon/memory/17.jpg","[""ArrowUp"",""ArrowLeft""]","value training","canyon","26","{""ArrowUp,ArrowLeft"":26,""ArrowUp,ArrowRight"":10,""ArrowDown,ArrowLeft"":5,""ArrowDown,ArrowRight"":17}","true","ArrowUp,ArrowLeft","false","","","revaluation","1","42","","",""
"html-keyboard-response","159","1192511","0.0-4.0-2.0-1.21","spark_pilot_2","7787","8","20","Female","","","","","","","null","<div style=""font-size:60px;"">+</div>","null","fixation","","","","","","","","","","","43","","",""
"revaluation","160","1198533","0.0-4.0-2.0-0.22","spark_pilot_2","7787","8","20","Female","","false","","","","","[469.59999990463257,346.5]","./assets/img/canyon/memory/9.jpg","[""ArrowUp"",""ArrowLeft""]","value training","canyon","26","{""ArrowUp,ArrowLeft"":26,""ArrowUp,ArrowRight"":10,""ArrowDown,ArrowLeft"":5,""ArrowDown,ArrowRight"":17}","true","ArrowUp,ArrowLeft","false","","","revaluation","1","44","","",""
"html-keyboard-response","161","1199039","0.0-4.0-2.0-1.22","spark_pilot_2","7787","8","20","Female","","","","","","","null","<div style=""font-size:60px;"">+</div>","null","fixation","","","","","","","","","","","45","","",""
"revaluation","162","1205061","0.0-4.0-2.0-0.23","spark_pilot_2","7787","8","20","Female","","false","","","","","[456.7999999523163,365.5]","./assets/img/canyon/memory/28.jpg","[""ArrowUp"",""ArrowLeft""]","value training","canyon","26","{""ArrowUp,ArrowLeft"":26,""ArrowUp,ArrowRight"":10,""ArrowDown,ArrowLeft"":5,""ArrowDown,ArrowRight"":17}","true","ArrowUp,ArrowLeft","false","","","revaluation","1","46","","",""
"html-keyboard-response","163","1205567","0.0-4.0-2.0-1.23","spark_pilot_2","7787","8","20","Female","","","","","","","null","<div style=""font-size:60px;"">+</div>","null","fixation","","","","","","","","","","","47","","",""
"revaluation","164","1211599","0.0-4.0-2.0-0.24","spark_pilot_2","7787","8","20","Female","","false","","","","","[427.1999999284744,335.40000009536743]","./assets/img/canyon/memory/18.jpg","[""ArrowUp"",""ArrowLeft""]","value training","canyon","26","{""ArrowUp,ArrowLeft"":26,""ArrowUp,ArrowRight"":10,""ArrowDown,ArrowLeft"":5,""ArrowDown,ArrowRight"":17}","true","ArrowUp,ArrowLeft","false","","","revaluation","1","48","","",""
"html-keyboard-response","165","1212111","0.0-4.0-2.0-1.24","spark_pilot_2","7787","8","20","Female","","","","","","","null","<div style=""font-size:60px;"">+</div>","null","fixation","","","","","","","","","","","49","","",""
"revaluation","166","1218132","0.0-4.0-2.0-0.25","spark_pilot_2","7787","8","20","Female","","false","","","","","[420.7000000476837,312.10000002384186]","./assets/img/canyon/memory/12.jpg","[""ArrowUp"",""ArrowLeft""]","value training","canyon","26","{""ArrowUp,ArrowLeft"":26,""ArrowUp,ArrowRight"":10,""ArrowDown,ArrowLeft"":5,""ArrowDown,ArrowRight"":17}","true","ArrowUp,ArrowLeft","false","","","revaluation","1","50","","",""
"html-keyboard-response","167","1218639","0.0-4.0-2.0-1.25","spark_pilot_2","7787","8","20","Female","","","","","","","null","<div style=""font-size:60px;"">+</div>","null","fixation","","","","","","","","","","","51","","",""
"revaluation","168","1224660","0.0-4.0-2.0-0.26","spark_pilot_2","7787","8","20","Female","","false","","","","","[454.5,339.5]","./assets/img/canyon/memory/16.jpg","[""ArrowUp"",""ArrowLeft""]","value training","canyon","26","{""ArrowUp,ArrowLeft"":26,""ArrowUp,ArrowRight"":10,""ArrowDown,ArrowLeft"":5,""ArrowDown,ArrowRight"":17}","true","ArrowUp,ArrowLeft","false","","","revaluation","1","52","","",""
"html-keyboard-response","169","1225166","0.0-4.0-2.0-1.26","spark_pilot_2","7787","8","20","Female","","","","","","","null","<div style=""font-size:60px;"">+</div>","null","fixation","","","","","","","","","","","53","","",""
"revaluation","170","1231191","0.0-4.0-2.0-0.27","spark_pilot_2","7787","8","20","Female","","false","","","","","[543.8000000715256,895.3999999761581]","./assets/img/canyon/memory/22.jpg","[""ArrowUp"",""ArrowLeft""]","value training","canyon","26","{""ArrowUp,ArrowLeft"":26,""ArrowUp,ArrowRight"":10,""ArrowDown,ArrowLeft"":5,""ArrowDown,ArrowRight"":17}","true","ArrowUp,ArrowLeft","false","","","revaluation","1","54","","",""
"html-keyboard-response","171","1231703","0.0-4.0-2.0-1.27","spark_pilot_2","7787","8","20","Female","","","","","","","null","<div style=""font-size:60px;"">+</div>","null","fixation","","","","","","","","","","","55","","",""
"revaluation","172","1237732","0.0-4.0-2.0-0.28","spark_pilot_2","7787","8","20","Female","","false","","","","","[435.2999999523163,564.3000000715256]","./assets/img/canyon/memory/1.jpg","[""ArrowUp"",""ArrowLeft""]","value training","canyon","26","{""ArrowUp,ArrowLeft"":26,""ArrowUp,ArrowRight"":10,""ArrowDown,ArrowLeft"":5,""ArrowDown,ArrowRight"":17}","true","ArrowUp,ArrowLeft","false","","","revaluation","1","56","","",""
"html-keyboard-response","173","1238238","0.0-4.0-2.0-1.28","spark_pilot_2","7787","8","20","Female","","","","","","","null","<div style=""font-size:60px;"">+</div>","null","fixation","","","","","","","","","","","57","","",""
"revaluation","174","1244260","0.0-4.0-2.0-0.29","spark_pilot_2","7787","8","20","Female","","false","","","","","[384,1065.3999999761581]","./assets/img/canyon/memory/16.jpg","[""ArrowUp"",""ArrowLeft""]","value training","canyon","26","{""ArrowUp,ArrowLeft"":26,""ArrowUp,ArrowRight"":10,""ArrowDown,ArrowLeft"":5,""ArrowDown,ArrowRight"":17}","true","ArrowUp,ArrowLeft","false","","","revaluation","1","58","","",""
"html-keyboard-response","175","1244766","0.0-4.0-2.0-1.29","spark_pilot_2","7787","8","20","Female","","","","","","","null","<div style=""font-size:60px;"">+</div>","null","fixation","","","","","","","","","","","59","","",""
"revaluation","176","1250790","0.0-4.0-2.0-0.30","spark_pilot_2","7787","8","20","Female","","false","","","","","[394.6999999284744,378.39999997615814]","./assets/img/canyon/memory/6.jpg","[""ArrowUp"",""ArrowLeft""]","value training","canyon","26","{""ArrowUp,ArrowLeft"":26,""ArrowUp,ArrowRight"":10,""ArrowDown,ArrowLeft"":5,""ArrowDown,ArrowRight"":17}","true","ArrowUp,ArrowLeft","false","","","revaluation","1","60","","",""
"html-keyboard-response","177","1251299","0.0-4.0-2.0-1.30","spark_pilot_2","7787","8","20","Female","","","","","","","null","<div style=""font-size:60px;"">+</div>","null","fixation","","","","","","","","","","","61","","",""
"revaluation","178","1257326","0.0-4.0-2.0-0.31","spark_pilot_2","7787","8","20","Female","","false","","","","","[398.5,484.10000002384186]","./assets/img/canyon/memory/8.jpg","[""ArrowUp"",""ArrowLeft""]","value training","canyon","26","{""ArrowUp,ArrowLeft"":26,""ArrowUp,ArrowRight"":10,""ArrowDown,ArrowLeft"":5,""ArrowDown,ArrowRight"":17}","true","ArrowUp,ArrowLeft","false","","","revaluation","1","62","","",""
"html-keyboard-response","179","1257838","0.0-4.0-2.0-1.31","spark_pilot_2","7787","8","20","Female","","","","","","","null","<div style=""font-size:60px;"">+</div>","null","fixation","","","","","","","","","","","63","","",""
"revaluation","180","1263870","0.0-4.0-2.0-0.32","spark_pilot_2","7787","8","20","Female","","false","","","","","[367.89999997615814,359.8000000715256]","./assets/img/canyon/memory/18.jpg","[""ArrowUp"",""ArrowLeft""]","value training","canyon","26","{""ArrowUp,ArrowLeft"":26,""ArrowUp,ArrowRight"":10,""ArrowDown,ArrowLeft"":5,""ArrowDown,ArrowRight"":17}","true","ArrowUp,ArrowLeft","false","","","revaluation","1","64","","",""
"html-keyboard-response","181","1264381","0.0-4.0-2.0-1.32","spark_pilot_2","7787","8","20","Female","","","","","","","null","<div style=""font-size:60px;"">+</div>","null","fixation","","","","","","","","","","","65","","",""
"revaluation","182","1270414","0.0-4.0-2.0-0.33","spark_pilot_2","7787","8","20","Female","","false","","","","","[401.10000002384186,472.39999997615814]","./assets/img/canyon/memory/5.jpg","[""ArrowUp"",""ArrowLeft""]","value training","canyon","26","{""ArrowUp,ArrowLeft"":26,""ArrowUp,ArrowRight"":10,""ArrowDown,ArrowLeft"":5,""ArrowDown,ArrowRight"":17}","true","ArrowUp,ArrowLeft","false","","","revaluation","1","66","","",""
"html-keyboard-response","183","1270925","0.0-4.0-2.0-1.33","spark_pilot_2","7787","8","20","Female","","","","","","","null","<div style=""font-size:60px;"">+</div>","null","fixation","","","","","","","","","","","67","","",""
"revaluation","184","1276946","0.0-4.0-2.0-0.34","spark_pilot_2","7787","8","20","Female","","false","","","","","[396.60000002384186,393.10000002384186]","./assets/img/canyon/memory/17.jpg","[""ArrowUp"",""ArrowLeft""]","value training","canyon","26","{""ArrowUp,ArrowLeft"":26,""ArrowUp,ArrowRight"":10,""ArrowDown,ArrowLeft"":5,""ArrowDown,ArrowRight"":17}","true","ArrowUp,ArrowLeft","false","","","revaluation","1","68","","",""
"html-keyboard-response","185","1277453","0.0-4.0-2.0-1.34","spark_pilot_2","7787","8","20","Female","","","","","","","null","<div style=""font-size:60px;"">+</div>","null","fixation","","","","","","","","","","","69","","",""
"revaluation","186","1283478","0.0-4.0-2.0-0.35","spark_pilot_2","7787","8","20","Female","","false","","","","","[424.10000002384186,340.39999997615814]","./assets/img/canyon/memory/28.jpg","[""ArrowUp"",""ArrowLeft""]","value training","canyon","26","{""ArrowUp,ArrowLeft"":26,""ArrowUp,ArrowRight"":10,""ArrowDown,ArrowLeft"":5,""ArrowDown,ArrowRight"":17}","true","ArrowUp,ArrowLeft","false","","","revaluation","1","70","","",""
"html-keyboard-response","187","1283986","0.0-4.0-2.0-1.35","spark_pilot_2","7787","8","20","Female","","","","","","","null","<div style=""font-size:60px;"">+</div>","null","fixation","","","","","","","","","","","71","","",""
"revaluation","188","1288002","0.0-4.0-2.0-0.36","spark_pilot_2","7787","8","20","Female","","false","","","","","[634.1999999284744]","./assets/img/canyon/catch/4.jpg","[""spaceBar""]","value training","canyon","0","{""ArrowUp,ArrowLeft"":26,""ArrowUp,ArrowRight"":10,""ArrowDown,ArrowLeft"":5,""ArrowDown,ArrowRight"":17}","true","spaceBar","true","","","revaluation","1","72","","",""
"html-keyboard-response","189","1288509","0.0-4.0-2.0-1.36","spark_pilot_2","7787","8","20","Female","","","","","","","null","<div style=""font-size:60px;"">+</div>","null","fixation","","","","","","","","","","","73","","",""
"revaluation","190","1294530","0.0-4.0-2.0-0.37","spark_pilot_2","7787","8","20","Female","","false","","","","","[497.7999999523163,353.10000002384186]","./assets/img/canyon/memory/12.jpg","[""ArrowUp"",""ArrowLeft""]","value training","canyon","26","{""ArrowUp,ArrowLeft"":26,""ArrowUp,ArrowRight"":10,""ArrowDown,ArrowLeft"":5,""ArrowDown,ArrowRight"":17}","true","ArrowUp,ArrowLeft","false","","","revaluation","1","74","","",""
"html-keyboard-response","191","1295037","0.0-4.0-2.0-1.37","spark_pilot_2","7787","8","20","Female","","","","","","","null","<div style=""font-size:60px;"">+</div>","null","fixation","","","","","","","","","","","75","","",""
"revaluation","192","1301062","0.0-4.0-2.0-0.38","spark_pilot_2","7787","8","20","Female","","false","","","","","[451,635.0999999046326]","./assets/img/canyon/memory/4.jpg","[""ArrowUp"",""ArrowLeft""]","value training","canyon","26","{""ArrowUp,ArrowLeft"":26,""ArrowUp,ArrowRight"":10,""ArrowDown,ArrowLeft"":5,""ArrowDown,ArrowRight"":17}","true","ArrowUp,ArrowLeft","false","","","revaluation","1","76","","",""
"html-keyboard-response","193","1301570","0.0-4.0-2.0-1.38","spark_pilot_2","7787","8","20","Female","","","","","","","null","<div style=""font-size:60px;"">+</div>","null","fixation","","","","","","","","","","","77","","",""
"revaluation","194","1305587","0.0-4.0-2.0-0.39","spark_pilot_2","7787","8","20","Female","","false","","","","","[611.8999999761581]","./assets/img/canyon/catch/3.jpg","[""spaceBar""]","value training","canyon","0","{""ArrowUp,ArrowLeft"":26,""ArrowUp,ArrowRight"":10,""ArrowDown,ArrowLeft"":5,""ArrowDown,ArrowRight"":17}","true","spaceBar","true","","","revaluation","1","78","","",""
"html-keyboard-response","195","1306092","0.0-4.0-2.0-1.39","spark_pilot_2","7787","8","20","Female","","","","","","","null","<div style=""font-size:60px;"">+</div>","null","fixation","","","","","","","","","","","79","","",""
"revaluation","196","1310108","0.0-4.0-2.0-0.40","spark_pilot_2","7787","8","20","Female","","false","","","","","[760.5]","./assets/img/canyon/catch/1.jpg","[""ArrowUp""]","value training","canyon","-10","{""ArrowUp,ArrowLeft"":26,""ArrowUp,ArrowRight"":10,""ArrowDown,ArrowLeft"":5,""ArrowDown,ArrowRight"":17}","false","ArrowUp","true","","","revaluation","1","80","","",""
"html-keyboard-response","197","1310619","0.0-4.0-2.0-1.40","spark_pilot_2","7787","8","20","Female","","","","","","","null","<div style=""font-size:60px;"">+</div>","null","fixation","","","","","","","","","","","81","","",""
"revaluation","198","1314637","0.0-4.0-2.0-0.41","spark_pilot_2","7787","8","20","Female","","false","","","","","[768.5999999046326]","./assets/img/canyon/catch/2.jpg","[""spaceBar""]","value training","canyon","0","{""ArrowUp,ArrowLeft"":26,""ArrowUp,ArrowRight"":10,""ArrowDown,ArrowLeft"":5,""ArrowDown,ArrowRight"":17}","true","spaceBar","true","","","revaluation","1","82","","",""
"html-keyboard-response","199","1315147","0.0-4.0-2.0-1.41","spark_pilot_2","7787","8","20","Female","","","","","","","null","<div style=""font-size:60px;"">+</div>","null","fixation","","","","","","","","","","","83","","",""
"revaluation","200","1319164","0.0-4.0-2.0-0.42","spark_pilot_2","7787","8","20","Female","","false","","","","","[556.1000000238419]","./assets/img/canyon/catch/7.jpg","[""spaceBar""]","value training","canyon","0","{""ArrowUp,ArrowLeft"":26,""ArrowUp,ArrowRight"":10,""ArrowDown,ArrowLeft"":5,""ArrowDown,ArrowRight"":17}","true","spaceBar","true","","","revaluation","1","84","","",""
"html-keyboard-response","201","1319676","0.0-4.0-2.0-1.42","spark_pilot_2","7787","8","20","Female","","","","","","","null","<div style=""font-size:60px;"">+</div>","null","fixation","","","","","","","","","","","85","","",""
"revaluation","202","1325708","0.0-4.0-2.0-0.43","spark_pilot_2","7787","8","20","Female","","false","","","","","[905.8999999761581,512.6000000238419]","./assets/img/canyon/memory/21.jpg","[""ArrowUp"",""ArrowLeft""]","value training","canyon","26","{""ArrowUp,ArrowLeft"":26,""ArrowUp,ArrowRight"":10,""ArrowDown,ArrowLeft"":5,""ArrowDown,ArrowRight"":17}","true","ArrowUp,ArrowLeft","false","","","revaluation","1","86","","",""
"html-keyboard-response","203","1326220","0.0-4.0-2.0-1.43","spark_pilot_2","7787","8","20","Female","","","","","","","null","<div style=""font-size:60px;"">+</div>","null","fixation","","","","","","","","","","","87","","",""
"revaluation","204","1332252","0.0-4.0-2.0-0.44","spark_pilot_2","7787","8","20","Female","","false","","","","","[426.10000002384186,497.7000000476837]","./assets/img/canyon/memory/38.jpg","[""ArrowUp"",""ArrowLeft""]","value training","canyon","26","{""ArrowUp,ArrowLeft"":26,""ArrowUp,ArrowRight"":10,""ArrowDown,ArrowLeft"":5,""ArrowDown,ArrowRight"":17}","true","ArrowUp,ArrowLeft","false","","","revaluation","1","88","","",""
"html-keyboard-response","205","1332763","0.0-4.0-2.0-1.44","spark_pilot_2","7787","8","20","Female","","","","","","","null","<div style=""font-size:60px;"">+</div>","null","fixation","","","","","","","","","","","89","","",""
"revaluation","206","1338788","0.0-4.0-2.0-0.45","spark_pilot_2","7787","8","20","Female","","false","","","","","[405.5,411.6999999284744]","./assets/img/canyon/memory/6.jpg","[""ArrowUp"",""ArrowLeft""]","value training","canyon","26","{""ArrowUp,ArrowLeft"":26,""ArrowUp,ArrowRight"":10,""ArrowDown,ArrowLeft"":5,""ArrowDown,ArrowRight"":17}","true","ArrowUp,ArrowLeft","false","","","revaluation","1","90","","",""
"html-keyboard-response","207","1339297","0.0-4.0-2.0-1.45","spark_pilot_2","7787","8","20","Female","","","","","","","null","<div style=""font-size:60px;"">+</div>","null","fixation","","","","","","","","","","","91","","",""
"revaluation","208","1343313","0.0-4.0-2.0-0.46","spark_pilot_2","7787","8","20","Female","","false","","","","","[600.8000000715256]","./assets/img/canyon/catch/0.jpg","[""spaceBar""]","value training","canyon","0","{""ArrowUp,ArrowLeft"":26,""ArrowUp,ArrowRight"":10,""ArrowDown,ArrowLeft"":5,""ArrowDown,ArrowRight"":17}","true","spaceBar","true","","","revaluation","1","92","","",""
"html-keyboard-response","209","1343819","0.0-4.0-2.0-1.46","spark_pilot_2","7787","8","20","Female","","","","","","","null","<div style=""font-size:60px;"">+</div>","null","fixation","","","","","","","","","","","93","","",""
"revaluation","210","1349852","0.0-4.0-2.0-0.47","spark_pilot_2","7787","8","20","Female","","false","","","","","[421.2999999523163,700.4000000953674]","./assets/img/canyon/memory/26.jpg","[""ArrowUp"",""ArrowLeft""]","value training","canyon","26","{""ArrowUp,ArrowLeft"":26,""ArrowUp,ArrowRight"":10,""ArrowDown,ArrowLeft"":5,""ArrowDown,ArrowRight"":17}","true","ArrowUp,ArrowLeft","false","","","revaluation","1","94","","",""
"html-keyboard-response","211","1350363","0.0-4.0-2.0-1.47","spark_pilot_2","7787","8","20","Female","","","","","","","null","<div style=""font-size:60px;"">+</div>","null","fixation","","","","","","","","","","","95","","",""
"revaluation","212","1356388","0.0-4.0-2.0-0.48","spark_pilot_2","7787","8","20","Female","","false","","","","","[594.7999999523163,826.7999999523163]","./assets/img/canyon/memory/14.jpg","[""ArrowUp"",""ArrowLeft""]","value training","canyon","26","{""ArrowUp,ArrowLeft"":26,""ArrowUp,ArrowRight"":10,""ArrowDown,ArrowLeft"":5,""ArrowDown,ArrowRight"":17}","true","ArrowUp,ArrowLeft","false","","","revaluation","1","96","","",""
"html-keyboard-response","213","1356896","0.0-4.0-2.0-1.48","spark_pilot_2","7787","8","20","Female","","","","","","","null","<div style=""font-size:60px;"">+</div>","null","fixation","","","","","","","","","","","97","","",""
"revaluation","214","1362923","0.0-4.0-2.0-0.49","spark_pilot_2","7787","8","20","Female","","false","","","","","[446.7999999523163,310.90000009536743]","./assets/img/canyon/memory/30.jpg","[""ArrowUp"",""ArrowLeft""]","value training","canyon","26","{""ArrowUp,ArrowLeft"":26,""ArrowUp,ArrowRight"":10,""ArrowDown,ArrowLeft"":5,""ArrowDown,ArrowRight"":17}","true","ArrowUp,ArrowLeft","false","","","revaluation","1","98","","",""
"html-keyboard-response","215","1363435","0.0-4.0-2.0-1.49","spark_pilot_2","7787","8","20","Female","","","","","","","null","<div style=""font-size:60px;"">+</div>","null","fixation","","","","","","","","","","","99","","",""
"learning-instructions","216","1383105","0.0-4.0-3.0-0.0","spark_pilot_2","7787","8","20","Female","","","","","","","6750.600000023842","<p> Now, you will travel with a friend who will choose whether you go up or down first. </p>
            <p> On these turns, you will just see the animal that they found. You will still get to choose which chest to search for treasure.</p>","","instructions","","","","","","","","","","","","","",""
"revaluation","217","1387120","0.0-4.0-4.0-0.0","spark_pilot_2","7787","8","20","Female","","false","","","","","[953.1000000238419]","./assets/img/canyon/animals/giraffe.jpg","[""ArrowLeft""]","revaluation","canyon","8","{""ArrowUp,ArrowLeft"":2,""ArrowUp,ArrowRight"":11,""ArrowDown,ArrowLeft"":8,""ArrowDown,ArrowRight"":27}","false","ArrowDown,ArrowLeft","","","","revaluation","1","0","","",""
"html-keyboard-response","218","1387630","0.0-4.0-4.0-1.0","spark_pilot_2","7787","8","20","Female","","","","","","","null","<div style=""font-size:60px;"">+</div>","null","fixation","","","","","","","","","","","1","","",""
"revaluation","219","1391647","0.0-4.0-4.0-0.1","spark_pilot_2","7787","8","20","Female","","false","","","","","[576.7000000476837]","./assets/img/canyon/animals/giraffe.jpg","[""ArrowRight""]","revaluation","canyon","27","{""ArrowUp,ArrowLeft"":2,""ArrowUp,ArrowRight"":11,""ArrowDown,ArrowLeft"":8,""ArrowDown,ArrowRight"":27}","true","ArrowDown,ArrowRight","","","","revaluation","1","2","","",""
"html-keyboard-response","220","1392153","0.0-4.0-4.0-1.1","spark_pilot_2","7787","8","20","Female","","","","","","","null","<div style=""font-size:60px;"">+</div>","null","fixation","","","","","","","","","","","3","","",""
"revaluation","221","1396170","0.0-4.0-4.0-0.2","spark_pilot_2","7787","8","20","Female","","false","","","","","[701.2999999523163]","./assets/img/canyon/animals/lion.jpg","[""ArrowLeft""]","revaluation","canyon","2","{""ArrowUp,ArrowLeft"":2,""ArrowUp,ArrowRight"":11,""ArrowDown,ArrowLeft"":8,""ArrowDown,ArrowRight"":27}","false","ArrowUp,ArrowLeft","","","","revaluation","1","4","","",""
"html-keyboard-response","222","1396679","0.0-4.0-4.0-1.2","spark_pilot_2","7787","8","20","Female","","","","","","","null","<div style=""font-size:60px;"">+</div>","null","fixation","","","","","","","","","","","5","","",""
"revaluation","223","1400699","0.0-4.0-4.0-0.3","spark_pilot_2","7787","8","20","Female","","false","","","","","[484.39999997615814]","./assets/img/canyon/animals/lion.jpg","[""ArrowRight""]","revaluation","canyon","11","{""ArrowUp,ArrowLeft"":2,""ArrowUp,ArrowRight"":11,""ArrowDown,ArrowLeft"":8,""ArrowDown,ArrowRight"":27}","true","ArrowUp,ArrowRight","","","","revaluation","1","6","","",""
"html-keyboard-response","224","1401207","0.0-4.0-4.0-1.3","spark_pilot_2","7787","8","20","Female","","","","","","","null","<div style=""font-size:60px;"">+</div>","null","fixation","","","","","","","","","","","7","","",""
"revaluation","225","1405227","0.0-4.0-4.0-0.4","spark_pilot_2","7787","8","20","Female","","false","","","","","[605.8999999761581]","./assets/img/canyon/animals/lion.jpg","[""ArrowRight""]","revaluation","canyon","11","{""ArrowUp,ArrowLeft"":2,""ArrowUp,ArrowRight"":11,""ArrowDown,ArrowLeft"":8,""ArrowDown,ArrowRight"":27}","true","ArrowUp,ArrowRight","","","","revaluation","1","8","","",""
"html-keyboard-response","226","1405736","0.0-4.0-4.0-1.4","spark_pilot_2","7787","8","20","Female","","","","","","","null","<div style=""font-size:60px;"">+</div>","null","fixation","","","","","","","","","","","9","","",""
"revaluation","227","1409755","0.0-4.0-4.0-0.5","spark_pilot_2","7787","8","20","Female","","false","","","","","[433]","./assets/img/canyon/animals/giraffe.jpg","[""ArrowRight""]","revaluation","canyon","27","{""ArrowUp,ArrowLeft"":2,""ArrowUp,ArrowRight"":11,""ArrowDown,ArrowLeft"":8,""ArrowDown,ArrowRight"":27}","true","ArrowDown,ArrowRight","","","","revaluation","1","10","","",""
"html-keyboard-response","228","1410263","0.0-4.0-4.0-1.5","spark_pilot_2","7787","8","20","Female","","","","","","","null","<div style=""font-size:60px;"">+</div>","null","fixation","","","","","","","","","","","11","","",""
"revaluation","229","1414280","0.0-4.0-4.0-0.6","spark_pilot_2","7787","8","20","Female","","false","","","","","[489.2000000476837]","./assets/img/canyon/animals/giraffe.jpg","[""ArrowRight""]","revaluation","canyon","27","{""ArrowUp,ArrowLeft"":2,""ArrowUp,ArrowRight"":11,""ArrowDown,ArrowLeft"":8,""ArrowDown,ArrowRight"":27}","true","ArrowDown,ArrowRight","","","","revaluation","1","12","","",""
"html-keyboard-response","230","1414794","0.0-4.0-4.0-1.6","spark_pilot_2","7787","8","20","Female","","","","","","","null","<div style=""font-size:60px;"">+</div>","null","fixation","","","","","","","","","","","13","","",""
"revaluation","231","1418819","0.0-4.0-4.0-0.7","spark_pilot_2","7787","8","20","Female","","false","","","","","[430.1999999284744]","./assets/img/canyon/animals/lion.jpg","[""ArrowRight""]","revaluation","canyon","11","{""ArrowUp,ArrowLeft"":2,""ArrowUp,ArrowRight"":11,""ArrowDown,ArrowLeft"":8,""ArrowDown,ArrowRight"":27}","true","ArrowUp,ArrowRight","","","","revaluation","1","14","","",""
"html-keyboard-response","232","1419330","0.0-4.0-4.0-1.7","spark_pilot_2","7787","8","20","Female","","","","","","","null","<div style=""font-size:60px;"">+</div>","null","fixation","","","","","","","","","","","15","","",""
"revaluation","233","1423346","0.0-4.0-4.0-0.8","spark_pilot_2","7787","8","20","Female","","false","","","","","[515.5]","./assets/img/canyon/animals/lion.jpg","[""ArrowRight""]","revaluation","canyon","11","{""ArrowUp,ArrowLeft"":2,""ArrowUp,ArrowRight"":11,""ArrowDown,ArrowLeft"":8,""ArrowDown,ArrowRight"":27}","true","ArrowUp,ArrowRight","","","","revaluation","1","16","","",""
"html-keyboard-response","234","1423858","0.0-4.0-4.0-1.8","spark_pilot_2","7787","8","20","Female","","","","","","","null","<div style=""font-size:60px;"">+</div>","null","fixation","","","","","","","","","","","17","","",""
"revaluation","235","1427880","0.0-4.0-4.0-0.9","spark_pilot_2","7787","8","20","Female","","false","","","","","[419.7999999523163]","./assets/img/canyon/animals/giraffe.jpg","[""ArrowRight""]","revaluation","canyon","27","{""ArrowUp,ArrowLeft"":2,""ArrowUp,ArrowRight"":11,""ArrowDown,ArrowLeft"":8,""ArrowDown,ArrowRight"":27}","true","ArrowDown,ArrowRight","","","","revaluation","1","18","","",""
"html-keyboard-response","236","1428391","0.0-4.0-4.0-1.9","spark_pilot_2","7787","8","20","Female","","","","","","","null","<div style=""font-size:60px;"">+</div>","null","fixation","","","","","","","","","","","19","","",""
"revaluation","237","1432407","0.0-4.0-4.0-0.10","spark_pilot_2","7787","8","20","Female","","false","","","","","[328.8000000715256]","./assets/img/canyon/animals/lion.jpg","[""ArrowRight""]","revaluation","canyon","11","{""ArrowUp,ArrowLeft"":2,""ArrowUp,ArrowRight"":11,""ArrowDown,ArrowLeft"":8,""ArrowDown,ArrowRight"":27}","true","ArrowUp,ArrowRight","","","","revaluation","1","20","","",""
"html-keyboard-response","238","1432914","0.0-4.0-4.0-1.10","spark_pilot_2","7787","8","20","Female","","","","","","","null","<div style=""font-size:60px;"">+</div>","null","fixation","","","","","","","","","","","21","","",""
"revaluation","239","1436936","0.0-4.0-4.0-0.11","spark_pilot_2","7787","8","20","Female","","false","","","","","[408.5]","./assets/img/canyon/animals/giraffe.jpg","[""ArrowRight""]","revaluation","canyon","27","{""ArrowUp,ArrowLeft"":2,""ArrowUp,ArrowRight"":11,""ArrowDown,ArrowLeft"":8,""ArrowDown,ArrowRight"":27}","true","ArrowDown,ArrowRight","","","","revaluation","1","22","","",""
"html-keyboard-response","240","1437447","0.0-4.0-4.0-1.11","spark_pilot_2","7787","8","20","Female","","","","","","","null","<div style=""font-size:60px;"">+</div>","null","fixation","","","","","","","","","","","23","","",""
"revaluation","241","1441464","0.0-4.0-4.0-0.12","spark_pilot_2","7787","8","20","Female","","false","","","","","[397.7999999523163]","./assets/img/canyon/animals/giraffe.jpg","[""ArrowRight""]","revaluation","canyon","27","{""ArrowUp,ArrowLeft"":2,""ArrowUp,ArrowRight"":11,""ArrowDown,ArrowLeft"":8,""ArrowDown,ArrowRight"":27}","true","ArrowDown,ArrowRight","","","","revaluation","1","24","","",""
"html-keyboard-response","242","1441970","0.0-4.0-4.0-1.12","spark_pilot_2","7787","8","20","Female","","","","","","","null","<div style=""font-size:60px;"">+</div>","null","fixation","","","","","","","","","","","25","","",""
"revaluation","243","1445992","0.0-4.0-4.0-0.13","spark_pilot_2","7787","8","20","Female","","false","","","","","[524.6999999284744]","./assets/img/canyon/animals/lion.jpg","[""ArrowRight""]","revaluation","canyon","11","{""ArrowUp,ArrowLeft"":2,""ArrowUp,ArrowRight"":11,""ArrowDown,ArrowLeft"":8,""ArrowDown,ArrowRight"":27}","true","ArrowUp,ArrowRight","","","","revaluation","1","26","","",""
"html-keyboard-response","244","1446503","0.0-4.0-4.0-1.13","spark_pilot_2","7787","8","20","Female","","","","","","","null","<div style=""font-size:60px;"">+</div>","null","fixation","","","","","","","","","","","27","","",""
"revaluation","245","1450519","0.0-4.0-4.0-0.14","spark_pilot_2","7787","8","20","Female","","false","","","","","[389.6999999284744]","./assets/img/canyon/animals/lion.jpg","[""ArrowRight""]","revaluation","canyon","11","{""ArrowUp,ArrowLeft"":2,""ArrowUp,ArrowRight"":11,""ArrowDown,ArrowLeft"":8,""ArrowDown,ArrowRight"":27}","true","ArrowUp,ArrowRight","","","","revaluation","1","28","","",""
"html-keyboard-response","246","1451031","0.0-4.0-4.0-1.14","spark_pilot_2","7787","8","20","Female","","","","","","","null","<div style=""font-size:60px;"">+</div>","null","fixation","","","","","","","","","","","29","","",""
"revaluation","247","1455047","0.0-4.0-4.0-0.15","spark_pilot_2","7787","8","20","Female","","false","","","","","[346.59999990463257]","./assets/img/canyon/animals/giraffe.jpg","[""ArrowRight""]","revaluation","canyon","27","{""ArrowUp,ArrowLeft"":2,""ArrowUp,ArrowRight"":11,""ArrowDown,ArrowLeft"":8,""ArrowDown,ArrowRight"":27}","true","ArrowDown,ArrowRight","","","","revaluation","1","30","","",""
"html-keyboard-response","248","1455559","0.0-4.0-4.0-1.15","spark_pilot_2","7787","8","20","Female","","","","","","","null","<div style=""font-size:60px;"">+</div>","null","fixation","","","","","","","","","","","31","","",""
"revaluation","249","1459575","0.0-4.0-4.0-0.16","spark_pilot_2","7787","8","20","Female","","false","","","","","[399.2999999523163]","./assets/img/canyon/animals/giraffe.jpg","[""ArrowRight""]","revaluation","canyon","27","{""ArrowUp,ArrowLeft"":2,""ArrowUp,ArrowRight"":11,""ArrowDown,ArrowLeft"":8,""ArrowDown,ArrowRight"":27}","true","ArrowDown,ArrowRight","","","","revaluation","1","32","","",""
"html-keyboard-response","250","1460087","0.0-4.0-4.0-1.16","spark_pilot_2","7787","8","20","Female","","","","","","","null","<div style=""font-size:60px;"">+</div>","null","fixation","","","","","","","","","","","33","","",""
"revaluation","251","1464103","0.0-4.0-4.0-0.17","spark_pilot_2","7787","8","20","Female","","false","","","","","[379.7000000476837]","./assets/img/canyon/animals/lion.jpg","[""ArrowRight""]","revaluation","canyon","11","{""ArrowUp,ArrowLeft"":2,""ArrowUp,ArrowRight"":11,""ArrowDown,ArrowLeft"":8,""ArrowDown,ArrowRight"":27}","true","ArrowUp,ArrowRight","","","","revaluation","1","34","","",""
"html-keyboard-response","252","1464614","0.0-4.0-4.0-1.17","spark_pilot_2","7787","8","20","Female","","","","","","","null","<div style=""font-size:60px;"">+</div>","null","fixation","","","","","","","","","","","35","","",""
"learning-instructions","253","1476420","0.0-4.0-5.0-0.0","spark_pilot_2","7787","8","20","Female","","","","","","","408.2999999523163","<p> Time to play the dot game! </p>
            <p> For one minute, click the red dots on the following screen as they appear. </p>
            <p><b> Don't look away, as you will earn bonus for clicking dots</b>. </p>","","instructions","","","","","","","","","","","","","",""
"revaluation","254","1536429","0.0-4.0-6.0-0.0","spark_pilot_2","7787","8","20","Female","","","","","","","[72,71,83,81,73,87]","","","rest","","60","","","","","0","60000","","","","","",""
"learning-instructions","255","1543401","0.0-4.0-7.0-0.0","spark_pilot_2","7787","8","20","Female","","","","","","","838.1000000238419","<p> You have almost finished this part of the game! </p>
            <p> We are going to ask you to make a few more choices. </p>","","instructions","","","","","","","","","","","","","",""
"learning-instructions","256","1558038","0.0-4.0-7.0-0.1","spark_pilot_2","7787","8","20","Female","","","","","","","663.8999999761581","<p> First, you need to decide whether to go up or down. When you see each picture, use the arrow keys to make your choice. </p>
            <p><b>You will not see which animal you found, but try to get to the one that will give you the most treasure.</b></p>","","instructions","","","","","","","","","","","","","",""
"revaluation","257","1559424","0.0-4.0-8.0-0.0","spark_pilot_2","7787","8","20","Female","","false","","","","","[1383.1999999284744]","./assets/img/canyon/test/1.jpg","[""ArrowUp""]","first stage test","canyon","0","{""ArrowUp,ArrowLeft"":2,""ArrowUp,ArrowRight"":11,""ArrowDown,ArrowLeft"":8,""ArrowDown,ArrowRight"":27}","false","ArrowUp","false","","","revaluation","1","","","",""
"html-keyboard-response","258","1559931","0.0-4.0-8.0-1.0","spark_pilot_2","7787","8","20","Female","","","","","","","null","<div style=""font-size:60px;"">+</div>","null","fixation","","","","","","","","","","","","","",""
"revaluation","259","1560476","0.0-4.0-8.0-0.1","spark_pilot_2","7787","8","20","Female","","false","","","","","[541.3999999761581]","./assets/img/canyon/test/0.jpg","[""ArrowUp""]","first stage test","canyon","0","{""ArrowUp,ArrowLeft"":2,""ArrowUp,ArrowRight"":11,""ArrowDown,ArrowLeft"":8,""ArrowDown,ArrowRight"":27}","false","ArrowUp","false","","","revaluation","1","","","",""
"html-keyboard-response","260","1560978","0.0-4.0-8.0-1.1","spark_pilot_2","7787","8","20","Female","","","","","","","null","<div style=""font-size:60px;"">+</div>","null","fixation","","","","","","","","","","","","","",""
"revaluation","261","1561277","0.0-4.0-8.0-0.2","spark_pilot_2","7787","8","20","Female","","false","","","","","[294.39999997615814]","./assets/img/canyon/test/3.jpg","[""ArrowUp""]","first stage test","canyon","0","{""ArrowUp,ArrowLeft"":2,""ArrowUp,ArrowRight"":11,""ArrowDown,ArrowLeft"":8,""ArrowDown,ArrowRight"":27}","false","ArrowUp","false","","","revaluation","1","","","",""
"html-keyboard-response","262","1561782","0.0-4.0-8.0-1.2","spark_pilot_2","7787","8","20","Female","","","","","","","null","<div style=""font-size:60px;"">+</div>","null","fixation","","","","","","","","","","","","","",""
"revaluation","263","1562059","0.0-4.0-8.0-0.3","spark_pilot_2","7787","8","20","Female","","false","","","","","[273.60000002384186]","./assets/img/canyon/test/2.jpg","[""ArrowUp""]","first stage test","canyon","0","{""ArrowUp,ArrowLeft"":2,""ArrowUp,ArrowRight"":11,""ArrowDown,ArrowLeft"":8,""ArrowDown,ArrowRight"":27}","false","ArrowUp","false","","","revaluation","1","","","",""
"html-keyboard-response","264","1562567","0.0-4.0-8.0-1.3","spark_pilot_2","7787","8","20","Female","","","","","","","null","<div style=""font-size:60px;"">+</div>","null","fixation","","","","","","","","","","","","","",""
"learning-instructions","265","1574721","0.0-4.0-9.0-0.0","spark_pilot_2","7787","8","20","Female","","","","","","","808.8999999761581","<p> Now you will see the animals again and can search their chests for treasure. </p>
            <p> This time, you will not see how much treasure you earned, but you will earn more bonus money for making better choices. </p>","","instructions","","","","","","","","","","","","","",""
"revaluation","266","1575284","0.0-4.0-10.0-0.0","spark_pilot_2","7787","8","20","Female","","false","","","","","[559.1999999284744]","./assets/img/canyon/animals/lion.jpg","[""ArrowLeft""]","second stage test","canyon","0","{""ArrowUp,ArrowLeft"":2,""ArrowUp,ArrowRight"":11,""ArrowDown,ArrowLeft"":8,""ArrowDown,ArrowRight"":27}","false","ArrowUp,ArrowLeft","","","","revaluation","1","","","",""
"html-keyboard-response","267","1575787","0.0-4.0-10.0-1.0","spark_pilot_2","7787","8","20","Female","","","","","","","null","<div style=""font-size:60px;"">+</div>","null","fixation","","","","","","","","","","","","","",""
"revaluation","268","1576068","0.0-4.0-10.0-0.1","spark_pilot_2","7787","8","20","Female","","false","","","","","[276.7000000476837]","./assets/img/canyon/animals/lion.jpg","[""ArrowRight""]","second stage test","canyon","0","{""ArrowUp,ArrowLeft"":2,""ArrowUp,ArrowRight"":11,""ArrowDown,ArrowLeft"":8,""ArrowDown,ArrowRight"":27}","true","ArrowUp,ArrowRight","","","","revaluation","1","","","",""
"html-keyboard-response","269","1576570","0.0-4.0-10.0-1.1","spark_pilot_2","7787","8","20","Female","","","","","","","null","<div style=""font-size:60px;"">+</div>","null","fixation","","","","","","","","","","","","","",""
"revaluation","270","1576851","0.0-4.0-10.0-0.2","spark_pilot_2","7787","8","20","Female","","false","","","","","[274.09999990463257]","./assets/img/canyon/animals/lion.jpg","[""ArrowLeft""]","second stage test","canyon","0","{""ArrowUp,ArrowLeft"":2,""ArrowUp,ArrowRight"":11,""ArrowDown,ArrowLeft"":8,""ArrowDown,ArrowRight"":27}","false","ArrowUp,ArrowLeft","","","","revaluation","1","","","",""
"html-keyboard-response","271","1577357","0.0-4.0-10.0-1.2","spark_pilot_2","7787","8","20","Female","","","","","","","null","<div style=""font-size:60px;"">+</div>","null","fixation","","","","","","","","","","","","","",""
"revaluation","272","1577603","0.0-4.0-10.0-0.3","spark_pilot_2","7787","8","20","Female","","false","","","","","[242.20000004768372]","./assets/img/canyon/animals/lion.jpg","[""ArrowRight""]","second stage test","canyon","0","{""ArrowUp,ArrowLeft"":2,""ArrowUp,ArrowRight"":11,""ArrowDown,ArrowLeft"":8,""ArrowDown,ArrowRight"":27}","true","ArrowUp,ArrowRight","","","","revaluation","1","","","",""
"html-keyboard-response","273","1578107","0.0-4.0-10.0-1.3","spark_pilot_2","7787","8","20","Female","","","","","","","null","<div style=""font-size:60px;"">+</div>","null","fixation","","","","","","","","","","","","","",""
"revaluation","274","1578440","0.0-4.0-10.0-0.4","spark_pilot_2","7787","8","20","Female","","false","","","","","[328.3000000715256]","./assets/img/canyon/animals/giraffe.jpg","[""ArrowLeft""]","second stage test","canyon","0","{""ArrowUp,ArrowLeft"":2,""ArrowUp,ArrowRight"":11,""ArrowDown,ArrowLeft"":8,""ArrowDown,ArrowRight"":27}","false","ArrowDown,ArrowLeft","","","","revaluation","1","","","",""
"html-keyboard-response","275","1578945","0.0-4.0-10.0-1.4","spark_pilot_2","7787","8","20","Female","","","","","","","null","<div style=""font-size:60px;"">+</div>","null","fixation","","","","","","","","","","","","","",""
"revaluation","276","1579196","0.0-4.0-10.0-0.5","spark_pilot_2","7787","8","20","Female","","false","","","","","[246.89999997615814]","./assets/img/canyon/animals/giraffe.jpg","[""ArrowRight""]","second stage test","canyon","0","{""ArrowUp,ArrowLeft"":2,""ArrowUp,ArrowRight"":11,""ArrowDown,ArrowLeft"":8,""ArrowDown,ArrowRight"":27}","true","ArrowDown,ArrowRight","","","","revaluation","1","","","",""
"html-keyboard-response","277","1579698","0.0-4.0-10.0-1.5","spark_pilot_2","7787","8","20","Female","","","","","","","null","<div style=""font-size:60px;"">+</div>","null","fixation","","","","","","","","","","","","","",""
"revaluation","278","1579992","0.0-4.0-10.0-0.6","spark_pilot_2","7787","8","20","Female","","false","","","","","[290.2000000476837]","./assets/img/canyon/animals/giraffe.jpg","[""ArrowLeft""]","second stage test","canyon","0","{""ArrowUp,ArrowLeft"":2,""ArrowUp,ArrowRight"":11,""ArrowDown,ArrowLeft"":8,""ArrowDown,ArrowRight"":27}","false","ArrowDown,ArrowLeft","","","","revaluation","1","","","",""
"html-keyboard-response","279","1580498","0.0-4.0-10.0-1.6","spark_pilot_2","7787","8","20","Female","","","","","","","null","<div style=""font-size:60px;"">+</div>","null","fixation","","","","","","","","","","","","","",""
"revaluation","280","1580772","0.0-4.0-10.0-0.7","spark_pilot_2","7787","8","20","Female","","false","","","","","[269.7000000476837]","./assets/img/canyon/animals/giraffe.jpg","[""ArrowRight""]","second stage test","canyon","0","{""ArrowUp,ArrowLeft"":2,""ArrowUp,ArrowRight"":11,""ArrowDown,ArrowLeft"":8,""ArrowDown,ArrowRight"":27}","true","ArrowDown,ArrowRight","","","","revaluation","1","","","",""
"html-keyboard-response","281","1581275","0.0-4.0-10.0-1.7","spark_pilot_2","7787","8","20","Female","","","","","","","null","<div style=""font-size:60px;"">+</div>","null","fixation","","","","","","","","","","","","","",""
"learning-instructions","282","1584471","0.0-4.0-0.1-0.2","spark_pilot_2","7787","8","20","Female","","","","","","","489.10000002384186","<p> This time you are searching for treasure in the <b>ocean</b>.</p>","","instructions","","","","","","","","","","","","","",""
"learning-instructions","283","1602087","0.0-4.0-0.1-0.3","spark_pilot_2","7787","8","20","Female","","","","","","","361.5","<p><b>New</b> animals with <b>new</b> treasure chests live here. You need to explore to discover where the animal with the best treasure chest is.</p>
                    <p> Like before, once you figure out which animal has the chest with the most treasure, you should try to get to that animal and select that chest! </p>","","instructions","","","","","","","","","","","","","",""
"learning-instructions","284","1617622","0.0-4.0-1.1-0.1","spark_pilot_2","7787","8","20","Female","","","","","","","803","<p> Remember, when you see a picture of the place, use the up and down keys to <b>find an animal</b>.</p>
            <p> When you encounter an animal, you should use the left and right keys to <b>select a treasure chest</b>.</p>
            <p> Don't forget to look out for the robber! </p>","","instructions","","","","","","","","","","","","","",""
"revaluation","285","1623653","0.0-4.0-2.1-0.50","spark_pilot_2","7787","8","20","Female","","false","","","","","[951.8999999761581,457.5]","./assets/img/ocean/memory/6.jpg","[""ArrowUp"",""ArrowLeft""]","value training","ocean","23","{""ArrowUp,ArrowLeft"":23,""ArrowUp,ArrowRight"":10,""ArrowDown,ArrowLeft"":8,""ArrowDown,ArrowRight"":30}","false","ArrowUp,ArrowLeft","false","","","original","2","0","","",""
"html-keyboard-response","286","1624161","0.0-4.0-2.1-1.50","spark_pilot_2","7787","8","20","Female","","","","","","","null","<div style=""font-size:60px;"">+</div>","null","fixation","","","","","","","","","","","1","","",""
"revaluation","287","1630185","0.0-4.0-2.1-0.51","spark_pilot_2","7787","8","20","Female","","false","","","","","[406.3000000715256,357.09999990463257]","./assets/img/ocean/memory/14.jpg","[""ArrowUp"",""ArrowRight""]","value training","ocean","10","{""ArrowUp,ArrowLeft"":23,""ArrowUp,ArrowRight"":10,""ArrowDown,ArrowLeft"":8,""ArrowDown,ArrowRight"":30}","false","ArrowUp,ArrowRight","false","","","original","2","2","","",""
"html-keyboard-response","288","1630692","0.0-4.0-2.1-1.51","spark_pilot_2","7787","8","20","Female","","","","","","","null","<div style=""font-size:60px;"">+</div>","null","fixation","","","","","","","","","","","3","","",""
"revaluation","289","1636717","0.0-4.0-2.1-0.52","spark_pilot_2","7787","8","20","Female","","false","","","","","[390.10000002384186,373.6999999284744]","./assets/img/ocean/memory/9.jpg","[""ArrowDown"",""ArrowLeft""]","value training","ocean","8","{""ArrowUp,ArrowLeft"":23,""ArrowUp,ArrowRight"":10,""ArrowDown,ArrowLeft"":8,""ArrowDown,ArrowRight"":30}","false","ArrowDown,ArrowLeft","false","","","original","2","4","","",""
"html-keyboard-response","290","1637227","0.0-4.0-2.1-1.52","spark_pilot_2","7787","8","20","Female","","","","","","","null","<div style=""font-size:60px;"">+</div>","null","fixation","","","","","","","","","","","5","","",""
"revaluation","291","1643253","0.0-4.0-2.1-0.53","spark_pilot_2","7787","8","20","Female","","false","","","","","[500.39999997615814,348.2000000476837]","./assets/img/ocean/memory/21.jpg","[""ArrowDown"",""ArrowRight""]","value training","ocean","30","{""ArrowUp,ArrowLeft"":23,""ArrowUp,ArrowRight"":10,""ArrowDown,ArrowLeft"":8,""ArrowDown,ArrowRight"":30}","true","ArrowDown,ArrowRight","false","","","original","2","6","","",""
"html-keyboard-response","292","1643760","0.0-4.0-2.1-1.53","spark_pilot_2","7787","8","20","Female","","","","","","","null","<div style=""font-size:60px;"">+</div>","null","fixation","","","","","","","","","","","7","","",""
"revaluation","293","1647780","0.0-4.0-2.1-0.54","spark_pilot_2","7787","8","20","Female","","false","","","","","[696.7999999523163]","./assets/img/ocean/catch/1.jpg","[""spaceBar""]","value training","ocean","0","{""ArrowUp,ArrowLeft"":23,""ArrowUp,ArrowRight"":10,""ArrowDown,ArrowLeft"":8,""ArrowDown,ArrowRight"":30}","true","spaceBar","true","","","original","2","8","","",""
"html-keyboard-response","294","1648292","0.0-4.0-2.1-1.54","spark_pilot_2","7787","8","20","Female","","","","","","","null","<div style=""font-size:60px;"">+</div>","null","fixation","","","","","","","","","","","9","","",""
"revaluation","295","1654324","0.0-4.0-2.1-0.55","spark_pilot_2","7787","8","20","Female","","false","","","","","[429.39999997615814,315.10000002384186]","./assets/img/ocean/memory/36.jpg","[""ArrowDown"",""ArrowRight""]","value training","ocean","30","{""ArrowUp,ArrowLeft"":23,""ArrowUp,ArrowRight"":10,""ArrowDown,ArrowLeft"":8,""ArrowDown,ArrowRight"":30}","true","ArrowDown,ArrowRight","false","","","original","2","10","","",""
"html-keyboard-response","296","1654835","0.0-4.0-2.1-1.55","spark_pilot_2","7787","8","20","Female","","","","","","","null","<div style=""font-size:60px;"">+</div>","null","fixation","","","","","","","","","","","11","","",""
"revaluation","297","1660868","0.0-4.0-2.1-0.56","spark_pilot_2","7787","8","20","Female","","false","","","","","[426.7999999523163,676.2000000476837]","./assets/img/ocean/memory/5.jpg","[""ArrowDown"",""ArrowRight""]","value training","ocean","30","{""ArrowUp,ArrowLeft"":23,""ArrowUp,ArrowRight"":10,""ArrowDown,ArrowLeft"":8,""ArrowDown,ArrowRight"":30}","true","ArrowDown,ArrowRight","false","","","original","2","12","","",""
"html-keyboard-response","298","1661378","0.0-4.0-2.1-1.56","spark_pilot_2","7787","8","20","Female","","","","","","","null","<div style=""font-size:60px;"">+</div>","null","fixation","","","","","","","","","","","13","","",""
"revaluation","299","1667401","0.0-4.0-2.1-0.57","spark_pilot_2","7787","8","20","Female","","false","","","","","[386.59999990463257,397.1999999284744]","./assets/img/ocean/memory/38.jpg","[""ArrowDown"",""ArrowRight""]","value training","ocean","30","{""ArrowUp,ArrowLeft"":23,""ArrowUp,ArrowRight"":10,""ArrowDown,ArrowLeft"":8,""ArrowDown,ArrowRight"":30}","true","ArrowDown,ArrowRight","false","","","original","2","14","","",""
"html-keyboard-response","300","1667907","0.0-4.0-2.1-1.57","spark_pilot_2","7787","8","20","Female","","","","","","","null","<div style=""font-size:60px;"">+</div>","null","fixation","","","","","","","","","","","15","","",""
"revaluation","301","1673939","0.0-4.0-2.1-0.58","spark_pilot_2","7787","8","20","Female","","false","","","","","[370.39999997615814,397.40000009536743]","./assets/img/ocean/memory/17.jpg","[""ArrowDown"",""ArrowRight""]","value training","ocean","30","{""ArrowUp,ArrowLeft"":23,""ArrowUp,ArrowRight"":10,""ArrowDown,ArrowLeft"":8,""ArrowDown,ArrowRight"":30}","true","ArrowDown,ArrowRight","false","","","original","2","16","","",""
"html-keyboard-response","302","1674451","0.0-4.0-2.1-1.58","spark_pilot_2","7787","8","20","Female","","","","","","","null","<div style=""font-size:60px;"">+</div>","null","fixation","","","","","","","","","","","17","","",""
