"trial_type","trial_index","time_elapsed","internal_node_id","task_version","subject_id","assigned_condition","age","gender","success","timeout","failed_images","failed_audio","failed_video","browser_interaction","rt","stimulus","response","task_part","environment","score","rewardMap","correct","fullState","isCatch","numberMissed","duration","condition","order","trial_num","key_press","ground_truth","bonus"
"pavlovia","0","1502","0.0-0.0","spark_pilot_2","8091","5","16","Female","","","","","","","","","","","","","","","","","","","","","","","",""
"preload","1","16592","0.0-1.0","spark_pilot_2","8091","5","16","Female","true","false","[]","[]","[]","[{""event"":""fullscreenenter"",""trial"":2,""time"":17933},{""event"":""fullscreenexit"",""trial"":3,""time"":19470},{""event"":""blur"",""trial"":8,""time"":57909},{""event"":""focus"",""trial"":8,""time"":59954},{""event"":""blur"",""trial"":9,""time"":66150},{""event"":""focus"",""trial"":9,""time"":92993},{""event"":""blur"",""trial"":27,""time"":175750},{""event"":""focus"",""trial"":27,""time"":185885},{""event"":""blur"",""trial"":28,""time"":191431},{""event"":""focus"",""trial"":28,""time"":202253},{""event"":""blur"",""trial"":38,""time"":236326},{""event"":""focus"",""trial"":38,""time"":252404}]","","","","","","","","","","","","","","","","","",""
"fullscreen","2","18916","0.0-2.0","spark_pilot_2","8091","5","16","Female","true","","","","","[{""event"":""fullscreenenter"",""trial"":2,""time"":17933},{""event"":""fullscreenexit"",""trial"":3,""time"":19470},{""event"":""blur"",""trial"":8,""time"":57909},{""event"":""focus"",""trial"":8,""time"":59954},{""event"":""blur"",""trial"":9,""time"":66150},{""event"":""focus"",""trial"":9,""time"":92993},{""event"":""blur"",""trial"":27,""time"":175750},{""event"":""focus"",""trial"":27,""time"":185885},{""event"":""blur"",""trial"":28,""time"":191431},{""event"":""focus"",""trial"":28,""time"":202253},{""event"":""blur"",""trial"":38,""time"":236326},{""event"":""focus"",""trial"":38,""time"":252404}]","","","","","","","","","","","","","","","","","",""
"audio-button-response","3","22005","0.0-3.0-0.0-0.0","spark_pilot_2","8091","5","16","Female","","","","","","","3011","./assets/audio/audiotest/turtle.mp3","4","audio_test","","","","","","","","","","","","","",""
"audio-button-response","4","24086","0.0-3.0-0.1-0.1","spark_pilot_2","8091","5","16","Female","","","","","","","1080","./assets/audio/audiotest/turtle.mp3","2","audio_test","","","","","","","","","","","","","",""
"learning-instructions","5","31910","0.0-3.0-1.0-0.0","spark_pilot_2","8091","5","16","Female","","","","","","","858.6000000238419","<p> Welcome! Please remember to stay in fullscreen mode and don't click away from the experiment. </p>","","instructions","","","","","","","","","","","","","",""
"learning-instructions","6","41301","0.0-3.0-1.0-0.1","spark_pilot_2","8091","5","16","Female","","","","","","","989.2000000476837","<p> Today you will be playing a game to earn treasure. </p>
            <p> At the end of the experiment, you will earn a bonus based on how much treasure you find. </p>
            <img src='./assets/img/instructions/treasure.jpg' class='instructions-image'>","","instructions","","","","","","","","","","","","","",""
"learning-instructions","7","51038","0.0-3.0-1.0-0.2","spark_pilot_2","8091","5","16","Female","","","","","","[{""event"":""fullscreenenter"",""trial"":2,""time"":17933},{""event"":""fullscreenexit"",""trial"":3,""time"":19470},{""event"":""blur"",""trial"":8,""time"":57909},{""event"":""focus"",""trial"":8,""time"":59954},{""event"":""blur"",""trial"":9,""time"":66150},{""event"":""focus"",""trial"":9,""time"":92993},{""event"":""blur"",""trial"":27,""time"":175750},{""event"":""focus"",""trial"":27,""time"":185885},{""event"":""blur"",""trial"":28,""time"":191431},{""event"":""focus"",""trial"":28,""time"":202253},{""event"":""blur"",""trial"":38,""time"":236326},{""event"":""focus"",""trial"":38,""time"":252404}]","1486.1999999284744","<p> Animals have hidden treasure in treasure chests. </p>
            <p> You need to first find an animal and then choose which of their treasure chests to search. </p>
            <img src='./assets/img/space/animals/cat.jpg' class='instructions-image'>","","instructions","","","","","","","","","","","","","",""
"learning-instructions","8","65045","0.0-3.0-1.0-0.3","spark_pilot_2","8091","5","16","Female","","","","","","[{""event"":""fullscreenenter"",""trial"":2,""time"":17933},{""event"":""fullscreenexit"",""trial"":3,""time"":19470},{""event"":""blur"",""trial"":8,""time"":57909},{""event"":""focus"",""trial"":8,""time"":59954},{""event"":""blur"",""trial"":9,""time"":66150},{""event"":""focus"",""trial"":9,""time"":92993},{""event"":""blur"",""trial"":27,""time"":175750},{""event"":""focus"",""trial"":27,""time"":185885},{""event"":""blur"",""trial"":28,""time"":191431},{""event"":""focus"",""trial"":28,""time"":202253},{""event"":""blur"",""trial"":38,""time"":236326},{""event"":""focus"",""trial"":38,""time"":252404}]","873.5","<p> In each round, you will search for treasure in a different place. In the real game, there will be two rounds. </p>
            <p> You will begin with a separate, practice round where you will search for treasure in outer space. </p>
            <img src='./assets/img/space/0.jpg' class='instructions-image'>","","instructions","","","","","","","","","","","","","",""
"learning-instructions","9","99325","0.0-3.0-1.0-0.4","spark_pilot_2","8091","5","16","Female","","","","","","","22884.5","<p> On every turn, you will see a picture of the place that you are in, but the specific image may be different each time. </p>
            <p> For example, both of these images mean you are in outer space. </p>
            <img src='./assets/img/instructions/outerspace.jpg' class='instructions-image'>","","instructions","","","","","","","","","","","","","",""
"learning-instructions","10","108013","0.0-3.0-1.0-0.5","spark_pilot_2","8091","5","16","Female","","","","","","","871","<p> You need to decide which direction to travel in. </p>
            <p> You can choose between going <b>up or down</b> by using the arrow keys. </p>
            <img src='./assets/img/instructions/updown.jpg' class='instructions-image'>","","instructions","","","","","","","","","","","","","",""
"learning-instructions","11","117765","0.0-3.0-1.0-0.6","spark_pilot_2","8091","5","16","Female","","","","","","","954.1000000238419","<p> You will have <b>2 seconds</b> to make your choice. </p>
            <p> If you do not make a choice within 2 seconds, you will not find an animal or earn treasure. </p>
            <img src='./assets/img/instructions/2seconds.jpg' class='instructions-image'>","","instructions","","","","","","","","","","","","","",""
"learning-instructions","12","126494","0.0-3.0-1.0-0.7","spark_pilot_2","8091","5","16","Female","","","","","","","1702","<p> Let’s try practicing that now! </p>
            <p> When you see a picture of the place you are in, press the <b>up</b> key to travel up. </p>
            <img src='./assets/img/instructions/pressUp.jpg' class='instructions-image'>","","instructions","","","","","","","","","","","","","",""
"revaluation","13","130532","0.0-3.0-2.0-0.0","spark_pilot_2","8091","5","16","Female","","false","","","","","[990.4000000953674]","./assets/img/space/0.jpg","[""ArrowUp""]","first stage practice","space","0","null","null","ArrowUp","false","","","","","","","",""
"html-keyboard-response","14","131041","0.0-3.0-2.0-1.0","spark_pilot_2","8091","5","16","Female","","","","","","","null","<div style=""font-size:60px;"">+</div>","null","fixation","","","","","","","","","","","","","",""
"revaluation","15","135061","0.0-3.0-2.0-0.1","spark_pilot_2","8091","5","16","Female","","false","","","","","[1918.7999999523163]","./assets/img/space/1.jpg","[""ArrowUp""]","first stage practice","space","0","null","null","ArrowUp","false","","","","","","","",""
"html-keyboard-response","16","135571","0.0-3.0-2.0-1.1","spark_pilot_2","8091","5","16","Female","","","","","","","null","<div style=""font-size:60px;"">+</div>","null","fixation","","","","","","","","","","","","","",""
"revaluation","17","139601","0.0-3.0-2.0-0.2","spark_pilot_2","8091","5","16","Female","","false","","","","","[333.60000002384186]","./assets/img/space/2.jpg","[""ArrowUp""]","first stage practice","space","0","null","null","ArrowUp","false","","","","","","","",""
"html-keyboard-response","18","140111","0.0-3.0-2.0-1.2","spark_pilot_2","8091","5","16","Female","","","","","","","null","<div style=""font-size:60px;"">+</div>","null","fixation","","","","","","","","","","","","","",""
"learning-instructions","19","147910","0.0-3.0-3.0-0.0","spark_pilot_2","8091","5","16","Female","","","","","","","3097.2999999523163","<p> Great job! Now try pressing the <b>down</b> key to travel down. </p>
            <img src='./assets/img/instructions/pressDown.jpg' class='instructions-image'>","","instructions","","","","","","","","","","","","","",""
"revaluation","20","151946","0.0-3.0-4.0-0.0","spark_pilot_2","8091","5","16","Female","","false","","","","","[1542.1000000238419]","./assets/img/space/3.jpg","[""ArrowDown""]","first stage practice","space","0","null","null","ArrowDown","false","","","","","","","",""
"html-keyboard-response","21","152450","0.0-3.0-4.0-1.0","spark_pilot_2","8091","5","16","Female","","","","","","","null","<div style=""font-size:60px;"">+</div>","null","fixation","","","","","","","","","","","","","",""
"revaluation","22","156481","0.0-3.0-4.0-0.1","spark_pilot_2","8091","5","16","Female","","false","","","","","[1817.8000000715256]","./assets/img/space/4.jpg","[""ArrowDown""]","first stage practice","space","0","null","null","ArrowDown","false","","","","","","","",""
"html-keyboard-response","23","157000","0.0-3.0-4.0-1.1","spark_pilot_2","8091","5","16","Female","","","","","","","null","<div style=""font-size:60px;"">+</div>","null","fixation","","","","","","","","","","","","","",""
"revaluation","24","161031","0.0-3.0-4.0-0.2","spark_pilot_2","8091","5","16","Female","","false","","","","","[1331]","./assets/img/space/5.jpg","[""ArrowDown""]","first stage practice","space","0","null","null","ArrowDown","false","","","","","","","",""
"html-keyboard-response","25","161550","0.0-3.0-4.0-1.2","spark_pilot_2","8091","5","16","Female","","","","","","","null","<div style=""font-size:60px;"">+</div>","null","fixation","","","","","","","","","","","","","",""
"learning-instructions","26","172750","0.0-3.0-5.0-0.0","spark_pilot_2","8091","5","16","Female","","","","","","[{""event"":""fullscreenenter"",""trial"":2,""time"":17933},{""event"":""fullscreenexit"",""trial"":3,""time"":19470},{""event"":""blur"",""trial"":8,""time"":57909},{""event"":""focus"",""trial"":8,""time"":59954},{""event"":""blur"",""trial"":9,""time"":66150},{""event"":""focus"",""trial"":9,""time"":92993},{""event"":""blur"",""trial"":27,""time"":175750},{""event"":""focus"",""trial"":27,""time"":185885},{""event"":""blur"",""trial"":28,""time"":191431},{""event"":""focus"",""trial"":28,""time"":202253},{""event"":""blur"",""trial"":38,""time"":236326},{""event"":""focus"",""trial"":38,""time"":252404}]","1358.6999999284744","<p> The animals don’t move, so the animal in the upper part of a place will stay in the upper part of a place, and the animal in the lower part of a place will stay in the lower part of a place. </p>","","instructions","","","","","","","","","","","","","",""
"learning-instructions","27","186894","0.0-3.0-5.0-0.1","spark_pilot_2","8091","5","16","Female","","","","","","[{""event"":""fullscreenenter"",""trial"":2,""time"":17933},{""event"":""fullscreenexit"",""trial"":3,""time"":19470},{""event"":""blur"",""trial"":8,""time"":57909},{""event"":""focus"",""trial"":8,""time"":59954},{""event"":""blur"",""trial"":9,""time"":66150},{""event"":""focus"",""trial"":9,""time"":92993},{""event"":""blur"",""trial"":27,""time"":175750},{""event"":""focus"",""trial"":27,""time"":185885},{""event"":""blur"",""trial"":28,""time"":191431},{""event"":""focus"",""trial"":28,""time"":202253},{""event"":""blur"",""trial"":38,""time"":236326},{""event"":""focus"",""trial"":38,""time"":252404}]","5022.299999952316","<p> Each animal has two treasure chests for you to choose from. </p>
            <p> The amount of treasure in each chest can range from <b> 0 to 40 pieces.</b></p>","","instructions","","","","","","","","","","","","","",""
"learning-instructions","28","204526","0.0-3.0-5.0-0.2","spark_pilot_2","8091","5","16","Female","","","","","","","6454.699999928474","<p> You should decide which chest to search for treasure by using the <b>left</b> and <b>right</b> arrow keys. </p>
            <p><b> Pay attention to which animal is on the screen, as the animals have different treasure chests. </b></p>
            <img src='./assets/img/instructions/leftright.jpg' class='instructions-image'>","","instructions","","","","","","","","","","","","","",""
"learning-instructions","29","212806","0.0-3.0-5.0-0.3","spark_pilot_2","8091","5","16","Female","","","","","","","1923.7000000476837","<p> Let’s try practicing that now. </p>
            <p> When you see an animal, choose which chest to search for treasure. </p>
            <img src='./assets/img/instructions/chooseChest.jpg' class='instructions-image'>","","instructions","","","","","","","","","","","","","",""
"revaluation","30","216841","0.0-3.0-6.0-0.0","spark_pilot_2","8091","5","16","Female","","false","","","","","[1503.1000000238419]","./assets/img/space/animals/rabbit.jpg","[""ArrowRight""]","second stage practice","space","23","{""ArrowUp,ArrowLeft"":3,""ArrowUp,ArrowRight"":36,""ArrowDown,ArrowLeft"":15,""ArrowDown,ArrowRight"":23}","true","ArrowDown,ArrowRight","","","","","","","","",""
"html-keyboard-response","31","217361","0.0-3.0-6.0-1.0","spark_pilot_2","8091","5","16","Female","","","","","","","null","<div style=""font-size:60px;"">+</div>","null","fixation","","","","","","","","","","","","","",""
"revaluation","32","221391","0.0-3.0-6.0-0.1","spark_pilot_2","8091","5","16","Female","","false","","","","","[419.5]","./assets/img/space/animals/cat.jpg","[""ArrowLeft""]","second stage practice","space","3","{""ArrowUp,ArrowLeft"":3,""ArrowUp,ArrowRight"":36,""ArrowDown,ArrowLeft"":15,""ArrowDown,ArrowRight"":23}","false","ArrowUp,ArrowLeft","","","","","","","","",""
"html-keyboard-response","33","221910","0.0-3.0-6.0-1.1","spark_pilot_2","8091","5","16","Female","","","","","","","null","<div style=""font-size:60px;"">+</div>","null","fixation","","","","","","","","","","","","","",""
"revaluation","34","225941","0.0-3.0-6.0-0.2","spark_pilot_2","8091","5","16","Female","","false","","","","","[343.2999999523163]","./assets/img/space/animals/rabbit.jpg","[""ArrowRight""]","second stage practice","space","23","{""ArrowUp,ArrowLeft"":3,""ArrowUp,ArrowRight"":36,""ArrowDown,ArrowLeft"":15,""ArrowDown,ArrowRight"":23}","true","ArrowDown,ArrowRight","","","","","","","","",""
"html-keyboard-response","35","226461","0.0-3.0-6.0-1.2","spark_pilot_2","8091","5","16","Female","","","","","","","null","<div style=""font-size:60px;"">+</div>","null","fixation","","","","","","","","","","","","","",""
"revaluation","36","230500","0.0-3.0-6.0-0.3","spark_pilot_2","8091","5","16","Female","","false","","","","","[297.8000000715256]","./assets/img/space/animals/cat.jpg","[""ArrowRight""]","second stage practice","space","36","{""ArrowUp,ArrowLeft"":3,""ArrowUp,ArrowRight"":36,""ArrowDown,ArrowLeft"":15,""ArrowDown,ArrowRight"":23}","true","ArrowUp,ArrowRight","","","","","","","","",""
"html-keyboard-response","37","231010","0.0-3.0-6.0-1.3","spark_pilot_2","8091","5","16","Female","","","","","","[{""event"":""fullscreenenter"",""trial"":2,""time"":17933},{""event"":""fullscreenexit"",""trial"":3,""time"":19470},{""event"":""blur"",""trial"":8,""time"":57909},{""event"":""focus"",""trial"":8,""time"":59954},{""event"":""blur"",""trial"":9,""time"":66150},{""event"":""focus"",""trial"":9,""time"":92993},{""event"":""blur"",""trial"":27,""time"":175750},{""event"":""focus"",""trial"":27,""time"":185885},{""event"":""blur"",""trial"":28,""time"":191431},{""event"":""focus"",""trial"":28,""time"":202253},{""event"":""blur"",""trial"":38,""time"":236326},{""event"":""focus"",""trial"":38,""time"":252404}]","null","<div style=""font-size:60px;"">+</div>","null","fixation","","","","","","","","","","","","","",""
"learning-instructions","38","259046","0.0-3.0-7.0-0.0","spark_pilot_2","8091","5","16","Female","","","","","","","11244.5","<p> Great job. Now let’s try putting it together. </p>
            <p> On each turn, you will first see a picture to remind you of the place you are in, and you need to choose whether to go up or down. </p>
            <p> Then you will see an animal and choose which of its chests to search for treasure. </p>","","instructions","","","","","","","","","","","","","",""
"learning-instructions","39","268230","0.0-3.0-7.0-0.1","spark_pilot_2","8091","5","16","Female","","","","","","","938.7999999523163","<p> When you choose whether to go up or down, try to go to the animal with the chest with the most treasure. </p>
            <p> Try practicing that now! </p>","","instructions","","","","","","","","","","","","","",""
"revaluation","40","274260","0.0-3.0-8.0-0.0","spark_pilot_2","8091","5","16","Female","","false","","","","","[863.8000000715256,638.3000000715256]","./assets/img/space/6.jpg","[""ArrowUp"",""ArrowRight""]","full practice","space","36","{""ArrowUp,ArrowLeft"":3,""ArrowUp,ArrowRight"":36,""ArrowDown,ArrowLeft"":15,""ArrowDown,ArrowRight"":23}","true","ArrowUp,ArrowRight","false","","","","","","","",""
"html-keyboard-response","41","274780","0.0-3.0-8.0-1.0","spark_pilot_2","8091","5","16","Female","","","","","","","null","<div style=""font-size:60px;"">+</div>","null","fixation","","","","","","","","","","","","","",""
"revaluation","42","280830","0.0-3.0-8.0-0.1","spark_pilot_2","8091","5","16","Female","","false","","","","","[463.60000002384186,360]","./assets/img/space/7.jpg","[""ArrowUp"",""ArrowRight""]","full practice","space","36","{""ArrowUp,ArrowLeft"":3,""ArrowUp,ArrowRight"":36,""ArrowDown,ArrowLeft"":15,""ArrowDown,ArrowRight"":23}","true","ArrowUp,ArrowRight","false","","","","","","","",""
"html-keyboard-response","43","281340","0.0-3.0-8.0-1.1","spark_pilot_2","8091","5","16","Female","","","","","","","null","<div style=""font-size:60px;"">+</div>","null","fixation","","","","","","","","","","","","","",""
"revaluation","44","287390","0.0-3.0-8.0-0.2","spark_pilot_2","8091","5","16","Female","","false","","","","","[361.89999997615814,375.2999999523163]","./assets/img/space/8.jpg","[""ArrowUp"",""ArrowRight""]","full practice","space","36","{""ArrowUp,ArrowLeft"":3,""ArrowUp,ArrowRight"":36,""ArrowDown,ArrowLeft"":15,""ArrowDown,ArrowRight"":23}","true","ArrowUp,ArrowRight","false","","","","","","","",""
"html-keyboard-response","45","287910","0.0-3.0-8.0-1.2","spark_pilot_2","8091","5","16","Female","","","","","","","null","<div style=""font-size:60px;"">+</div>","null","fixation","","","","","","","","","","","","","",""
"revaluation","46","293949","0.0-3.0-8.0-0.3","spark_pilot_2","8091","5","16","Female","","false","","","","","[392.5,1000.8000000715256]","./assets/img/space/9.jpg","[""ArrowUp"",""ArrowRight""]","full practice","space","36","{""ArrowUp,ArrowLeft"":3,""ArrowUp,ArrowRight"":36,""ArrowDown,ArrowLeft"":15,""ArrowDown,ArrowRight"":23}","true","ArrowUp,ArrowRight","false","","","","","","","",""
"html-keyboard-response","47","294470","0.0-3.0-8.0-1.3","spark_pilot_2","8091","5","16","Female","","","","","","","null","<div style=""font-size:60px;"">+</div>","null","fixation","","","","","","","","","","","","","",""
"revaluation","48","300493","0.0-3.0-8.0-0.4","spark_pilot_2","8091","5","16","Female","","false","","","","","[521.6999999284744,463]","./assets/img/space/10.jpg","[""ArrowUp"",""ArrowRight""]","full practice","space","36","{""ArrowUp,ArrowLeft"":3,""ArrowUp,ArrowRight"":36,""ArrowDown,ArrowLeft"":15,""ArrowDown,ArrowRight"":23}","true","ArrowUp,ArrowRight","false","","","","","","","",""
"html-keyboard-response","49","300995","0.0-3.0-8.0-1.4","spark_pilot_2","8091","5","16","Female","","","","","","","null","<div style=""font-size:60px;"">+</div>","null","fixation","","","","","","","","","","","","","",""
"learning-instructions","50","313733","0.0-3.0-9.0-0.0","spark_pilot_2","8091","5","16","Female","","","","","","","2342.2999999523163","<p> One last thing: sometimes, you will see a robber. The robber can be anywhere in the picture. </p>
            <p> If you do not stop them, you will lose treasure. </p>
            <img src='./assets/img/instructions/robber.jpg' class='instructions-image'>","","instructions","","","","","","","","","","","","","",""
"learning-instructions","51","321621","0.0-3.0-9.0-0.1","spark_pilot_2","8091","5","16","Female","","","","","","","731.3000000715256","<p> If you see the robber, you should <b>press the space bar</b> rather than using the arrow keys. </p>
            <p> Try practicing that now! </p>","","instructions","","","","","","","","","","","","","",""
"revaluation","52","325640","0.0-3.0-10.0-0.0","spark_pilot_2","8091","5","16","Female","","false","","","","","[1294.4000000953674]","./assets/img/space/catch/0.jpg","[""spaceBar""]","catch practice","space","0","{""ArrowUp,ArrowLeft"":3,""ArrowUp,ArrowRight"":36,""ArrowDown,ArrowLeft"":15,""ArrowDown,ArrowRight"":23}","true","spaceBar","true","","","","","","","",""
"html-keyboard-response","53","326159","0.0-3.0-10.0-1.0","spark_pilot_2","8091","5","16","Female","","","","","","","null","<div style=""font-size:60px;"">+</div>","null","fixation","","","","","","","","","","","","","",""
"revaluation","54","330189","0.0-3.0-10.0-0.1","spark_pilot_2","8091","5","16","Female","","false","","","","","[483.5]","./assets/img/space/catch/1.jpg","[""spaceBar""]","catch practice","space","0","{""ArrowUp,ArrowLeft"":3,""ArrowUp,ArrowRight"":36,""ArrowDown,ArrowLeft"":15,""ArrowDown,ArrowRight"":23}","true","spaceBar","true","","","","","","","",""
"html-keyboard-response","55","330709","0.0-3.0-10.0-1.1","spark_pilot_2","8091","5","16","Female","","","","","","","null","<div style=""font-size:60px;"">+</div>","null","fixation","","","","","","","","","","","","","",""
"revaluation","56","334739","0.0-3.0-10.0-0.2","spark_pilot_2","8091","5","16","Female","","false","","","","","[509.89999997615814]","./assets/img/space/catch/2.jpg","[""spaceBar""]","catch practice","space","0","{""ArrowUp,ArrowLeft"":3,""ArrowUp,ArrowRight"":36,""ArrowDown,ArrowLeft"":15,""ArrowDown,ArrowRight"":23}","true","spaceBar","true","","","","","","","",""
"html-keyboard-response","57","335259","0.0-3.0-10.0-1.2","spark_pilot_2","8091","5","16","Female","","","","","","","null","<div style=""font-size:60px;"">+</div>","null","fixation","","","","","","","","","","","","","",""
"learning-instructions","58","351341","0.0-3.0-11.0-0.0","spark_pilot_2","8091","5","16","Female","","","","","","","2509.2999999523163","<p> After you explore a place to find treasure, it will be time to play a different game. </p>
            <p> During this game, red dots will appear on the screen and fall down slowly. </p>
            <p><b> You must click on them before they reach the bottom. </b></p>
            <img src='./assets/img/instructions/dotGame.jpg' class='instructions-image'>","","instructions","","","","","","","","","","","","","",""
"learning-instructions","59","357933","0.0-3.0-11.0-0.1","spark_pilot_2","8091","5","16","Female","","","","","","","922.3000000715256","<p> For every dot you click, you will earn additional treasure. </p>
            <p> Let’s try practicing that now. </p>","","instructions","","","","","","","","","","","","","",""
"revaluation","60","372937","0.0-3.0-12.0-0.0","spark_pilot_2","8091","5","16","Female","","","","","","","[96]","","","rest practice","","10","","","","","0","15000","","","","","",""
"learning-instructions","61","379270","0.0-3.0-13.0-0.0-0.0","spark_pilot_2","8091","5","16","Female","","","","","","","1089.3999999761581","<p> Now, you will practice a shortened version of the game to get a sense of how it all fits together. </p>","","instructions","","","","","","","","","","","","","",""
"learning-instructions","62","383749","0.0-3.0-13.0-0.0-0.1","spark_pilot_2","8091","5","16","Female","","","","","","","1297.8000000715256","<p>This time you are searching for treasure in outer space.</p>","","instructions","","","","","","","","","","","","","",""
"learning-instructions","63","438789","0.0-3.0-13.0-1.0-0.0","spark_pilot_2","8091","5","16","Female","","","","","","","40288.39999997616","<p> Remember, when you see a picture of the place, use the up and down keys to <b>find an animal</b>.</p>
            <p> When you encounter an animal, you should use the left and right keys to <b>select a treasure chest</b>.</p>
            <p> Don't forget to look out for the robber! </p>","","instructions","","","","","","","","","","","","","",""
"revaluation","64","444794","0.0-3.0-13.0-2.0-0.0","spark_pilot_2","8091","5","16","Female","","false","","","","","[1216.3999999761581,639.5]","./assets/img/space/11.jpg","[""ArrowUp"",""ArrowRight""]","practice block","space","36","{""ArrowUp,ArrowLeft"":3,""ArrowUp,ArrowRight"":36,""ArrowDown,ArrowLeft"":15,""ArrowDown,ArrowRight"":23}","true","ArrowUp,ArrowRight","false","","","","","","","",""
"html-keyboard-response","65","445295","0.0-3.0-13.0-2.0-1.0","spark_pilot_2","8091","5","16","Female","","","","","","","null","<div style=""font-size:60px;"">+</div>","null","fixation","","","","","","","","","","","","","",""
"revaluation","66","451300","0.0-3.0-13.0-2.0-0.1","spark_pilot_2","8091","5","16","Female","","false","","","","","[1189.7000000476837,460.89999997615814]","./assets/img/space/12.jpg","[""ArrowUp"",""ArrowRight""]","practice block","space","36","{""ArrowUp,ArrowLeft"":3,""ArrowUp,ArrowRight"":36,""ArrowDown,ArrowLeft"":15,""ArrowDown,ArrowRight"":23}","true","ArrowUp,ArrowRight","false","","","","","","","",""
"html-keyboard-response","67","451801","0.0-3.0-13.0-2.0-1.1","spark_pilot_2","8091","5","16","Female","","","","","","","null","<div style=""font-size:60px;"">+</div>","null","fixation","","","","","","","","","","","","","",""
"revaluation","68","457806","0.0-3.0-13.0-2.0-0.2","spark_pilot_2","8091","5","16","Female","","false","","","","","[892.3000000715256,395.5]","./assets/img/space/13.jpg","[""ArrowUp"",""ArrowRight""]","practice block","space","36","{""ArrowUp,ArrowLeft"":3,""ArrowUp,ArrowRight"":36,""ArrowDown,ArrowLeft"":15,""ArrowDown,ArrowRight"":23}","true","ArrowUp,ArrowRight","false","","","","","","","",""
"html-keyboard-response","69","458308","0.0-3.0-13.0-2.0-1.2","spark_pilot_2","8091","5","16","Female","","","","","","","null","<div style=""font-size:60px;"">+</div>","null","fixation","","","","","","","","","","","","","",""
"revaluation","70","464313","0.0-3.0-13.0-2.0-0.3","spark_pilot_2","8091","5","16","Female","","false","","","","","[562.6000000238419,434.2999999523163]","./assets/img/space/14.jpg","[""ArrowUp"",""ArrowRight""]","practice block","space","36","{""ArrowUp,ArrowLeft"":3,""ArrowUp,ArrowRight"":36,""ArrowDown,ArrowLeft"":15,""ArrowDown,ArrowRight"":23}","true","ArrowUp,ArrowRight","false","","","","","","","",""
"html-keyboard-response","71","464815","0.0-3.0-13.0-2.0-1.3","spark_pilot_2","8091","5","16","Female","","","","","","","null","<div style=""font-size:60px;"">+</div>","null","fixation","","","","","","","","","","","","","",""
"revaluation","72","470823","0.0-3.0-13.0-2.0-0.4","spark_pilot_2","8091","5","16","Female","","false","","","","","[1119.8999999761581,439.10000002384186]","./assets/img/space/11.jpg","[""ArrowUp"",""ArrowRight""]","practice block","space","36","{""ArrowUp,ArrowLeft"":3,""ArrowUp,ArrowRight"":36,""ArrowDown,ArrowLeft"":15,""ArrowDown,ArrowRight"":23}","true","ArrowUp,ArrowRight","false","","","","","","","",""
"html-keyboard-response","73","471325","0.0-3.0-13.0-2.0-1.4","spark_pilot_2","8091","5","16","Female","","","","","","","null","<div style=""font-size:60px;"">+</div>","null","fixation","","","","","","","","","","","","","",""
"revaluation","74","477331","0.0-3.0-13.0-2.0-0.5","spark_pilot_2","8091","5","16","Female","","false","","","","","[746.7000000476837,369.7000000476837]","./assets/img/space/12.jpg","[""ArrowUp"",""ArrowRight""]","practice block","space","36","{""ArrowUp,ArrowLeft"":3,""ArrowUp,ArrowRight"":36,""ArrowDown,ArrowLeft"":15,""ArrowDown,ArrowRight"":23}","true","ArrowUp,ArrowRight","false","","","","","","","",""
"html-keyboard-response","75","477833","0.0-3.0-13.0-2.0-1.5","spark_pilot_2","8091","5","16","Female","","","","","","","null","<div style=""font-size:60px;"">+</div>","null","fixation","","","","","","","","","","","","","",""
"revaluation","76","483838","0.0-3.0-13.0-2.0-0.6","spark_pilot_2","8091","5","16","Female","","false","","","","","[808.8999999761581,423.2000000476837]","./assets/img/space/13.jpg","[""ArrowUp"",""ArrowRight""]","practice block","space","36","{""ArrowUp,ArrowLeft"":3,""ArrowUp,ArrowRight"":36,""ArrowDown,ArrowLeft"":15,""ArrowDown,ArrowRight"":23}","true","ArrowUp,ArrowRight","false","","","","","","","",""
"html-keyboard-response","77","484340","0.0-3.0-13.0-2.0-1.6","spark_pilot_2","8091","5","16","Female","","","","","","","null","<div style=""font-size:60px;"">+</div>","null","fixation","","","","","","","","","","","","","",""
"revaluation","78","490346","0.0-3.0-13.0-2.0-0.7","spark_pilot_2","8091","5","16","Female","","false","","","","","[501.3000000715256,485.10000002384186]","./assets/img/space/14.jpg","[""ArrowUp"",""ArrowRight""]","practice block","space","36","{""ArrowUp,ArrowLeft"":3,""ArrowUp,ArrowRight"":36,""ArrowDown,ArrowLeft"":15,""ArrowDown,ArrowRight"":23}","true","ArrowUp,ArrowRight","false","","","","","","","",""
"html-keyboard-response","79","490847","0.0-3.0-13.0-2.0-1.7","spark_pilot_2","8091","5","16","Female","","","","","","","null","<div style=""font-size:60px;"">+</div>","null","fixation","","","","","","","","","","","","","",""
"revaluation","80","494851","0.0-3.0-13.0-2.0-0.8","spark_pilot_2","8091","5","16","Female","","false","","","","","[1348.6999999284744]","./assets/img/space/catch/3.jpg","[""spaceBar""]","practice block","space","0","{""ArrowUp,ArrowLeft"":3,""ArrowUp,ArrowRight"":36,""ArrowDown,ArrowLeft"":15,""ArrowDown,ArrowRight"":23}","true","spaceBar","true","","","","","","","",""
"html-keyboard-response","81","495352","0.0-3.0-13.0-2.0-1.8","spark_pilot_2","8091","5","16","Female","","","","","","","null","<div style=""font-size:60px;"">+</div>","null","fixation","","","","","","","","","","","","","",""
"learning-instructions","82","510398","0.0-3.0-13.0-3.0-0.0","spark_pilot_2","8091","5","16","Female","","","","","","","2107.3000000715256","<p> Now, you will travel with a friend who will choose whether you go up or down first. </p>
            <p> On these turns, you will just see the animal that they found. You will still get to choose which chest to search for treasure.</p>","","instructions","","","","","","","","","","","","","",""
"revaluation","83","514419","0.0-3.0-13.0-4.0-0.0","spark_pilot_2","8091","5","16","Female","","false","","","","","[993.1000000238419]","./assets/img/space/animals/rabbit.jpg","[""ArrowRight""]","practice block","space","23","{""ArrowUp,ArrowLeft"":3,""ArrowUp,ArrowRight"":36,""ArrowDown,ArrowLeft"":15,""ArrowDown,ArrowRight"":23}","true","ArrowDown,ArrowRight","","","","","","","","",""
"html-keyboard-response","84","514938","0.0-3.0-13.0-4.0-1.0","spark_pilot_2","8091","5","16","Female","","","","","","","null","<div style=""font-size:60px;"">+</div>","null","fixation","","","","","","","","","","","","","",""
"revaluation","85","518979","0.0-3.0-13.0-4.0-0.1","spark_pilot_2","8091","5","16","Female","","false","","","","","[477]","./assets/img/space/animals/cat.jpg","[""ArrowRight""]","practice block","space","36","{""ArrowUp,ArrowLeft"":3,""ArrowUp,ArrowRight"":36,""ArrowDown,ArrowLeft"":15,""ArrowDown,ArrowRight"":23}","true","ArrowUp,ArrowRight","","","","","","","","",""
"html-keyboard-response","86","519489","0.0-3.0-13.0-4.0-1.1","spark_pilot_2","8091","5","16","Female","","","","","","","null","<div style=""font-size:60px;"">+</div>","null","fixation","","","","","","","","","","","","","",""
"revaluation","87","523509","0.0-3.0-13.0-4.0-0.2","spark_pilot_2","8091","5","16","Female","","false","","","","","[382.1999999284744]","./assets/img/space/animals/cat.jpg","[""ArrowRight""]","practice block","space","36","{""ArrowUp,ArrowLeft"":3,""ArrowUp,ArrowRight"":36,""ArrowDown,ArrowLeft"":15,""ArrowDown,ArrowRight"":23}","true","ArrowUp,ArrowRight","","","","","","","","",""
"html-keyboard-response","88","524029","0.0-3.0-13.0-4.0-1.2","spark_pilot_2","8091","5","16","Female","","","","","","","null","<div style=""font-size:60px;"">+</div>","null","fixation","","","","","","","","","","","","","",""
"revaluation","89","528059","0.0-3.0-13.0-4.0-0.3","spark_pilot_2","8091","5","16","Female","","false","","","","","[451.1999999284744]","./assets/img/space/animals/rabbit.jpg","[""ArrowRight""]","practice block","space","23","{""ArrowUp,ArrowLeft"":3,""ArrowUp,ArrowRight"":36,""ArrowDown,ArrowLeft"":15,""ArrowDown,ArrowRight"":23}","true","ArrowDown,ArrowRight","","","","","","","","",""
"html-keyboard-response","90","528579","0.0-3.0-13.0-4.0-1.3","spark_pilot_2","8091","5","16","Female","","","","","","","null","<div style=""font-size:60px;"">+</div>","null","fixation","","","","","","","","","","","","","",""
"learning-instructions","91","536710","0.0-3.0-13.0-5.0-0.0","spark_pilot_2","8091","5","16","Female","","","","","","","779.7000000476837","<p> Time to play the dot game! </p>
            <p> For 15 seconds, click the red dots on the following screen as they appear. </p>","","instructions","","","","","","","","","","","","","",""
"revaluation","92","551714","0.0-3.0-13.0-6.0-0.0","spark_pilot_2","8091","5","16","Female","","","","","","","[64]","","","rest practice","","10","","","","","0","15000","","","","","",""
"learning-instructions","93","559308","0.0-3.0-13.0-7.0-0.0","spark_pilot_2","8091","5","16","Female","","","","","","","1468.8999999761581","<p> You have almost finished this part of the game! </p>
            <p> We are going to ask you to make a few more choices. </p>","","instructions","","","","","","","","","","","","","",""
"learning-instructions","94","575788","0.0-3.0-13.0-7.0-0.1","spark_pilot_2","8091","5","16","Female","","","","","","","2489","<p> First, you need to decide whether to go up or down. When you see each picture, use the arrow keys to make your choice. </p>
            <p><b>You will not see which animal you found, but try to get to the one that will give you the most treasure.</b></p>","","instructions","","","","","","","","","","","","","",""
"revaluation","95","577217","0.0-3.0-13.0-8.0","spark_pilot_2","8091","5","16","Female","","false","","","","","[1427.2000000476837]","./assets/img/space/15.jpg","[""ArrowUp""]","practice block","space","0","{""ArrowUp,ArrowLeft"":3,""ArrowUp,ArrowRight"":36,""ArrowDown,ArrowLeft"":15,""ArrowDown,ArrowRight"":23}","true","ArrowUp","false","","","","","","","",""
"html-keyboard-response","96","577718","0.0-3.0-13.0-9.0","spark_pilot_2","8091","5","16","Female","","","","","","","null","<div style=""font-size:60px;"">+</div>","null","fixation","","","","","","","","","","","","","",""
"learning-instructions","97","595509","0.0-3.0-13.0-10.0-0.0","spark_pilot_2","8091","5","16","Female","","","","","","","6429.799999952316","<p> Now you will see the animals again and can search their chests for treasure. </p>
            <p> This time, you will not see how much treasure you earned, but you will earn more bonus money for making better choices. </p>","","instructions","","","","","","","","","","","","","",""
"revaluation","98","596916","0.0-3.0-13.0-11.0-0.0","spark_pilot_2","8091","5","16","Female","","false","","","","","[1406.3999999761581]","./assets/img/space/animals/cat.jpg","[""ArrowRight""]","practice block","space","0","{""ArrowUp,ArrowLeft"":3,""ArrowUp,ArrowRight"":36,""ArrowDown,ArrowLeft"":15,""ArrowDown,ArrowRight"":23}","true","ArrowUp,ArrowRight","","","","","","","","",""
"html-keyboard-response","99","597428","0.0-3.0-13.0-11.0-1.0","spark_pilot_2","8091","5","16","Female","","","","","","","null","<div style=""font-size:60px;"">+</div>","null","fixation","","","","","","","","","","","","","",""
"revaluation","100","598931","0.0-3.0-13.0-11.0-0.1","spark_pilot_2","8091","5","16","Female","","false","","","","","[1501.7000000476837]","./assets/img/space/animals/rabbit.jpg","[""ArrowRight""]","practice block","space","0","{""ArrowUp,ArrowLeft"":3,""ArrowUp,ArrowRight"":36,""ArrowDown,ArrowLeft"":15,""ArrowDown,ArrowRight"":23}","true","ArrowDown,ArrowRight","","","","","","","","",""
"html-keyboard-response","101","599440","0.0-3.0-13.0-11.0-1.1","spark_pilot_2","8091","5","16","Female","","","","","","","null","<div style=""font-size:60px;"">+</div>","null","fixation","","","","","","","","","","","","","",""
"learning-instructions","102","605197","0.0-3.0-14.0-0.0","spark_pilot_2","8091","5","16","Female","","","","","","","1187.6000000238419","<p> Before you start, we're going to ask you a few questions about how the game works. </p>","","instructions","","","","","","","","","","","","","",""
"comp-q","103","611861","0.0-3.0-15.0-0.0-0.0","spark_pilot_2","8091","5","16","Female","","","","","","","1060.3999999761581","<p> <b> True or False? </b> </p>
            <p> There can be 50 pieces of treasure in a given animal's chest. </p>","1","comp_question","","","","true","","","","","","","","","",""
"comp-q","104","619693","0.0-3.0-15.0-0.0-1.0","spark_pilot_2","8091","5","16","Female","","","","","","","1193.3999999761581","<p> <b> That's right! </b> The amount of treasure in each chest can range from 0 to 40 pieces. </p>","0","comp_answer","","","","","","","","","","","","","",""
"comp-q","105","628749","0.0-3.0-15.0-0.1-0.1","spark_pilot_2","8091","5","16","Female","","","","","","","1949.2000000476837","<p> <b> True or False? </b> </p><p> In this game, all animals have the same amount of treasure in their left and right chests. </p>","1","comp_question","","","","true","","","","","","","","","",""
"comp-q","106","636581","0.0-3.0-15.0-0.1-1.1","spark_pilot_2","8091","5","16","Female","","","","","","","2610.7000000476837","<p> <b> That's right! </b> Animals have different amounts of treasure in their treasure chests. </p>","0","comp_answer","","","","","","","","","","","","","",""
"comp-q","107","643630","0.0-3.0-15.0-0.2-0.2","spark_pilot_2","8091","5","16","Female","","","","","","","1219.6999999284744","<p> <b> True or False? </b> </p><p> The same animal will always be there if you go up in the same place. </p>","0","comp_question","","","","true","","","","","","","","","",""
"comp-q","108","652820","0.0-3.0-15.0-0.2-1.2","spark_pilot_2","8091","5","16","Female","","","","","","","2761","<p> <b> That's right! </b> One animal lives in the upper part and one lives in the lower part of every place. </p>","0","comp_answer","","","","","","","","","","","","","",""
"comp-q","109","659254","0.0-3.0-15.0-0.3-0.3","spark_pilot_2","8091","5","16","Female","","","","","","","924","<p> <b> True or False? </b> </p><p> If you see a different picture, it means you are in a new place. </p>","0","comp_question","","","","false","","","","","","","","","",""
"comp-q","110","673069","0.0-3.0-15.0-0.3-1.3","spark_pilot_2","8091","5","16","Female","","","","","","","2739.600000023842","<p> <b>Incorrect.</b> Lots of different images may show the same place. For example,  you may see three different images that all remind you that you are in outer space. </p>","0","comp_answer","","","","","","","","","","","","","",""
"comp-q","111","680781","0.0-3.0-15.0-0.4-0.4","spark_pilot_2","8091","5","16","Female","","","","","","","2210.600000023842","<p> <b> True or False? </b> </p><p> If you see a different picture, it means you are in a new place. </p>","1","comp_question","","","","true","","","","","","","","","",""
"comp-q","112","696621","0.0-3.0-15.0-0.4-1.4","spark_pilot_2","8091","5","16","Female","","","","","","","4621.899999976158","<p> <b> That's right! </b> Lots of different images may show the same place. For example,  you may see three different images that all remind you that you are in outer space. </p>","0","comp_answer","","","","","","","","","","","","","",""
"learning-instructions","113","712765","0.0-3.0-16.0-0.0","spark_pilot_2","8091","5","16","Female","","","","","","","6305.899999976158","<p> Good job. Remember to do your best because the amount of treasure you earn will be converted into bonus money. </p>
            <p> It’s time to start the real game! </p>","","instructions","","","","","","","","","","","","","",""
"learning-instructions","114","719237","0.0-4.0-0.0-0.0","spark_pilot_2","8091","5","16","Female","","","","","","","3708.100000023842","<p> This time you are searching for treasure in the <b>canyon</b>.</p>","","instructions","","","","","","","","","","","","","",""
"learning-instructions","115","743693","0.0-4.0-0.0-0.1","spark_pilot_2","8091","5","16","Female","","","","","","","7173.700000047684","<p><b>New</b> animals with <b>new</b> treasure chests live here. You need to explore to discover where the animal with the best treasure chest is.</p>
                    <p> Like before, once you figure out which animal has the chest with the most treasure, you should try to get to that animal and select that chest! </p>","","instructions","","","","","","","","","","","","","",""
"learning-instructions","116","765333","0.0-4.0-1.0-0.0","spark_pilot_2","8091","5","16","Female","","","","","","","6912.5","<p> Remember, when you see a picture of the place, use the up and down keys to <b>find an animal</b>.</p>
            <p> When you encounter an animal, you should use the left and right keys to <b>select a treasure chest</b>.</p>
            <p> Don't forget to look out for the robber! </p>","","instructions","","","","","","","","","","","","","",""
"revaluation","117","771378","0.0-4.0-2.0-0.0","spark_pilot_2","8091","5","16","Female","","false","","","","","[943,394.60000002384186]","./assets/img/canyon/memory/12.jpg","[""ArrowUp"",""ArrowRight""]","value training","canyon","10","{""ArrowUp,ArrowLeft"":26,""ArrowUp,ArrowRight"":10,""ArrowDown,ArrowLeft"":5,""ArrowDown,ArrowRight"":17}","false","ArrowUp,ArrowRight","false","","","original","1","0","","",""
"html-keyboard-response","118","771888","0.0-4.0-2.0-1.0","spark_pilot_2","8091","5","16","Female","","","","","","","null","<div style=""font-size:60px;"">+</div>","null","fixation","","","","","","","","","","","1","","",""
"revaluation","119","777939","0.0-4.0-2.0-0.1","spark_pilot_2","8091","5","16","Female","","false","","","","","[619.7999999523163,449.39999997615814]","./assets/img/canyon/memory/14.jpg","[""ArrowUp"",""ArrowLeft""]","value training","canyon","26","{""ArrowUp,ArrowLeft"":26,""ArrowUp,ArrowRight"":10,""ArrowDown,ArrowLeft"":5,""ArrowDown,ArrowRight"":17}","true","ArrowUp,ArrowLeft","false","","","original","1","2","","",""
"html-keyboard-response","120","778458","0.0-4.0-2.0-1.1","spark_pilot_2","8091","5","16","Female","","","","","","","null","<div style=""font-size:60px;"">+</div>","null","fixation","","","","","","","","","","","3","","",""
"revaluation","121","784500","0.0-4.0-2.0-0.2","spark_pilot_2","8091","5","16","Female","","false","","","","","[426.2999999523163,449.7999999523163]","./assets/img/canyon/memory/2.jpg","[""ArrowDown"",""ArrowLeft""]","value training","canyon","5","{""ArrowUp,ArrowLeft"":26,""ArrowUp,ArrowRight"":10,""ArrowDown,ArrowLeft"":5,""ArrowDown,ArrowRight"":17}","false","ArrowDown,ArrowLeft","false","","","original","1","4","","",""
"html-keyboard-response","122","785018","0.0-4.0-2.0-1.2","spark_pilot_2","8091","5","16","Female","","","","","","","null","<div style=""font-size:60px;"">+</div>","null","fixation","","","","","","","","","","","5","","",""
"revaluation","123","791040","0.0-4.0-2.0-0.3","spark_pilot_2","8091","5","16","Female","","false","","","","","[345.39999997615814,321.5]","./assets/img/canyon/memory/28.jpg","[""ArrowUp"",""ArrowLeft""]","value training","canyon","26","{""ArrowUp,ArrowLeft"":26,""ArrowUp,ArrowRight"":10,""ArrowDown,ArrowLeft"":5,""ArrowDown,ArrowRight"":17}","true","ArrowUp,ArrowLeft","false","","","original","1","6","","",""
"html-keyboard-response","124","791542","0.0-4.0-2.0-1.3","spark_pilot_2","8091","5","16","Female","","","","","","","null","<div style=""font-size:60px;"">+</div>","null","fixation","","","","","","","","","","","7","","",""
"revaluation","125","797549","0.0-4.0-2.0-0.4","spark_pilot_2","8091","5","16","Female","","false","","","","","[336,390.10000002384186]","./assets/img/canyon/memory/17.jpg","[""ArrowUp"",""ArrowLeft""]","value training","canyon","26","{""ArrowUp,ArrowLeft"":26,""ArrowUp,ArrowRight"":10,""ArrowDown,ArrowLeft"":5,""ArrowDown,ArrowRight"":17}","true","ArrowUp,ArrowLeft","false","","","original","1","8","","",""
"html-keyboard-response","126","798051","0.0-4.0-2.0-1.4","spark_pilot_2","8091","5","16","Female","","","","","","","null","<div style=""font-size:60px;"">+</div>","null","fixation","","","","","","","","","","","9","","",""
"revaluation","127","804057","0.0-4.0-2.0-0.5","spark_pilot_2","8091","5","16","Female","","false","","","","","[651.8000000715256,441.39999997615814]","./assets/img/canyon/memory/25.jpg","[""ArrowUp"",""ArrowLeft""]","value training","canyon","26","{""ArrowUp,ArrowLeft"":26,""ArrowUp,ArrowRight"":10,""ArrowDown,ArrowLeft"":5,""ArrowDown,ArrowRight"":17}","true","ArrowUp,ArrowLeft","false","","","original","1","10","","",""
"html-keyboard-response","128","804559","0.0-4.0-2.0-1.5","spark_pilot_2","8091","5","16","Female","","","","","","","null","<div style=""font-size:60px;"">+</div>","null","fixation","","","","","","","","","","","11","","",""
"revaluation","129","810579","0.0-4.0-2.0-0.6","spark_pilot_2","8091","5","16","Female","","false","","","","","[689.1000000238419,640.6000000238419]","./assets/img/canyon/memory/28.jpg","[""ArrowUp"",""ArrowLeft""]","value training","canyon","26","{""ArrowUp,ArrowLeft"":26,""ArrowUp,ArrowRight"":10,""ArrowDown,ArrowLeft"":5,""ArrowDown,ArrowRight"":17}","true","ArrowUp,ArrowLeft","false","","","original","1","12","","",""
"html-keyboard-response","130","811081","0.0-4.0-2.0-1.6","spark_pilot_2","8091","5","16","Female","","","","","","","null","<div style=""font-size:60px;"">+</div>","null","fixation","","","","","","","","","","","13","","",""
"revaluation","131","817087","0.0-4.0-2.0-0.7","spark_pilot_2","8091","5","16","Female","","false","","","","","[559,565.3000000715256]","./assets/img/canyon/memory/29.jpg","[""ArrowUp"",""ArrowLeft""]","value training","canyon","26","{""ArrowUp,ArrowLeft"":26,""ArrowUp,ArrowRight"":10,""ArrowDown,ArrowLeft"":5,""ArrowDown,ArrowRight"":17}","true","ArrowUp,ArrowLeft","false","","","original","1","14","","",""
"html-keyboard-response","132","817589","0.0-4.0-2.0-1.7","spark_pilot_2","8091","5","16","Female","","","","","","","null","<div style=""font-size:60px;"">+</div>","null","fixation","","","","","","","","","","","15","","",""
"revaluation","133","823595","0.0-4.0-2.0-0.8","spark_pilot_2","8091","5","16","Female","","false","","","","","[484,427.10000002384186]","./assets/img/canyon/memory/13.jpg","[""ArrowUp"",""ArrowLeft""]","value training","canyon","26","{""ArrowUp,ArrowLeft"":26,""ArrowUp,ArrowRight"":10,""ArrowDown,ArrowLeft"":5,""ArrowDown,ArrowRight"":17}","true","ArrowUp,ArrowLeft","false","","","original","1","16","","",""
"html-keyboard-response","134","824097","0.0-4.0-2.0-1.8","spark_pilot_2","8091","5","16","Female","","","","","","","null","<div style=""font-size:60px;"">+</div>","null","fixation","","","","","","","","","","","17","","",""
"revaluation","135","830102","0.0-4.0-2.0-0.9","spark_pilot_2","8091","5","16","Female","","false","","","","","[305.10000002384186,369.8000000715256]","./assets/img/canyon/memory/24.jpg","[""ArrowUp"",""ArrowLeft""]","value training","canyon","26","{""ArrowUp,ArrowLeft"":26,""ArrowUp,ArrowRight"":10,""ArrowDown,ArrowLeft"":5,""ArrowDown,ArrowRight"":17}","true","ArrowUp,ArrowLeft","false","","","original","1","18","","",""
"html-keyboard-response","136","830603","0.0-4.0-2.0-1.9","spark_pilot_2","8091","5","16","Female","","","","","","","null","<div style=""font-size:60px;"">+</div>","null","fixation","","","","","","","","","","","19","","",""
"revaluation","137","836606","0.0-4.0-2.0-0.10","spark_pilot_2","8091","5","16","Female","","false","","","","","[490.59999990463257,544.3000000715256]","./assets/img/canyon/memory/34.jpg","[""ArrowUp"",""ArrowLeft""]","value training","canyon","26","{""ArrowUp,ArrowLeft"":26,""ArrowUp,ArrowRight"":10,""ArrowDown,ArrowLeft"":5,""ArrowDown,ArrowRight"":17}","true","ArrowUp,ArrowLeft","false","","","original","1","20","","",""
"html-keyboard-response","138","837108","0.0-4.0-2.0-1.10","spark_pilot_2","8091","5","16","Female","","","","","","","null","<div style=""font-size:60px;"">+</div>","null","fixation","","","","","","","","","","","21","","",""
"revaluation","139","843115","0.0-4.0-2.0-0.11","spark_pilot_2","8091","5","16","Female","","false","","","","","[374.39999997615814,526.4000000953674]","./assets/img/canyon/memory/20.jpg","[""ArrowUp"",""ArrowLeft""]","value training","canyon","26","{""ArrowUp,ArrowLeft"":26,""ArrowUp,ArrowRight"":10,""ArrowDown,ArrowLeft"":5,""ArrowDown,ArrowRight"":17}","true","ArrowUp,ArrowLeft","false","","","original","1","22","","",""
"html-keyboard-response","140","843616","0.0-4.0-2.0-1.11","spark_pilot_2","8091","5","16","Female","","","","","","","null","<div style=""font-size:60px;"">+</div>","null","fixation","","","","","","","","","","","23","","",""
"revaluation","141","849620","0.0-4.0-2.0-0.12","spark_pilot_2","8091","5","16","Female","","false","","","","","[398.10000002384186,485.2999999523163]","./assets/img/canyon/memory/33.jpg","[""ArrowUp"",""ArrowLeft""]","value training","canyon","26","{""ArrowUp,ArrowLeft"":26,""ArrowUp,ArrowRight"":10,""ArrowDown,ArrowLeft"":5,""ArrowDown,ArrowRight"":17}","true","ArrowUp,ArrowLeft","false","","","original","1","24","","",""
"html-keyboard-response","142","850123","0.0-4.0-2.0-1.12","spark_pilot_2","8091","5","16","Female","","","","","","","null","<div style=""font-size:60px;"">+</div>","null","fixation","","","","","","","","","","","25","","",""
"revaluation","143","856130","0.0-4.0-2.0-0.13","spark_pilot_2","8091","5","16","Female","","false","","","","","[369.60000002384186,649.1000000238419]","./assets/img/canyon/memory/36.jpg","[""ArrowUp"",""ArrowLeft""]","value training","canyon","26","{""ArrowUp,ArrowLeft"":26,""ArrowUp,ArrowRight"":10,""ArrowDown,ArrowLeft"":5,""ArrowDown,ArrowRight"":17}","true","ArrowUp,ArrowLeft","false","","","original","1","26","","",""
"html-keyboard-response","144","856632","0.0-4.0-2.0-1.13","spark_pilot_2","8091","5","16","Female","","","","","","","null","<div style=""font-size:60px;"">+</div>","null","fixation","","","","","","","","","","","27","","",""
"revaluation","145","862639","0.0-4.0-2.0-0.14","spark_pilot_2","8091","5","16","Female","","false","","","","","[999.1000000238419,364.7999999523163]","./assets/img/canyon/memory/18.jpg","[""ArrowDown"",""ArrowRight""]","value training","canyon","17","{""ArrowUp,ArrowLeft"":26,""ArrowUp,ArrowRight"":10,""ArrowDown,ArrowLeft"":5,""ArrowDown,ArrowRight"":17}","false","ArrowDown,ArrowRight","false","","","original","1","28","","",""
"html-keyboard-response","146","863141","0.0-4.0-2.0-1.14","spark_pilot_2","8091","5","16","Female","","","","","","","null","<div style=""font-size:60px;"">+</div>","null","fixation","","","","","","","","","","","29","","",""
"revaluation","147","869145","0.0-4.0-2.0-0.15","spark_pilot_2","8091","5","16","Female","","false","","","","","[684.2000000476837,404]","./assets/img/canyon/memory/3.jpg","[""ArrowUp"",""ArrowLeft""]","value training","canyon","26","{""ArrowUp,ArrowLeft"":26,""ArrowUp,ArrowRight"":10,""ArrowDown,ArrowLeft"":5,""ArrowDown,ArrowRight"":17}","true","ArrowUp,ArrowLeft","false","","","original","1","30","","",""
"html-keyboard-response","148","869647","0.0-4.0-2.0-1.15","spark_pilot_2","8091","5","16","Female","","","","","","","null","<div style=""font-size:60px;"">+</div>","null","fixation","","","","","","","","","","","31","","",""
"revaluation","149","875652","0.0-4.0-2.0-0.16","spark_pilot_2","8091","5","16","Female","","false","","","","","[723.1000000238419,530.1000000238419]","./assets/img/canyon/memory/31.jpg","[""ArrowUp"",""ArrowLeft""]","value training","canyon","26","{""ArrowUp,ArrowLeft"":26,""ArrowUp,ArrowRight"":10,""ArrowDown,ArrowLeft"":5,""ArrowDown,ArrowRight"":17}","true","ArrowUp,ArrowLeft","false","","","original","1","32","","",""
"html-keyboard-response","150","876153","0.0-4.0-2.0-1.16","spark_pilot_2","8091","5","16","Female","","","","","","","null","<div style=""font-size:60px;"">+</div>","null","fixation","","","","","","","","","","","33","","",""
"revaluation","151","880157","0.0-4.0-2.0-0.17","spark_pilot_2","8091","5","16","Female","","false","","","","","[1401.2999999523163]","./assets/img/canyon/catch/0.jpg","[""spaceBar""]","value training","canyon","0","{""ArrowUp,ArrowLeft"":26,""ArrowUp,ArrowRight"":10,""ArrowDown,ArrowLeft"":5,""ArrowDown,ArrowRight"":17}","true","spaceBar","true","","","original","1","34","","",""
"html-keyboard-response","152","880659","0.0-4.0-2.0-1.17","spark_pilot_2","8091","5","16","Female","","","","","","","null","<div style=""font-size:60px;"">+</div>","null","fixation","","","","","","","","","","","35","","",""
"revaluation","153","886665","0.0-4.0-2.0-0.18","spark_pilot_2","8091","5","16","Female","","false","","","","","[359.89999997615814,302.10000002384186]","./assets/img/canyon/memory/34.jpg","[""ArrowUp"",""ArrowLeft""]","value training","canyon","26","{""ArrowUp,ArrowLeft"":26,""ArrowUp,ArrowRight"":10,""ArrowDown,ArrowLeft"":5,""ArrowDown,ArrowRight"":17}","true","ArrowUp,ArrowLeft","false","","","original","1","36","","",""
"html-keyboard-response","154","887165","0.0-4.0-2.0-1.18","spark_pilot_2","8091","5","16","Female","","","","","","","null","<div style=""font-size:60px;"">+</div>","null","fixation","","","","","","","","","","","37","","",""
"revaluation","155","893171","0.0-4.0-2.0-0.19","spark_pilot_2","8091","5","16","Female","","false","","","","","[589,413]","./assets/img/canyon/memory/36.jpg","[""ArrowUp"",""ArrowLeft""]","value training","canyon","26","{""ArrowUp,ArrowLeft"":26,""ArrowUp,ArrowRight"":10,""ArrowDown,ArrowLeft"":5,""ArrowDown,ArrowRight"":17}","true","ArrowUp,ArrowLeft","false","","","original","1","38","","",""
"html-keyboard-response","156","893672","0.0-4.0-2.0-1.19","spark_pilot_2","8091","5","16","Female","","","","","","","null","<div style=""font-size:60px;"">+</div>","null","fixation","","","","","","","","","","","39","","",""
"revaluation","157","899679","0.0-4.0-2.0-0.20","spark_pilot_2","8091","5","16","Female","","false","","","","","[516.2000000476837,1330.3000000715256]","./assets/img/canyon/memory/31.jpg","[""ArrowUp"",""ArrowLeft""]","value training","canyon","26","{""ArrowUp,ArrowLeft"":26,""ArrowUp,ArrowRight"":10,""ArrowDown,ArrowLeft"":5,""ArrowDown,ArrowRight"":17}","true","ArrowUp,ArrowLeft","false","","","original","1","40","","",""
"html-keyboard-response","158","900182","0.0-4.0-2.0-1.20","spark_pilot_2","8091","5","16","Female","","","","","","","null","<div style=""font-size:60px;"">+</div>","null","fixation","","","","","","","","","","","41","","",""
"revaluation","159","906188","0.0-4.0-2.0-0.21","spark_pilot_2","8091","5","16","Female","","false","","","","","[950.1000000238419,813.6000000238419]","./assets/img/canyon/memory/13.jpg","[""ArrowUp"",""ArrowLeft""]","value training","canyon","26","{""ArrowUp,ArrowLeft"":26,""ArrowUp,ArrowRight"":10,""ArrowDown,ArrowLeft"":5,""ArrowDown,ArrowRight"":17}","true","ArrowUp,ArrowLeft","false","","","original","1","42","","",""
"html-keyboard-response","160","906690","0.0-4.0-2.0-1.21","spark_pilot_2","8091","5","16","Female","","","","","","","null","<div style=""font-size:60px;"">+</div>","null","fixation","","","","","","","","","","","43","","",""
"revaluation","161","912696","0.0-4.0-2.0-0.22","spark_pilot_2","8091","5","16","Female","","false","","","","","[1171.8999999761581,1042.6000000238419]","./assets/img/canyon/memory/18.jpg","[""ArrowUp"",""ArrowLeft""]","value training","canyon","26","{""ArrowUp,ArrowLeft"":26,""ArrowUp,ArrowRight"":10,""ArrowDown,ArrowLeft"":5,""ArrowDown,ArrowRight"":17}","true","ArrowUp,ArrowLeft","false","","","original","1","44","","",""
"html-keyboard-response","162","913197","0.0-4.0-2.0-1.22","spark_pilot_2","8091","5","16","Female","","","","","","","null","<div style=""font-size:60px;"">+</div>","null","fixation","","","","","","","","","","","45","","",""
"revaluation","163","919202","0.0-4.0-2.0-0.23","spark_pilot_2","8091","5","16","Female","","false","","","","","[915.3999999761581,1450.1000000238419]","./assets/img/canyon/memory/24.jpg","[""ArrowUp"",""ArrowLeft""]","value training","canyon","26","{""ArrowUp,ArrowLeft"":26,""ArrowUp,ArrowRight"":10,""ArrowDown,ArrowLeft"":5,""ArrowDown,ArrowRight"":17}","true","ArrowUp,ArrowLeft","false","","","original","1","46","","",""
"html-keyboard-response","164","919704","0.0-4.0-2.0-1.23","spark_pilot_2","8091","5","16","Female","","","","","","","null","<div style=""font-size:60px;"">+</div>","null","fixation","","","","","","","","","","","47","","",""
"revaluation","165","923709","0.0-4.0-2.0-0.24","spark_pilot_2","8091","5","16","Female","","false","","","","","[1422.8000000715256]","./assets/img/canyon/catch/2.jpg","[""ArrowUp""]","value training","canyon","-10","{""ArrowUp,ArrowLeft"":26,""ArrowUp,ArrowRight"":10,""ArrowDown,ArrowLeft"":5,""ArrowDown,ArrowRight"":17}","false","ArrowUp","true","","","original","1","48","","",""
"html-keyboard-response","166","924211","0.0-4.0-2.0-1.24","spark_pilot_2","8091","5","16","Female","","","","","","","null","<div style=""font-size:60px;"">+</div>","null","fixation","","","","","","","","","","","49","","",""
"revaluation","167","928216","0.0-4.0-2.0-0.25","spark_pilot_2","8091","5","16","Female","","false","","","","","[1213.5999999046326]","./assets/img/canyon/catch/4.jpg","[""spaceBar""]","value training","canyon","0","{""ArrowUp,ArrowLeft"":26,""ArrowUp,ArrowRight"":10,""ArrowDown,ArrowLeft"":5,""ArrowDown,ArrowRight"":17}","true","spaceBar","true","","","original","1","50","","",""
"html-keyboard-response","168","928718","0.0-4.0-2.0-1.25","spark_pilot_2","8091","5","16","Female","","","","","","","null","<div style=""font-size:60px;"">+</div>","null","fixation","","","","","","","","","","","51","","",""
"revaluation","169","934725","0.0-4.0-2.0-0.26","spark_pilot_2","8091","5","16","Female","","false","","","","","[1027.3000000715256,506.60000002384186]","./assets/img/canyon/memory/41.jpg","[""ArrowUp"",""ArrowLeft""]","value training","canyon","26","{""ArrowUp,ArrowLeft"":26,""ArrowUp,ArrowRight"":10,""ArrowDown,ArrowLeft"":5,""ArrowDown,ArrowRight"":17}","true","ArrowUp,ArrowLeft","false","","","original","1","52","","",""
"html-keyboard-response","170","935227","0.0-4.0-2.0-1.26","spark_pilot_2","8091","5","16","Female","","","","","","","null","<div style=""font-size:60px;"">+</div>","null","fixation","","","","","","","","","","","53","","",""
"revaluation","171","939230","0.0-4.0-2.0-0.27","spark_pilot_2","8091","5","16","Female","","false","","","","","[1232.9000000953674]","./assets/img/canyon/catch/1.jpg","[""spaceBar""]","value training","canyon","0","{""ArrowUp,ArrowLeft"":26,""ArrowUp,ArrowRight"":10,""ArrowDown,ArrowLeft"":5,""ArrowDown,ArrowRight"":17}","true","spaceBar","true","","","original","1","54","","",""
"html-keyboard-response","172","939733","0.0-4.0-2.0-1.27","spark_pilot_2","8091","5","16","Female","","","","","","","null","<div style=""font-size:60px;"">+</div>","null","fixation","","","","","","","","","","","55","","",""
"revaluation","173","943737","0.0-4.0-2.0-0.28","spark_pilot_2","8091","5","16","Female","","false","","","","","[942]","./assets/img/canyon/catch/7.jpg","[""spaceBar""]","value training","canyon","0","{""ArrowUp,ArrowLeft"":26,""ArrowUp,ArrowRight"":10,""ArrowDown,ArrowLeft"":5,""ArrowDown,ArrowRight"":17}","true","spaceBar","true","","","original","1","56","","",""
"html-keyboard-response","174","944239","0.0-4.0-2.0-1.28","spark_pilot_2","8091","5","16","Female","","","","","","","null","<div style=""font-size:60px;"">+</div>","null","fixation","","","","","","","","","","","57","","",""
"revaluation","175","950245","0.0-4.0-2.0-0.29","spark_pilot_2","8091","5","16","Female","","false","","","","","[1044.8999999761581,379.60000002384186]","./assets/img/canyon/memory/12.jpg","[""ArrowUp"",""ArrowLeft""]","value training","canyon","26","{""ArrowUp,ArrowLeft"":26,""ArrowUp,ArrowRight"":10,""ArrowDown,ArrowLeft"":5,""ArrowDown,ArrowRight"":17}","true","ArrowUp,ArrowLeft","false","","","original","1","58","","",""
"html-keyboard-response","176","950747","0.0-4.0-2.0-1.29","spark_pilot_2","8091","5","16","Female","","","","","","","null","<div style=""font-size:60px;"">+</div>","null","fixation","","","","","","","","","","","59","","",""
"revaluation","177","956762","0.0-4.0-2.0-0.30","spark_pilot_2","8091","5","16","Female","","false","","","","","[570.3000000715256,438.7000000476837]","./assets/img/canyon/memory/17.jpg","[""ArrowUp"",""ArrowLeft""]","value training","canyon","26","{""ArrowUp,ArrowLeft"":26,""ArrowUp,ArrowRight"":10,""ArrowDown,ArrowLeft"":5,""ArrowDown,ArrowRight"":17}","true","ArrowUp,ArrowLeft","false","","","original","1","60","","",""
"html-keyboard-response","178","957264","0.0-4.0-2.0-1.30","spark_pilot_2","8091","5","16","Female","","","","","","","null","<div style=""font-size:60px;"">+</div>","null","fixation","","","","","","","","","","","61","","",""
"revaluation","179","961267","0.0-4.0-2.0-0.31","spark_pilot_2","8091","5","16","Female","","false","","","","","[911.9000000953674]","./assets/img/canyon/catch/6.jpg","[""spaceBar""]","value training","canyon","0","{""ArrowUp,ArrowLeft"":26,""ArrowUp,ArrowRight"":10,""ArrowDown,ArrowLeft"":5,""ArrowDown,ArrowRight"":17}","true","spaceBar","true","","","original","1","62","","",""
"html-keyboard-response","180","961769","0.0-4.0-2.0-1.31","spark_pilot_2","8091","5","16","Female","","","","","","","null","<div style=""font-size:60px;"">+</div>","null","fixation","","","","","","","","","","","63","","",""
"revaluation","181","967774","0.0-4.0-2.0-0.32","spark_pilot_2","8091","5","16","Female","","true","","","","","[805.1999999284744]","./assets/img/canyon/memory/29.jpg","[""ArrowUp""]","value training","canyon","-5","{""ArrowUp,ArrowLeft"":26,""ArrowUp,ArrowRight"":10,""ArrowDown,ArrowLeft"":5,""ArrowDown,ArrowRight"":17}","false","ArrowUp","false","","","original","1","64","","",""
"html-keyboard-response","182","968276","0.0-4.0-2.0-1.32","spark_pilot_2","8091","5","16","Female","","","","","","","null","<div style=""font-size:60px;"">+</div>","null","fixation","","","","","","","","","","","65","","",""
"revaluation","183","974282","0.0-4.0-2.0-0.33","spark_pilot_2","8091","5","16","Female","","false","","","","","[602.3000000715256,474.10000002384186]","./assets/img/canyon/memory/16.jpg","[""ArrowUp"",""ArrowLeft""]","value training","canyon","26","{""ArrowUp,ArrowLeft"":26,""ArrowUp,ArrowRight"":10,""ArrowDown,ArrowLeft"":5,""ArrowDown,ArrowRight"":17}","true","ArrowUp,ArrowLeft","false","","","original","1","66","","",""
"html-keyboard-response","184","974783","0.0-4.0-2.0-1.33","spark_pilot_2","8091","5","16","Female","","","","","","","null","<div style=""font-size:60px;"">+</div>","null","fixation","","","","","","","","","","","67","","",""
"revaluation","185","980788","0.0-4.0-2.0-0.34","spark_pilot_2","8091","5","16","Female","","false","","","","","[728.1999999284744,944.1999999284744]","./assets/img/canyon/memory/41.jpg","[""ArrowUp"",""ArrowLeft""]","value training","canyon","26","{""ArrowUp,ArrowLeft"":26,""ArrowUp,ArrowRight"":10,""ArrowDown,ArrowLeft"":5,""ArrowDown,ArrowRight"":17}","true","ArrowUp,ArrowLeft","false","","","original","1","68","","",""
"html-keyboard-response","186","981289","0.0-4.0-2.0-1.34","spark_pilot_2","8091","5","16","Female","","","","","","","null","<div style=""font-size:60px;"">+</div>","null","fixation","","","","","","","","","","","69","","",""
"revaluation","187","987295","0.0-4.0-2.0-0.35","spark_pilot_2","8091","5","16","Female","","false","","","","","[510.89999997615814,461.5]","./assets/img/canyon/memory/20.jpg","[""ArrowUp"",""ArrowLeft""]","value training","canyon","26","{""ArrowUp,ArrowLeft"":26,""ArrowUp,ArrowRight"":10,""ArrowDown,ArrowLeft"":5,""ArrowDown,ArrowRight"":17}","true","ArrowUp,ArrowLeft","false","","","original","1","70","","",""
"html-keyboard-response","188","987797","0.0-4.0-2.0-1.35","spark_pilot_2","8091","5","16","Female","","","","","","","null","<div style=""font-size:60px;"">+</div>","null","fixation","","","","","","","","","","","71","","",""
"revaluation","189","993802","0.0-4.0-2.0-0.36","spark_pilot_2","8091","5","16","Female","","false","","","","","[1317.0999999046326,989]","./assets/img/canyon/memory/26.jpg","[""ArrowUp"",""ArrowLeft""]","value training","canyon","26","{""ArrowUp,ArrowLeft"":26,""ArrowUp,ArrowRight"":10,""ArrowDown,ArrowLeft"":5,""ArrowDown,ArrowRight"":17}","true","ArrowUp,ArrowLeft","false","","","original","1","72","","",""
"html-keyboard-response","190","994304","0.0-4.0-2.0-1.36","spark_pilot_2","8091","5","16","Female","","","","","","","null","<div style=""font-size:60px;"">+</div>","null","fixation","","","","","","","","","","","73","","",""
"revaluation","191","1000309","0.0-4.0-2.0-0.37","spark_pilot_2","8091","5","16","Female","","false","","","","","[459.10000002384186,498.2000000476837]","./assets/img/canyon/memory/6.jpg","[""ArrowUp"",""ArrowLeft""]","value training","canyon","26","{""ArrowUp,ArrowLeft"":26,""ArrowUp,ArrowRight"":10,""ArrowDown,ArrowLeft"":5,""ArrowDown,ArrowRight"":17}","true","ArrowUp,ArrowLeft","false","","","original","1","74","","",""
"html-keyboard-response","192","1000811","0.0-4.0-2.0-1.37","spark_pilot_2","8091","5","16","Female","","","","","","","null","<div style=""font-size:60px;"">+</div>","null","fixation","","","","","","","","","","","75","","",""
"revaluation","193","1006817","0.0-4.0-2.0-0.38","spark_pilot_2","8091","5","16","Female","","false","","","","","[736.2000000476837,350.8000000715256]","./assets/img/canyon/memory/26.jpg","[""ArrowUp"",""ArrowLeft""]","value training","canyon","26","{""ArrowUp,ArrowLeft"":26,""ArrowUp,ArrowRight"":10,""ArrowDown,ArrowLeft"":5,""ArrowDown,ArrowRight"":17}","true","ArrowUp,ArrowLeft","false","","","original","1","76","","",""
"html-keyboard-response","194","1007319","0.0-4.0-2.0-1.38","spark_pilot_2","8091","5","16","Female","","","","","","","null","<div style=""font-size:60px;"">+</div>","null","fixation","","","","","","","","","","","77","","",""
"revaluation","195","1011325","0.0-4.0-2.0-0.39","spark_pilot_2","8091","5","16","Female","","false","","","","","[964.7000000476837]","./assets/img/canyon/catch/3.jpg","[""spaceBar""]","value training","canyon","0","{""ArrowUp,ArrowLeft"":26,""ArrowUp,ArrowRight"":10,""ArrowDown,ArrowLeft"":5,""ArrowDown,ArrowRight"":17}","true","spaceBar","true","","","original","1","78","","",""
"html-keyboard-response","196","1011836","0.0-4.0-2.0-1.39","spark_pilot_2","8091","5","16","Female","","","","","","","null","<div style=""font-size:60px;"">+</div>","null","fixation","","","","","","","","","","","79","","",""
"revaluation","197","1017842","0.0-4.0-2.0-0.40","spark_pilot_2","8091","5","16","Female","","false","","","","","[536.7000000476837,536.0999999046326]","./assets/img/canyon/memory/2.jpg","[""ArrowUp"",""ArrowLeft""]","value training","canyon","26","{""ArrowUp,ArrowLeft"":26,""ArrowUp,ArrowRight"":10,""ArrowDown,ArrowLeft"":5,""ArrowDown,ArrowRight"":17}","true","ArrowUp,ArrowLeft","false","","","original","1","80","","",""
"html-keyboard-response","198","1018344","0.0-4.0-2.0-1.40","spark_pilot_2","8091","5","16","Female","","","","","","","null","<div style=""font-size:60px;"">+</div>","null","fixation","","","","","","","","","","","81","","",""
"revaluation","199","1024351","0.0-4.0-2.0-0.41","spark_pilot_2","8091","5","16","Female","","false","","","","","[581.1000000238419,508.2999999523163]","./assets/img/canyon/memory/14.jpg","[""ArrowUp"",""ArrowLeft""]","value training","canyon","26","{""ArrowUp,ArrowLeft"":26,""ArrowUp,ArrowRight"":10,""ArrowDown,ArrowLeft"":5,""ArrowDown,ArrowRight"":17}","true","ArrowUp,ArrowLeft","false","","","original","1","82","","",""
"html-keyboard-response","200","1024853","0.0-4.0-2.0-1.41","spark_pilot_2","8091","5","16","Female","","","","","","","null","<div style=""font-size:60px;"">+</div>","null","fixation","","","","","","","","","","","83","","",""
"revaluation","201","1030858","0.0-4.0-2.0-0.42","spark_pilot_2","8091","5","16","Female","","false","","","","","[673.8000000715256,1040.3999999761581]","./assets/img/canyon/memory/16.jpg","[""ArrowUp"",""ArrowLeft""]","value training","canyon","26","{""ArrowUp,ArrowLeft"":26,""ArrowUp,ArrowRight"":10,""ArrowDown,ArrowLeft"":5,""ArrowDown,ArrowRight"":17}","true","ArrowUp,ArrowLeft","false","","","original","1","84","","",""
"html-keyboard-response","202","1031360","0.0-4.0-2.0-1.42","spark_pilot_2","8091","5","16","Female","","","","","","","null","<div style=""font-size:60px;"">+</div>","null","fixation","","","","","","","","","","","85","","",""
"revaluation","203","1037367","0.0-4.0-2.0-0.43","spark_pilot_2","8091","5","16","Female","","false","","","","","[383.89999997615814,413.5]","./assets/img/canyon/memory/25.jpg","[""ArrowUp"",""ArrowLeft""]","value training","canyon","26","{""ArrowUp,ArrowLeft"":26,""ArrowUp,ArrowRight"":10,""ArrowDown,ArrowLeft"":5,""ArrowDown,ArrowRight"":17}","true","ArrowUp,ArrowLeft","false","","","original","1","86","","",""
"html-keyboard-response","204","1037869","0.0-4.0-2.0-1.43","spark_pilot_2","8091","5","16","Female","","","","","","","null","<div style=""font-size:60px;"">+</div>","null","fixation","","","","","","","","","","","87","","",""
"revaluation","205","1043875","0.0-4.0-2.0-0.44","spark_pilot_2","8091","5","16","Female","","false","","","","","[594.3999999761581,1610.2999999523163]","./assets/img/canyon/memory/15.jpg","[""ArrowUp"",""ArrowLeft""]","value training","canyon","26","{""ArrowUp,ArrowLeft"":26,""ArrowUp,ArrowRight"":10,""ArrowDown,ArrowLeft"":5,""ArrowDown,ArrowRight"":17}","true","ArrowUp,ArrowLeft","false","","","original","1","88","","",""
"html-keyboard-response","206","1044376","0.0-4.0-2.0-1.44","spark_pilot_2","8091","5","16","Female","","","","","","","null","<div style=""font-size:60px;"">+</div>","null","fixation","","","","","","","","","","","89","","",""
"revaluation","207","1050382","0.0-4.0-2.0-0.45","spark_pilot_2","8091","5","16","Female","","false","","","","","[536.5,951.5]","./assets/img/canyon/memory/6.jpg","[""ArrowUp"",""ArrowLeft""]","value training","canyon","26","{""ArrowUp,ArrowLeft"":26,""ArrowUp,ArrowRight"":10,""ArrowDown,ArrowLeft"":5,""ArrowDown,ArrowRight"":17}","true","ArrowUp,ArrowLeft","false","","","original","1","90","","",""
"html-keyboard-response","208","1050884","0.0-4.0-2.0-1.45","spark_pilot_2","8091","5","16","Female","","","","","","","null","<div style=""font-size:60px;"">+</div>","null","fixation","","","","","","","","","","","91","","",""
"revaluation","209","1056888","0.0-4.0-2.0-0.46","spark_pilot_2","8091","5","16","Female","","false","","","","","[877.7000000476837,558.8999999761581]","./assets/img/canyon/memory/15.jpg","[""ArrowUp"",""ArrowLeft""]","value training","canyon","26","{""ArrowUp,ArrowLeft"":26,""ArrowUp,ArrowRight"":10,""ArrowDown,ArrowLeft"":5,""ArrowDown,ArrowRight"":17}","true","ArrowUp,ArrowLeft","false","","","original","1","92","","",""
"html-keyboard-response","210","1057390","0.0-4.0-2.0-1.46","spark_pilot_2","8091","5","16","Female","","","","","","","null","<div style=""font-size:60px;"">+</div>","null","fixation","","","","","","","","","","","93","","",""
"revaluation","211","1061395","0.0-4.0-2.0-0.47","spark_pilot_2","8091","5","16","Female","","false","","","","","[939.9000000953674]","./assets/img/canyon/catch/5.jpg","[""spaceBar""]","value training","canyon","0","{""ArrowUp,ArrowLeft"":26,""ArrowUp,ArrowRight"":10,""ArrowDown,ArrowLeft"":5,""ArrowDown,ArrowRight"":17}","true","spaceBar","true","","","original","1","94","","",""
"html-keyboard-response","212","1061900","0.0-4.0-2.0-1.47","spark_pilot_2","8091","5","16","Female","","","","","","","null","<div style=""font-size:60px;"">+</div>","null","fixation","","","","","","","","","","","95","","",""
"revaluation","213","1067905","0.0-4.0-2.0-0.48","spark_pilot_2","8091","5","16","Female","","false","","","","","[912.3999999761581,518.9000000953674]","./assets/img/canyon/memory/33.jpg","[""ArrowUp"",""ArrowLeft""]","value training","canyon","26","{""ArrowUp,ArrowLeft"":26,""ArrowUp,ArrowRight"":10,""ArrowDown,ArrowLeft"":5,""ArrowDown,ArrowRight"":17}","true","ArrowUp,ArrowLeft","false","","","original","1","96","","",""
"html-keyboard-response","214","1068418","0.0-4.0-2.0-1.48","spark_pilot_2","8091","5","16","Female","","","","","","","null","<div style=""font-size:60px;"">+</div>","null","fixation","","","","","","","","","","","97","","",""
"revaluation","215","1074423","0.0-4.0-2.0-0.49","spark_pilot_2","8091","5","16","Female","","false","","","","","[611.2000000476837,1153.1000000238419]","./assets/img/canyon/memory/3.jpg","[""ArrowUp"",""ArrowLeft""]","value training","canyon","26","{""ArrowUp,ArrowLeft"":26,""ArrowUp,ArrowRight"":10,""ArrowDown,ArrowLeft"":5,""ArrowDown,ArrowRight"":17}","true","ArrowUp,ArrowLeft","false","","","original","1","98","","",""
"html-keyboard-response","216","1074925","0.0-4.0-2.0-1.49","spark_pilot_2","8091","5","16","Female","","","","","","","null","<div style=""font-size:60px;"">+</div>","null","fixation","","","","","","","","","","","99","","",""
"learning-instructions","217","1089076","0.0-4.0-3.0-0.0","spark_pilot_2","8091","5","16","Female","","","","","","","1233.0999999046326","<p> Now, you will travel with a friend who will choose whether you go up or down first. </p>
            <p> On these turns, you will just see the animal that they found. You will still get to choose which chest to search for treasure.</p>","","instructions","","","","","","","","","","","","","",""
"revaluation","218","1093102","0.0-4.0-4.0-0.0","spark_pilot_2","8091","5","16","Female","","false","","","","","[948.2000000476837]","./assets/img/canyon/animals/giraffe.jpg","[""ArrowRight""]","revaluation","canyon","17","{""ArrowUp,ArrowLeft"":26,""ArrowUp,ArrowRight"":10,""ArrowDown,ArrowLeft"":5,""ArrowDown,ArrowRight"":17}","true","ArrowDown,ArrowRight","","","","original","1","0","","",""
"html-keyboard-response","219","1093611","0.0-4.0-4.0-1.0","spark_pilot_2","8091","5","16","Female","","","","","","","null","<div style=""font-size:60px;"">+</div>","null","fixation","","","","","","","","","","","1","","",""
"revaluation","220","1097642","0.0-4.0-4.0-0.1","spark_pilot_2","8091","5","16","Female","","false","","","","","[373.7000000476837]","./assets/img/canyon/animals/lion.jpg","[""ArrowLeft""]","revaluation","canyon","26","{""ArrowUp,ArrowLeft"":26,""ArrowUp,ArrowRight"":10,""ArrowDown,ArrowLeft"":5,""ArrowDown,ArrowRight"":17}","true","ArrowUp,ArrowLeft","","","","original","1","2","","",""
"html-keyboard-response","221","1098161","0.0-4.0-4.0-1.1","spark_pilot_2","8091","5","16","Female","","","","","","","null","<div style=""font-size:60px;"">+</div>","null","fixation","","","","","","","","","","","3","","",""
"revaluation","222","1102202","0.0-4.0-4.0-0.2","spark_pilot_2","8091","5","16","Female","","false","","","","","[344.2999999523163]","./assets/img/canyon/animals/lion.jpg","[""ArrowLeft""]","revaluation","canyon","26","{""ArrowUp,ArrowLeft"":26,""ArrowUp,ArrowRight"":10,""ArrowDown,ArrowLeft"":5,""ArrowDown,ArrowRight"":17}","true","ArrowUp,ArrowLeft","","","","original","1","4","","",""
"html-keyboard-response","223","1102711","0.0-4.0-4.0-1.2","spark_pilot_2","8091","5","16","Female","","","","","","","null","<div style=""font-size:60px;"">+</div>","null","fixation","","","","","","","","","","","5","","",""
"revaluation","224","1106742","0.0-4.0-4.0-0.3","spark_pilot_2","8091","5","16","Female","","false","","","","","[714.8000000715256]","./assets/img/canyon/animals/lion.jpg","[""ArrowLeft""]","revaluation","canyon","26","{""ArrowUp,ArrowLeft"":26,""ArrowUp,ArrowRight"":10,""ArrowDown,ArrowLeft"":5,""ArrowDown,ArrowRight"":17}","true","ArrowUp,ArrowLeft","","","","original","1","6","","",""
"html-keyboard-response","225","1107261","0.0-4.0-4.0-1.3","spark_pilot_2","8091","5","16","Female","","","","","","","null","<div style=""font-size:60px;"">+</div>","null","fixation","","","","","","","","","","","7","","",""
"revaluation","226","1111303","0.0-4.0-4.0-0.4","spark_pilot_2","8091","5","16","Female","","false","","","","","[684.7000000476837]","./assets/img/canyon/animals/giraffe.jpg","[""ArrowLeft""]","revaluation","canyon","5","{""ArrowUp,ArrowLeft"":26,""ArrowUp,ArrowRight"":10,""ArrowDown,ArrowLeft"":5,""ArrowDown,ArrowRight"":17}","false","ArrowDown,ArrowLeft","","","","original","1","8","","",""
"html-keyboard-response","227","1111812","0.0-4.0-4.0-1.4","spark_pilot_2","8091","5","16","Female","","","","","","","null","<div style=""font-size:60px;"">+</div>","null","fixation","","","","","","","","","","","9","","",""
"revaluation","228","1115853","0.0-4.0-4.0-0.5","spark_pilot_2","8091","5","16","Female","","false","","","","","[542.3999999761581]","./assets/img/canyon/animals/lion.jpg","[""ArrowRight""]","revaluation","canyon","10","{""ArrowUp,ArrowLeft"":26,""ArrowUp,ArrowRight"":10,""ArrowDown,ArrowLeft"":5,""ArrowDown,ArrowRight"":17}","false","ArrowUp,ArrowRight","","","","original","1","10","","",""
"html-keyboard-response","229","1116372","0.0-4.0-4.0-1.5","spark_pilot_2","8091","5","16","Female","","","","","","","null","<div style=""font-size:60px;"">+</div>","null","fixation","","","","","","","","","","","11","","",""
"revaluation","230","1120376","0.0-4.0-4.0-0.6","spark_pilot_2","8091","5","16","Female","","false","","","","","[784.7999999523163]","./assets/img/canyon/animals/giraffe.jpg","[""ArrowRight""]","revaluation","canyon","17","{""ArrowUp,ArrowLeft"":26,""ArrowUp,ArrowRight"":10,""ArrowDown,ArrowLeft"":5,""ArrowDown,ArrowRight"":17}","true","ArrowDown,ArrowRight","","","","original","1","12","","",""
"html-keyboard-response","231","1120878","0.0-4.0-4.0-1.6","spark_pilot_2","8091","5","16","Female","","","","","","","null","<div style=""font-size:60px;"">+</div>","null","fixation","","","","","","","","","","","13","","",""
"revaluation","232","1124883","0.0-4.0-4.0-0.7","spark_pilot_2","8091","5","16","Female","","false","","","","","[702.5]","./assets/img/canyon/animals/giraffe.jpg","[""ArrowLeft""]","revaluation","canyon","5","{""ArrowUp,ArrowLeft"":26,""ArrowUp,ArrowRight"":10,""ArrowDown,ArrowLeft"":5,""ArrowDown,ArrowRight"":17}","false","ArrowDown,ArrowLeft","","","","original","1","14","","",""
"html-keyboard-response","233","1125384","0.0-4.0-4.0-1.7","spark_pilot_2","8091","5","16","Female","","","","","","","null","<div style=""font-size:60px;"">+</div>","null","fixation","","","","","","","","","","","15","","",""
"revaluation","234","1129389","0.0-4.0-4.0-0.8","spark_pilot_2","8091","5","16","Female","","false","","","","","[436.2999999523163]","./assets/img/canyon/animals/giraffe.jpg","[""ArrowRight""]","revaluation","canyon","17","{""ArrowUp,ArrowLeft"":26,""ArrowUp,ArrowRight"":10,""ArrowDown,ArrowLeft"":5,""ArrowDown,ArrowRight"":17}","true","ArrowDown,ArrowRight","","","","original","1","16","","",""
"html-keyboard-response","235","1129900","0.0-4.0-4.0-1.8","spark_pilot_2","8091","5","16","Female","","","","","","","null","<div style=""font-size:60px;"">+</div>","null","fixation","","","","","","","","","","","17","","",""
"revaluation","236","1133905","0.0-4.0-4.0-0.9","spark_pilot_2","8091","5","16","Female","","false","","","","","[649.5]","./assets/img/canyon/animals/lion.jpg","[""ArrowRight""]","revaluation","canyon","10","{""ArrowUp,ArrowLeft"":26,""ArrowUp,ArrowRight"":10,""ArrowDown,ArrowLeft"":5,""ArrowDown,ArrowRight"":17}","false","ArrowUp,ArrowRight","","","","original","1","18","","",""
"html-keyboard-response","237","1134406","0.0-4.0-4.0-1.9","spark_pilot_2","8091","5","16","Female","","","","","","","null","<div style=""font-size:60px;"">+</div>","null","fixation","","","","","","","","","","","19","","",""
"revaluation","238","1138410","0.0-4.0-4.0-0.10","spark_pilot_2","8091","5","16","Female","","false","","","","","[305.39999997615814]","./assets/img/canyon/animals/giraffe.jpg","[""ArrowLeft""]","revaluation","canyon","5","{""ArrowUp,ArrowLeft"":26,""ArrowUp,ArrowRight"":10,""ArrowDown,ArrowLeft"":5,""ArrowDown,ArrowRight"":17}","false","ArrowDown,ArrowLeft","","","","original","1","20","","",""
"html-keyboard-response","239","1138912","0.0-4.0-4.0-1.10","spark_pilot_2","8091","5","16","Female","","","","","","","null","<div style=""font-size:60px;"">+</div>","null","fixation","","","","","","","","","","","21","","",""
"revaluation","240","1142929","0.0-4.0-4.0-0.11","spark_pilot_2","8091","5","16","Female","","false","","","","","[512]","./assets/img/canyon/animals/lion.jpg","[""ArrowRight""]","revaluation","canyon","10","{""ArrowUp,ArrowLeft"":26,""ArrowUp,ArrowRight"":10,""ArrowDown,ArrowLeft"":5,""ArrowDown,ArrowRight"":17}","false","ArrowUp,ArrowRight","","","","original","1","22","","",""
"html-keyboard-response","241","1143431","0.0-4.0-4.0-1.11","spark_pilot_2","8091","5","16","Female","","","","","","","null","<div style=""font-size:60px;"">+</div>","null","fixation","","","","","","","","","","","23","","",""
"revaluation","242","1147436","0.0-4.0-4.0-0.12","spark_pilot_2","8091","5","16","Female","","false","","","","","[73.09999990463257]","./assets/img/canyon/animals/lion.jpg","[""ArrowRight""]","revaluation","canyon","10","{""ArrowUp,ArrowLeft"":26,""ArrowUp,ArrowRight"":10,""ArrowDown,ArrowLeft"":5,""ArrowDown,ArrowRight"":17}","false","ArrowUp,ArrowRight","","","","original","1","24","","",""
"html-keyboard-response","243","1147937","0.0-4.0-4.0-1.12","spark_pilot_2","8091","5","16","Female","","","","","","","null","<div style=""font-size:60px;"">+</div>","null","fixation","","","","","","","","","","","25","","",""
"revaluation","244","1151940","0.0-4.0-4.0-0.13","spark_pilot_2","8091","5","16","Female","","false","","","","","[712]","./assets/img/canyon/animals/lion.jpg","[""ArrowRight""]","revaluation","canyon","10","{""ArrowUp,ArrowLeft"":26,""ArrowUp,ArrowRight"":10,""ArrowDown,ArrowLeft"":5,""ArrowDown,ArrowRight"":17}","false","ArrowUp,ArrowRight","","","","original","1","26","","",""
"html-keyboard-response","245","1152442","0.0-4.0-4.0-1.13","spark_pilot_2","8091","5","16","Female","","","","","","","null","<div style=""font-size:60px;"">+</div>","null","fixation","","","","","","","","","","","27","","",""
"revaluation","246","1156448","0.0-4.0-4.0-0.14","spark_pilot_2","8091","5","16","Female","","true","","","","","[]","./assets/img/canyon/animals/lion.jpg","[]","revaluation","canyon","-5","{""ArrowUp,ArrowLeft"":26,""ArrowUp,ArrowRight"":10,""ArrowDown,ArrowLeft"":5,""ArrowDown,ArrowRight"":17}","false","ArrowUp","","","","original","1","28","","",""
"html-keyboard-response","247","1156949","0.0-4.0-4.0-1.14","spark_pilot_2","8091","5","16","Female","","","","","","","null","<div style=""font-size:60px;"">+</div>","null","fixation","","","","","","","","","","","29","","",""
"revaluation","248","1160953","0.0-4.0-4.0-0.15","spark_pilot_2","8091","5","16","Female","","false","","","","","[461.1999999284744]","./assets/img/canyon/animals/giraffe.jpg","[""ArrowRight""]","revaluation","canyon","17","{""ArrowUp,ArrowLeft"":26,""ArrowUp,ArrowRight"":10,""ArrowDown,ArrowLeft"":5,""ArrowDown,ArrowRight"":17}","true","ArrowDown,ArrowRight","","","","original","1","30","","",""
"html-keyboard-response","249","1161455","0.0-4.0-4.0-1.15","spark_pilot_2","8091","5","16","Female","","","","","","","null","<div style=""font-size:60px;"">+</div>","null","fixation","","","","","","","","","","","31","","",""
"revaluation","250","1165460","0.0-4.0-4.0-0.16","spark_pilot_2","8091","5","16","Female","","false","","","","","[347.40000009536743]","./assets/img/canyon/animals/giraffe.jpg","[""ArrowRight""]","revaluation","canyon","17","{""ArrowUp,ArrowLeft"":26,""ArrowUp,ArrowRight"":10,""ArrowDown,ArrowLeft"":5,""ArrowDown,ArrowRight"":17}","true","ArrowDown,ArrowRight","","","","original","1","32","","",""
"html-keyboard-response","251","1165961","0.0-4.0-4.0-1.16","spark_pilot_2","8091","5","16","Female","","","","","","","null","<div style=""font-size:60px;"">+</div>","null","fixation","","","","","","","","","","","33","","",""
"revaluation","252","1169965","0.0-4.0-4.0-0.17","spark_pilot_2","8091","5","16","Female","","false","","","","","[313.3000000715256]","./assets/img/canyon/animals/giraffe.jpg","[""ArrowRight""]","revaluation","canyon","17","{""ArrowUp,ArrowLeft"":26,""ArrowUp,ArrowRight"":10,""ArrowDown,ArrowLeft"":5,""ArrowDown,ArrowRight"":17}","true","ArrowDown,ArrowRight","","","","original","1","34","","",""
"html-keyboard-response","253","1170467","0.0-4.0-4.0-1.17","spark_pilot_2","8091","5","16","Female","","","","","","","null","<div style=""font-size:60px;"">+</div>","null","fixation","","","","","","","","","","","35","","",""
"learning-instructions","254","1184100","0.0-4.0-5.0-0.0","spark_pilot_2","8091","5","16","Female","","","","","","","2277.6999999284744","<p> Time to play the dot game! </p>
            <p> For one minute, click the red dots on the following screen as they appear. </p>
            <p><b> Don't look away, as you will earn bonus for clicking dots</b>. </p>","","instructions","","","","","","","","","","","","","",""
"revaluation","255","1244102","0.0-4.0-6.0-0.0","spark_pilot_2","8091","5","16","Female","","","","","","","[67,59,73,77,61,63,87]","","","rest","","70","","","","","0","60000","","","","","",""
"learning-instructions","256","1251764","0.0-4.0-7.0-0.0","spark_pilot_2","8091","5","16","Female","","","","","","","1512.1000000238419","<p> You have almost finished this part of the game! </p>
            <p> We are going to ask you to make a few more choices. </p>","","instructions","","","","","","","","","","","","","",""
"learning-instructions","257","1266796","0.0-4.0-7.0-0.1","spark_pilot_2","8091","5","16","Female","","","","","","","1065.1000000238419","<p> First, you need to decide whether to go up or down. When you see each picture, use the arrow keys to make your choice. </p>
            <p><b>You will not see which animal you found, but try to get to the one that will give you the most treasure.</b></p>","","instructions","","","","","","","","","","","","","",""
"revaluation","258","1268331","0.0-4.0-8.0-0.0","spark_pilot_2","8091","5","16","Female","","false","","","","","[1533.3999999761581]","./assets/img/canyon/test/2.jpg","[""ArrowDown""]","first stage test","canyon","0","{""ArrowUp,ArrowLeft"":26,""ArrowUp,ArrowRight"":10,""ArrowDown,ArrowLeft"":5,""ArrowDown,ArrowRight"":17}","false","ArrowDown","false","","","original","1","","","",""
"html-keyboard-response","259","1268845","0.0-4.0-8.0-1.0","spark_pilot_2","8091","5","16","Female","","","","","","","null","<div style=""font-size:60px;"">+</div>","null","fixation","","","","","","","","","","","","","",""
"revaluation","260","1269579","0.0-4.0-8.0-0.1","spark_pilot_2","8091","5","16","Female","","false","","","","","[732.2000000476837]","./assets/img/canyon/test/3.jpg","[""ArrowDown""]","first stage test","canyon","0","{""ArrowUp,ArrowLeft"":26,""ArrowUp,ArrowRight"":10,""ArrowDown,ArrowLeft"":5,""ArrowDown,ArrowRight"":17}","false","ArrowDown","false","","","original","1","","","",""
"html-keyboard-response","261","1270080","0.0-4.0-8.0-1.1","spark_pilot_2","8091","5","16","Female","","","","","","","null","<div style=""font-size:60px;"">+</div>","null","fixation","","","","","","","","","","","","","",""
"revaluation","262","1270387","0.0-4.0-8.0-0.2","spark_pilot_2","8091","5","16","Female","","false","","","","","[305.2000000476837]","./assets/img/canyon/test/1.jpg","[""ArrowUp""]","first stage test","canyon","0","{""ArrowUp,ArrowLeft"":26,""ArrowUp,ArrowRight"":10,""ArrowDown,ArrowLeft"":5,""ArrowDown,ArrowRight"":17}","true","ArrowUp","false","","","original","1","","","",""
"html-keyboard-response","263","1270900","0.0-4.0-8.0-1.2","spark_pilot_2","8091","5","16","Female","","","","","","","null","<div style=""font-size:60px;"">+</div>","null","fixation","","","","","","","","","","","","","",""
"revaluation","264","1271196","0.0-4.0-8.0-0.3","spark_pilot_2","8091","5","16","Female","","false","","","","","[293.89999997615814]","./assets/img/canyon/test/0.jpg","[""ArrowUp""]","first stage test","canyon","0","{""ArrowUp,ArrowLeft"":26,""ArrowUp,ArrowRight"":10,""ArrowDown,ArrowLeft"":5,""ArrowDown,ArrowRight"":17}","true","ArrowUp","false","","","original","1","","","",""
"html-keyboard-response","265","1271700","0.0-4.0-8.0-1.3","spark_pilot_2","8091","5","16","Female","","","","","","","null","<div style=""font-size:60px;"">+</div>","null","fixation","","","","","","","","","","","","","",""
"learning-instructions","266","1285564","0.0-4.0-9.0-0.0","spark_pilot_2","8091","5","16","Female","","","","","","","2532.1999999284744","<p> Now you will see the animals again and can search their chests for treasure. </p>
            <p> This time, you will not see how much treasure you earned, but you will earn more bonus money for making better choices. </p>","","instructions","","","","","","","","","","","","","",""
"revaluation","267","1286830","0.0-4.0-10.0-0.0","spark_pilot_2","8091","5","16","Female","","false","","","","","[1264.2000000476837]","./assets/img/canyon/animals/lion.jpg","[""ArrowRight""]","second stage test","canyon","0","{""ArrowUp,ArrowLeft"":26,""ArrowUp,ArrowRight"":10,""ArrowDown,ArrowLeft"":5,""ArrowDown,ArrowRight"":17}","false","ArrowUp,ArrowRight","","","","original","1","","","",""
"html-keyboard-response","268","1287350","0.0-4.0-10.0-1.0","spark_pilot_2","8091","5","16","Female","","","","","","","null","<div style=""font-size:60px;"">+</div>","null","fixation","","","","","","","","","","","","","",""
"revaluation","269","1288570","0.0-4.0-10.0-0.1","spark_pilot_2","8091","5","16","Female","","false","","","","","[1222.2999999523163]","./assets/img/canyon/animals/lion.jpg","[""ArrowLeft""]","second stage test","canyon","0","{""ArrowUp,ArrowLeft"":26,""ArrowUp,ArrowRight"":10,""ArrowDown,ArrowLeft"":5,""ArrowDown,ArrowRight"":17}","true","ArrowUp,ArrowLeft","","","","original","1","","","",""
"html-keyboard-response","270","1289086","0.0-4.0-10.0-1.1","spark_pilot_2","8091","5","16","Female","","","","","","","null","<div style=""font-size:60px;"">+</div>","null","fixation","","","","","","","","","","","","","",""
"revaluation","271","1289730","0.0-4.0-10.0-0.2","spark_pilot_2","8091","5","16","Female","","false","","","","","[642.7000000476837]","./assets/img/canyon/animals/lion.jpg","[""ArrowRight""]","second stage test","canyon","0","{""ArrowUp,ArrowLeft"":26,""ArrowUp,ArrowRight"":10,""ArrowDown,ArrowLeft"":5,""ArrowDown,ArrowRight"":17}","false","ArrowUp,ArrowRight","","","","original","1","","","",""
"html-keyboard-response","272","1290236","0.0-4.0-10.0-1.2","spark_pilot_2","8091","5","16","Female","","","","","","","null","<div style=""font-size:60px;"">+</div>","null","fixation","","","","","","","","","","","","","",""
"revaluation","273","1290555","0.0-4.0-10.0-0.3","spark_pilot_2","8091","5","16","Female","","false","","","","","[316.2999999523163]","./assets/img/canyon/animals/lion.jpg","[""ArrowLeft""]","second stage test","canyon","0","{""ArrowUp,ArrowLeft"":26,""ArrowUp,ArrowRight"":10,""ArrowDown,ArrowLeft"":5,""ArrowDown,ArrowRight"":17}","true","ArrowUp,ArrowLeft","","","","original","1","","","",""
"html-keyboard-response","274","1291056","0.0-4.0-10.0-1.3","spark_pilot_2","8091","5","16","Female","","","","","","","null","<div style=""font-size:60px;"">+</div>","null","fixation","","","","","","","","","","","","","",""
"revaluation","275","1291330","0.0-4.0-10.0-0.4","spark_pilot_2","8091","5","16","Female","","false","","","","","[272.5]","./assets/img/canyon/animals/giraffe.jpg","[""ArrowLeft""]","second stage test","canyon","0","{""ArrowUp,ArrowLeft"":26,""ArrowUp,ArrowRight"":10,""ArrowDown,ArrowLeft"":5,""ArrowDown,ArrowRight"":17}","false","ArrowDown,ArrowLeft","","","","original","1","","","",""
"html-keyboard-response","276","1291836","0.0-4.0-10.0-1.4","spark_pilot_2","8091","5","16","Female","","","","","","","null","<div style=""font-size:60px;"">+</div>","null","fixation","","","","","","","","","","","","","",""
"revaluation","277","1292155","0.0-4.0-10.0-0.5","spark_pilot_2","8091","5","16","Female","","false","","","","","[316.10000002384186]","./assets/img/canyon/animals/giraffe.jpg","[""ArrowLeft""]","second stage test","canyon","0","{""ArrowUp,ArrowLeft"":26,""ArrowUp,ArrowRight"":10,""ArrowDown,ArrowLeft"":5,""ArrowDown,ArrowRight"":17}","false","ArrowDown,ArrowLeft","","","","original","1","","","",""
"html-keyboard-response","278","1292656","0.0-4.0-10.0-1.5","spark_pilot_2","8091","5","16","Female","","","","","","","null","<div style=""font-size:60px;"">+</div>","null","fixation","","","","","","","","","","","","","",""
"revaluation","279","1294283","0.0-4.0-10.0-0.6","spark_pilot_2","8091","5","16","Female","","false","","","","","[1625.5]","./assets/img/canyon/animals/giraffe.jpg","[""ArrowRight""]","second stage test","canyon","0","{""ArrowUp,ArrowLeft"":26,""ArrowUp,ArrowRight"":10,""ArrowDown,ArrowLeft"":5,""ArrowDown,ArrowRight"":17}","true","ArrowDown,ArrowRight","","","","original","1","","","",""
"html-keyboard-response","280","1294788","0.0-4.0-10.0-1.6","spark_pilot_2","8091","5","16","Female","","","","","","","null","<div style=""font-size:60px;"">+</div>","null","fixation","","","","","","","","","","","","","",""
"revaluation","281","1295131","0.0-4.0-10.0-0.7","spark_pilot_2","8091","5","16","Female","","false","","","","","[341.10000002384186]","./assets/img/canyon/animals/giraffe.jpg","[""ArrowRight""]","second stage test","canyon","0","{""ArrowUp,ArrowLeft"":26,""ArrowUp,ArrowRight"":10,""ArrowDown,ArrowLeft"":5,""ArrowDown,ArrowRight"":17}","true","ArrowDown,ArrowRight","","","","original","1","","","",""
"html-keyboard-response","282","1295646","0.0-4.0-10.0-1.7","spark_pilot_2","8091","5","16","Female","","","","","","","null","<div style=""font-size:60px;"">+</div>","null","fixation","","","","","","","","","","","","","",""
"learning-instructions","283","1300601","0.0-4.0-0.1-0.2","spark_pilot_2","8091","5","16","Female","","","","","","","2253.3000000715256","<p> This time you are searching for treasure in the <b>ocean</b>.</p>","","instructions","","","","","","","","","","","","","",""
"learning-instructions","284","1319537","0.0-4.0-0.1-0.3","spark_pilot_2","8091","5","16","Female","","","","","","","1688.6999999284744","<p><b>New</b> animals with <b>new</b> treasure chests live here. You need to explore to discover where the animal with the best treasure chest is.</p>
                    <p> Like before, once you figure out which animal has the chest with the most treasure, you should try to get to that animal and select that chest! </p>","","instructions","","","","","","","","","","","","","",""
"learning-instructions","285","1337792","0.0-4.0-1.1-0.1","spark_pilot_2","8091","5","16","Female","","","","","","","3525.399999976158","<p> Remember, when you see a picture of the place, use the up and down keys to <b>find an animal</b>.</p>
            <p> When you encounter an animal, you should use the left and right keys to <b>select a treasure chest</b>.</p>
            <p> Don't forget to look out for the robber! </p>","","instructions","","","","","","","","","","","","","",""
"revaluation","286","1343826","0.0-4.0-2.1-0.50","spark_pilot_2","8091","5","16","Female","","false","","","","","[855.6000000238419,637.6999999284744]","./assets/img/ocean/memory/24.jpg","[""ArrowUp"",""ArrowRight""]","value training","ocean","10","{""ArrowUp,ArrowLeft"":23,""ArrowUp,ArrowRight"":10,""ArrowDown,ArrowLeft"":8,""ArrowDown,ArrowRight"":30}","false","ArrowUp,ArrowRight","false","","","revaluation","2","0","","",""
"html-keyboard-response","287","1344346","0.0-4.0-2.1-1.50","spark_pilot_2","8091","5","16","Female","","","","","","","null","<div style=""font-size:60px;"">+</div>","null","fixation","","","","","","","","","","","1","","",""
"revaluation","288","1350380","0.0-4.0-2.1-0.51","spark_pilot_2","8091","5","16","Female","","false","","","","","[279,414.5]","./assets/img/ocean/memory/6.jpg","[""ArrowUp"",""ArrowLeft""]","value training","ocean","23","{""ArrowUp,ArrowLeft"":23,""ArrowUp,ArrowRight"":10,""ArrowDown,ArrowLeft"":8,""ArrowDown,ArrowRight"":30}","false","ArrowUp,ArrowLeft","false","","","revaluation","2","2","","",""
"html-keyboard-response","289","1350890","0.0-4.0-2.1-1.51","spark_pilot_2","8091","5","16","Female","","","","","","","null","<div style=""font-size:60px;"">+</div>","null","fixation","","","","","","","","","","","3","","",""
"revaluation","290","1356950","0.0-4.0-2.1-0.52","spark_pilot_2","8091","5","16","Female","","false","","","","","[731.6000000238419,305.39999997615814]","./assets/img/ocean/memory/26.jpg","[""ArrowUp"",""ArrowLeft""]","value training","ocean","23","{""ArrowUp,ArrowLeft"":23,""ArrowUp,ArrowRight"":10,""ArrowDown,ArrowLeft"":8,""ArrowDown,ArrowRight"":30}","false","ArrowUp,ArrowLeft","false","","","revaluation","2","4","","",""
"html-keyboard-response","291","1357459","0.0-4.0-2.1-1.52","spark_pilot_2","8091","5","16","Female","","","","","","","null","<div style=""font-size:60px;"">+</div>","null","fixation","","","","","","","","","","","5","","",""
"revaluation","292","1361499","0.0-4.0-2.1-0.53","spark_pilot_2","8091","5","16","Female","","false","","","","","[755.1000000238419]","./assets/img/ocean/catch/7.jpg","[""ArrowUp""]","value training","ocean","-10","{""ArrowUp,ArrowLeft"":23,""ArrowUp,ArrowRight"":10,""ArrowDown,ArrowLeft"":8,""ArrowDown,ArrowRight"":30}","false","ArrowUp","true","","","revaluation","2","6","","",""
"html-keyboard-response","293","1362020","0.0-4.0-2.1-1.53","spark_pilot_2","8091","5","16","Female","","","","","","","null","<div style=""font-size:60px;"">+</div>","null","fixation","","","","","","","","","","","7","","",""
