"trial_type","trial_index","time_elapsed","internal_node_id","task_version","subject_id","assigned_condition","age","gender","success","timeout","failed_images","failed_audio","failed_video","browser_interaction","rt","stimulus","response","task_part","environment","score","rewardMap","correct","fullState","isCatch","numberMissed","duration","condition","order","trial_num","key_press","ground_truth","bonus"
"pavlovia","0","2129","0.0-0.0","spark_pilot_2","7138","8","9","Female","","","","","","","","","","","","","","","","","","","","","","","",""
"preload","1","97862","0.0-1.0","spark_pilot_2","7138","8","9","Female","true","false","[]","[]","[]","[{""event"":""fullscreenenter"",""trial"":2,""time"":113516}]","","","","","","","","","","","","","","","","","",""
"fullscreen","2","113974","0.0-2.0","spark_pilot_2","7138","8","9","Female","true","","","","","","","","","","","","","","","","","","","","","","",""
"audio-button-response","3","119793","0.0-3.0-0.0-0.0","spark_pilot_2","7138","8","9","Female","","","","","","","5061","./assets/audio/audiotest/turtle.mp3","2","audio_test","","","","","","","","","","","","","",""
"learning-instructions","4","129537","0.0-3.0-1.0-0.0","spark_pilot_2","7138","8","9","Female","","","","","","","2160.899999999907","<p> Welcome! Please remember to stay in fullscreen mode and don't click away from the experiment. </p>","","instructions","","","","","","","","","","","","","",""
"learning-instructions","5","141198","0.0-3.0-1.0-0.1","spark_pilot_2","7138","8","9","Female","","","","","","","2149.1999999999534","<p> Today you will be playing a game to earn treasure. </p>
            <p> At the end of the experiment, you will earn a bonus based on how much treasure you find. </p>
            <img src='./assets/img/instructions/treasure.jpg' class='instructions-image'>","","instructions","","","","","","","","","","","","","",""
"learning-instructions","6","152440","0.0-3.0-1.0-0.2","spark_pilot_2","7138","8","9","Female","","","","","","","2492.1999999999534","<p> Animals have hidden treasure in treasure chests. </p>
            <p> You need to first find an animal and then choose which of their treasure chests to search. </p>
            <img src='./assets/img/space/animals/cat.jpg' class='instructions-image'>","","instructions","","","","","","","","","","","","","",""
"learning-instructions","7","168810","0.0-3.0-1.0-0.3","spark_pilot_2","7138","8","9","Female","","","","","","","1832.8999999999069","<p> In each round, you will search for treasure in a different place. In the real game, there will be two rounds. </p>
            <p> You will begin with a separate, practice round where you will search for treasure in outer space. </p>
            <img src='./assets/img/space/0.jpg' class='instructions-image'>","","instructions","","","","","","","","","","","","","",""
"learning-instructions","8","183658","0.0-3.0-1.0-0.4","spark_pilot_2","7138","8","9","Female","","","","","","","2076.1999999999534","<p> On every turn, you will see a picture of the place that you are in, but the specific image may be different each time. </p>
            <p> For example, both of these images mean you are in outer space. </p>
            <img src='./assets/img/instructions/outerspace.jpg' class='instructions-image'>","","instructions","","","","","","","","","","","","","",""
"learning-instructions","9","194715","0.0-3.0-1.0-0.5","spark_pilot_2","7138","8","9","Female","","","","","","","2508.899999999907","<p> You need to decide which direction to travel in. </p>
            <p> You can choose between going <b>up or down</b> by using the arrow keys. </p>
            <img src='./assets/img/instructions/updown.jpg' class='instructions-image'>","","instructions","","","","","","","","","","","","","",""
"learning-instructions","10","206642","0.0-3.0-1.0-0.6","spark_pilot_2","7138","8","9","Female","","","","","","","1991.0999999999767","<p> You will have <b>2 seconds</b> to make your choice. </p>
            <p> If you do not make a choice within 2 seconds, you will not find an animal or earn treasure. </p>
            <img src='./assets/img/instructions/2seconds.jpg' class='instructions-image'>","","instructions","","","","","","","","","","","","","",""
"learning-instructions","11","219704","0.0-3.0-1.0-0.7","spark_pilot_2","7138","8","9","Female","","","","","","","2740.5","<p> Let’s try practicing that now! </p>
            <p> When you see a picture of the place you are in, press the <b>up</b> key to travel up. </p>
            <img src='./assets/img/instructions/pressUp.jpg' class='instructions-image'>","","instructions","","","","","","","","","","","","","",""
"revaluation","12","224591","0.0-3.0-2.0-0.0","spark_pilot_2","7138","8","9","Female","","false","","","","","[1731.1000000000931]","./assets/img/space/0.jpg","[""ArrowUp""]","first stage practice","space","0","null","null","ArrowUp","false","","","","","","","",""
"html-keyboard-response","13","225141","0.0-3.0-2.0-1.0","spark_pilot_2","7138","8","9","Female","","","","","","","null","<div style=""font-size:60px;"">+</div>","null","fixation","","","","","","","","","","","","","",""
"revaluation","14","229267","0.0-3.0-2.0-0.1","spark_pilot_2","7138","8","9","Female","","false","","","","","[1575.0999999999767]","./assets/img/space/1.jpg","[""ArrowUp""]","first stage practice","space","0","null","null","ArrowUp","false","","","","","","","",""
"html-keyboard-response","15","229833","0.0-3.0-2.0-1.1","spark_pilot_2","7138","8","9","Female","","","","","","","null","<div style=""font-size:60px;"">+</div>","null","fixation","","","","","","","","","","","","","",""
"revaluation","16","233927","0.0-3.0-2.0-0.2","spark_pilot_2","7138","8","9","Female","","false","","","","","[1041.4000000000233]","./assets/img/space/2.jpg","[""ArrowUp""]","first stage practice","space","0","null","null","ArrowUp","false","","","","","","","",""
"html-keyboard-response","17","234462","0.0-3.0-2.0-1.2","spark_pilot_2","7138","8","9","Female","","","","","","","null","<div style=""font-size:60px;"">+</div>","null","fixation","","","","","","","","","","","","","",""
"learning-instructions","18","241690","0.0-3.0-3.0-0.0","spark_pilot_2","7138","8","9","Female","","","","","","","1673.2999999999302","<p> Great job! Now try pressing the <b>down</b> key to travel down. </p>
            <img src='./assets/img/instructions/pressDown.jpg' class='instructions-image'>","","instructions","","","","","","","","","","","","","",""
"revaluation","19","245792","0.0-3.0-4.0-0.0","spark_pilot_2","7138","8","9","Female","","false","","","","","[832.7999999999302]","./assets/img/space/3.jpg","[""ArrowDown""]","first stage practice","space","0","null","null","ArrowDown","false","","","","","","","",""
"html-keyboard-response","20","246322","0.0-3.0-4.0-1.0","spark_pilot_2","7138","8","9","Female","","","","","","","null","<div style=""font-size:60px;"">+</div>","null","fixation","","","","","","","","","","","","","",""
"revaluation","21","250392","0.0-3.0-4.0-0.1","spark_pilot_2","7138","8","9","Female","","false","","","","","[1025.7000000000698]","./assets/img/space/4.jpg","[""ArrowDown""]","first stage practice","space","0","null","null","ArrowDown","false","","","","","","","",""
"html-keyboard-response","22","250913","0.0-3.0-4.0-1.1","spark_pilot_2","7138","8","9","Female","","","","","","","null","<div style=""font-size:60px;"">+</div>","null","fixation","","","","","","","","","","","","","",""
"revaluation","23","254999","0.0-3.0-4.0-0.2","spark_pilot_2","7138","8","9","Female","","false","","","","","[1305.1999999999534]","./assets/img/space/5.jpg","[""ArrowDown""]","first stage practice","space","0","null","null","ArrowDown","false","","","","","","","",""
"html-keyboard-response","24","255518","0.0-3.0-4.0-1.2","spark_pilot_2","7138","8","9","Female","","","","","","","null","<div style=""font-size:60px;"">+</div>","null","fixation","","","","","","","","","","","","","",""
"learning-instructions","25","268863","0.0-3.0-5.0-0.0","spark_pilot_2","7138","8","9","Female","","","","","","","2400.8000000000466","<p> The animals don’t move, so the animal in the upper part of a place will stay in the upper part of a place, and the animal in the lower part of a place will stay in the lower part of a place. </p>","","instructions","","","","","","","","","","","","","",""
"learning-instructions","26","280870","0.0-3.0-5.0-0.1","spark_pilot_2","7138","8","9","Female","","","","","","","2112.9000000000233","<p> Each animal has two treasure chests for you to choose from. </p>
            <p> The amount of treasure in each chest can range from <b> 0 to 40 pieces.</b></p>","","instructions","","","","","","","","","","","","","",""
"learning-instructions","27","295592","0.0-3.0-5.0-0.2","spark_pilot_2","7138","8","9","Female","","","","","","","2506.70000000007","<p> You should decide which chest to search for treasure by using the <b>left</b> and <b>right</b> arrow keys. </p>
            <p><b> Pay attention to which animal is on the screen, as the animals have different treasure chests. </b></p>
            <img src='./assets/img/instructions/leftright.jpg' class='instructions-image'>","","instructions","","","","","","","","","","","","","",""
"learning-instructions","28","305711","0.0-3.0-5.0-0.3","spark_pilot_2","7138","8","9","Female","","","","","","","2597.399999999907","<p> Let’s try practicing that now. </p>
            <p> When you see an animal, choose which chest to search for treasure. </p>
            <img src='./assets/img/instructions/chooseChest.jpg' class='instructions-image'>","","instructions","","","","","","","","","","","","","",""
"revaluation","29","309812","0.0-3.0-6.0-0.0","spark_pilot_2","7138","8","9","Female","","true","","","","","[]","./assets/img/space/animals/rabbit.jpg","[]","second stage practice","space","-5","{""ArrowUp,ArrowLeft"":3,""ArrowUp,ArrowRight"":36,""ArrowDown,ArrowLeft"":15,""ArrowDown,ArrowRight"":23}","false","ArrowDown","","","","","","","","",""
"html-keyboard-response","30","310332","0.0-3.0-6.0-1.0","spark_pilot_2","7138","8","9","Female","","","","","","","null","<div style=""font-size:60px;"">+</div>","null","fixation","","","","","","","","","","","","","",""
"revaluation","31","314433","0.0-3.0-6.0-0.1","spark_pilot_2","7138","8","9","Female","","false","","","","","[1593.3999999999069]","./assets/img/space/animals/cat.jpg","[""ArrowRight""]","second stage practice","space","36","{""ArrowUp,ArrowLeft"":3,""ArrowUp,ArrowRight"":36,""ArrowDown,ArrowLeft"":15,""ArrowDown,ArrowRight"":23}","true","ArrowUp,ArrowRight","","","","","","","","",""
"html-keyboard-response","32","314943","0.0-3.0-6.0-1.1","spark_pilot_2","7138","8","9","Female","","","","","","","null","<div style=""font-size:60px;"">+</div>","null","fixation","","","","","","","","","","","","","",""
"revaluation","33","319033","0.0-3.0-6.0-0.2","spark_pilot_2","7138","8","9","Female","","false","","","","","[1331.0999999999767]","./assets/img/space/animals/rabbit.jpg","[""ArrowRight""]","second stage practice","space","23","{""ArrowUp,ArrowLeft"":3,""ArrowUp,ArrowRight"":36,""ArrowDown,ArrowLeft"":15,""ArrowDown,ArrowRight"":23}","true","ArrowDown,ArrowRight","","","","","","","","",""
"html-keyboard-response","34","319569","0.0-3.0-6.0-1.2","spark_pilot_2","7138","8","9","Female","","","","","","","null","<div style=""font-size:60px;"">+</div>","null","fixation","","","","","","","","","","","","","",""
"revaluation","35","323665","0.0-3.0-6.0-0.3","spark_pilot_2","7138","8","9","Female","","false","","","","","[1644.5999999999767]","./assets/img/space/animals/cat.jpg","[""ArrowLeft""]","second stage practice","space","3","{""ArrowUp,ArrowLeft"":3,""ArrowUp,ArrowRight"":36,""ArrowDown,ArrowLeft"":15,""ArrowDown,ArrowRight"":23}","false","ArrowUp,ArrowLeft","","","","","","","","",""
"html-keyboard-response","36","324176","0.0-3.0-6.0-1.3","spark_pilot_2","7138","8","9","Female","","","","","","","null","<div style=""font-size:60px;"">+</div>","null","fixation","","","","","","","","","","","","","",""
"learning-instructions","37","347118","0.0-3.0-7.0-0.0","spark_pilot_2","7138","8","9","Female","","","","","","","3371.3000000000466","<p> Great job. Now let’s try putting it together. </p>
            <p> On each turn, you will first see a picture to remind you of the place you are in, and you need to choose whether to go up or down. </p>
            <p> Then you will see an animal and choose which of its chests to search for treasure. </p>","","instructions","","","","","","","","","","","","","",""
"learning-instructions","38","362476","0.0-3.0-7.0-0.1","spark_pilot_2","7138","8","9","Female","","","","","","","2470.5","<p> When you choose whether to go up or down, try to go to the animal with the chest with the most treasure. </p>
            <p> Try practicing that now! </p>","","instructions","","","","","","","","","","","","","",""
"revaluation","39","368585","0.0-3.0-8.0-0.0","spark_pilot_2","7138","8","9","Female","","false","","","","","[1309.0999999999767,1461.3000000000466]","./assets/img/space/6.jpg","[""ArrowUp"",""ArrowRight""]","full practice","space","36","{""ArrowUp,ArrowLeft"":3,""ArrowUp,ArrowRight"":36,""ArrowDown,ArrowLeft"":15,""ArrowDown,ArrowRight"":23}","true","ArrowUp,ArrowRight","false","","","","","","","",""
"html-keyboard-response","40","369097","0.0-3.0-8.0-1.0","spark_pilot_2","7138","8","9","Female","","","","","","","null","<div style=""font-size:60px;"">+</div>","null","fixation","","","","","","","","","","","","","",""
"revaluation","41","375174","0.0-3.0-8.0-0.1","spark_pilot_2","7138","8","9","Female","","false","","","","","[1083.3000000000466,1930]","./assets/img/space/7.jpg","[""ArrowDown"",""ArrowRight""]","full practice","space","23","{""ArrowUp,ArrowLeft"":3,""ArrowUp,ArrowRight"":36,""ArrowDown,ArrowLeft"":15,""ArrowDown,ArrowRight"":23}","false","ArrowDown,ArrowRight","false","","","","","","","",""
"html-keyboard-response","42","375693","0.0-3.0-8.0-1.1","spark_pilot_2","7138","8","9","Female","","","","","","","null","<div style=""font-size:60px;"">+</div>","null","fixation","","","","","","","","","","","","","",""
"revaluation","43","381876","0.0-3.0-8.0-0.2","spark_pilot_2","7138","8","9","Female","","false","","","","","[1058.8000000000466,1598.2000000000698]","./assets/img/space/8.jpg","[""ArrowUp"",""ArrowRight""]","full practice","space","36","{""ArrowUp,ArrowLeft"":3,""ArrowUp,ArrowRight"":36,""ArrowDown,ArrowLeft"":15,""ArrowDown,ArrowRight"":23}","true","ArrowUp,ArrowRight","false","","","","","","","",""
"html-keyboard-response","44","382392","0.0-3.0-8.0-1.2","spark_pilot_2","7138","8","9","Female","","","","","","","null","<div style=""font-size:60px;"">+</div>","null","fixation","","","","","","","","","","","","","",""
"revaluation","45","388502","0.0-3.0-8.0-0.3","spark_pilot_2","7138","8","9","Female","","false","","","","","[830.7999999999302,1377.5]","./assets/img/space/9.jpg","[""ArrowUp"",""ArrowRight""]","full practice","space","36","{""ArrowUp,ArrowLeft"":3,""ArrowUp,ArrowRight"":36,""ArrowDown,ArrowLeft"":15,""ArrowDown,ArrowRight"":23}","true","ArrowUp,ArrowRight","false","","","","","","","",""
"html-keyboard-response","46","389016","0.0-3.0-8.0-1.3","spark_pilot_2","7138","8","9","Female","","","","","","","null","<div style=""font-size:60px;"">+</div>","null","fixation","","","","","","","","","","","","","",""
"revaluation","47","395096","0.0-3.0-8.0-0.4","spark_pilot_2","7138","8","9","Female","","false","","","","","[881.7000000000698,857]","./assets/img/space/10.jpg","[""ArrowUp"",""ArrowRight""]","full practice","space","36","{""ArrowUp,ArrowLeft"":3,""ArrowUp,ArrowRight"":36,""ArrowDown,ArrowLeft"":15,""ArrowDown,ArrowRight"":23}","true","ArrowUp,ArrowRight","false","","","","","","","",""
"html-keyboard-response","48","395612","0.0-3.0-8.0-1.4","spark_pilot_2","7138","8","9","Female","","","","","","","null","<div style=""font-size:60px;"">+</div>","null","fixation","","","","","","","","","","","","","",""
"learning-instructions","49","411811","0.0-3.0-9.0-0.0","spark_pilot_2","7138","8","9","Female","","","","","","","2187.399999999907","<p> One last thing: sometimes, you will see a robber. The robber can be anywhere in the picture. </p>
            <p> If you do not stop them, you will lose treasure. </p>
            <img src='./assets/img/instructions/robber.jpg' class='instructions-image'>","","instructions","","","","","","","","","","","","","",""
"learning-instructions","50","427925","0.0-3.0-9.0-0.1","spark_pilot_2","7138","8","9","Female","","","","","","","7069.699999999953","<p> If you see the robber, you should <b>press the space bar</b> rather than using the arrow keys. </p>
            <p> Try practicing that now! </p>","","instructions","","","","","","","","","","","","","",""
"revaluation","51","432005","0.0-3.0-10.0-0.0","spark_pilot_2","7138","8","9","Female","","true","","","","","[]","./assets/img/space/catch/0.jpg","[]","catch practice","space","-5","{""ArrowUp,ArrowLeft"":3,""ArrowUp,ArrowRight"":36,""ArrowDown,ArrowLeft"":15,""ArrowDown,ArrowRight"":23}","false","","true","","","","","","","",""
"html-keyboard-response","52","432538","0.0-3.0-10.0-1.0","spark_pilot_2","7138","8","9","Female","","","","","","","null","<div style=""font-size:60px;"">+</div>","null","fixation","","","","","","","","","","","","","",""
"revaluation","53","436639","0.0-3.0-10.0-0.1","spark_pilot_2","7138","8","9","Female","","false","","","","","[809.5999999999767]","./assets/img/space/catch/1.jpg","[""ArrowUp""]","catch practice","space","-10","{""ArrowUp,ArrowLeft"":3,""ArrowUp,ArrowRight"":36,""ArrowDown,ArrowLeft"":15,""ArrowDown,ArrowRight"":23}","false","ArrowUp","true","","","","","","","",""
"html-keyboard-response","54","437156","0.0-3.0-10.0-1.1","spark_pilot_2","7138","8","9","Female","","","","","","","null","<div style=""font-size:60px;"">+</div>","null","fixation","","","","","","","","","","","","","",""
"revaluation","55","441257","0.0-3.0-10.0-0.2","spark_pilot_2","7138","8","9","Female","","false","","","","","[787.5999999999767]","./assets/img/space/catch/2.jpg","[""spaceBar""]","catch practice","space","0","{""ArrowUp,ArrowLeft"":3,""ArrowUp,ArrowRight"":36,""ArrowDown,ArrowLeft"":15,""ArrowDown,ArrowRight"":23}","true","spaceBar","true","","","","","","","",""
"html-keyboard-response","56","441793","0.0-3.0-10.0-1.2","spark_pilot_2","7138","8","9","Female","","","","","","","null","<div style=""font-size:60px;"">+</div>","null","fixation","","","","","","","","","","","","","",""
"learning-instructions","57","460861","0.0-3.0-11.0-0.0","spark_pilot_2","7138","8","9","Female","","","","","","","2871.100000000093","<p> After you explore a place to find treasure, it will be time to play a different game. </p>
            <p> During this game, red dots will appear on the screen and fall down slowly. </p>
            <p><b> You must click on them before they reach the bottom. </b></p>
            <img src='./assets/img/instructions/dotGame.jpg' class='instructions-image'>","","instructions","","","","","","","","","","","","","",""
"learning-instructions","58","470272","0.0-3.0-11.0-0.1","spark_pilot_2","7138","8","9","Female","","","","","","","1508.0999999999767","<p> For every dot you click, you will earn additional treasure. </p>
            <p> Let’s try practicing that now. </p>","","instructions","","","","","","","","","","","","","",""
"revaluation","59","485585","0.0-3.0-12.0-0.0","spark_pilot_2","7138","8","9","Female","","","","","","","[84,68]","","","rest practice","","20","","","","","0","15000","","","","","",""
"learning-instructions","60","498500","0.0-3.0-13.0-0.0-0.0","spark_pilot_2","7138","8","9","Female","","","","","","","5524.100000000093","<p> Now, you will practice a shortened version of the game to get a sense of how it all fits together. </p>","","instructions","","","","","","","","","","","","","",""
"learning-instructions","61","505397","0.0-3.0-13.0-0.0-0.1","spark_pilot_2","7138","8","9","Female","","","","","","","2751.0999999999767","<p>This time you are searching for treasure in outer space.</p>","","instructions","","","","","","","","","","","","","",""
"learning-instructions","62","523878","0.0-3.0-13.0-1.0-0.0","spark_pilot_2","7138","8","9","Female","","","","","","","1820.1999999999534","<p> Remember, when you see a picture of the place, use the up and down keys to <b>find an animal</b>.</p>
            <p> When you encounter an animal, you should use the left and right keys to <b>select a treasure chest</b>.</p>
            <p> Don't forget to look out for the robber! </p>","","instructions","","","","","","","","","","","","","",""
"revaluation","63","529972","0.0-3.0-13.0-2.0-0.0","spark_pilot_2","7138","8","9","Female","","false","","","","","[1955.1000000000931,1960.0999999999767]","./assets/img/space/11.jpg","[""ArrowUp"",""ArrowLeft""]","practice block","space","3","{""ArrowUp,ArrowLeft"":3,""ArrowUp,ArrowRight"":36,""ArrowDown,ArrowLeft"":15,""ArrowDown,ArrowRight"":23}","false","ArrowUp,ArrowLeft","false","","","","","","","",""
"html-keyboard-response","64","530494","0.0-3.0-13.0-2.0-1.0","spark_pilot_2","7138","8","9","Female","","","","","","","null","<div style=""font-size:60px;"">+</div>","null","fixation","","","","","","","","","","","","","",""
"revaluation","65","534603","0.0-3.0-13.0-2.0-0.1","spark_pilot_2","7138","8","9","Female","","true","","","","","[]","./assets/img/space/12.jpg","[]","practice block","space","-5","{""ArrowUp,ArrowLeft"":3,""ArrowUp,ArrowRight"":36,""ArrowDown,ArrowLeft"":15,""ArrowDown,ArrowRight"":23}","false","","false","","","","","","","",""
"html-keyboard-response","66","535121","0.0-3.0-13.0-2.0-1.1","spark_pilot_2","7138","8","9","Female","","","","","","","null","<div style=""font-size:60px;"">+</div>","null","fixation","","","","","","","","","","","","","",""
"revaluation","67","541234","0.0-3.0-13.0-2.0-0.2","spark_pilot_2","7138","8","9","Female","","false","","","","","[1130.1999999999534,1134.1999999999534]","./assets/img/space/13.jpg","[""ArrowUp"",""ArrowRight""]","practice block","space","36","{""ArrowUp,ArrowLeft"":3,""ArrowUp,ArrowRight"":36,""ArrowDown,ArrowLeft"":15,""ArrowDown,ArrowRight"":23}","true","ArrowUp,ArrowRight","false","","","","","","","",""
"html-keyboard-response","68","541765","0.0-3.0-13.0-2.0-1.2","spark_pilot_2","7138","8","9","Female","","","","","","","null","<div style=""font-size:60px;"">+</div>","null","fixation","","","","","","","","","","","","","",""
"revaluation","69","547908","0.0-3.0-13.0-2.0-0.3","spark_pilot_2","7138","8","9","Female","","false","","","","","[1050.9000000001397,1140]","./assets/img/space/14.jpg","[""ArrowUp"",""ArrowRight""]","practice block","space","36","{""ArrowUp,ArrowLeft"":3,""ArrowUp,ArrowRight"":36,""ArrowDown,ArrowLeft"":15,""ArrowDown,ArrowRight"":23}","true","ArrowUp,ArrowRight","false","","","","","","","",""
"html-keyboard-response","70","548423","0.0-3.0-13.0-2.0-1.3","spark_pilot_2","7138","8","9","Female","","","","","","","null","<div style=""font-size:60px;"">+</div>","null","fixation","","","","","","","","","","","","","",""
"revaluation","71","554530","0.0-3.0-13.0-2.0-0.4","spark_pilot_2","7138","8","9","Female","","false","","","","","[1077.6000000000931,730.1000000000931]","./assets/img/space/11.jpg","[""ArrowUp"",""ArrowRight""]","practice block","space","36","{""ArrowUp,ArrowLeft"":3,""ArrowUp,ArrowRight"":36,""ArrowDown,ArrowLeft"":15,""ArrowDown,ArrowRight"":23}","true","ArrowUp,ArrowRight","false","","","","","","","",""
"html-keyboard-response","72","555063","0.0-3.0-13.0-2.0-1.4","spark_pilot_2","7138","8","9","Female","","","","","","","null","<div style=""font-size:60px;"">+</div>","null","fixation","","","","","","","","","","","","","",""
"revaluation","73","561190","0.0-3.0-13.0-2.0-0.5","spark_pilot_2","7138","8","9","Female","","false","","","","","[1096,1247.0999999998603]","./assets/img/space/12.jpg","[""ArrowUp"",""ArrowRight""]","practice block","space","36","{""ArrowUp,ArrowLeft"":3,""ArrowUp,ArrowRight"":36,""ArrowDown,ArrowLeft"":15,""ArrowDown,ArrowRight"":23}","true","ArrowUp,ArrowRight","false","","","","","","","",""
"html-keyboard-response","74","561707","0.0-3.0-13.0-2.0-1.5","spark_pilot_2","7138","8","9","Female","","","","","","","null","<div style=""font-size:60px;"">+</div>","null","fixation","","","","","","","","","","","","","",""
"revaluation","75","567800","0.0-3.0-13.0-2.0-0.6","spark_pilot_2","7138","8","9","Female","","false","","","","","[1063.1999999999534,935]","./assets/img/space/13.jpg","[""ArrowUp"",""ArrowRight""]","practice block","space","36","{""ArrowUp,ArrowLeft"":3,""ArrowUp,ArrowRight"":36,""ArrowDown,ArrowLeft"":15,""ArrowDown,ArrowRight"":23}","true","ArrowUp,ArrowRight","false","","","","","","","",""
"html-keyboard-response","76","568320","0.0-3.0-13.0-2.0-1.6","spark_pilot_2","7138","8","9","Female","","","","","","","null","<div style=""font-size:60px;"">+</div>","null","fixation","","","","","","","","","","","","","",""
"revaluation","77","574428","0.0-3.0-13.0-2.0-0.7","spark_pilot_2","7138","8","9","Female","","false","","","","","[831.6000000000931,621.3000000000466]","./assets/img/space/14.jpg","[""ArrowUp"",""ArrowRight""]","practice block","space","36","{""ArrowUp,ArrowLeft"":3,""ArrowUp,ArrowRight"":36,""ArrowDown,ArrowLeft"":15,""ArrowDown,ArrowRight"":23}","true","ArrowUp,ArrowRight","false","","","","","","","",""
"html-keyboard-response","78","574949","0.0-3.0-13.0-2.0-1.7","spark_pilot_2","7138","8","9","Female","","","","","","","null","<div style=""font-size:60px;"">+</div>","null","fixation","","","","","","","","","","","","","",""
"revaluation","79","579027","0.0-3.0-13.0-2.0-0.8","spark_pilot_2","7138","8","9","Female","","false","","","","","[1241.5]","./assets/img/space/catch/3.jpg","[""spaceBar""]","practice block","space","0","{""ArrowUp,ArrowLeft"":3,""ArrowUp,ArrowRight"":36,""ArrowDown,ArrowLeft"":15,""ArrowDown,ArrowRight"":23}","true","spaceBar","true","","","","","","","",""
"html-keyboard-response","80","579550","0.0-3.0-13.0-2.0-1.8","spark_pilot_2","7138","8","9","Female","","","","","","","null","<div style=""font-size:60px;"">+</div>","null","fixation","","","","","","","","","","","","","",""
"learning-instructions","81","598309","0.0-3.0-13.0-3.0-0.0","spark_pilot_2","7138","8","9","Female","","","","","","","3220.6999999999534","<p> Now, you will travel with a friend who will choose whether you go up or down first. </p>
            <p> On these turns, you will just see the animal that they found. You will still get to choose which chest to search for treasure.</p>","","instructions","","","","","","","","","","","","","",""
"revaluation","82","602411","0.0-3.0-13.0-4.0-0.0","spark_pilot_2","7138","8","9","Female","","true","","","","","[]","./assets/img/space/animals/cat.jpg","[]","practice block","space","-5","{""ArrowUp,ArrowLeft"":3,""ArrowUp,ArrowRight"":36,""ArrowDown,ArrowLeft"":15,""ArrowDown,ArrowRight"":23}","false","ArrowUp","","","","","","","","",""
"html-keyboard-response","83","602931","0.0-3.0-13.0-4.0-1.0","spark_pilot_2","7138","8","9","Female","","","","","","","null","<div style=""font-size:60px;"">+</div>","null","fixation","","","","","","","","","","","","","",""
"revaluation","84","607001","0.0-3.0-13.0-4.0-0.1","spark_pilot_2","7138","8","9","Female","","false","","","","","[1497.0999999998603]","./assets/img/space/animals/cat.jpg","[""ArrowRight""]","practice block","space","36","{""ArrowUp,ArrowLeft"":3,""ArrowUp,ArrowRight"":36,""ArrowDown,ArrowLeft"":15,""ArrowDown,ArrowRight"":23}","true","ArrowUp,ArrowRight","","","","","","","","",""
"html-keyboard-response","85","607523","0.0-3.0-13.0-4.0-1.1","spark_pilot_2","7138","8","9","Female","","","","","","","null","<div style=""font-size:60px;"">+</div>","null","fixation","","","","","","","","","","","","","",""
"revaluation","86","611604","0.0-3.0-13.0-4.0-0.2","spark_pilot_2","7138","8","9","Female","","false","","","","","[1165]","./assets/img/space/animals/rabbit.jpg","[""ArrowRight""]","practice block","space","23","{""ArrowUp,ArrowLeft"":3,""ArrowUp,ArrowRight"":36,""ArrowDown,ArrowLeft"":15,""ArrowDown,ArrowRight"":23}","true","ArrowDown,ArrowRight","","","","","","","","",""
"html-keyboard-response","87","612123","0.0-3.0-13.0-4.0-1.2","spark_pilot_2","7138","8","9","Female","","","","","","","null","<div style=""font-size:60px;"">+</div>","null","fixation","","","","","","","","","","","","","",""
"revaluation","88","616203","0.0-3.0-13.0-4.0-0.3","spark_pilot_2","7138","8","9","Female","","false","","","","","[959.7999999998137]","./assets/img/space/animals/rabbit.jpg","[""ArrowRight""]","practice block","space","23","{""ArrowUp,ArrowLeft"":3,""ArrowUp,ArrowRight"":36,""ArrowDown,ArrowLeft"":15,""ArrowDown,ArrowRight"":23}","true","ArrowDown,ArrowRight","","","","","","","","",""
"html-keyboard-response","89","616722","0.0-3.0-13.0-4.0-1.3","spark_pilot_2","7138","8","9","Female","","","","","","","null","<div style=""font-size:60px;"">+</div>","null","fixation","","","","","","","","","","","","","",""
"learning-instructions","90","627159","0.0-3.0-13.0-5.0-0.0","spark_pilot_2","7138","8","9","Female","","","","","","","2178.6999999999534","<p> Time to play the dot game! </p>
            <p> For 15 seconds, click the red dots on the following screen as they appear. </p>","","instructions","","","","","","","","","","","","","",""
"revaluation","91","642230","0.0-3.0-13.0-6.0-0.0","spark_pilot_2","7138","8","9","Female","","","","","","","[83]","","","rest practice","","10","","","","","0","15000","","","","","",""
"learning-instructions","92","652446","0.0-3.0-13.0-7.0-0.0","spark_pilot_2","7138","8","9","Female","","","","","","","1807.9000000001397","<p> You have almost finished this part of the game! </p>
            <p> We are going to ask you to make a few more choices. </p>","","instructions","","","","","","","","","","","","","",""
"learning-instructions","93","677254","0.0-3.0-13.0-7.0-0.1","spark_pilot_2","7138","8","9","Female","","","","","","","6521.300000000047","<p> First, you need to decide whether to go up or down. When you see each picture, use the arrow keys to make your choice. </p>
            <p><b>You will not see which animal you found, but try to get to the one that will give you the most treasure.</b></p>","","instructions","","","","","","","","","","","","","",""
"revaluation","94","678867","0.0-3.0-13.0-8.0","spark_pilot_2","7138","8","9","Female","","false","","","","","[1590.2999999998137]","./assets/img/space/15.jpg","[""ArrowUp""]","practice block","space","0","{""ArrowUp,ArrowLeft"":3,""ArrowUp,ArrowRight"":36,""ArrowDown,ArrowLeft"":15,""ArrowDown,ArrowRight"":23}","true","ArrowUp","false","","","","","","","",""
"html-keyboard-response","95","679381","0.0-3.0-13.0-9.0","spark_pilot_2","7138","8","9","Female","","","","","","","null","<div style=""font-size:60px;"">+</div>","null","fixation","","","","","","","","","","","","","",""
"learning-instructions","96","693479","0.0-3.0-13.0-10.0-0.0","spark_pilot_2","7138","8","9","Female","","","","","","","1648.2999999998137","<p> Now you will see the animals again and can search their chests for treasure. </p>
            <p> This time, you will not see how much treasure you earned, but you will earn more bonus money for making better choices. </p>","","instructions","","","","","","","","","","","","","",""
"revaluation","97","695292","0.0-3.0-13.0-11.0-0.0","spark_pilot_2","7138","8","9","Female","","false","","","","","[1786.1999999999534]","./assets/img/space/animals/cat.jpg","[""ArrowRight""]","practice block","space","0","{""ArrowUp,ArrowLeft"":3,""ArrowUp,ArrowRight"":36,""ArrowDown,ArrowLeft"":15,""ArrowDown,ArrowRight"":23}","true","ArrowUp,ArrowRight","","","","","","","","",""
"html-keyboard-response","98","695807","0.0-3.0-13.0-11.0-1.0","spark_pilot_2","7138","8","9","Female","","","","","","","null","<div style=""font-size:60px;"">+</div>","null","fixation","","","","","","","","","","","","","",""
"revaluation","99","697409","0.0-3.0-13.0-11.0-0.1","spark_pilot_2","7138","8","9","Female","","false","","","","","[1567.3000000000466]","./assets/img/space/animals/rabbit.jpg","[""ArrowRight""]","practice block","space","0","{""ArrowUp,ArrowLeft"":3,""ArrowUp,ArrowRight"":36,""ArrowDown,ArrowLeft"":15,""ArrowDown,ArrowRight"":23}","true","ArrowDown,ArrowRight","","","","","","","","",""
"html-keyboard-response","100","697942","0.0-3.0-13.0-11.0-1.1","spark_pilot_2","7138","8","9","Female","","","","","","","null","<div style=""font-size:60px;"">+</div>","null","fixation","","","","","","","","","","","","","",""
"learning-instructions","101","705468","0.0-3.0-14.0-0.0","spark_pilot_2","7138","8","9","Female","","","","","","","2634.0999999998603","<p> Before you start, we're going to ask you a few questions about how the game works. </p>","","instructions","","","","","","","","","","","","","",""
"comp-q","102","714686","0.0-3.0-15.0-0.0-0.0","spark_pilot_2","7138","8","9","Female","","","","","","","1950.3999999999069","<p> <b> True or False? </b> </p>
            <p> There can be 50 pieces of treasure in a given animal's chest. </p>","1","comp_question","","","","true","","","","","","","","","",""
"comp-q","103","736218","0.0-3.0-15.0-0.0-1.0","spark_pilot_2","7138","8","9","Female","","","","","","","14248.899999999907","<p> <b> That's right! </b> The amount of treasure in each chest can range from 0 to 40 pieces. </p>","0","comp_answer","","","","","","","","","","","","","",""
"comp-q","104","751056","0.0-3.0-15.0-0.1-0.1","spark_pilot_2","7138","8","9","Female","","","","","","","7251.800000000047","<p> <b> True or False? </b> </p><p> In this game, all animals have the same amount of treasure in their left and right chests. </p>","1","comp_question","","","","true","","","","","","","","","",""
"comp-q","105","759376","0.0-3.0-15.0-0.1-1.1","spark_pilot_2","7138","8","9","Female","","","","","","","2658.8000000000466","<p> <b> That's right! </b> Animals have different amounts of treasure in their treasure chests. </p>","0","comp_answer","","","","","","","","","","","","","",""
"comp-q","106","767426","0.0-3.0-15.0-0.2-0.2","spark_pilot_2","7138","8","9","Female","","","","","","","1612.6999999999534","<p> <b> True or False? </b> </p><p> The same animal will always be there if you go up in the same place. </p>","0","comp_question","","","","true","","","","","","","","","",""
"comp-q","107","796102","0.0-3.0-15.0-0.2-1.2","spark_pilot_2","7138","8","9","Female","","","","","","","21502.800000000047","<p> <b> That's right! </b> One animal lives in the upper part and one lives in the lower part of every place. </p>","0","comp_answer","","","","","","","","","","","","","",""
"comp-q","108","808861","0.0-3.0-15.0-0.3-0.3","spark_pilot_2","7138","8","9","Female","","","","","","","5296.5","<p> <b> True or False? </b> </p><p> If you see a different picture, it means you are in a new place. </p>","0","comp_question","","","","false","","","","","","","","","",""
"comp-q","109","825811","0.0-3.0-15.0-0.3-1.3","spark_pilot_2","7138","8","9","Female","","","","","","","2680.6999999999534","<p> <b>Incorrect.</b> Lots of different images may show the same place. For example,  you may see three different images that all remind you that you are in outer space. </p>","0","comp_answer","","","","","","","","","","","","","",""
"comp-q","110","835358","0.0-3.0-15.0-0.4-0.4","spark_pilot_2","7138","8","9","Female","","","","","","","3602","<p> <b> True or False? </b> </p><p> If you see a different picture, it means you are in a new place. </p>","1","comp_question","","","","true","","","","","","","","","",""
"comp-q","111","865591","0.0-3.0-15.0-0.4-1.4","spark_pilot_2","7138","8","9","Female","","","","","","","15525.800000000047","<p> <b> That's right! </b> Lots of different images may show the same place. For example,  you may see three different images that all remind you that you are in outer space. </p>","0","comp_answer","","","","","","","","","","","","","",""
"learning-instructions","112","882193","0.0-3.0-16.0-0.0","spark_pilot_2","7138","8","9","Female","","","","","","","3819.1999999999534","<p> Good job. Remember to do your best because the amount of treasure you earn will be converted into bonus money. </p>
            <p> It’s time to start the real game! </p>","","instructions","","","","","","","","","","","","","",""
"learning-instructions","113","888242","0.0-4.0-0.0-0.0","spark_pilot_2","7138","8","9","Female","","","","","","","2696.600000000093","<p> This time you are searching for treasure in the <b>canyon</b>.</p>","","instructions","","","","","","","","","","","","","",""
"learning-instructions","114","910102","0.0-4.0-0.0-0.1","spark_pilot_2","7138","8","9","Female","","","","","","","2385","<p><b>New</b> animals with <b>new</b> treasure chests live here. You need to explore to discover where the animal with the best treasure chest is.</p>
                    <p> Like before, once you figure out which animal has the chest with the most treasure, you should try to get to that animal and select that chest! </p>","","instructions","","","","","","","","","","","","","",""
"learning-instructions","115","927872","0.0-4.0-1.0-0.0","spark_pilot_2","7138","8","9","Female","","","","","","","2993.6999999999534","<p> Remember, when you see a picture of the place, use the up and down keys to <b>find an animal</b>.</p>
            <p> When you encounter an animal, you should use the left and right keys to <b>select a treasure chest</b>.</p>
            <p> Don't forget to look out for the robber! </p>","","instructions","","","","","","","","","","","","","",""
"revaluation","116","934430","0.0-4.0-2.0-0.0","spark_pilot_2","7138","8","9","Female","","true","","","","","[1776.1999999999534]","./assets/img/canyon/memory/8.jpg","[""ArrowUp""]","value training","canyon","-5","{""ArrowUp,ArrowLeft"":26,""ArrowUp,ArrowRight"":10,""ArrowDown,ArrowLeft"":5,""ArrowDown,ArrowRight"":17}","false","ArrowUp","false","","","revaluation","1","0","","",""
"html-keyboard-response","117","935040","0.0-4.0-2.0-1.0","spark_pilot_2","7138","8","9","Female","","","","","","","null","<div style=""font-size:60px;"">+</div>","null","fixation","","","","","","","","","","","1","","",""
"revaluation","118","941258","0.0-4.0-2.0-0.1","spark_pilot_2","7138","8","9","Female","","false","","","","","[744.5,726.9000000001397]","./assets/img/canyon/memory/6.jpg","[""ArrowUp"",""ArrowRight""]","value training","canyon","10","{""ArrowUp,ArrowLeft"":26,""ArrowUp,ArrowRight"":10,""ArrowDown,ArrowLeft"":5,""ArrowDown,ArrowRight"":17}","false","ArrowUp,ArrowRight","false","","","revaluation","1","2","","",""
"html-keyboard-response","119","941808","0.0-4.0-2.0-1.1","spark_pilot_2","7138","8","9","Female","","","","","","","null","<div style=""font-size:60px;"">+</div>","null","fixation","","","","","","","","","","","3","","",""
"revaluation","120","947967","0.0-4.0-2.0-0.2","spark_pilot_2","7138","8","9","Female","","false","","","","","[1097.2000000001863,1662.5]","./assets/img/canyon/memory/20.jpg","[""ArrowDown"",""ArrowRight""]","value training","canyon","17","{""ArrowUp,ArrowLeft"":26,""ArrowUp,ArrowRight"":10,""ArrowDown,ArrowLeft"":5,""ArrowDown,ArrowRight"":17}","false","ArrowDown,ArrowRight","false","","","revaluation","1","4","","",""
"html-keyboard-response","121","948503","0.0-4.0-2.0-1.2","spark_pilot_2","7138","8","9","Female","","","","","","","null","<div style=""font-size:60px;"">+</div>","null","fixation","","","","","","","","","","","5","","",""
"revaluation","122","954645","0.0-4.0-2.0-0.3","spark_pilot_2","7138","8","9","Female","","false","","","","","[1533.1000000000931,1342.4000000001397]","./assets/img/canyon/memory/34.jpg","[""ArrowDown"",""ArrowRight""]","value training","canyon","17","{""ArrowUp,ArrowLeft"":26,""ArrowUp,ArrowRight"":10,""ArrowDown,ArrowLeft"":5,""ArrowDown,ArrowRight"":17}","false","ArrowDown,ArrowRight","false","","","revaluation","1","6","","",""
"html-keyboard-response","123","955192","0.0-4.0-2.0-1.3","spark_pilot_2","7138","8","9","Female","","","","","","","null","<div style=""font-size:60px;"">+</div>","null","fixation","","","","","","","","","","","7","","",""
"revaluation","124","961307","0.0-4.0-2.0-0.4","spark_pilot_2","7138","8","9","Female","","false","","","","","[498.19999999995343,1595.0999999998603]","./assets/img/canyon/memory/29.jpg","[""ArrowDown"",""ArrowRight""]","value training","canyon","17","{""ArrowUp,ArrowLeft"":26,""ArrowUp,ArrowRight"":10,""ArrowDown,ArrowLeft"":5,""ArrowDown,ArrowRight"":17}","false","ArrowDown,ArrowRight","false","","","revaluation","1","8","","",""
"html-keyboard-response","125","961830","0.0-4.0-2.0-1.4","spark_pilot_2","7138","8","9","Female","","","","","","","null","<div style=""font-size:60px;"">+</div>","null","fixation","","","","","","","","","","","9","","",""
"revaluation","126","967952","0.0-4.0-2.0-0.5","spark_pilot_2","7138","8","9","Female","","false","","","","","[715.8000000000466,877.5]","./assets/img/canyon/memory/30.jpg","[""ArrowDown"",""ArrowRight""]","value training","canyon","17","{""ArrowUp,ArrowLeft"":26,""ArrowUp,ArrowRight"":10,""ArrowDown,ArrowLeft"":5,""ArrowDown,ArrowRight"":17}","false","ArrowDown,ArrowRight","false","","","revaluation","1","10","","",""
"html-keyboard-response","127","968465","0.0-4.0-2.0-1.5","spark_pilot_2","7138","8","9","Female","","","","","","","null","<div style=""font-size:60px;"">+</div>","null","fixation","","","","","","","","","","","11","","",""
"revaluation","128","974634","0.0-4.0-2.0-0.6","spark_pilot_2","7138","8","9","Female","","true","","","","","[904.8999999999069]","./assets/img/canyon/memory/30.jpg","[""ArrowDown""]","value training","canyon","-5","{""ArrowUp,ArrowLeft"":26,""ArrowUp,ArrowRight"":10,""ArrowDown,ArrowLeft"":5,""ArrowDown,ArrowRight"":17}","false","ArrowDown","false","","","revaluation","1","12","","",""
"html-keyboard-response","129","975175","0.0-4.0-2.0-1.6","spark_pilot_2","7138","8","9","Female","","","","","","","null","<div style=""font-size:60px;"">+</div>","null","fixation","","","","","","","","","","","13","","",""
"revaluation","130","979250","0.0-4.0-2.0-0.7","spark_pilot_2","7138","8","9","Female","","true","","","","","[]","./assets/img/canyon/catch/6.jpg","[]","value training","canyon","-5","{""ArrowUp,ArrowLeft"":26,""ArrowUp,ArrowRight"":10,""ArrowDown,ArrowLeft"":5,""ArrowDown,ArrowRight"":17}","false","","true","","","revaluation","1","14","","",""
"html-keyboard-response","131","979775","0.0-4.0-2.0-1.7","spark_pilot_2","7138","8","9","Female","","","","","","","null","<div style=""font-size:60px;"">+</div>","null","fixation","","","","","","","","","","","15","","",""
"revaluation","132","983868","0.0-4.0-2.0-0.8","spark_pilot_2","7138","8","9","Female","","true","","","","","[]","./assets/img/canyon/memory/7.jpg","[]","value training","canyon","-5","{""ArrowUp,ArrowLeft"":26,""ArrowUp,ArrowRight"":10,""ArrowDown,ArrowLeft"":5,""ArrowDown,ArrowRight"":17}","false","","false","","","revaluation","1","16","","",""
"html-keyboard-response","133","984416","0.0-4.0-2.0-1.8","spark_pilot_2","7138","8","9","Female","","","","","","","null","<div style=""font-size:60px;"">+</div>","null","fixation","","","","","","","","","","","17","","",""
"revaluation","134","990529","0.0-4.0-2.0-0.9","spark_pilot_2","7138","8","9","Female","","false","","","","","[621.3999999999069,757]","./assets/img/canyon/memory/4.jpg","[""ArrowDown"",""ArrowLeft""]","value training","canyon","5","{""ArrowUp,ArrowLeft"":26,""ArrowUp,ArrowRight"":10,""ArrowDown,ArrowLeft"":5,""ArrowDown,ArrowRight"":17}","false","ArrowDown,ArrowLeft","false","","","revaluation","1","18","","",""
"html-keyboard-response","135","991057","0.0-4.0-2.0-1.9","spark_pilot_2","7138","8","9","Female","","","","","","","null","<div style=""font-size:60px;"">+</div>","null","fixation","","","","","","","","","","","19","","",""
"revaluation","136","997150","0.0-4.0-2.0-0.10","spark_pilot_2","7138","8","9","Female","","false","","","","","[557.1000000000931,1010]","./assets/img/canyon/memory/26.jpg","[""ArrowDown"",""ArrowRight""]","value training","canyon","17","{""ArrowUp,ArrowLeft"":26,""ArrowUp,ArrowRight"":10,""ArrowDown,ArrowLeft"":5,""ArrowDown,ArrowRight"":17}","false","ArrowDown,ArrowRight","false","","","revaluation","1","20","","",""
"html-keyboard-response","137","997726","0.0-4.0-2.0-1.10","spark_pilot_2","7138","8","9","Female","","","","","","","null","<div style=""font-size:60px;"">+</div>","null","fixation","","","","","","","","","","","21","","",""
"revaluation","138","1003907","0.0-4.0-2.0-0.11","spark_pilot_2","7138","8","9","Female","","false","","","","","[584.1000000000931,863]","./assets/img/canyon/memory/0.jpg","[""ArrowDown"",""ArrowRight""]","value training","canyon","17","{""ArrowUp,ArrowLeft"":26,""ArrowUp,ArrowRight"":10,""ArrowDown,ArrowLeft"":5,""ArrowDown,ArrowRight"":17}","false","ArrowDown,ArrowRight","false","","","revaluation","1","22","","",""
"html-keyboard-response","139","1004428","0.0-4.0-2.0-1.11","spark_pilot_2","7138","8","9","Female","","","","","","","null","<div style=""font-size:60px;"">+</div>","null","fixation","","","","","","","","","","","23","","",""
"revaluation","140","1010545","0.0-4.0-2.0-0.12","spark_pilot_2","7138","8","9","Female","","false","","","","","[1033.1000000000931,1000.5]","./assets/img/canyon/memory/0.jpg","[""ArrowDown"",""ArrowRight""]","value training","canyon","17","{""ArrowUp,ArrowLeft"":26,""ArrowUp,ArrowRight"":10,""ArrowDown,ArrowLeft"":5,""ArrowDown,ArrowRight"":17}","false","ArrowDown,ArrowRight","false","","","revaluation","1","24","","",""
"html-keyboard-response","141","1011071","0.0-4.0-2.0-1.12","spark_pilot_2","7138","8","9","Female","","","","","","","null","<div style=""font-size:60px;"">+</div>","null","fixation","","","","","","","","","","","25","","",""
"revaluation","142","1017208","0.0-4.0-2.0-0.13","spark_pilot_2","7138","8","9","Female","","false","","","","","[274.19999999995343,444.30000000004657]","./assets/img/canyon/memory/38.jpg","[""ArrowDown"",""ArrowRight""]","value training","canyon","17","{""ArrowUp,ArrowLeft"":26,""ArrowUp,ArrowRight"":10,""ArrowDown,ArrowLeft"":5,""ArrowDown,ArrowRight"":17}","false","ArrowDown,ArrowRight","false","","","revaluation","1","26","","",""
"html-keyboard-response","143","1017736","0.0-4.0-2.0-1.13","spark_pilot_2","7138","8","9","Female","","","","","","","null","<div style=""font-size:60px;"">+</div>","null","fixation","","","","","","","","","","","27","","",""
"revaluation","144","1023853","0.0-4.0-2.0-0.14","spark_pilot_2","7138","8","9","Female","","false","","","","","[469,885.8000000000466]","./assets/img/canyon/memory/24.jpg","[""ArrowDown"",""ArrowRight""]","value training","canyon","17","{""ArrowUp,ArrowLeft"":26,""ArrowUp,ArrowRight"":10,""ArrowDown,ArrowLeft"":5,""ArrowDown,ArrowRight"":17}","false","ArrowDown,ArrowRight","false","","","revaluation","1","28","","",""
"html-keyboard-response","145","1024381","0.0-4.0-2.0-1.14","spark_pilot_2","7138","8","9","Female","","","","","","","null","<div style=""font-size:60px;"">+</div>","null","fixation","","","","","","","","","","","29","","",""
"revaluation","146","1030501","0.0-4.0-2.0-0.15","spark_pilot_2","7138","8","9","Female","","false","","","","","[801.6000000000931,766.6999999999534]","./assets/img/canyon/memory/13.jpg","[""ArrowDown"",""ArrowRight""]","value training","canyon","17","{""ArrowUp,ArrowLeft"":26,""ArrowUp,ArrowRight"":10,""ArrowDown,ArrowLeft"":5,""ArrowDown,ArrowRight"":17}","false","ArrowDown,ArrowRight","false","","","revaluation","1","30","","",""
"html-keyboard-response","147","1031026","0.0-4.0-2.0-1.15","spark_pilot_2","7138","8","9","Female","","","","","","","null","<div style=""font-size:60px;"">+</div>","null","fixation","","","","","","","","","","","31","","",""
"revaluation","148","1037105","0.0-4.0-2.0-0.16","spark_pilot_2","7138","8","9","Female","","false","","","","","[502.29999999981374,841.2000000001863]","./assets/img/canyon/memory/24.jpg","[""ArrowDown"",""ArrowRight""]","value training","canyon","17","{""ArrowUp,ArrowLeft"":26,""ArrowUp,ArrowRight"":10,""ArrowDown,ArrowLeft"":5,""ArrowDown,ArrowRight"":17}","false","ArrowDown,ArrowRight","false","","","revaluation","1","32","","",""
"html-keyboard-response","149","1037625","0.0-4.0-2.0-1.16","spark_pilot_2","7138","8","9","Female","","","","","","","null","<div style=""font-size:60px;"">+</div>","null","fixation","","","","","","","","","","","33","","",""
"revaluation","150","1043724","0.0-4.0-2.0-0.17","spark_pilot_2","7138","8","9","Female","","false","","","","","[454.800000000163,745.4000000003725]","./assets/img/canyon/memory/6.jpg","[""ArrowDown"",""ArrowRight""]","value training","canyon","17","{""ArrowUp,ArrowLeft"":26,""ArrowUp,ArrowRight"":10,""ArrowDown,ArrowLeft"":5,""ArrowDown,ArrowRight"":17}","false","ArrowDown,ArrowRight","false","","","revaluation","1","34","","",""
"html-keyboard-response","151","1044252","0.0-4.0-2.0-1.17","spark_pilot_2","7138","8","9","Female","","","","","","","null","<div style=""font-size:60px;"">+</div>","null","fixation","","","","","","","","","","","35","","",""
"revaluation","152","1050339","0.0-4.0-2.0-0.18","spark_pilot_2","7138","8","9","Female","","false","","","","","[584.2999999998137,688.8999999999069]","./assets/img/canyon/memory/3.jpg","[""ArrowDown"",""ArrowRight""]","value training","canyon","17","{""ArrowUp,ArrowLeft"":26,""ArrowUp,ArrowRight"":10,""ArrowDown,ArrowLeft"":5,""ArrowDown,ArrowRight"":17}","false","ArrowDown,ArrowRight","false","","","revaluation","1","36","","",""
"html-keyboard-response","153","1050873","0.0-4.0-2.0-1.18","spark_pilot_2","7138","8","9","Female","","","","","","","null","<div style=""font-size:60px;"">+</div>","null","fixation","","","","","","","","","","","37","","",""
"revaluation","154","1056963","0.0-4.0-2.0-0.19","spark_pilot_2","7138","8","9","Female","","false","","","","","[260.8000000002794,717.7999999998137]","./assets/img/canyon/memory/23.jpg","[""ArrowDown"",""ArrowRight""]","value training","canyon","17","{""ArrowUp,ArrowLeft"":26,""ArrowUp,ArrowRight"":10,""ArrowDown,ArrowLeft"":5,""ArrowDown,ArrowRight"":17}","false","ArrowDown,ArrowRight","false","","","revaluation","1","38","","",""
"html-keyboard-response","155","1057477","0.0-4.0-2.0-1.19","spark_pilot_2","7138","8","9","Female","","","","","","","null","<div style=""font-size:60px;"">+</div>","null","fixation","","","","","","","","","","","39","","",""
"revaluation","156","1063556","0.0-4.0-2.0-0.20","spark_pilot_2","7138","8","9","Female","","false","","","","","[545.1999999997206,901.1000000000931]","./assets/img/canyon/memory/3.jpg","[""ArrowDown"",""ArrowRight""]","value training","canyon","17","{""ArrowUp,ArrowLeft"":26,""ArrowUp,ArrowRight"":10,""ArrowDown,ArrowLeft"":5,""ArrowDown,ArrowRight"":17}","false","ArrowDown,ArrowRight","false","","","revaluation","1","40","","",""
"html-keyboard-response","157","1064079","0.0-4.0-2.0-1.20","spark_pilot_2","7138","8","9","Female","","","","","","","null","<div style=""font-size:60px;"">+</div>","null","fixation","","","","","","","","","","","41","","",""
"revaluation","158","1070186","0.0-4.0-2.0-0.21","spark_pilot_2","7138","8","9","Female","","false","","","","","[884.8999999999069,796.2000000001863]","./assets/img/canyon/memory/41.jpg","[""ArrowDown"",""ArrowRight""]","value training","canyon","17","{""ArrowUp,ArrowLeft"":26,""ArrowUp,ArrowRight"":10,""ArrowDown,ArrowLeft"":5,""ArrowDown,ArrowRight"":17}","false","ArrowDown,ArrowRight","false","","","revaluation","1","42","","",""
"html-keyboard-response","159","1070710","0.0-4.0-2.0-1.21","spark_pilot_2","7138","8","9","Female","","","","","","","null","<div style=""font-size:60px;"">+</div>","null","fixation","","","","","","","","","","","43","","",""
"revaluation","160","1076910","0.0-4.0-2.0-0.22","spark_pilot_2","7138","8","9","Female","","false","","","","","[577.8000000002794,132.60000000009313]","./assets/img/canyon/memory/35.jpg","[""ArrowDown"",""ArrowRight""]","value training","canyon","17","{""ArrowUp,ArrowLeft"":26,""ArrowUp,ArrowRight"":10,""ArrowDown,ArrowLeft"":5,""ArrowDown,ArrowRight"":17}","false","ArrowDown,ArrowRight","false","","","revaluation","1","44","","",""
"html-keyboard-response","161","1077453","0.0-4.0-2.0-1.22","spark_pilot_2","7138","8","9","Female","","","","","","","null","<div style=""font-size:60px;"">+</div>","null","fixation","","","","","","","","","","","45","","",""
"revaluation","162","1083599","0.0-4.0-2.0-0.23","spark_pilot_2","7138","8","9","Female","","false","","","","","[470.89999999990687,880.8999999999069]","./assets/img/canyon/memory/40.jpg","[""ArrowDown"",""ArrowRight""]","value training","canyon","17","{""ArrowUp,ArrowLeft"":26,""ArrowUp,ArrowRight"":10,""ArrowDown,ArrowLeft"":5,""ArrowDown,ArrowRight"":17}","false","ArrowDown,ArrowRight","false","","","revaluation","1","46","","",""
"html-keyboard-response","163","1084121","0.0-4.0-2.0-1.23","spark_pilot_2","7138","8","9","Female","","","","","","","null","<div style=""font-size:60px;"">+</div>","null","fixation","","","","","","","","","","","47","","",""
"revaluation","164","1088244","0.0-4.0-2.0-0.24","spark_pilot_2","7138","8","9","Female","","false","","","","","[1055.0999999996275]","./assets/img/canyon/catch/4.jpg","[""ArrowDown""]","value training","canyon","-10","{""ArrowUp,ArrowLeft"":26,""ArrowUp,ArrowRight"":10,""ArrowDown,ArrowLeft"":5,""ArrowDown,ArrowRight"":17}","false","ArrowDown","true","","","revaluation","1","48","","",""
"html-keyboard-response","165","1088784","0.0-4.0-2.0-1.24","spark_pilot_2","7138","8","9","Female","","","","","","","null","<div style=""font-size:60px;"">+</div>","null","fixation","","","","","","","","","","","49","","",""
"revaluation","166","1092945","0.0-4.0-2.0-0.25","spark_pilot_2","7138","8","9","Female","","false","","","","","[1315.3999999999069]","./assets/img/canyon/catch/1.jpg","[""spaceBar""]","value training","canyon","0","{""ArrowUp,ArrowLeft"":26,""ArrowUp,ArrowRight"":10,""ArrowDown,ArrowLeft"":5,""ArrowDown,ArrowRight"":17}","true","spaceBar","true","","","revaluation","1","50","","",""
"html-keyboard-response","167","1093476","0.0-4.0-2.0-1.25","spark_pilot_2","7138","8","9","Female","","","","","","","null","<div style=""font-size:60px;"">+</div>","null","fixation","","","","","","","","","","","51","","",""
"revaluation","168","1099611","0.0-4.0-2.0-0.26","spark_pilot_2","7138","8","9","Female","","false","","","","","[1189.2000000001863,1030.7999999998137]","./assets/img/canyon/memory/9.jpg","[""ArrowDown"",""ArrowRight""]","value training","canyon","17","{""ArrowUp,ArrowLeft"":26,""ArrowUp,ArrowRight"":10,""ArrowDown,ArrowLeft"":5,""ArrowDown,ArrowRight"":17}","false","ArrowDown,ArrowRight","false","","","revaluation","1","52","","",""
"html-keyboard-response","169","1100142","0.0-4.0-2.0-1.26","spark_pilot_2","7138","8","9","Female","","","","","","","null","<div style=""font-size:60px;"">+</div>","null","fixation","","","","","","","","","","","53","","",""
"revaluation","170","1106300","0.0-4.0-2.0-0.27","spark_pilot_2","7138","8","9","Female","","false","","","","","[678.6000000000931,1331.6000000000931]","./assets/img/canyon/memory/23.jpg","[""ArrowDown"",""ArrowRight""]","value training","canyon","17","{""ArrowUp,ArrowLeft"":26,""ArrowUp,ArrowRight"":10,""ArrowDown,ArrowLeft"":5,""ArrowDown,ArrowRight"":17}","false","ArrowDown,ArrowRight","false","","","revaluation","1","54","","",""
"html-keyboard-response","171","1106820","0.0-4.0-2.0-1.27","spark_pilot_2","7138","8","9","Female","","","","","","","null","<div style=""font-size:60px;"">+</div>","null","fixation","","","","","","","","","","","55","","",""
"revaluation","172","1112938","0.0-4.0-2.0-0.28","spark_pilot_2","7138","8","9","Female","","false","","","","","[1691.5,1101.6999999997206]","./assets/img/canyon/memory/26.jpg","[""ArrowDown"",""ArrowRight""]","value training","canyon","17","{""ArrowUp,ArrowLeft"":26,""ArrowUp,ArrowRight"":10,""ArrowDown,ArrowLeft"":5,""ArrowDown,ArrowRight"":17}","false","ArrowDown,ArrowRight","false","","","revaluation","1","56","","",""
"html-keyboard-response","173","1113446","0.0-4.0-2.0-1.28","spark_pilot_2","7138","8","9","Female","","","","","","","null","<div style=""font-size:60px;"">+</div>","null","fixation","","","","","","","","","","","57","","",""
"revaluation","174","1119567","0.0-4.0-2.0-0.29","spark_pilot_2","7138","8","9","Female","","false","","","","","[790.6000000000931,1161.8999999999069]","./assets/img/canyon/memory/41.jpg","[""ArrowDown"",""ArrowRight""]","value training","canyon","17","{""ArrowUp,ArrowLeft"":26,""ArrowUp,ArrowRight"":10,""ArrowDown,ArrowLeft"":5,""ArrowDown,ArrowRight"":17}","false","ArrowDown,ArrowRight","false","","","revaluation","1","58","","",""
"html-keyboard-response","175","1120119","0.0-4.0-2.0-1.29","spark_pilot_2","7138","8","9","Female","","","","","","","null","<div style=""font-size:60px;"">+</div>","null","fixation","","","","","","","","","","","59","","",""
"revaluation","176","1126274","0.0-4.0-2.0-0.30","spark_pilot_2","7138","8","9","Female","","false","","","","","[398.70000000018626,1235.2999999998137]","./assets/img/canyon/memory/33.jpg","[""ArrowDown"",""ArrowRight""]","value training","canyon","17","{""ArrowUp,ArrowLeft"":26,""ArrowUp,ArrowRight"":10,""ArrowDown,ArrowLeft"":5,""ArrowDown,ArrowRight"":17}","false","ArrowDown,ArrowRight","false","","","revaluation","1","60","","",""
"html-keyboard-response","177","1126790","0.0-4.0-2.0-1.30","spark_pilot_2","7138","8","9","Female","","","","","","","null","<div style=""font-size:60px;"">+</div>","null","fixation","","","","","","","","","","","61","","",""
"revaluation","178","1133000","0.0-4.0-2.0-0.31","spark_pilot_2","7138","8","9","Female","","false","","","","","[1395.5999999996275,1343.1999999997206]","./assets/img/canyon/memory/8.jpg","[""ArrowDown"",""ArrowRight""]","value training","canyon","17","{""ArrowUp,ArrowLeft"":26,""ArrowUp,ArrowRight"":10,""ArrowDown,ArrowLeft"":5,""ArrowDown,ArrowRight"":17}","false","ArrowDown,ArrowRight","false","","","revaluation","1","62","","",""
"html-keyboard-response","179","1133538","0.0-4.0-2.0-1.31","spark_pilot_2","7138","8","9","Female","","","","","","","null","<div style=""font-size:60px;"">+</div>","null","fixation","","","","","","","","","","","63","","",""
"revaluation","180","1140361","0.0-4.0-2.0-0.32","spark_pilot_2","7138","8","9","Female","","false","","","","","[763.5,2645.399999999907]","./assets/img/canyon/memory/20.jpg","[""ArrowDown"",""ArrowRight""]","value training","canyon","17","{""ArrowUp,ArrowLeft"":26,""ArrowUp,ArrowRight"":10,""ArrowDown,ArrowLeft"":5,""ArrowDown,ArrowRight"":17}","false","ArrowDown,ArrowRight","false","","","revaluation","1","64","","",""
"html-keyboard-response","181","1140875","0.0-4.0-2.0-1.32","spark_pilot_2","7138","8","9","Female","","","","","","","null","<div style=""font-size:60px;"">+</div>","null","fixation","","","","","","","","","","","65","","",""
"revaluation","182","1147211","0.0-4.0-2.0-0.33","spark_pilot_2","7138","8","9","Female","","false","","","","","[1888,1092.8999999999069]","./assets/img/canyon/memory/4.jpg","[""ArrowDown"",""ArrowRight""]","value training","canyon","17","{""ArrowUp,ArrowLeft"":26,""ArrowUp,ArrowRight"":10,""ArrowDown,ArrowLeft"":5,""ArrowDown,ArrowRight"":17}","false","ArrowDown,ArrowRight","false","","","revaluation","1","66","","",""
"html-keyboard-response","183","1147730","0.0-4.0-2.0-1.33","spark_pilot_2","7138","8","9","Female","","","","","","","null","<div style=""font-size:60px;"">+</div>","null","fixation","","","","","","","","","","","67","","",""
"revaluation","184","1153840","0.0-4.0-2.0-0.34","spark_pilot_2","7138","8","9","Female","","false","","","","","[794.6000000000931,1069.2999999998137]","./assets/img/canyon/memory/29.jpg","[""ArrowDown"",""ArrowRight""]","value training","canyon","17","{""ArrowUp,ArrowLeft"":26,""ArrowUp,ArrowRight"":10,""ArrowDown,ArrowLeft"":5,""ArrowDown,ArrowRight"":17}","false","ArrowDown,ArrowRight","false","","","revaluation","1","68","","",""
"html-keyboard-response","185","1154351","0.0-4.0-2.0-1.34","spark_pilot_2","7138","8","9","Female","","","","","","","null","<div style=""font-size:60px;"">+</div>","null","fixation","","","","","","","","","","","69","","",""
"revaluation","186","1158437","0.0-4.0-2.0-0.35","spark_pilot_2","7138","8","9","Female","","false","","","","","[678.6999999997206]","./assets/img/canyon/catch/7.jpg","[""ArrowDown""]","value training","canyon","-10","{""ArrowUp,ArrowLeft"":26,""ArrowUp,ArrowRight"":10,""ArrowDown,ArrowLeft"":5,""ArrowDown,ArrowRight"":17}","false","ArrowDown","true","","","revaluation","1","70","","",""
"html-keyboard-response","187","1158955","0.0-4.0-2.0-1.35","spark_pilot_2","7138","8","9","Female","","","","","","","null","<div style=""font-size:60px;"">+</div>","null","fixation","","","","","","","","","","","71","","",""
"revaluation","188","1165096","0.0-4.0-2.0-0.36","spark_pilot_2","7138","8","9","Female","","false","","","","","[798.1999999997206,1275.8999999999069]","./assets/img/canyon/memory/19.jpg","[""ArrowDown"",""ArrowRight""]","value training","canyon","17","{""ArrowUp,ArrowLeft"":26,""ArrowUp,ArrowRight"":10,""ArrowDown,ArrowLeft"":5,""ArrowDown,ArrowRight"":17}","false","ArrowDown,ArrowRight","false","","","revaluation","1","72","","",""
"html-keyboard-response","189","1165630","0.0-4.0-2.0-1.36","spark_pilot_2","7138","8","9","Female","","","","","","","null","<div style=""font-size:60px;"">+</div>","null","fixation","","","","","","","","","","","73","","",""
"revaluation","190","1169745","0.0-4.0-2.0-0.37","spark_pilot_2","7138","8","9","Female","","false","","","","","[638.5]","./assets/img/canyon/catch/0.jpg","[""spaceBar""]","value training","canyon","0","{""ArrowUp,ArrowLeft"":26,""ArrowUp,ArrowRight"":10,""ArrowDown,ArrowLeft"":5,""ArrowDown,ArrowRight"":17}","true","spaceBar","true","","","revaluation","1","74","","",""
"html-keyboard-response","191","1170262","0.0-4.0-2.0-1.37","spark_pilot_2","7138","8","9","Female","","","","","","","null","<div style=""font-size:60px;"">+</div>","null","fixation","","","","","","","","","","","75","","",""
"revaluation","192","1176396","0.0-4.0-2.0-0.38","spark_pilot_2","7138","8","9","Female","","false","","","","","[1441.2000000001863,1130.3000000002794]","./assets/img/canyon/memory/19.jpg","[""ArrowDown"",""ArrowRight""]","value training","canyon","17","{""ArrowUp,ArrowLeft"":26,""ArrowUp,ArrowRight"":10,""ArrowDown,ArrowLeft"":5,""ArrowDown,ArrowRight"":17}","false","ArrowDown,ArrowRight","false","","","revaluation","1","76","","",""
"html-keyboard-response","193","1176950","0.0-4.0-2.0-1.38","spark_pilot_2","7138","8","9","Female","","","","","","","null","<div style=""font-size:60px;"">+</div>","null","fixation","","","","","","","","","","","77","","",""
"revaluation","194","1183189","0.0-4.0-2.0-0.39","spark_pilot_2","7138","8","9","Female","","false","","","","","[1596.1000000000931,1052.3000000002794]","./assets/img/canyon/memory/7.jpg","[""ArrowDown"",""ArrowRight""]","value training","canyon","17","{""ArrowUp,ArrowLeft"":26,""ArrowUp,ArrowRight"":10,""ArrowDown,ArrowLeft"":5,""ArrowDown,ArrowRight"":17}","false","ArrowDown,ArrowRight","false","","","revaluation","1","78","","",""
"html-keyboard-response","195","1183721","0.0-4.0-2.0-1.39","spark_pilot_2","7138","8","9","Female","","","","","","","null","<div style=""font-size:60px;"">+</div>","null","fixation","","","","","","","","","","","79","","",""
"revaluation","196","1189834","0.0-4.0-2.0-0.40","spark_pilot_2","7138","8","9","Female","","false","","","","","[548.2999999998137,953.3999999999069]","./assets/img/canyon/memory/34.jpg","[""ArrowDown"",""ArrowRight""]","value training","canyon","17","{""ArrowUp,ArrowLeft"":26,""ArrowUp,ArrowRight"":10,""ArrowDown,ArrowLeft"":5,""ArrowDown,ArrowRight"":17}","false","ArrowDown,ArrowRight","false","","","revaluation","1","80","","",""
"html-keyboard-response","197","1190367","0.0-4.0-2.0-1.40","spark_pilot_2","7138","8","9","Female","","","","","","","null","<div style=""font-size:60px;"">+</div>","null","fixation","","","","","","","","","","","81","","",""
"revaluation","198","1194460","0.0-4.0-2.0-0.41","spark_pilot_2","7138","8","9","Female","","false","","","","","[560.3999999999069]","./assets/img/canyon/catch/3.jpg","[""spaceBar""]","value training","canyon","0","{""ArrowUp,ArrowLeft"":26,""ArrowUp,ArrowRight"":10,""ArrowDown,ArrowLeft"":5,""ArrowDown,ArrowRight"":17}","true","spaceBar","true","","","revaluation","1","82","","",""
"html-keyboard-response","199","1194981","0.0-4.0-2.0-1.41","spark_pilot_2","7138","8","9","Female","","","","","","","null","<div style=""font-size:60px;"">+</div>","null","fixation","","","","","","","","","","","83","","",""
"revaluation","200","1201075","0.0-4.0-2.0-0.42","spark_pilot_2","7138","8","9","Female","","false","","","","","[959,929.6999999997206]","./assets/img/canyon/memory/9.jpg","[""ArrowDown"",""ArrowRight""]","value training","canyon","17","{""ArrowUp,ArrowLeft"":26,""ArrowUp,ArrowRight"":10,""ArrowDown,ArrowLeft"":5,""ArrowDown,ArrowRight"":17}","false","ArrowDown,ArrowRight","false","","","revaluation","1","84","","",""
"html-keyboard-response","201","1201598","0.0-4.0-2.0-1.42","spark_pilot_2","7138","8","9","Female","","","","","","","null","<div style=""font-size:60px;"">+</div>","null","fixation","","","","","","","","","","","85","","",""
"revaluation","202","1207699","0.0-4.0-2.0-0.43","spark_pilot_2","7138","8","9","Female","","false","","","","","[1710.2999999998137,1462.7999999998137]","./assets/img/canyon/memory/33.jpg","[""ArrowDown"",""ArrowRight""]","value training","canyon","17","{""ArrowUp,ArrowLeft"":26,""ArrowUp,ArrowRight"":10,""ArrowDown,ArrowLeft"":5,""ArrowDown,ArrowRight"":17}","false","ArrowDown,ArrowRight","false","","","revaluation","1","86","","",""
"html-keyboard-response","203","1208220","0.0-4.0-2.0-1.43","spark_pilot_2","7138","8","9","Female","","","","","","","null","<div style=""font-size:60px;"">+</div>","null","fixation","","","","","","","","","","","87","","",""
"revaluation","204","1214343","0.0-4.0-2.0-0.44","spark_pilot_2","7138","8","9","Female","","false","","","","","[661.8999999999069,858.3000000002794]","./assets/img/canyon/memory/38.jpg","[""ArrowDown"",""ArrowRight""]","value training","canyon","17","{""ArrowUp,ArrowLeft"":26,""ArrowUp,ArrowRight"":10,""ArrowDown,ArrowLeft"":5,""ArrowDown,ArrowRight"":17}","false","ArrowDown,ArrowRight","false","","","revaluation","1","88","","",""
"html-keyboard-response","205","1214857","0.0-4.0-2.0-1.44","spark_pilot_2","7138","8","9","Female","","","","","","","null","<div style=""font-size:60px;"">+</div>","null","fixation","","","","","","","","","","","89","","",""
"revaluation","206","1218993","0.0-4.0-2.0-0.45","spark_pilot_2","7138","8","9","Female","","false","","","","","[883.3999999999069]","./assets/img/canyon/catch/2.jpg","[""ArrowDown""]","value training","canyon","-10","{""ArrowUp,ArrowLeft"":26,""ArrowUp,ArrowRight"":10,""ArrowDown,ArrowLeft"":5,""ArrowDown,ArrowRight"":17}","false","ArrowDown","true","","","revaluation","1","90","","",""
"html-keyboard-response","207","1219513","0.0-4.0-2.0-1.45","spark_pilot_2","7138","8","9","Female","","","","","","","null","<div style=""font-size:60px;"">+</div>","null","fixation","","","","","","","","","","","91","","",""
"revaluation","208","1225651","0.0-4.0-2.0-0.46","spark_pilot_2","7138","8","9","Female","","false","","","","","[1200.2999999998137,965.5]","./assets/img/canyon/memory/13.jpg","[""ArrowDown"",""ArrowRight""]","value training","canyon","17","{""ArrowUp,ArrowLeft"":26,""ArrowUp,ArrowRight"":10,""ArrowDown,ArrowLeft"":5,""ArrowDown,ArrowRight"":17}","false","ArrowDown,ArrowRight","false","","","revaluation","1","92","","",""
"html-keyboard-response","209","1226179","0.0-4.0-2.0-1.46","spark_pilot_2","7138","8","9","Female","","","","","","","null","<div style=""font-size:60px;"">+</div>","null","fixation","","","","","","","","","","","93","","",""
"revaluation","210","1232248","0.0-4.0-2.0-0.47","spark_pilot_2","7138","8","9","Female","","false","","","","","[1766.2999999998137,1062]","./assets/img/canyon/memory/40.jpg","[""ArrowDown"",""ArrowRight""]","value training","canyon","17","{""ArrowUp,ArrowLeft"":26,""ArrowUp,ArrowRight"":10,""ArrowDown,ArrowLeft"":5,""ArrowDown,ArrowRight"":17}","false","ArrowDown,ArrowRight","false","","","revaluation","1","94","","",""
"html-keyboard-response","211","1232770","0.0-4.0-2.0-1.47","spark_pilot_2","7138","8","9","Female","","","","","","","null","<div style=""font-size:60px;"">+</div>","null","fixation","","","","","","","","","","","95","","",""
"revaluation","212","1236937","0.0-4.0-2.0-0.48","spark_pilot_2","7138","8","9","Female","","false","","","","","[855]","./assets/img/canyon/catch/5.jpg","[""spaceBar""]","value training","canyon","0","{""ArrowUp,ArrowLeft"":26,""ArrowUp,ArrowRight"":10,""ArrowDown,ArrowLeft"":5,""ArrowDown,ArrowRight"":17}","true","spaceBar","true","","","revaluation","1","96","","",""
"html-keyboard-response","213","1237456","0.0-4.0-2.0-1.48","spark_pilot_2","7138","8","9","Female","","","","","","","null","<div style=""font-size:60px;"">+</div>","null","fixation","","","","","","","","","","","97","","",""
"revaluation","214","1243541","0.0-4.0-2.0-0.49","spark_pilot_2","7138","8","9","Female","","false","","","","","[1180.6999999997206,1246.2999999998137]","./assets/img/canyon/memory/35.jpg","[""ArrowDown"",""ArrowRight""]","value training","canyon","17","{""ArrowUp,ArrowLeft"":26,""ArrowUp,ArrowRight"":10,""ArrowDown,ArrowLeft"":5,""ArrowDown,ArrowRight"":17}","false","ArrowDown,ArrowRight","false","","","revaluation","1","98","","",""
"html-keyboard-response","215","1244065","0.0-4.0-2.0-1.49","spark_pilot_2","7138","8","9","Female","","","","","","","null","<div style=""font-size:60px;"">+</div>","null","fixation","","","","","","","","","","","99","","",""
"learning-instructions","216","1262443","0.0-4.0-3.0-0.0","spark_pilot_2","7138","8","9","Female","","","","","","","3808.4000000003725","<p> Now, you will travel with a friend who will choose whether you go up or down first. </p>
            <p> On these turns, you will just see the animal that they found. You will still get to choose which chest to search for treasure.</p>","","instructions","","","","","","","","","","","","","",""
"revaluation","217","1266762","0.0-4.0-4.0-0.0","spark_pilot_2","7138","8","9","Female","","false","","","","","[1793.3999999999069]","./assets/img/canyon/animals/giraffe.jpg","[""ArrowRight""]","revaluation","canyon","11","{""ArrowUp,ArrowLeft"":2,""ArrowUp,ArrowRight"":11,""ArrowDown,ArrowLeft"":8,""ArrowDown,ArrowRight"":27}","true","ArrowUp,ArrowRight","","","","revaluation","1","0","","",""
"html-keyboard-response","218","1267312","0.0-4.0-4.0-1.0","spark_pilot_2","7138","8","9","Female","","","","","","","null","<div style=""font-size:60px;"">+</div>","null","fixation","","","","","","","","","","","1","","",""
"revaluation","219","1271383","0.0-4.0-4.0-0.1","spark_pilot_2","7138","8","9","Female","","false","","","","","[1314.1999999997206]","./assets/img/canyon/animals/lion.jpg","[""ArrowRight""]","revaluation","canyon","27","{""ArrowUp,ArrowLeft"":2,""ArrowUp,ArrowRight"":11,""ArrowDown,ArrowLeft"":8,""ArrowDown,ArrowRight"":27}","true","ArrowDown,ArrowRight","","","","revaluation","1","2","","",""
"html-keyboard-response","220","1271899","0.0-4.0-4.0-1.1","spark_pilot_2","7138","8","9","Female","","","","","","","null","<div style=""font-size:60px;"">+</div>","null","fixation","","","","","","","","","","","3","","",""
"revaluation","221","1275983","0.0-4.0-4.0-0.2","spark_pilot_2","7138","8","9","Female","","false","","","","","[960.3000000002794]","./assets/img/canyon/animals/lion.jpg","[""ArrowLeft""]","revaluation","canyon","8","{""ArrowUp,ArrowLeft"":2,""ArrowUp,ArrowRight"":11,""ArrowDown,ArrowLeft"":8,""ArrowDown,ArrowRight"":27}","false","ArrowDown,ArrowLeft","","","","revaluation","1","4","","",""
"html-keyboard-response","222","1276517","0.0-4.0-4.0-1.2","spark_pilot_2","7138","8","9","Female","","","","","","","null","<div style=""font-size:60px;"">+</div>","null","fixation","","","","","","","","","","","5","","",""
"revaluation","223","1280605","0.0-4.0-4.0-0.3","spark_pilot_2","7138","8","9","Female","","false","","","","","[1027.8999999999069]","./assets/img/canyon/animals/lion.jpg","[""ArrowRight""]","revaluation","canyon","27","{""ArrowUp,ArrowLeft"":2,""ArrowUp,ArrowRight"":11,""ArrowDown,ArrowLeft"":8,""ArrowDown,ArrowRight"":27}","true","ArrowDown,ArrowRight","","","","revaluation","1","6","","",""
"html-keyboard-response","224","1281122","0.0-4.0-4.0-1.3","spark_pilot_2","7138","8","9","Female","","","","","","","null","<div style=""font-size:60px;"">+</div>","null","fixation","","","","","","","","","","","7","","",""
"revaluation","225","1285196","0.0-4.0-4.0-0.4","spark_pilot_2","7138","8","9","Female","","true","","","","","[]","./assets/img/canyon/animals/giraffe.jpg","[]","revaluation","canyon","-5","{""ArrowUp,ArrowLeft"":2,""ArrowUp,ArrowRight"":11,""ArrowDown,ArrowLeft"":8,""ArrowDown,ArrowRight"":27}","false","ArrowUp","","","","revaluation","1","8","","",""
"html-keyboard-response","226","1285724","0.0-4.0-4.0-1.4","spark_pilot_2","7138","8","9","Female","","","","","","","null","<div style=""font-size:60px;"">+</div>","null","fixation","","","","","","","","","","","9","","",""
"revaluation","227","1289829","0.0-4.0-4.0-0.5","spark_pilot_2","7138","8","9","Female","","false","","","","","[1049.8999999999069]","./assets/img/canyon/animals/giraffe.jpg","[""ArrowRight""]","revaluation","canyon","11","{""ArrowUp,ArrowLeft"":2,""ArrowUp,ArrowRight"":11,""ArrowDown,ArrowLeft"":8,""ArrowDown,ArrowRight"":27}","true","ArrowUp,ArrowRight","","","","revaluation","1","10","","",""
"html-keyboard-response","228","1290355","0.0-4.0-4.0-1.5","spark_pilot_2","7138","8","9","Female","","","","","","","null","<div style=""font-size:60px;"">+</div>","null","fixation","","","","","","","","","","","11","","",""
"revaluation","229","1294417","0.0-4.0-4.0-0.6","spark_pilot_2","7138","8","9","Female","","false","","","","","[969.1000000000931]","./assets/img/canyon/animals/giraffe.jpg","[""ArrowLeft""]","revaluation","canyon","2","{""ArrowUp,ArrowLeft"":2,""ArrowUp,ArrowRight"":11,""ArrowDown,ArrowLeft"":8,""ArrowDown,ArrowRight"":27}","false","ArrowUp,ArrowLeft","","","","revaluation","1","12","","",""
"html-keyboard-response","230","1294936","0.0-4.0-4.0-1.6","spark_pilot_2","7138","8","9","Female","","","","","","","null","<div style=""font-size:60px;"">+</div>","null","fixation","","","","","","","","","","","13","","",""
"revaluation","231","1299023","0.0-4.0-4.0-0.7","spark_pilot_2","7138","8","9","Female","","false","","","","","[1009.2000000001863]","./assets/img/canyon/animals/giraffe.jpg","[""ArrowRight""]","revaluation","canyon","11","{""ArrowUp,ArrowLeft"":2,""ArrowUp,ArrowRight"":11,""ArrowDown,ArrowLeft"":8,""ArrowDown,ArrowRight"":27}","true","ArrowUp,ArrowRight","","","","revaluation","1","14","","",""
"html-keyboard-response","232","1299547","0.0-4.0-4.0-1.7","spark_pilot_2","7138","8","9","Female","","","","","","","null","<div style=""font-size:60px;"">+</div>","null","fixation","","","","","","","","","","","15","","",""
"revaluation","233","1303661","0.0-4.0-4.0-0.8","spark_pilot_2","7138","8","9","Female","","false","","","","","[555.2999999998137]","./assets/img/canyon/animals/giraffe.jpg","[""ArrowRight""]","revaluation","canyon","11","{""ArrowUp,ArrowLeft"":2,""ArrowUp,ArrowRight"":11,""ArrowDown,ArrowLeft"":8,""ArrowDown,ArrowRight"":27}","true","ArrowUp,ArrowRight","","","","revaluation","1","16","","",""
"html-keyboard-response","234","1304179","0.0-4.0-4.0-1.8","spark_pilot_2","7138","8","9","Female","","","","","","","null","<div style=""font-size:60px;"">+</div>","null","fixation","","","","","","","","","","","17","","",""
"revaluation","235","1308250","0.0-4.0-4.0-0.9","spark_pilot_2","7138","8","9","Female","","false","","","","","[902.6000000000931]","./assets/img/canyon/animals/lion.jpg","[""ArrowRight""]","revaluation","canyon","27","{""ArrowUp,ArrowLeft"":2,""ArrowUp,ArrowRight"":11,""ArrowDown,ArrowLeft"":8,""ArrowDown,ArrowRight"":27}","true","ArrowDown,ArrowRight","","","","revaluation","1","18","","",""
"html-keyboard-response","236","1308767","0.0-4.0-4.0-1.9","spark_pilot_2","7138","8","9","Female","","","","","","","null","<div style=""font-size:60px;"">+</div>","null","fixation","","","","","","","","","","","19","","",""
"revaluation","237","1312819","0.0-4.0-4.0-0.10","spark_pilot_2","7138","8","9","Female","","false","","","","","[876.5]","./assets/img/canyon/animals/giraffe.jpg","[""ArrowRight""]","revaluation","canyon","11","{""ArrowUp,ArrowLeft"":2,""ArrowUp,ArrowRight"":11,""ArrowDown,ArrowLeft"":8,""ArrowDown,ArrowRight"":27}","true","ArrowUp,ArrowRight","","","","revaluation","1","20","","",""
"html-keyboard-response","238","1313334","0.0-4.0-4.0-1.10","spark_pilot_2","7138","8","9","Female","","","","","","","null","<div style=""font-size:60px;"">+</div>","null","fixation","","","","","","","","","","","21","","",""
"revaluation","239","1317393","0.0-4.0-4.0-0.11","spark_pilot_2","7138","8","9","Female","","false","","","","","[1088.5]","./assets/img/canyon/animals/lion.jpg","[""ArrowRight""]","revaluation","canyon","27","{""ArrowUp,ArrowLeft"":2,""ArrowUp,ArrowRight"":11,""ArrowDown,ArrowLeft"":8,""ArrowDown,ArrowRight"":27}","true","ArrowDown,ArrowRight","","","","revaluation","1","22","","",""
"html-keyboard-response","240","1317909","0.0-4.0-4.0-1.11","spark_pilot_2","7138","8","9","Female","","","","","","","null","<div style=""font-size:60px;"">+</div>","null","fixation","","","","","","","","","","","23","","",""
"revaluation","241","1321965","0.0-4.0-4.0-0.12","spark_pilot_2","7138","8","9","Female","","false","","","","","[694.8999999999069]","./assets/img/canyon/animals/giraffe.jpg","[""ArrowRight""]","revaluation","canyon","11","{""ArrowUp,ArrowLeft"":2,""ArrowUp,ArrowRight"":11,""ArrowDown,ArrowLeft"":8,""ArrowDown,ArrowRight"":27}","true","ArrowUp,ArrowRight","","","","revaluation","1","24","","",""
"html-keyboard-response","242","1322496","0.0-4.0-4.0-1.12","spark_pilot_2","7138","8","9","Female","","","","","","","null","<div style=""font-size:60px;"">+</div>","null","fixation","","","","","","","","","","","25","","",""
"revaluation","243","1326564","0.0-4.0-4.0-0.13","spark_pilot_2","7138","8","9","Female","","false","","","","","[548.6999999997206]","./assets/img/canyon/animals/lion.jpg","[""ArrowRight""]","revaluation","canyon","27","{""ArrowUp,ArrowLeft"":2,""ArrowUp,ArrowRight"":11,""ArrowDown,ArrowLeft"":8,""ArrowDown,ArrowRight"":27}","true","ArrowDown,ArrowRight","","","","revaluation","1","26","","",""
"html-keyboard-response","244","1327090","0.0-4.0-4.0-1.13","spark_pilot_2","7138","8","9","Female","","","","","","","null","<div style=""font-size:60px;"">+</div>","null","fixation","","","","","","","","","","","27","","",""
"revaluation","245","1331152","0.0-4.0-4.0-0.14","spark_pilot_2","7138","8","9","Female","","false","","","","","[604.7000000001863]","./assets/img/canyon/animals/giraffe.jpg","[""ArrowRight""]","revaluation","canyon","11","{""ArrowUp,ArrowLeft"":2,""ArrowUp,ArrowRight"":11,""ArrowDown,ArrowLeft"":8,""ArrowDown,ArrowRight"":27}","true","ArrowUp,ArrowRight","","","","revaluation","1","28","","",""
"html-keyboard-response","246","1331679","0.0-4.0-4.0-1.14","spark_pilot_2","7138","8","9","Female","","","","","","","null","<div style=""font-size:60px;"">+</div>","null","fixation","","","","","","","","","","","29","","",""
"revaluation","247","1335773","0.0-4.0-4.0-0.15","spark_pilot_2","7138","8","9","Female","","false","","","","","[696.8999999999069]","./assets/img/canyon/animals/lion.jpg","[""ArrowRight""]","revaluation","canyon","27","{""ArrowUp,ArrowLeft"":2,""ArrowUp,ArrowRight"":11,""ArrowDown,ArrowLeft"":8,""ArrowDown,ArrowRight"":27}","true","ArrowDown,ArrowRight","","","","revaluation","1","30","","",""
"html-keyboard-response","248","1336290","0.0-4.0-4.0-1.15","spark_pilot_2","7138","8","9","Female","","","","","","","null","<div style=""font-size:60px;"">+</div>","null","fixation","","","","","","","","","","","31","","",""
"revaluation","249","1340346","0.0-4.0-4.0-0.16","spark_pilot_2","7138","8","9","Female","","false","","","","","[651.7999999998137]","./assets/img/canyon/animals/lion.jpg","[""ArrowRight""]","revaluation","canyon","27","{""ArrowUp,ArrowLeft"":2,""ArrowUp,ArrowRight"":11,""ArrowDown,ArrowLeft"":8,""ArrowDown,ArrowRight"":27}","true","ArrowDown,ArrowRight","","","","revaluation","1","32","","",""
"html-keyboard-response","250","1340865","0.0-4.0-4.0-1.16","spark_pilot_2","7138","8","9","Female","","","","","","","null","<div style=""font-size:60px;"">+</div>","null","fixation","","","","","","","","","","","33","","",""
"revaluation","251","1344931","0.0-4.0-4.0-0.17","spark_pilot_2","7138","8","9","Female","","false","","","","","[650.9000000003725]","./assets/img/canyon/animals/lion.jpg","[""ArrowRight""]","revaluation","canyon","27","{""ArrowUp,ArrowLeft"":2,""ArrowUp,ArrowRight"":11,""ArrowDown,ArrowLeft"":8,""ArrowDown,ArrowRight"":27}","true","ArrowDown,ArrowRight","","","","revaluation","1","34","","",""
"html-keyboard-response","252","1345449","0.0-4.0-4.0-1.17","spark_pilot_2","7138","8","9","Female","","","","","","","null","<div style=""font-size:60px;"">+</div>","null","fixation","","","","","","","","","","","35","","",""
"learning-instructions","253","1360530","0.0-4.0-5.0-0.0","spark_pilot_2","7138","8","9","Female","","","","","","","1568.5","<p> Time to play the dot game! </p>
            <p> For one minute, click the red dots on the following screen as they appear. </p>
            <p><b> Don't look away, as you will earn bonus for clicking dots</b>. </p>","","instructions","","","","","","","","","","","","","",""
"revaluation","254","1420583","0.0-4.0-6.0-0.0","spark_pilot_2","7138","8","9","Female","","","","","","","[88,65,65,69,61,76]","","","rest","","60","","","","","0","60000","","","","","",""
"learning-instructions","255","1429854","0.0-4.0-7.0-0.0","spark_pilot_2","7138","8","9","Female","","","","","","","2802","<p> You have almost finished this part of the game! </p>
            <p> We are going to ask you to make a few more choices. </p>","","instructions","","","","","","","","","","","","","",""
"learning-instructions","256","1445491","0.0-4.0-7.0-0.1","spark_pilot_2","7138","8","9","Female","","","","","","","1636.7999999998137","<p> First, you need to decide whether to go up or down. When you see each picture, use the arrow keys to make your choice. </p>
            <p><b>You will not see which animal you found, but try to get to the one that will give you the most treasure.</b></p>","","instructions","","","","","","","","","","","","","",""
"revaluation","257","1447048","0.0-4.0-8.0-0.0","spark_pilot_2","7138","8","9","Female","","false","","","","","[1483.1000000000931]","./assets/img/canyon/test/2.jpg","[""ArrowUp""]","first stage test","canyon","0","{""ArrowUp,ArrowLeft"":2,""ArrowUp,ArrowRight"":11,""ArrowDown,ArrowLeft"":8,""ArrowDown,ArrowRight"":27}","false","ArrowUp","false","","","revaluation","1","","","",""
"html-keyboard-response","258","1447564","0.0-4.0-8.0-1.0","spark_pilot_2","7138","8","9","Female","","","","","","","null","<div style=""font-size:60px;"">+</div>","null","fixation","","","","","","","","","","","","","",""
"revaluation","259","1451015","0.0-4.0-8.0-0.1","spark_pilot_2","7138","8","9","Female","","false","","","","","[3371.399999999907]","./assets/img/canyon/test/3.jpg","[""ArrowUp""]","first stage test","canyon","0","{""ArrowUp,ArrowLeft"":2,""ArrowUp,ArrowRight"":11,""ArrowDown,ArrowLeft"":8,""ArrowDown,ArrowRight"":27}","false","ArrowUp","false","","","revaluation","1","","","",""
"html-keyboard-response","260","1451527","0.0-4.0-8.0-1.1","spark_pilot_2","7138","8","9","Female","","","","","","","null","<div style=""font-size:60px;"">+</div>","null","fixation","","","","","","","","","","","","","",""
"revaluation","261","1452883","0.0-4.0-8.0-0.2","spark_pilot_2","7138","8","9","Female","","false","","","","","[1311.6999999997206]","./assets/img/canyon/test/1.jpg","[""ArrowDown""]","first stage test","canyon","0","{""ArrowUp,ArrowLeft"":2,""ArrowUp,ArrowRight"":11,""ArrowDown,ArrowLeft"":8,""ArrowDown,ArrowRight"":27}","true","ArrowDown","false","","","revaluation","1","","","",""
"html-keyboard-response","262","1453400","0.0-4.0-8.0-1.2","spark_pilot_2","7138","8","9","Female","","","","","","","null","<div style=""font-size:60px;"">+</div>","null","fixation","","","","","","","","","","","","","",""
"revaluation","263","1454556","0.0-4.0-8.0-0.3","spark_pilot_2","7138","8","9","Female","","false","","","","","[1105.6000000000931]","./assets/img/canyon/test/0.jpg","[""ArrowUp""]","first stage test","canyon","0","{""ArrowUp,ArrowLeft"":2,""ArrowUp,ArrowRight"":11,""ArrowDown,ArrowLeft"":8,""ArrowDown,ArrowRight"":27}","false","ArrowUp","false","","","revaluation","1","","","",""
"html-keyboard-response","264","1455067","0.0-4.0-8.0-1.3","spark_pilot_2","7138","8","9","Female","","","","","","","null","<div style=""font-size:60px;"">+</div>","null","fixation","","","","","","","","","","","","","",""
"learning-instructions","265","1468151","0.0-4.0-9.0-0.0","spark_pilot_2","7138","8","9","Female","","","","","","","1728.7999999998137","<p> Now you will see the animals again and can search their chests for treasure. </p>
            <p> This time, you will not see how much treasure you earned, but you will earn more bonus money for making better choices. </p>","","instructions","","","","","","","","","","","","","",""
"revaluation","266","1470428","0.0-4.0-10.0-0.0","spark_pilot_2","7138","8","9","Female","","false","","","","","[2250.600000000093]","./assets/img/canyon/animals/giraffe.jpg","[""ArrowRight""]","second stage test","canyon","0","{""ArrowUp,ArrowLeft"":2,""ArrowUp,ArrowRight"":11,""ArrowDown,ArrowLeft"":8,""ArrowDown,ArrowRight"":27}","true","ArrowUp,ArrowRight","","","","revaluation","1","","","",""
"html-keyboard-response","267","1470949","0.0-4.0-10.0-1.0","spark_pilot_2","7138","8","9","Female","","","","","","","null","<div style=""font-size:60px;"">+</div>","null","fixation","","","","","","","","","","","","","",""
"revaluation","268","1471720","0.0-4.0-10.0-0.1","spark_pilot_2","7138","8","9","Female","","false","","","","","[726.7999999998137]","./assets/img/canyon/animals/giraffe.jpg","[""ArrowRight""]","second stage test","canyon","0","{""ArrowUp,ArrowLeft"":2,""ArrowUp,ArrowRight"":11,""ArrowDown,ArrowLeft"":8,""ArrowDown,ArrowRight"":27}","true","ArrowUp,ArrowRight","","","","revaluation","1","","","",""
"html-keyboard-response","269","1472231","0.0-4.0-10.0-1.1","spark_pilot_2","7138","8","9","Female","","","","","","","null","<div style=""font-size:60px;"">+</div>","null","fixation","","","","","","","","","","","","","",""
"revaluation","270","1472636","0.0-4.0-10.0-0.2","spark_pilot_2","7138","8","9","Female","","false","","","","","[345.60000000009313]","./assets/img/canyon/animals/giraffe.jpg","[""ArrowRight""]","second stage test","canyon","0","{""ArrowUp,ArrowLeft"":2,""ArrowUp,ArrowRight"":11,""ArrowDown,ArrowLeft"":8,""ArrowDown,ArrowRight"":27}","true","ArrowUp,ArrowRight","","","","revaluation","1","","","",""
"html-keyboard-response","271","1473151","0.0-4.0-10.0-1.2","spark_pilot_2","7138","8","9","Female","","","","","","","null","<div style=""font-size:60px;"">+</div>","null","fixation","","","","","","","","","","","","","",""
"revaluation","272","1473500","0.0-4.0-10.0-0.3","spark_pilot_2","7138","8","9","Female","","false","","","","","[304.6999999997206]","./assets/img/canyon/animals/giraffe.jpg","[""ArrowRight""]","second stage test","canyon","0","{""ArrowUp,ArrowLeft"":2,""ArrowUp,ArrowRight"":11,""ArrowDown,ArrowLeft"":8,""ArrowDown,ArrowRight"":27}","true","ArrowUp,ArrowRight","","","","revaluation","1","","","",""
"html-keyboard-response","273","1474035","0.0-4.0-10.0-1.3","spark_pilot_2","7138","8","9","Female","","","","","","","null","<div style=""font-size:60px;"">+</div>","null","fixation","","","","","","","","","","","","","",""
"revaluation","274","1475057","0.0-4.0-10.0-0.4","spark_pilot_2","7138","8","9","Female","","false","","","","","[983.8000000002794]","./assets/img/canyon/animals/lion.jpg","[""ArrowRight""]","second stage test","canyon","0","{""ArrowUp,ArrowLeft"":2,""ArrowUp,ArrowRight"":11,""ArrowDown,ArrowLeft"":8,""ArrowDown,ArrowRight"":27}","true","ArrowDown,ArrowRight","","","","revaluation","1","","","",""
"html-keyboard-response","275","1475569","0.0-4.0-10.0-1.4","spark_pilot_2","7138","8","9","Female","","","","","","","null","<div style=""font-size:60px;"">+</div>","null","fixation","","","","","","","","","","","","","",""
"revaluation","276","1476432","0.0-4.0-10.0-0.5","spark_pilot_2","7138","8","9","Female","","false","","","","","[812.9000000003725]","./assets/img/canyon/animals/lion.jpg","[""ArrowRight""]","second stage test","canyon","0","{""ArrowUp,ArrowLeft"":2,""ArrowUp,ArrowRight"":11,""ArrowDown,ArrowLeft"":8,""ArrowDown,ArrowRight"":27}","true","ArrowDown,ArrowRight","","","","revaluation","1","","","",""
"html-keyboard-response","277","1476946","0.0-4.0-10.0-1.5","spark_pilot_2","7138","8","9","Female","","","","","","","null","<div style=""font-size:60px;"">+</div>","null","fixation","","","","","","","","","","","","","",""
"revaluation","278","1477376","0.0-4.0-10.0-0.6","spark_pilot_2","7138","8","9","Female","","false","","","","","[384.6999999997206]","./assets/img/canyon/animals/lion.jpg","[""ArrowRight""]","second stage test","canyon","0","{""ArrowUp,ArrowLeft"":2,""ArrowUp,ArrowRight"":11,""ArrowDown,ArrowLeft"":8,""ArrowDown,ArrowRight"":27}","true","ArrowDown,ArrowRight","","","","revaluation","1","","","",""
"html-keyboard-response","279","1477888","0.0-4.0-10.0-1.6","spark_pilot_2","7138","8","9","Female","","","","","","","null","<div style=""font-size:60px;"">+</div>","null","fixation","","","","","","","","","","","","","",""
"revaluation","280","1478241","0.0-4.0-10.0-0.7","spark_pilot_2","7138","8","9","Female","","false","","","","","[303]","./assets/img/canyon/animals/lion.jpg","[""ArrowRight""]","second stage test","canyon","0","{""ArrowUp,ArrowLeft"":2,""ArrowUp,ArrowRight"":11,""ArrowDown,ArrowLeft"":8,""ArrowDown,ArrowRight"":27}","true","ArrowDown,ArrowRight","","","","revaluation","1","","","",""
"html-keyboard-response","281","1478754","0.0-4.0-10.0-1.7","spark_pilot_2","7138","8","9","Female","","","","","","","null","<div style=""font-size:60px;"">+</div>","null","fixation","","","","","","","","","","","","","",""
"learning-instructions","282","1483444","0.0-4.0-0.1-0.2","spark_pilot_2","7138","8","9","Female","","","","","","","1655.3999999999069","<p> This time you are searching for treasure in the <b>ocean</b>.</p>","","instructions","","","","","","","","","","","","","",""
"learning-instructions","283","1503903","0.0-4.0-0.1-0.3","spark_pilot_2","7138","8","9","Female","","","","","","","3188","<p><b>New</b> animals with <b>new</b> treasure chests live here. You need to explore to discover where the animal with the best treasure chest is.</p>
                    <p> Like before, once you figure out which animal has the chest with the most treasure, you should try to get to that animal and select that chest! </p>","","instructions","","","","","","","","","","","","","",""
"learning-instructions","284","1520559","0.0-4.0-1.1-0.1","spark_pilot_2","7138","8","9","Female","","","","","","","1887.5","<p> Remember, when you see a picture of the place, use the up and down keys to <b>find an animal</b>.</p>
            <p> When you encounter an animal, you should use the left and right keys to <b>select a treasure chest</b>.</p>
            <p> Don't forget to look out for the robber! </p>","","instructions","","","","","","","","","","","","","",""
"revaluation","285","1526638","0.0-4.0-2.1-0.50","spark_pilot_2","7138","8","9","Female","","true","","","","","[1421.6000000000931]","./assets/img/ocean/memory/8.jpg","[""ArrowUp""]","value training","ocean","-5","{""ArrowUp,ArrowLeft"":23,""ArrowUp,ArrowRight"":10,""ArrowDown,ArrowLeft"":8,""ArrowDown,ArrowRight"":30}","false","ArrowUp","false","","","original","2","0","","",""
"html-keyboard-response","286","1527169","0.0-4.0-2.1-1.50","spark_pilot_2","7138","8","9","Female","","","","","","","null","<div style=""font-size:60px;"">+</div>","null","fixation","","","","","","","","","","","1","","",""
"revaluation","287","1533278","0.0-4.0-2.1-0.51","spark_pilot_2","7138","8","9","Female","","false","","","","","[327,316.8000000002794]","./assets/img/ocean/memory/24.jpg","[""ArrowUp"",""ArrowRight""]","value training","ocean","10","{""ArrowUp,ArrowLeft"":23,""ArrowUp,ArrowRight"":10,""ArrowDown,ArrowLeft"":8,""ArrowDown,ArrowRight"":30}","false","ArrowUp,ArrowRight","false","","","original","2","2","","",""
"html-keyboard-response","288","1533789","0.0-4.0-2.1-1.51","spark_pilot_2","7138","8","9","Female","","","","","","","null","<div style=""font-size:60px;"">+</div>","null","fixation","","","","","","","","","","","3","","",""
"revaluation","289","1537879","0.0-4.0-2.1-0.52","spark_pilot_2","7138","8","9","Female","","false","","","","","[726.8999999999069]","./assets/img/ocean/catch/6.jpg","[""spaceBar""]","value training","ocean","0","{""ArrowUp,ArrowLeft"":23,""ArrowUp,ArrowRight"":10,""ArrowDown,ArrowLeft"":8,""ArrowDown,ArrowRight"":30}","true","spaceBar","true","","","original","2","4","","",""
"html-keyboard-response","290","1538402","0.0-4.0-2.1-1.52","spark_pilot_2","7138","8","9","Female","","","","","","","null","<div style=""font-size:60px;"">+</div>","null","fixation","","","","","","","","","","","5","","",""
"revaluation","291","1544505","0.0-4.0-2.1-0.53","spark_pilot_2","7138","8","9","Female","","false","","","","","[773.7000000001863,1556.8999999999069]","./assets/img/ocean/memory/3.jpg","[""ArrowDown"",""ArrowRight""]","value training","ocean","30","{""ArrowUp,ArrowLeft"":23,""ArrowUp,ArrowRight"":10,""ArrowDown,ArrowLeft"":8,""ArrowDown,ArrowRight"":30}","true","ArrowDown,ArrowRight","false","","","original","2","6","","",""
"html-keyboard-response","292","1545029","0.0-4.0-2.1-1.53","spark_pilot_2","7138","8","9","Female","","","","","","","null","<div style=""font-size:60px;"">+</div>","null","fixation","","","","","","","","","","","7","","",""
"revaluation","293","1551170","0.0-4.0-2.1-0.54","spark_pilot_2","7138","8","9","Female","","false","","","","","[1911,668.5]","./assets/img/ocean/memory/19.jpg","[""ArrowDown"",""ArrowRight""]","value training","ocean","30","{""ArrowUp,ArrowLeft"":23,""ArrowUp,ArrowRight"":10,""ArrowDown,ArrowLeft"":8,""ArrowDown,ArrowRight"":30}","true","ArrowDown,ArrowRight","false","","","original","2","8","","",""
"html-keyboard-response","294","1551696","0.0-4.0-2.1-1.54","spark_pilot_2","7138","8","9","Female","","","","","","","null","<div style=""font-size:60px;"">+</div>","null","fixation","","","","","","","","","","","9","","",""
"revaluation","295","1557763","0.0-4.0-2.1-0.55","spark_pilot_2","7138","8","9","Female","","false","","","","","[793,472.5]","./assets/img/ocean/memory/24.jpg","[""ArrowDown"",""ArrowRight""]","value training","ocean","30","{""ArrowUp,ArrowLeft"":23,""ArrowUp,ArrowRight"":10,""ArrowDown,ArrowLeft"":8,""ArrowDown,ArrowRight"":30}","true","ArrowDown,ArrowRight","false","","","original","2","10","","",""
"html-keyboard-response","296","1558291","0.0-4.0-2.1-1.55","spark_pilot_2","7138","8","9","Female","","","","","","","null","<div style=""font-size:60px;"">+</div>","null","fixation","","","","","","","","","","","11","","",""
"revaluation","297","1564343","0.0-4.0-2.1-0.56","spark_pilot_2","7138","8","9","Female","","false","","","","","[518.5,829.6000000000931]","./assets/img/ocean/memory/23.jpg","[""ArrowDown"",""ArrowRight""]","value training","ocean","30","{""ArrowUp,ArrowLeft"":23,""ArrowUp,ArrowRight"":10,""ArrowDown,ArrowLeft"":8,""ArrowDown,ArrowRight"":30}","true","ArrowDown,ArrowRight","false","","","original","2","12","","",""
"html-keyboard-response","298","1564865","0.0-4.0-2.1-1.56","spark_pilot_2","7138","8","9","Female","","","","","","","null","<div style=""font-size:60px;"">+</div>","null","fixation","","","","","","","","","","","13","","",""
"revaluation","299","1571003","0.0-4.0-2.1-0.57","spark_pilot_2","7138","8","9","Female","","false","","","","","[524.9000000003725,981.2999999998137]","./assets/img/ocean/memory/26.jpg","[""ArrowDown"",""ArrowRight""]","value training","ocean","30","{""ArrowUp,ArrowLeft"":23,""ArrowUp,ArrowRight"":10,""ArrowDown,ArrowLeft"":8,""ArrowDown,ArrowRight"":30}","true","ArrowDown,ArrowRight","false","","","original","2","14","","",""
"html-keyboard-response","300","1571522","0.0-4.0-2.1-1.57","spark_pilot_2","7138","8","9","Female","","","","","","","null","<div style=""font-size:60px;"">+</div>","null","fixation","","","","","","","","","","","15","","",""
"revaluation","301","1577600","0.0-4.0-2.1-0.58","spark_pilot_2","7138","8","9","Female","","false","","","","","[703.8999999999069,1243.8000000002794]","./assets/img/ocean/memory/41.jpg","[""ArrowDown"",""ArrowRight""]","value training","ocean","30","{""ArrowUp,ArrowLeft"":23,""ArrowUp,ArrowRight"":10,""ArrowDown,ArrowLeft"":8,""ArrowDown,ArrowRight"":30}","true","ArrowDown,ArrowRight","false","","","original","2","16","","",""
"html-keyboard-response","302","1578138","0.0-4.0-2.1-1.58","spark_pilot_2","7138","8","9","Female","","","","","","","null","<div style=""font-size:60px;"">+</div>","null","fixation","","","","","","","","","","","17","","",""
"revaluation","303","1584274","0.0-4.0-2.1-0.59","spark_pilot_2","7138","8","9","Female","","false","","","","","[591.0999999996275,944.7000000001863]","./assets/img/ocean/memory/34.jpg","[""ArrowDown"",""ArrowRight""]","value training","ocean","30","{""ArrowUp,ArrowLeft"":23,""ArrowUp,ArrowRight"":10,""ArrowDown,ArrowLeft"":8,""ArrowDown,ArrowRight"":30}","true","ArrowDown,ArrowRight","false","","","original","2","18","","",""
"html-keyboard-response","304","1584802","0.0-4.0-2.1-1.59","spark_pilot_2","7138","8","9","Female","","","","","","","null","<div style=""font-size:60px;"">+</div>","null","fixation","","","","","","","","","","","19","","",""
"revaluation","305","1590879","0.0-4.0-2.1-0.60","spark_pilot_2","7138","8","9","Female","","false","","","","","[1399.3999999999069,692.8999999999069]","./assets/img/ocean/memory/29.jpg","[""ArrowDown"",""ArrowRight""]","value training","ocean","30","{""ArrowUp,ArrowLeft"":23,""ArrowUp,ArrowRight"":10,""ArrowDown,ArrowLeft"":8,""ArrowDown,ArrowRight"":30}","true","ArrowDown,ArrowRight","false","","","original","2","20","","",""
"html-keyboard-response","306","1591398","0.0-4.0-2.1-1.60","spark_pilot_2","7138","8","9","Female","","","","","","","null","<div style=""font-size:60px;"">+</div>","null","fixation","","","","","","","","","","","21","","",""
