"trial_type","trial_index","time_elapsed","internal_node_id","task_version","subject_id","assigned_condition","age","gender","success","timeout","failed_images","failed_audio","failed_video","browser_interaction","rt","stimulus","response","task_part","environment","score","rewardMap","correct","fullState","isCatch","numberMissed","duration","condition","order","trial_num","key_press","ground_truth","bonus"
"pavlovia","0","1131","0.0-0.0","spark_pilot_2","7110","5","8","Male","","","","","","","","","","","","","","","","","","","","","","","",""
"preload","1","18145","0.0-1.0","spark_pilot_2","7110","5","8","Male","true","false","[]","[]","[]","[{""event"":""fullscreenenter"",""trial"":2,""time"":22145}]","","","","","","","","","","","","","","","","","",""
"fullscreen","2","23113","0.0-2.0","spark_pilot_2","7110","5","8","Male","true","","","","","","","","","","","","","","","","","","","","","","",""
"audio-button-response","3","25576","0.0-3.0-0.0-0.0","spark_pilot_2","7110","5","8","Male","","","","","","","2160","./assets/audio/audiotest/turtle.mp3","2","audio_test","","","","","","","","","","","","","",""
"learning-instructions","4","34488","0.0-3.0-1.0-0.0","spark_pilot_2","7110","5","8","Male","","","","","","","1870.8999998569489","<p> Welcome! Please remember to stay in fullscreen mode and don't click away from the experiment. </p>","","instructions","","","","","","","","","","","","","",""
"learning-instructions","5","45531","0.0-3.0-1.0-0.1","spark_pilot_2","7110","5","8","Male","","","","","","","2624.100000143051","<p> Today you will be playing a game to earn treasure. </p>
            <p> At the end of the experiment, you will earn a bonus based on how much treasure you find. </p>
            <img src='./assets/img/instructions/treasure.jpg' class='instructions-image'>","","instructions","","","","","","","","","","","","","",""
"learning-instructions","6","56236","0.0-3.0-1.0-0.2","spark_pilot_2","7110","5","8","Male","","","","","","","2437.7000000476837","<p> Animals have hidden treasure in treasure chests. </p>
            <p> You need to first find an animal and then choose which of their treasure chests to search. </p>
            <img src='./assets/img/space/animals/cat.jpg' class='instructions-image'>","","instructions","","","","","","","","","","","","","",""
"learning-instructions","7","71715","0.0-3.0-1.0-0.3","spark_pilot_2","7110","5","8","Male","","","","","","","2317.800000190735","<p> In each round, you will search for treasure in a different place. In the real game, there will be two rounds. </p>
            <p> You will begin with a separate, practice round where you will search for treasure in outer space. </p>
            <img src='./assets/img/space/0.jpg' class='instructions-image'>","","instructions","","","","","","","","","","","","","",""
"learning-instructions","8","84579","0.0-3.0-1.0-0.4","spark_pilot_2","7110","5","8","Male","","","","","","","1431.8999998569489","<p> On every turn, you will see a picture of the place that you are in, but the specific image may be different each time. </p>
            <p> For example, both of these images mean you are in outer space. </p>
            <img src='./assets/img/instructions/outerspace.jpg' class='instructions-image'>","","instructions","","","","","","","","","","","","","",""
"learning-instructions","9","95233","0.0-3.0-1.0-0.5","spark_pilot_2","7110","5","8","Male","","","","","","","2815","<p> You need to decide which direction to travel in. </p>
            <p> You can choose between going <b>up or down</b> by using the arrow keys. </p>
            <img src='./assets/img/instructions/updown.jpg' class='instructions-image'>","","instructions","","","","","","","","","","","","","",""
"learning-instructions","10","105192","0.0-3.0-1.0-0.6","spark_pilot_2","7110","5","8","Male","","","","","","","1124.2000000476837","<p> You will have <b>2 seconds</b> to make your choice. </p>
            <p> If you do not make a choice within 2 seconds, you will not find an animal or earn treasure. </p>
            <img src='./assets/img/instructions/2seconds.jpg' class='instructions-image'>","","instructions","","","","","","","","","","","","","",""
"learning-instructions","11","115603","0.0-3.0-1.0-0.7","spark_pilot_2","7110","5","8","Male","","","","","","","3365.2000000476837","<p> Let’s try practicing that now! </p>
            <p> When you see a picture of the place you are in, press the <b>up</b> key to travel up. </p>
            <img src='./assets/img/instructions/pressUp.jpg' class='instructions-image'>","","instructions","","","","","","","","","","","","","",""
"revaluation","12","119651","0.0-3.0-2.0-0.0","spark_pilot_2","7110","5","8","Male","","false","","","","","[887.7999999523163]","./assets/img/space/0.jpg","[""ArrowUp""]","first stage practice","space","0","null","null","ArrowUp","false","","","","","","","",""
"html-keyboard-response","13","120164","0.0-3.0-2.0-1.0","spark_pilot_2","7110","5","8","Male","","","","","","","null","<div style=""font-size:60px;"">+</div>","null","fixation","","","","","","","","","","","","","",""
"revaluation","14","124184","0.0-3.0-2.0-0.1","spark_pilot_2","7110","5","8","Male","","true","","","","","[]","./assets/img/space/1.jpg","[]","first stage practice","space","-5","null","null","","false","","","","","","","",""
"html-keyboard-response","15","124704","0.0-3.0-2.0-1.1","spark_pilot_2","7110","5","8","Male","","","","","","","null","<div style=""font-size:60px;"">+</div>","null","fixation","","","","","","","","","","","","","",""
"revaluation","16","128745","0.0-3.0-2.0-0.2","spark_pilot_2","7110","5","8","Male","","false","","","","","[808.2000000476837]","./assets/img/space/2.jpg","[""ArrowUp""]","first stage practice","space","0","null","null","ArrowUp","false","","","","","","","",""
"html-keyboard-response","17","129254","0.0-3.0-2.0-1.2","spark_pilot_2","7110","5","8","Male","","","","","","","null","<div style=""font-size:60px;"">+</div>","null","fixation","","","","","","","","","","","","","",""
"learning-instructions","18","137032","0.0-3.0-3.0-0.0","spark_pilot_2","7110","5","8","Male","","","","","","","3054.5","<p> Great job! Now try pressing the <b>down</b> key to travel down. </p>
            <img src='./assets/img/instructions/pressDown.jpg' class='instructions-image'>","","instructions","","","","","","","","","","","","","",""
"revaluation","19","141055","0.0-3.0-4.0-0.0","spark_pilot_2","7110","5","8","Male","","false","","","","","[660.0999999046326]","./assets/img/space/3.jpg","[""ArrowDown""]","first stage practice","space","0","null","null","ArrowDown","false","","","","","","","",""
"html-keyboard-response","20","141573","0.0-3.0-4.0-1.0","spark_pilot_2","7110","5","8","Male","","","","","","","null","<div style=""font-size:60px;"">+</div>","null","fixation","","","","","","","","","","","","","",""
"revaluation","21","145614","0.0-3.0-4.0-0.1","spark_pilot_2","7110","5","8","Male","","false","","","","","[265.5]","./assets/img/space/4.jpg","[""ArrowDown""]","first stage practice","space","0","null","null","ArrowDown","false","","","","","","","",""
"html-keyboard-response","22","146124","0.0-3.0-4.0-1.1","spark_pilot_2","7110","5","8","Male","","","","","","","null","<div style=""font-size:60px;"">+</div>","null","fixation","","","","","","","","","","","","","",""
"revaluation","23","150139","0.0-3.0-4.0-0.2","spark_pilot_2","7110","5","8","Male","","false","","","","","[289.5]","./assets/img/space/5.jpg","[""ArrowDown""]","first stage practice","space","0","null","null","ArrowDown","false","","","","","","","",""
"html-keyboard-response","24","150643","0.0-3.0-4.0-1.2","spark_pilot_2","7110","5","8","Male","","","","","","","null","<div style=""font-size:60px;"">+</div>","null","fixation","","","","","","","","","","","","","",""
"learning-instructions","25","161825","0.0-3.0-5.0-0.0","spark_pilot_2","7110","5","8","Male","","","","","","","1319","<p> The animals don’t move, so the animal in the upper part of a place will stay in the upper part of a place, and the animal in the lower part of a place will stay in the lower part of a place. </p>","","instructions","","","","","","","","","","","","","",""
"learning-instructions","26","172288","0.0-3.0-5.0-0.1","spark_pilot_2","7110","5","8","Male","","","","","","","1311.9000000953674","<p> Each animal has two treasure chests for you to choose from. </p>
            <p> The amount of treasure in each chest can range from <b> 0 to 40 pieces.</b></p>","","instructions","","","","","","","","","","","","","",""
"learning-instructions","27","184751","0.0-3.0-5.0-0.2","spark_pilot_2","7110","5","8","Male","","","","","","","1254.7999999523163","<p> You should decide which chest to search for treasure by using the <b>left</b> and <b>right</b> arrow keys. </p>
            <p><b> Pay attention to which animal is on the screen, as the animals have different treasure chests. </b></p>
            <img src='./assets/img/instructions/leftright.jpg' class='instructions-image'>","","instructions","","","","","","","","","","","","","",""
"learning-instructions","28","192645","0.0-3.0-5.0-0.3","spark_pilot_2","7110","5","8","Male","","","","","","","1529.2999999523163","<p> Let’s try practicing that now. </p>
            <p> When you see an animal, choose which chest to search for treasure. </p>
            <img src='./assets/img/instructions/chooseChest.jpg' class='instructions-image'>","","instructions","","","","","","","","","","","","","",""
"revaluation","29","196669","0.0-3.0-6.0-0.0","spark_pilot_2","7110","5","8","Male","","false","","","","","[881.4000000953674]","./assets/img/space/animals/rabbit.jpg","[""ArrowLeft""]","second stage practice","space","15","{""ArrowUp,ArrowLeft"":3,""ArrowUp,ArrowRight"":36,""ArrowDown,ArrowLeft"":15,""ArrowDown,ArrowRight"":23}","false","ArrowDown,ArrowLeft","","","","","","","","",""
"html-keyboard-response","30","197183","0.0-3.0-6.0-1.0","spark_pilot_2","7110","5","8","Male","","","","","","","null","<div style=""font-size:60px;"">+</div>","null","fixation","","","","","","","","","","","","","",""
"revaluation","31","201200","0.0-3.0-6.0-0.1","spark_pilot_2","7110","5","8","Male","","false","","","","","[477.5]","./assets/img/space/animals/cat.jpg","[""ArrowRight""]","second stage practice","space","36","{""ArrowUp,ArrowLeft"":3,""ArrowUp,ArrowRight"":36,""ArrowDown,ArrowLeft"":15,""ArrowDown,ArrowRight"":23}","true","ArrowUp,ArrowRight","","","","","","","","",""
"html-keyboard-response","32","201702","0.0-3.0-6.0-1.1","spark_pilot_2","7110","5","8","Male","","","","","","","null","<div style=""font-size:60px;"">+</div>","null","fixation","","","","","","","","","","","","","",""
"revaluation","33","205724","0.0-3.0-6.0-0.2","spark_pilot_2","7110","5","8","Male","","false","","","","","[536.7000000476837]","./assets/img/space/animals/cat.jpg","[""ArrowLeft""]","second stage practice","space","3","{""ArrowUp,ArrowLeft"":3,""ArrowUp,ArrowRight"":36,""ArrowDown,ArrowLeft"":15,""ArrowDown,ArrowRight"":23}","false","ArrowUp,ArrowLeft","","","","","","","","",""
"html-keyboard-response","34","206243","0.0-3.0-6.0-1.2","spark_pilot_2","7110","5","8","Male","","","","","","","null","<div style=""font-size:60px;"">+</div>","null","fixation","","","","","","","","","","","","","",""
"revaluation","35","210284","0.0-3.0-6.0-0.3","spark_pilot_2","7110","5","8","Male","","false","","","","","[548.2999999523163]","./assets/img/space/animals/rabbit.jpg","[""ArrowLeft""]","second stage practice","space","15","{""ArrowUp,ArrowLeft"":3,""ArrowUp,ArrowRight"":36,""ArrowDown,ArrowLeft"":15,""ArrowDown,ArrowRight"":23}","false","ArrowDown,ArrowLeft","","","","","","","","",""
"html-keyboard-response","36","210803","0.0-3.0-6.0-1.3","spark_pilot_2","7110","5","8","Male","","","","","","","null","<div style=""font-size:60px;"">+</div>","null","fixation","","","","","","","","","","","","","",""
"learning-instructions","37","228626","0.0-3.0-7.0-0.0","spark_pilot_2","7110","5","8","Male","","","","","","","989.5","<p> Great job. Now let’s try putting it together. </p>
            <p> On each turn, you will first see a picture to remind you of the place you are in, and you need to choose whether to go up or down. </p>
            <p> Then you will see an animal and choose which of its chests to search for treasure. </p>","","instructions","","","","","","","","","","","","","",""
"learning-instructions","38","238455","0.0-3.0-7.0-0.1","spark_pilot_2","7110","5","8","Male","","","","","","","1549","<p> When you choose whether to go up or down, try to go to the animal with the chest with the most treasure. </p>
            <p> Try practicing that now! </p>","","instructions","","","","","","","","","","","","","",""
"revaluation","39","244503","0.0-3.0-8.0-0.0","spark_pilot_2","7110","5","8","Male","","false","","","","","[761.2999999523163,768.3999998569489]","./assets/img/space/6.jpg","[""ArrowUp"",""ArrowRight""]","full practice","space","36","{""ArrowUp,ArrowLeft"":3,""ArrowUp,ArrowRight"":36,""ArrowDown,ArrowLeft"":15,""ArrowDown,ArrowRight"":23}","true","ArrowUp,ArrowRight","false","","","","","","","",""
"html-keyboard-response","40","245023","0.0-3.0-8.0-1.0","spark_pilot_2","7110","5","8","Male","","","","","","","null","<div style=""font-size:60px;"">+</div>","null","fixation","","","","","","","","","","","","","",""
"revaluation","41","251073","0.0-3.0-8.0-0.1","spark_pilot_2","7110","5","8","Male","","false","","","","","[617.2999999523163,657.3999998569489]","./assets/img/space/7.jpg","[""ArrowDown"",""ArrowLeft""]","full practice","space","15","{""ArrowUp,ArrowLeft"":3,""ArrowUp,ArrowRight"":36,""ArrowDown,ArrowLeft"":15,""ArrowDown,ArrowRight"":23}","false","ArrowDown,ArrowLeft","false","","","","","","","",""
"html-keyboard-response","42","251593","0.0-3.0-8.0-1.1","spark_pilot_2","7110","5","8","Male","","","","","","","null","<div style=""font-size:60px;"">+</div>","null","fixation","","","","","","","","","","","","","",""
"revaluation","43","257643","0.0-3.0-8.0-0.2","spark_pilot_2","7110","5","8","Male","","false","","","","","[425.5,463.5]","./assets/img/space/8.jpg","[""ArrowUp"",""ArrowRight""]","full practice","space","36","{""ArrowUp,ArrowLeft"":3,""ArrowUp,ArrowRight"":36,""ArrowDown,ArrowLeft"":15,""ArrowDown,ArrowRight"":23}","true","ArrowUp,ArrowRight","false","","","","","","","",""
"html-keyboard-response","44","258162","0.0-3.0-8.0-1.2","spark_pilot_2","7110","5","8","Male","","","","","","","null","<div style=""font-size:60px;"">+</div>","null","fixation","","","","","","","","","","","","","",""
"revaluation","45","264213","0.0-3.0-8.0-0.3","spark_pilot_2","7110","5","8","Male","","false","","","","","[608.1000001430511,527.5999999046326]","./assets/img/space/9.jpg","[""ArrowDown"",""ArrowLeft""]","full practice","space","15","{""ArrowUp,ArrowLeft"":3,""ArrowUp,ArrowRight"":36,""ArrowDown,ArrowLeft"":15,""ArrowDown,ArrowRight"":23}","false","ArrowDown,ArrowLeft","false","","","","","","","",""
"html-keyboard-response","46","264732","0.0-3.0-8.0-1.3","spark_pilot_2","7110","5","8","Male","","","","","","","null","<div style=""font-size:60px;"">+</div>","null","fixation","","","","","","","","","","","","","",""
"revaluation","47","270771","0.0-3.0-8.0-0.4","spark_pilot_2","7110","5","8","Male","","false","","","","","[1599.7999999523163,1018.7999999523163]","./assets/img/space/10.jpg","[""ArrowDown"",""ArrowRight""]","full practice","space","23","{""ArrowUp,ArrowLeft"":3,""ArrowUp,ArrowRight"":36,""ArrowDown,ArrowLeft"":15,""ArrowDown,ArrowRight"":23}","false","ArrowDown,ArrowRight","false","","","","","","","",""
"html-keyboard-response","48","271279","0.0-3.0-8.0-1.4","spark_pilot_2","7110","5","8","Male","","","","","","","null","<div style=""font-size:60px;"">+</div>","null","fixation","","","","","","","","","","","","","",""
"learning-instructions","49","282512","0.0-3.0-9.0-0.0","spark_pilot_2","7110","5","8","Male","","","","","","","910.5999999046326","<p> One last thing: sometimes, you will see a robber. The robber can be anywhere in the picture. </p>
            <p> If you do not stop them, you will lose treasure. </p>
            <img src='./assets/img/instructions/robber.jpg' class='instructions-image'>","","instructions","","","","","","","","","","","","","",""
"learning-instructions","50","291687","0.0-3.0-9.0-0.1","spark_pilot_2","7110","5","8","Male","","","","","","","2004.3999998569489","<p> If you see the robber, you should <b>press the space bar</b> rather than using the arrow keys. </p>
            <p> Try practicing that now! </p>","","instructions","","","","","","","","","","","","","",""
"revaluation","51","295715","0.0-3.0-10.0-0.0","spark_pilot_2","7110","5","8","Male","","false","","","","","[1141.2999999523163]","./assets/img/space/catch/0.jpg","[""spaceBar""]","catch practice","space","0","{""ArrowUp,ArrowLeft"":3,""ArrowUp,ArrowRight"":36,""ArrowDown,ArrowLeft"":15,""ArrowDown,ArrowRight"":23}","true","spaceBar","true","","","","","","","",""
"html-keyboard-response","52","296228","0.0-3.0-10.0-1.0","spark_pilot_2","7110","5","8","Male","","","","","","","null","<div style=""font-size:60px;"">+</div>","null","fixation","","","","","","","","","","","","","",""
"revaluation","53","300260","0.0-3.0-10.0-0.1","spark_pilot_2","7110","5","8","Male","","false","","","","","[541]","./assets/img/space/catch/1.jpg","[""spaceBar""]","catch practice","space","0","{""ArrowUp,ArrowLeft"":3,""ArrowUp,ArrowRight"":36,""ArrowDown,ArrowLeft"":15,""ArrowDown,ArrowRight"":23}","true","spaceBar","true","","","","","","","",""
"html-keyboard-response","54","300770","0.0-3.0-10.0-1.1","spark_pilot_2","7110","5","8","Male","","","","","","","null","<div style=""font-size:60px;"">+</div>","null","fixation","","","","","","","","","","","","","",""
"revaluation","55","304800","0.0-3.0-10.0-0.2","spark_pilot_2","7110","5","8","Male","","false","","","","","[298]","./assets/img/space/catch/2.jpg","[""spaceBar""]","catch practice","space","0","{""ArrowUp,ArrowLeft"":3,""ArrowUp,ArrowRight"":36,""ArrowDown,ArrowLeft"":15,""ArrowDown,ArrowRight"":23}","true","spaceBar","true","","","","","","","",""
"html-keyboard-response","56","305308","0.0-3.0-10.0-1.2","spark_pilot_2","7110","5","8","Male","","","","","","","null","<div style=""font-size:60px;"">+</div>","null","fixation","","","","","","","","","","","","","",""
"learning-instructions","57","320957","0.0-3.0-11.0-0.0","spark_pilot_2","7110","5","8","Male","","","","","","","1884.7000000476837","<p> After you explore a place to find treasure, it will be time to play a different game. </p>
            <p> During this game, red dots will appear on the screen and fall down slowly. </p>
            <p><b> You must click on them before they reach the bottom. </b></p>
            <img src='./assets/img/instructions/dotGame.jpg' class='instructions-image'>","","instructions","","","","","","","","","","","","","",""
"learning-instructions","58","327893","0.0-3.0-11.0-0.1","spark_pilot_2","7110","5","8","Male","","","","","","","1261","<p> For every dot you click, you will earn additional treasure. </p>
            <p> Let’s try practicing that now. </p>","","instructions","","","","","","","","","","","","","",""
"revaluation","59","342909","0.0-3.0-12.0-0.0","spark_pilot_2","7110","5","8","Male","","","","","","","[171]","","","rest practice","","10","","","","","0","15000","","","","","",""
"learning-instructions","60","349564","0.0-3.0-13.0-0.0-0.0","spark_pilot_2","7110","5","8","Male","","","","","","","1362","<p> Now, you will practice a shortened version of the game to get a sense of how it all fits together. </p>","","instructions","","","","","","","","","","","","","",""
"learning-instructions","61","353908","0.0-3.0-13.0-0.0-0.1","spark_pilot_2","7110","5","8","Male","","","","","","","1155.7999999523163","<p>This time you are searching for treasure in outer space.</p>","","instructions","","","","","","","","","","","","","",""
"learning-instructions","62","371312","0.0-3.0-13.0-1.0-0.0","spark_pilot_2","7110","5","8","Male","","","","","","","2611.0999999046326","<p> Remember, when you see a picture of the place, use the up and down keys to <b>find an animal</b>.</p>
            <p> When you encounter an animal, you should use the left and right keys to <b>select a treasure chest</b>.</p>
            <p> Don't forget to look out for the robber! </p>","","instructions","","","","","","","","","","","","","",""
"revaluation","63","377329","0.0-3.0-13.0-2.0-0.0","spark_pilot_2","7110","5","8","Male","","false","","","","","[1967.2000000476837,1270.2000000476837]","./assets/img/space/11.jpg","[""ArrowUp"",""ArrowRight""]","practice block","space","36","{""ArrowUp,ArrowLeft"":3,""ArrowUp,ArrowRight"":36,""ArrowDown,ArrowLeft"":15,""ArrowDown,ArrowRight"":23}","true","ArrowUp,ArrowRight","false","","","","","","","",""
"html-keyboard-response","64","377838","0.0-3.0-13.0-2.0-1.0","spark_pilot_2","7110","5","8","Male","","","","","","","null","<div style=""font-size:60px;"">+</div>","null","fixation","","","","","","","","","","","","","",""
"revaluation","65","383889","0.0-3.0-13.0-2.0-0.1","spark_pilot_2","7110","5","8","Male","","false","","","","","[1469.9000000953674,1076.5]","./assets/img/space/12.jpg","[""ArrowUp"",""ArrowLeft""]","practice block","space","3","{""ArrowUp,ArrowLeft"":3,""ArrowUp,ArrowRight"":36,""ArrowDown,ArrowLeft"":15,""ArrowDown,ArrowRight"":23}","false","ArrowUp,ArrowLeft","false","","","","","","","",""
"html-keyboard-response","66","384398","0.0-3.0-13.0-2.0-1.1","spark_pilot_2","7110","5","8","Male","","","","","","","null","<div style=""font-size:60px;"">+</div>","null","fixation","","","","","","","","","","","","","",""
"revaluation","67","390448","0.0-3.0-13.0-2.0-0.2","spark_pilot_2","7110","5","8","Male","","false","","","","","[767.4000000953674,517.0999999046326]","./assets/img/space/13.jpg","[""ArrowDown"",""ArrowRight""]","practice block","space","23","{""ArrowUp,ArrowLeft"":3,""ArrowUp,ArrowRight"":36,""ArrowDown,ArrowLeft"":15,""ArrowDown,ArrowRight"":23}","false","ArrowDown,ArrowRight","false","","","","","","","",""
"html-keyboard-response","68","390958","0.0-3.0-13.0-2.0-1.2","spark_pilot_2","7110","5","8","Male","","","","","","","null","<div style=""font-size:60px;"">+</div>","null","fixation","","","","","","","","","","","","","",""
"revaluation","69","396989","0.0-3.0-13.0-2.0-0.3","spark_pilot_2","7110","5","8","Male","","false","","","","","[1524.3000001907349,1296.9000000953674]","./assets/img/space/14.jpg","[""ArrowUp"",""ArrowRight""]","practice block","space","36","{""ArrowUp,ArrowLeft"":3,""ArrowUp,ArrowRight"":36,""ArrowDown,ArrowLeft"":15,""ArrowDown,ArrowRight"":23}","true","ArrowUp,ArrowRight","false","","","","","","","",""
"html-keyboard-response","70","397498","0.0-3.0-13.0-2.0-1.3","spark_pilot_2","7110","5","8","Male","","","","","","","null","<div style=""font-size:60px;"">+</div>","null","fixation","","","","","","","","","","","","","",""
"revaluation","71","403522","0.0-3.0-13.0-2.0-0.4","spark_pilot_2","7110","5","8","Male","","false","","","","","[1243,903.5]","./assets/img/space/11.jpg","[""ArrowUp"",""ArrowLeft""]","practice block","space","3","{""ArrowUp,ArrowLeft"":3,""ArrowUp,ArrowRight"":36,""ArrowDown,ArrowLeft"":15,""ArrowDown,ArrowRight"":23}","false","ArrowUp,ArrowLeft","false","","","","","","","",""
"html-keyboard-response","72","404027","0.0-3.0-13.0-2.0-1.4","spark_pilot_2","7110","5","8","Male","","","","","","","null","<div style=""font-size:60px;"">+</div>","null","fixation","","","","","","","","","","","","","",""
"revaluation","73","410060","0.0-3.0-13.0-2.0-0.5","spark_pilot_2","7110","5","8","Male","","false","","","","","[1969.8999998569489,871.5999999046326]","./assets/img/space/12.jpg","[""ArrowUp"",""ArrowRight""]","practice block","space","36","{""ArrowUp,ArrowLeft"":3,""ArrowUp,ArrowRight"":36,""ArrowDown,ArrowLeft"":15,""ArrowDown,ArrowRight"":23}","true","ArrowUp,ArrowRight","false","","","","","","","",""
"html-keyboard-response","74","410566","0.0-3.0-13.0-2.0-1.5","spark_pilot_2","7110","5","8","Male","","","","","","","null","<div style=""font-size:60px;"">+</div>","null","fixation","","","","","","","","","","","","","",""
"revaluation","75","416595","0.0-3.0-13.0-2.0-0.6","spark_pilot_2","7110","5","8","Male","","false","","","","","[599.3000001907349,487.89999985694885]","./assets/img/space/13.jpg","[""ArrowUp"",""ArrowRight""]","practice block","space","36","{""ArrowUp,ArrowLeft"":3,""ArrowUp,ArrowRight"":36,""ArrowDown,ArrowLeft"":15,""ArrowDown,ArrowRight"":23}","true","ArrowUp,ArrowRight","false","","","","","","","",""
"html-keyboard-response","76","417112","0.0-3.0-13.0-2.0-1.6","spark_pilot_2","7110","5","8","Male","","","","","","","null","<div style=""font-size:60px;"">+</div>","null","fixation","","","","","","","","","","","","","",""
"revaluation","77","421134","0.0-3.0-13.0-2.0-0.7","spark_pilot_2","7110","5","8","Male","","true","","","","","[]","./assets/img/space/14.jpg","[]","practice block","space","-5","{""ArrowUp,ArrowLeft"":3,""ArrowUp,ArrowRight"":36,""ArrowDown,ArrowLeft"":15,""ArrowDown,ArrowRight"":23}","false","","false","","","","","","","",""
"html-keyboard-response","78","421638","0.0-3.0-13.0-2.0-1.7","spark_pilot_2","7110","5","8","Male","","","","","","","null","<div style=""font-size:60px;"">+</div>","null","fixation","","","","","","","","","","","","","",""
"revaluation","79","425658","0.0-3.0-13.0-2.0-0.8","spark_pilot_2","7110","5","8","Male","","true","","","","","[]","./assets/img/space/catch/3.jpg","[]","practice block","space","-5","{""ArrowUp,ArrowLeft"":3,""ArrowUp,ArrowRight"":36,""ArrowDown,ArrowLeft"":15,""ArrowDown,ArrowRight"":23}","false","","true","","","","","","","",""
"html-keyboard-response","80","426163","0.0-3.0-13.0-2.0-1.8","spark_pilot_2","7110","5","8","Male","","","","","","","null","<div style=""font-size:60px;"">+</div>","null","fixation","","","","","","","","","","","","","",""
"learning-instructions","81","441504","0.0-3.0-13.0-3.0-0.0","spark_pilot_2","7110","5","8","Male","","","","","","","2155.300000190735","<p> Now, you will travel with a friend who will choose whether you go up or down first. </p>
            <p> On these turns, you will just see the animal that they found. You will still get to choose which chest to search for treasure.</p>","","instructions","","","","","","","","","","","","","",""
"revaluation","82","445546","0.0-3.0-13.0-4.0-0.0","spark_pilot_2","7110","5","8","Male","","false","","","","","[1422.6000001430511]","./assets/img/space/animals/rabbit.jpg","[""ArrowRight""]","practice block","space","23","{""ArrowUp,ArrowLeft"":3,""ArrowUp,ArrowRight"":36,""ArrowDown,ArrowLeft"":15,""ArrowDown,ArrowRight"":23}","true","ArrowDown,ArrowRight","","","","","","","","",""
"html-keyboard-response","83","446065","0.0-3.0-13.0-4.0-1.0","spark_pilot_2","7110","5","8","Male","","","","","","","null","<div style=""font-size:60px;"">+</div>","null","fixation","","","","","","","","","","","","","",""
"revaluation","84","450106","0.0-3.0-13.0-4.0-0.1","spark_pilot_2","7110","5","8","Male","","false","","","","","[472.5]","./assets/img/space/animals/cat.jpg","[""ArrowLeft""]","practice block","space","3","{""ArrowUp,ArrowLeft"":3,""ArrowUp,ArrowRight"":36,""ArrowDown,ArrowLeft"":15,""ArrowDown,ArrowRight"":23}","false","ArrowUp,ArrowLeft","","","","","","","","",""
"html-keyboard-response","85","450626","0.0-3.0-13.0-4.0-1.1","spark_pilot_2","7110","5","8","Male","","","","","","","null","<div style=""font-size:60px;"">+</div>","null","fixation","","","","","","","","","","","","","",""
"revaluation","86","454666","0.0-3.0-13.0-4.0-0.2","spark_pilot_2","7110","5","8","Male","","false","","","","","[264.5]","./assets/img/space/animals/cat.jpg","[""ArrowRight""]","practice block","space","36","{""ArrowUp,ArrowLeft"":3,""ArrowUp,ArrowRight"":36,""ArrowDown,ArrowLeft"":15,""ArrowDown,ArrowRight"":23}","true","ArrowUp,ArrowRight","","","","","","","","",""
"html-keyboard-response","87","455169","0.0-3.0-13.0-4.0-1.2","spark_pilot_2","7110","5","8","Male","","","","","","","null","<div style=""font-size:60px;"">+</div>","null","fixation","","","","","","","","","","","","","",""
"revaluation","88","459196","0.0-3.0-13.0-4.0-0.3","spark_pilot_2","7110","5","8","Male","","false","","","","","[340]","./assets/img/space/animals/rabbit.jpg","[""ArrowRight""]","practice block","space","23","{""ArrowUp,ArrowLeft"":3,""ArrowUp,ArrowRight"":36,""ArrowDown,ArrowLeft"":15,""ArrowDown,ArrowRight"":23}","true","ArrowDown,ArrowRight","","","","","","","","",""
"html-keyboard-response","89","459706","0.0-3.0-13.0-4.0-1.3","spark_pilot_2","7110","5","8","Male","","","","","","","null","<div style=""font-size:60px;"">+</div>","null","fixation","","","","","","","","","","","","","",""
"learning-instructions","90","468118","0.0-3.0-13.0-5.0-0.0","spark_pilot_2","7110","5","8","Male","","","","","","","1000.5999999046326","<p> Time to play the dot game! </p>
            <p> For 15 seconds, click the red dots on the following screen as they appear. </p>","","instructions","","","","","","","","","","","","","",""
"revaluation","91","483125","0.0-3.0-13.0-6.0-0.0","spark_pilot_2","7110","5","8","Male","","","","","","","[188]","","","rest practice","","10","","","","","0","15000","","","","","",""
"learning-instructions","92","491476","0.0-3.0-13.0-7.0-0.0","spark_pilot_2","7110","5","8","Male","","","","","","","2166.699999809265","<p> You have almost finished this part of the game! </p>
            <p> We are going to ask you to make a few more choices. </p>","","instructions","","","","","","","","","","","","","",""
"learning-instructions","93","507930","0.0-3.0-13.0-7.0-0.1","spark_pilot_2","7110","5","8","Male","","","","","","","2421.5","<p> First, you need to decide whether to go up or down. When you see each picture, use the arrow keys to make your choice. </p>
            <p><b>You will not see which animal you found, but try to get to the one that will give you the most treasure.</b></p>","","instructions","","","","","","","","","","","","","",""
"revaluation","94","509164","0.0-3.0-13.0-8.0","spark_pilot_2","7110","5","8","Male","","false","","","","","[1231]","./assets/img/space/15.jpg","[""ArrowUp""]","practice block","space","0","{""ArrowUp,ArrowLeft"":3,""ArrowUp,ArrowRight"":36,""ArrowDown,ArrowLeft"":15,""ArrowDown,ArrowRight"":23}","true","ArrowUp","false","","","","","","","",""
"html-keyboard-response","95","509685","0.0-3.0-13.0-9.0","spark_pilot_2","7110","5","8","Male","","","","","","","null","<div style=""font-size:60px;"">+</div>","null","fixation","","","","","","","","","","","","","",""
"learning-instructions","96","522397","0.0-3.0-13.0-10.0-0.0","spark_pilot_2","7110","5","8","Male","","","","","","","1318.7999999523163","<p> Now you will see the animals again and can search their chests for treasure. </p>
            <p> This time, you will not see how much treasure you earned, but you will earn more bonus money for making better choices. </p>","","instructions","","","","","","","","","","","","","",""
"revaluation","97","523904","0.0-3.0-13.0-11.0-0.0","spark_pilot_2","7110","5","8","Male","","false","","","","","[1504.5]","./assets/img/space/animals/cat.jpg","[""ArrowLeft""]","practice block","space","0","{""ArrowUp,ArrowLeft"":3,""ArrowUp,ArrowRight"":36,""ArrowDown,ArrowLeft"":15,""ArrowDown,ArrowRight"":23}","false","ArrowUp,ArrowLeft","","","","","","","","",""
"html-keyboard-response","98","524417","0.0-3.0-13.0-11.0-1.0","spark_pilot_2","7110","5","8","Male","","","","","","","null","<div style=""font-size:60px;"">+</div>","null","fixation","","","","","","","","","","","","","",""
"revaluation","99","525374","0.0-3.0-13.0-11.0-0.1","spark_pilot_2","7110","5","8","Male","","false","","","","","[951.2999999523163]","./assets/img/space/animals/rabbit.jpg","[""ArrowRight""]","practice block","space","0","{""ArrowUp,ArrowLeft"":3,""ArrowUp,ArrowRight"":36,""ArrowDown,ArrowLeft"":15,""ArrowDown,ArrowRight"":23}","true","ArrowDown,ArrowRight","","","","","","","","",""
"html-keyboard-response","100","525886","0.0-3.0-13.0-11.0-1.1","spark_pilot_2","7110","5","8","Male","","","","","","","null","<div style=""font-size:60px;"">+</div>","null","fixation","","","","","","","","","","","","","",""
"learning-instructions","101","531787","0.0-3.0-14.0-0.0","spark_pilot_2","7110","5","8","Male","","","","","","","1298.1999998092651","<p> Before you start, we're going to ask you a few questions about how the game works. </p>","","instructions","","","","","","","","","","","","","",""
"comp-q","102","538946","0.0-3.0-15.0-0.0-0.0","spark_pilot_2","7110","5","8","Male","","","","","","","1559.5999999046326","<p> <b> True or False? </b> </p>
            <p> There can be 50 pieces of treasure in a given animal's chest. </p>","1","comp_question","","","","true","","","","","","","","","",""
"comp-q","103","549213","0.0-3.0-15.0-0.0-1.0","spark_pilot_2","7110","5","8","Male","","","","","","","3604.9000000953674","<p> <b> That's right! </b> The amount of treasure in each chest can range from 0 to 40 pieces. </p>","0","comp_answer","","","","","","","","","","","","","",""
"comp-q","104","558122","0.0-3.0-15.0-0.1-0.1","spark_pilot_2","7110","5","8","Male","","","","","","","1773.7000000476837","<p> <b> True or False? </b> </p><p> In this game, all animals have the same amount of treasure in their left and right chests. </p>","1","comp_question","","","","true","","","","","","","","","",""
"comp-q","105","564648","0.0-3.0-15.0-0.1-1.1","spark_pilot_2","7110","5","8","Male","","","","","","","1289.5999999046326","<p> <b> That's right! </b> Animals have different amounts of treasure in their treasure chests. </p>","0","comp_answer","","","","","","","","","","","","","",""
"comp-q","106","571449","0.0-3.0-15.0-0.2-0.2","spark_pilot_2","7110","5","8","Male","","","","","","","960.6000001430511","<p> <b> True or False? </b> </p><p> The same animal will always be there if you go up in the same place. </p>","0","comp_question","","","","true","","","","","","","","","",""
"comp-q","107","580355","0.0-3.0-15.0-0.2-1.2","spark_pilot_2","7110","5","8","Male","","","","","","","2446","<p> <b> That's right! </b> One animal lives in the upper part and one lives in the lower part of every place. </p>","0","comp_answer","","","","","","","","","","","","","",""
"comp-q","108","587401","0.0-3.0-15.0-0.3-0.3","spark_pilot_2","7110","5","8","Male","","","","","","","1522","<p> <b> True or False? </b> </p><p> If you see a different picture, it means you are in a new place. </p>","0","comp_question","","","","false","","","","","","","","","",""
"comp-q","109","599888","0.0-3.0-15.0-0.3-1.3","spark_pilot_2","7110","5","8","Male","","","","","","","1368.7000000476837","<p> <b>Incorrect.</b> Lots of different images may show the same place. For example,  you may see three different images that all remind you that you are in outer space. </p>","0","comp_answer","","","","","","","","","","","","","",""
"comp-q","110","608039","0.0-3.0-15.0-0.4-0.4","spark_pilot_2","7110","5","8","Male","","","","","","","2639.2000000476837","<p> <b> True or False? </b> </p><p> If you see a different picture, it means you are in a new place. </p>","0","comp_question","","","","false","","","","","","","","","",""
"comp-q","111","619954","0.0-3.0-15.0-0.4-1.4","spark_pilot_2","7110","5","8","Male","","","","","","","844.5","<p> <b>Incorrect.</b> Lots of different images may show the same place. For example,  you may see three different images that all remind you that you are in outer space. </p>","0","comp_answer","","","","","","","","","","","","","",""
"comp-q","112","626239","0.0-3.0-15.0-0.5-0.5","spark_pilot_2","7110","5","8","Male","","","","","","","790.5","<p> <b> True or False? </b> </p><p> If you see a different picture, it means you are in a new place. </p>","1","comp_question","","","","true","","","","","","","","","",""
"comp-q","113","640221","0.0-3.0-15.0-0.5-1.5","spark_pilot_2","7110","5","8","Male","","","","","","","2583.4000000953674","<p> <b> That's right! </b> Lots of different images may show the same place. For example,  you may see three different images that all remind you that you are in outer space. </p>","0","comp_answer","","","","","","","","","","","","","",""
"learning-instructions","114","651826","0.0-3.0-16.0-0.0","spark_pilot_2","7110","5","8","Male","","","","","","","1737.4000000953674","<p> Good job. Remember to do your best because the amount of treasure you earn will be converted into bonus money. </p>
            <p> It’s time to start the real game! </p>","","instructions","","","","","","","","","","","","","",""
"learning-instructions","115","655747","0.0-4.0-0.0-0.0","spark_pilot_2","7110","5","8","Male","","","","","","","1148.1000001430511","<p> This time you are searching for treasure in the <b>canyon</b>.</p>","","instructions","","","","","","","","","","","","","",""
"learning-instructions","116","674764","0.0-4.0-0.0-0.1","spark_pilot_2","7110","5","8","Male","","","","","","","1695.7000000476837","<p><b>New</b> animals with <b>new</b> treasure chests live here. You need to explore to discover where the animal with the best treasure chest is.</p>
                    <p> Like before, once you figure out which animal has the chest with the most treasure, you should try to get to that animal and select that chest! </p>","","instructions","","","","","","","","","","","","","",""
"learning-instructions","117","690665","0.0-4.0-1.0-0.0","spark_pilot_2","7110","5","8","Male","","","","","","","1176","<p> Remember, when you see a picture of the place, use the up and down keys to <b>find an animal</b>.</p>
            <p> When you encounter an animal, you should use the left and right keys to <b>select a treasure chest</b>.</p>
            <p> Don't forget to look out for the robber! </p>","","instructions","","","","","","","","","","","","","",""
"revaluation","118","696705","0.0-4.0-2.0-0.0","spark_pilot_2","7110","5","8","Male","","false","","","","","[1041.7000000476837,582.9000000953674]","./assets/img/canyon/memory/20.jpg","[""ArrowUp"",""ArrowRight""]","value training","canyon","10","{""ArrowUp,ArrowLeft"":26,""ArrowUp,ArrowRight"":10,""ArrowDown,ArrowLeft"":5,""ArrowDown,ArrowRight"":17}","false","ArrowUp,ArrowRight","false","","","original","1","0","","",""
"html-keyboard-response","119","697234","0.0-4.0-2.0-1.0","spark_pilot_2","7110","5","8","Male","","","","","","","null","<div style=""font-size:60px;"">+</div>","null","fixation","","","","","","","","","","","1","","",""
"revaluation","120","703276","0.0-4.0-2.0-0.1","spark_pilot_2","7110","5","8","Male","","false","","","","","[513.7999999523163,1473.7999999523163]","./assets/img/canyon/memory/7.jpg","[""ArrowDown"",""ArrowLeft""]","value training","canyon","5","{""ArrowUp,ArrowLeft"":26,""ArrowUp,ArrowRight"":10,""ArrowDown,ArrowLeft"":5,""ArrowDown,ArrowRight"":17}","false","ArrowDown,ArrowLeft","false","","","original","1","2","","",""
"html-keyboard-response","121","703785","0.0-4.0-2.0-1.1","spark_pilot_2","7110","5","8","Male","","","","","","","null","<div style=""font-size:60px;"">+</div>","null","fixation","","","","","","","","","","","3","","",""
"revaluation","122","709815","0.0-4.0-2.0-0.2","spark_pilot_2","7110","5","8","Male","","false","","","","","[1099,789.0999999046326]","./assets/img/canyon/memory/7.jpg","[""ArrowUp"",""ArrowRight""]","value training","canyon","10","{""ArrowUp,ArrowLeft"":26,""ArrowUp,ArrowRight"":10,""ArrowDown,ArrowLeft"":5,""ArrowDown,ArrowRight"":17}","false","ArrowUp,ArrowRight","false","","","original","1","4","","",""
"html-keyboard-response","123","710325","0.0-4.0-2.0-1.2","spark_pilot_2","7110","5","8","Male","","","","","","","null","<div style=""font-size:60px;"">+</div>","null","fixation","","","","","","","","","","","5","","",""
"revaluation","124","716385","0.0-4.0-2.0-0.3","spark_pilot_2","7110","5","8","Male","","false","","","","","[577.7999999523163,418.39999985694885]","./assets/img/canyon/memory/14.jpg","[""ArrowDown"",""ArrowRight""]","value training","canyon","17","{""ArrowUp,ArrowLeft"":26,""ArrowUp,ArrowRight"":10,""ArrowDown,ArrowLeft"":5,""ArrowDown,ArrowRight"":17}","false","ArrowDown,ArrowRight","false","","","original","1","6","","",""
"html-keyboard-response","125","716905","0.0-4.0-2.0-1.3","spark_pilot_2","7110","5","8","Male","","","","","","","null","<div style=""font-size:60px;"">+</div>","null","fixation","","","","","","","","","","","7","","",""
"revaluation","126","720917","0.0-4.0-2.0-0.4","spark_pilot_2","7110","5","8","Male","","false","","","","","[1537]","./assets/img/canyon/catch/7.jpg","[""spaceBar""]","value training","canyon","0","{""ArrowUp,ArrowLeft"":26,""ArrowUp,ArrowRight"":10,""ArrowDown,ArrowLeft"":5,""ArrowDown,ArrowRight"":17}","true","spaceBar","true","","","original","1","8","","",""
"html-keyboard-response","127","721426","0.0-4.0-2.0-1.4","spark_pilot_2","7110","5","8","Male","","","","","","","null","<div style=""font-size:60px;"">+</div>","null","fixation","","","","","","","","","","","9","","",""
"revaluation","128","727444","0.0-4.0-2.0-0.5","spark_pilot_2","7110","5","8","Male","","false","","","","","[1842.4000000953674,885.2000000476837]","./assets/img/canyon/memory/28.jpg","[""ArrowUp"",""ArrowRight""]","value training","canyon","10","{""ArrowUp,ArrowLeft"":26,""ArrowUp,ArrowRight"":10,""ArrowDown,ArrowLeft"":5,""ArrowDown,ArrowRight"":17}","false","ArrowUp,ArrowRight","false","","","original","1","10","","",""
"html-keyboard-response","129","727952","0.0-4.0-2.0-1.5","spark_pilot_2","7110","5","8","Male","","","","","","","null","<div style=""font-size:60px;"">+</div>","null","fixation","","","","","","","","","","","11","","",""
"revaluation","130","733992","0.0-4.0-2.0-0.6","spark_pilot_2","7110","5","8","Male","","false","","","","","[1192.3000001907349,472.2000000476837]","./assets/img/canyon/memory/2.jpg","[""ArrowUp"",""ArrowRight""]","value training","canyon","10","{""ArrowUp,ArrowLeft"":26,""ArrowUp,ArrowRight"":10,""ArrowDown,ArrowLeft"":5,""ArrowDown,ArrowRight"":17}","false","ArrowUp,ArrowRight","false","","","original","1","12","","",""
"html-keyboard-response","131","734495","0.0-4.0-2.0-1.6","spark_pilot_2","7110","5","8","Male","","","","","","","null","<div style=""font-size:60px;"">+</div>","null","fixation","","","","","","","","","","","13","","",""
"revaluation","132","740533","0.0-4.0-2.0-0.7","spark_pilot_2","7110","5","8","Male","","false","","","","","[741.5,449]","./assets/img/canyon/memory/3.jpg","[""ArrowDown"",""ArrowLeft""]","value training","canyon","5","{""ArrowUp,ArrowLeft"":26,""ArrowUp,ArrowRight"":10,""ArrowDown,ArrowLeft"":5,""ArrowDown,ArrowRight"":17}","false","ArrowDown,ArrowLeft","false","","","original","1","14","","",""
"html-keyboard-response","133","741036","0.0-4.0-2.0-1.7","spark_pilot_2","7110","5","8","Male","","","","","","","null","<div style=""font-size:60px;"">+</div>","null","fixation","","","","","","","","","","","15","","",""
"revaluation","134","747059","0.0-4.0-2.0-0.8","spark_pilot_2","7110","5","8","Male","","false","","","","","[761.6999998092651,751.8999998569489]","./assets/img/canyon/memory/36.jpg","[""ArrowDown"",""ArrowRight""]","value training","canyon","17","{""ArrowUp,ArrowLeft"":26,""ArrowUp,ArrowRight"":10,""ArrowDown,ArrowLeft"":5,""ArrowDown,ArrowRight"":17}","false","ArrowDown,ArrowRight","false","","","original","1","16","","",""
"html-keyboard-response","135","747561","0.0-4.0-2.0-1.8","spark_pilot_2","7110","5","8","Male","","","","","","","null","<div style=""font-size:60px;"">+</div>","null","fixation","","","","","","","","","","","17","","",""
"revaluation","136","753583","0.0-4.0-2.0-0.9","spark_pilot_2","7110","5","8","Male","","false","","","","","[1246.7999999523163,659.5]","./assets/img/canyon/memory/2.jpg","[""ArrowUp"",""ArrowRight""]","value training","canyon","10","{""ArrowUp,ArrowLeft"":26,""ArrowUp,ArrowRight"":10,""ArrowDown,ArrowLeft"":5,""ArrowDown,ArrowRight"":17}","false","ArrowUp,ArrowRight","false","","","original","1","18","","",""
"html-keyboard-response","137","754090","0.0-4.0-2.0-1.9","spark_pilot_2","7110","5","8","Male","","","","","","","null","<div style=""font-size:60px;"">+</div>","null","fixation","","","","","","","","","","","19","","",""
"revaluation","138","760113","0.0-4.0-2.0-0.10","spark_pilot_2","7110","5","8","Male","","false","","","","","[622.7999999523163,669.7000000476837]","./assets/img/canyon/memory/37.jpg","[""ArrowUp"",""ArrowLeft""]","value training","canyon","26","{""ArrowUp,ArrowLeft"":26,""ArrowUp,ArrowRight"":10,""ArrowDown,ArrowLeft"":5,""ArrowDown,ArrowRight"":17}","true","ArrowUp,ArrowLeft","false","","","original","1","20","","",""
"html-keyboard-response","139","760621","0.0-4.0-2.0-1.10","spark_pilot_2","7110","5","8","Male","","","","","","","null","<div style=""font-size:60px;"">+</div>","null","fixation","","","","","","","","","","","21","","",""
"revaluation","140","766649","0.0-4.0-2.0-0.11","spark_pilot_2","7110","5","8","Male","","false","","","","","[477.7000000476837,398.10000014305115]","./assets/img/canyon/memory/9.jpg","[""ArrowUp"",""ArrowLeft""]","value training","canyon","26","{""ArrowUp,ArrowLeft"":26,""ArrowUp,ArrowRight"":10,""ArrowDown,ArrowLeft"":5,""ArrowDown,ArrowRight"":17}","true","ArrowUp,ArrowLeft","false","","","original","1","22","","",""
"html-keyboard-response","141","767158","0.0-4.0-2.0-1.11","spark_pilot_2","7110","5","8","Male","","","","","","","null","<div style=""font-size:60px;"">+</div>","null","fixation","","","","","","","","","","","23","","",""
"revaluation","142","771184","0.0-4.0-2.0-0.12","spark_pilot_2","7110","5","8","Male","","true","","","","","[]","./assets/img/canyon/memory/36.jpg","[]","value training","canyon","-5","{""ArrowUp,ArrowLeft"":26,""ArrowUp,ArrowRight"":10,""ArrowDown,ArrowLeft"":5,""ArrowDown,ArrowRight"":17}","false","","false","","","original","1","24","","",""
"html-keyboard-response","143","771692","0.0-4.0-2.0-1.12","spark_pilot_2","7110","5","8","Male","","","","","","","null","<div style=""font-size:60px;"">+</div>","null","fixation","","","","","","","","","","","25","","",""
"revaluation","144","777720","0.0-4.0-2.0-0.13","spark_pilot_2","7110","5","8","Male","","false","","","","","[879.8999998569489,630.7000000476837]","./assets/img/canyon/memory/3.jpg","[""ArrowUp"",""ArrowLeft""]","value training","canyon","26","{""ArrowUp,ArrowLeft"":26,""ArrowUp,ArrowRight"":10,""ArrowDown,ArrowLeft"":5,""ArrowDown,ArrowRight"":17}","true","ArrowUp,ArrowLeft","false","","","original","1","26","","",""
"html-keyboard-response","145","778228","0.0-4.0-2.0-1.13","spark_pilot_2","7110","5","8","Male","","","","","","","null","<div style=""font-size:60px;"">+</div>","null","fixation","","","","","","","","","","","27","","",""
"revaluation","146","784262","0.0-4.0-2.0-0.14","spark_pilot_2","7110","5","8","Male","","false","","","","","[618,331.90000009536743]","./assets/img/canyon/memory/4.jpg","[""ArrowUp"",""ArrowLeft""]","value training","canyon","26","{""ArrowUp,ArrowLeft"":26,""ArrowUp,ArrowRight"":10,""ArrowDown,ArrowLeft"":5,""ArrowDown,ArrowRight"":17}","true","ArrowUp,ArrowLeft","false","","","original","1","28","","",""
"html-keyboard-response","147","784773","0.0-4.0-2.0-1.14","spark_pilot_2","7110","5","8","Male","","","","","","","null","<div style=""font-size:60px;"">+</div>","null","fixation","","","","","","","","","","","29","","",""
"revaluation","148","788786","0.0-4.0-2.0-0.15","spark_pilot_2","7110","5","8","Male","","false","","","","","[536.2999999523163]","./assets/img/canyon/catch/1.jpg","[""ArrowUp""]","value training","canyon","-10","{""ArrowUp,ArrowLeft"":26,""ArrowUp,ArrowRight"":10,""ArrowDown,ArrowLeft"":5,""ArrowDown,ArrowRight"":17}","false","ArrowUp","true","","","original","1","30","","",""
"html-keyboard-response","149","789291","0.0-4.0-2.0-1.15","spark_pilot_2","7110","5","8","Male","","","","","","","null","<div style=""font-size:60px;"">+</div>","null","fixation","","","","","","","","","","","31","","",""
"revaluation","150","795313","0.0-4.0-2.0-0.16","spark_pilot_2","7110","5","8","Male","","false","","","","","[1543,58.5]","./assets/img/canyon/memory/40.jpg","[""ArrowUp"",""ArrowLeft""]","value training","canyon","26","{""ArrowUp,ArrowLeft"":26,""ArrowUp,ArrowRight"":10,""ArrowDown,ArrowLeft"":5,""ArrowDown,ArrowRight"":17}","true","ArrowUp,ArrowLeft","false","","","original","1","32","","",""
"html-keyboard-response","151","795819","0.0-4.0-2.0-1.16","spark_pilot_2","7110","5","8","Male","","","","","","","null","<div style=""font-size:60px;"">+</div>","null","fixation","","","","","","","","","","","33","","",""
"revaluation","152","801842","0.0-4.0-2.0-0.17","spark_pilot_2","7110","5","8","Male","","false","","","","","[547,331.90000009536743]","./assets/img/canyon/memory/15.jpg","[""ArrowUp"",""ArrowLeft""]","value training","canyon","26","{""ArrowUp,ArrowLeft"":26,""ArrowUp,ArrowRight"":10,""ArrowDown,ArrowLeft"":5,""ArrowDown,ArrowRight"":17}","true","ArrowUp,ArrowLeft","false","","","original","1","34","","",""
"html-keyboard-response","153","802351","0.0-4.0-2.0-1.17","spark_pilot_2","7110","5","8","Male","","","","","","","null","<div style=""font-size:60px;"">+</div>","null","fixation","","","","","","","","","","","35","","",""
"revaluation","154","808371","0.0-4.0-2.0-0.18","spark_pilot_2","7110","5","8","Male","","false","","","","","[609.9000000953674,777.0999999046326]","./assets/img/canyon/memory/24.jpg","[""ArrowUp"",""ArrowLeft""]","value training","canyon","26","{""ArrowUp,ArrowLeft"":26,""ArrowUp,ArrowRight"":10,""ArrowDown,ArrowLeft"":5,""ArrowDown,ArrowRight"":17}","true","ArrowUp,ArrowLeft","false","","","original","1","36","","",""
"html-keyboard-response","155","808882","0.0-4.0-2.0-1.18","spark_pilot_2","7110","5","8","Male","","","","","","","null","<div style=""font-size:60px;"">+</div>","null","fixation","","","","","","","","","","","37","","",""
"revaluation","156","814907","0.0-4.0-2.0-0.19","spark_pilot_2","7110","5","8","Male","","false","","","","","[1478.7999999523163,1159.4000000953674]","./assets/img/canyon/memory/20.jpg","[""ArrowUp"",""ArrowLeft""]","value training","canyon","26","{""ArrowUp,ArrowLeft"":26,""ArrowUp,ArrowRight"":10,""ArrowDown,ArrowLeft"":5,""ArrowDown,ArrowRight"":17}","true","ArrowUp,ArrowLeft","false","","","original","1","38","","",""
"html-keyboard-response","157","815414","0.0-4.0-2.0-1.19","spark_pilot_2","7110","5","8","Male","","","","","","","null","<div style=""font-size:60px;"">+</div>","null","fixation","","","","","","","","","","","39","","",""
"revaluation","158","821433","0.0-4.0-2.0-0.20","spark_pilot_2","7110","5","8","Male","","false","","","","","[745,686]","./assets/img/canyon/memory/26.jpg","[""ArrowUp"",""ArrowLeft""]","value training","canyon","26","{""ArrowUp,ArrowLeft"":26,""ArrowUp,ArrowRight"":10,""ArrowDown,ArrowLeft"":5,""ArrowDown,ArrowRight"":17}","true","ArrowUp,ArrowLeft","false","","","original","1","40","","",""
"html-keyboard-response","159","821943","0.0-4.0-2.0-1.20","spark_pilot_2","7110","5","8","Male","","","","","","","null","<div style=""font-size:60px;"">+</div>","null","fixation","","","","","","","","","","","41","","",""
"revaluation","160","825963","0.0-4.0-2.0-0.21","spark_pilot_2","7110","5","8","Male","","false","","","","","[907.2000000476837]","./assets/img/canyon/catch/3.jpg","[""spaceBar""]","value training","canyon","0","{""ArrowUp,ArrowLeft"":26,""ArrowUp,ArrowRight"":10,""ArrowDown,ArrowLeft"":5,""ArrowDown,ArrowRight"":17}","true","spaceBar","true","","","original","1","42","","",""
"html-keyboard-response","161","826465","0.0-4.0-2.0-1.21","spark_pilot_2","7110","5","8","Male","","","","","","","null","<div style=""font-size:60px;"">+</div>","null","fixation","","","","","","","","","","","43","","",""
"revaluation","162","832486","0.0-4.0-2.0-0.22","spark_pilot_2","7110","5","8","Male","","false","","","","","[733.2999999523163,764.0999999046326]","./assets/img/canyon/memory/26.jpg","[""ArrowUp"",""ArrowLeft""]","value training","canyon","26","{""ArrowUp,ArrowLeft"":26,""ArrowUp,ArrowRight"":10,""ArrowDown,ArrowLeft"":5,""ArrowDown,ArrowRight"":17}","true","ArrowUp,ArrowLeft","false","","","original","1","44","","",""
"html-keyboard-response","163","832991","0.0-4.0-2.0-1.22","spark_pilot_2","7110","5","8","Male","","","","","","","null","<div style=""font-size:60px;"">+</div>","null","fixation","","","","","","","","","","","45","","",""
"revaluation","164","839022","0.0-4.0-2.0-0.23","spark_pilot_2","7110","5","8","Male","","true","","","","","[523.7000000476837]","./assets/img/canyon/memory/31.jpg","[""ArrowUp""]","value training","canyon","-5","{""ArrowUp,ArrowLeft"":26,""ArrowUp,ArrowRight"":10,""ArrowDown,ArrowLeft"":5,""ArrowDown,ArrowRight"":17}","false","ArrowUp","false","","","original","1","46","","",""
"html-keyboard-response","165","839530","0.0-4.0-2.0-1.23","spark_pilot_2","7110","5","8","Male","","","","","","","null","<div style=""font-size:60px;"">+</div>","null","fixation","","","","","","","","","","","47","","",""
"revaluation","166","845561","0.0-4.0-2.0-0.24","spark_pilot_2","7110","5","8","Male","","false","","","","","[597.5,392.5]","./assets/img/canyon/memory/22.jpg","[""ArrowUp"",""ArrowLeft""]","value training","canyon","26","{""ArrowUp,ArrowLeft"":26,""ArrowUp,ArrowRight"":10,""ArrowDown,ArrowLeft"":5,""ArrowDown,ArrowRight"":17}","true","ArrowUp,ArrowLeft","false","","","original","1","48","","",""
"html-keyboard-response","167","846072","0.0-4.0-2.0-1.24","spark_pilot_2","7110","5","8","Male","","","","","","","null","<div style=""font-size:60px;"">+</div>","null","fixation","","","","","","","","","","","49","","",""
"revaluation","168","852089","0.0-4.0-2.0-0.25","spark_pilot_2","7110","5","8","Male","","false","","","","","[517.5999999046326,389.19999980926514]","./assets/img/canyon/memory/40.jpg","[""ArrowUp"",""ArrowLeft""]","value training","canyon","26","{""ArrowUp,ArrowLeft"":26,""ArrowUp,ArrowRight"":10,""ArrowDown,ArrowLeft"":5,""ArrowDown,ArrowRight"":17}","true","ArrowUp,ArrowLeft","false","","","original","1","50","","",""
"html-keyboard-response","169","852594","0.0-4.0-2.0-1.25","spark_pilot_2","7110","5","8","Male","","","","","","","null","<div style=""font-size:60px;"">+</div>","null","fixation","","","","","","","","","","","51","","",""
"revaluation","170","858617","0.0-4.0-2.0-0.26","spark_pilot_2","7110","5","8","Male","","false","","","","","[726.8000001907349,471]","./assets/img/canyon/memory/17.jpg","[""ArrowUp"",""ArrowLeft""]","value training","canyon","26","{""ArrowUp,ArrowLeft"":26,""ArrowUp,ArrowRight"":10,""ArrowDown,ArrowLeft"":5,""ArrowDown,ArrowRight"":17}","true","ArrowUp,ArrowLeft","false","","","original","1","52","","",""
"html-keyboard-response","171","859128","0.0-4.0-2.0-1.26","spark_pilot_2","7110","5","8","Male","","","","","","","null","<div style=""font-size:60px;"">+</div>","null","fixation","","","","","","","","","","","53","","",""
"revaluation","172","865149","0.0-4.0-2.0-0.27","spark_pilot_2","7110","5","8","Male","","false","","","","","[671.3000001907349,436.40000009536743]","./assets/img/canyon/memory/15.jpg","[""ArrowUp"",""ArrowLeft""]","value training","canyon","26","{""ArrowUp,ArrowLeft"":26,""ArrowUp,ArrowRight"":10,""ArrowDown,ArrowLeft"":5,""ArrowDown,ArrowRight"":17}","true","ArrowUp,ArrowLeft","false","","","original","1","54","","",""
"html-keyboard-response","173","865655","0.0-4.0-2.0-1.27","spark_pilot_2","7110","5","8","Male","","","","","","","null","<div style=""font-size:60px;"">+</div>","null","fixation","","","","","","","","","","","55","","",""
"revaluation","174","871679","0.0-4.0-2.0-0.28","spark_pilot_2","7110","5","8","Male","","false","","","","","[525.0999999046326,543.9000000953674]","./assets/img/canyon/memory/5.jpg","[""ArrowUp"",""ArrowLeft""]","value training","canyon","26","{""ArrowUp,ArrowLeft"":26,""ArrowUp,ArrowRight"":10,""ArrowDown,ArrowLeft"":5,""ArrowDown,ArrowRight"":17}","true","ArrowUp,ArrowLeft","false","","","original","1","56","","",""
"html-keyboard-response","175","872192","0.0-4.0-2.0-1.28","spark_pilot_2","7110","5","8","Male","","","","","","","null","<div style=""font-size:60px;"">+</div>","null","fixation","","","","","","","","","","","57","","",""
"revaluation","176","878221","0.0-4.0-2.0-0.29","spark_pilot_2","7110","5","8","Male","","false","","","","","[542.1000001430511,378.7999999523163]","./assets/img/canyon/memory/5.jpg","[""ArrowUp"",""ArrowLeft""]","value training","canyon","26","{""ArrowUp,ArrowLeft"":26,""ArrowUp,ArrowRight"":10,""ArrowDown,ArrowLeft"":5,""ArrowDown,ArrowRight"":17}","true","ArrowUp,ArrowLeft","false","","","original","1","58","","",""
"html-keyboard-response","177","878731","0.0-4.0-2.0-1.29","spark_pilot_2","7110","5","8","Male","","","","","","","null","<div style=""font-size:60px;"">+</div>","null","fixation","","","","","","","","","","","59","","",""
"revaluation","178","884766","0.0-4.0-2.0-0.30","spark_pilot_2","7110","5","8","Male","","false","","","","","[513.7999999523163,472.2999999523163]","./assets/img/canyon/memory/4.jpg","[""ArrowUp"",""ArrowLeft""]","value training","canyon","26","{""ArrowUp,ArrowLeft"":26,""ArrowUp,ArrowRight"":10,""ArrowDown,ArrowLeft"":5,""ArrowDown,ArrowRight"":17}","true","ArrowUp,ArrowLeft","false","","","original","1","60","","",""
"html-keyboard-response","179","885273","0.0-4.0-2.0-1.30","spark_pilot_2","7110","5","8","Male","","","","","","","null","<div style=""font-size:60px;"">+</div>","null","fixation","","","","","","","","","","","61","","",""
"revaluation","180","889288","0.0-4.0-2.0-0.31","spark_pilot_2","7110","5","8","Male","","false","","","","","[693.5]","./assets/img/canyon/catch/6.jpg","[""spaceBar""]","value training","canyon","0","{""ArrowUp,ArrowLeft"":26,""ArrowUp,ArrowRight"":10,""ArrowDown,ArrowLeft"":5,""ArrowDown,ArrowRight"":17}","true","spaceBar","true","","","original","1","62","","",""
"html-keyboard-response","181","889795","0.0-4.0-2.0-1.31","spark_pilot_2","7110","5","8","Male","","","","","","","null","<div style=""font-size:60px;"">+</div>","null","fixation","","","","","","","","","","","63","","",""
"revaluation","182","895813","0.0-4.0-2.0-0.32","spark_pilot_2","7110","5","8","Male","","false","","","","","[1010.1999998092651,708.8000001907349]","./assets/img/canyon/memory/30.jpg","[""ArrowUp"",""ArrowLeft""]","value training","canyon","26","{""ArrowUp,ArrowLeft"":26,""ArrowUp,ArrowRight"":10,""ArrowDown,ArrowLeft"":5,""ArrowDown,ArrowRight"":17}","true","ArrowUp,ArrowLeft","false","","","original","1","64","","",""
"html-keyboard-response","183","896328","0.0-4.0-2.0-1.32","spark_pilot_2","7110","5","8","Male","","","","","","","null","<div style=""font-size:60px;"">+</div>","null","fixation","","","","","","","","","","","65","","",""
"revaluation","184","902374","0.0-4.0-2.0-0.33","spark_pilot_2","7110","5","8","Male","","false","","","","","[1537.5999999046326,656.2999999523163]","./assets/img/canyon/memory/34.jpg","[""ArrowUp"",""ArrowLeft""]","value training","canyon","26","{""ArrowUp,ArrowLeft"":26,""ArrowUp,ArrowRight"":10,""ArrowDown,ArrowLeft"":5,""ArrowDown,ArrowRight"":17}","true","ArrowUp,ArrowLeft","false","","","original","1","66","","",""
"html-keyboard-response","185","902885","0.0-4.0-2.0-1.33","spark_pilot_2","7110","5","8","Male","","","","","","","null","<div style=""font-size:60px;"">+</div>","null","fixation","","","","","","","","","","","67","","",""
"revaluation","186","908918","0.0-4.0-2.0-0.34","spark_pilot_2","7110","5","8","Male","","false","","","","","[699.5999999046326,841.5]","./assets/img/canyon/memory/8.jpg","[""ArrowUp"",""ArrowLeft""]","value training","canyon","26","{""ArrowUp,ArrowLeft"":26,""ArrowUp,ArrowRight"":10,""ArrowDown,ArrowLeft"":5,""ArrowDown,ArrowRight"":17}","true","ArrowUp,ArrowLeft","false","","","original","1","68","","",""
"html-keyboard-response","187","909428","0.0-4.0-2.0-1.34","spark_pilot_2","7110","5","8","Male","","","","","","","null","<div style=""font-size:60px;"">+</div>","null","fixation","","","","","","","","","","","69","","",""
"revaluation","188","913451","0.0-4.0-2.0-0.35","spark_pilot_2","7110","5","8","Male","","false","","","","","[644.1999998092651]","./assets/img/canyon/catch/5.jpg","[""spaceBar""]","value training","canyon","0","{""ArrowUp,ArrowLeft"":26,""ArrowUp,ArrowRight"":10,""ArrowDown,ArrowLeft"":5,""ArrowDown,ArrowRight"":17}","true","spaceBar","true","","","original","1","70","","",""
"html-keyboard-response","189","913955","0.0-4.0-2.0-1.35","spark_pilot_2","7110","5","8","Male","","","","","","","null","<div style=""font-size:60px;"">+</div>","null","fixation","","","","","","","","","","","71","","",""
"revaluation","190","919989","0.0-4.0-2.0-0.36","spark_pilot_2","7110","5","8","Male","","false","","","","","[829.0999999046326,427.5]","./assets/img/canyon/memory/31.jpg","[""ArrowUp"",""ArrowLeft""]","value training","canyon","26","{""ArrowUp,ArrowLeft"":26,""ArrowUp,ArrowRight"":10,""ArrowDown,ArrowLeft"":5,""ArrowDown,ArrowRight"":17}","true","ArrowUp,ArrowLeft","false","","","original","1","72","","",""
"html-keyboard-response","191","920496","0.0-4.0-2.0-1.36","spark_pilot_2","7110","5","8","Male","","","","","","","null","<div style=""font-size:60px;"">+</div>","null","fixation","","","","","","","","","","","73","","",""
"revaluation","192","926525","0.0-4.0-2.0-0.37","spark_pilot_2","7110","5","8","Male","","false","","","","","[613.3999998569489,362.40000009536743]","./assets/img/canyon/memory/9.jpg","[""ArrowUp"",""ArrowLeft""]","value training","canyon","26","{""ArrowUp,ArrowLeft"":26,""ArrowUp,ArrowRight"":10,""ArrowDown,ArrowLeft"":5,""ArrowDown,ArrowRight"":17}","true","ArrowUp,ArrowLeft","false","","","original","1","74","","",""
"html-keyboard-response","193","927035","0.0-4.0-2.0-1.37","spark_pilot_2","7110","5","8","Male","","","","","","","null","<div style=""font-size:60px;"">+</div>","null","fixation","","","","","","","","","","","75","","",""
"revaluation","194","933066","0.0-4.0-2.0-0.38","spark_pilot_2","7110","5","8","Male","","false","","","","","[519.7999999523163,893.4000000953674]","./assets/img/canyon/memory/24.jpg","[""ArrowUp"",""ArrowLeft""]","value training","canyon","26","{""ArrowUp,ArrowLeft"":26,""ArrowUp,ArrowRight"":10,""ArrowDown,ArrowLeft"":5,""ArrowDown,ArrowRight"":17}","true","ArrowUp,ArrowLeft","false","","","original","1","76","","",""
"html-keyboard-response","195","933568","0.0-4.0-2.0-1.38","spark_pilot_2","7110","5","8","Male","","","","","","","null","<div style=""font-size:60px;"">+</div>","null","fixation","","","","","","","","","","","77","","",""
"revaluation","196","937584","0.0-4.0-2.0-0.39","spark_pilot_2","7110","5","8","Male","","false","","","","","[934.9000000953674]","./assets/img/canyon/catch/0.jpg","[""spaceBar""]","value training","canyon","0","{""ArrowUp,ArrowLeft"":26,""ArrowUp,ArrowRight"":10,""ArrowDown,ArrowLeft"":5,""ArrowDown,ArrowRight"":17}","true","spaceBar","true","","","original","1","78","","",""
"html-keyboard-response","197","938086","0.0-4.0-2.0-1.39","spark_pilot_2","7110","5","8","Male","","","","","","","null","<div style=""font-size:60px;"">+</div>","null","fixation","","","","","","","","","","","79","","",""
"revaluation","198","944097","0.0-4.0-2.0-0.40","spark_pilot_2","7110","5","8","Male","","false","","","","","[1109.7000000476837,379.30000019073486]","./assets/img/canyon/memory/30.jpg","[""ArrowUp"",""ArrowLeft""]","value training","canyon","26","{""ArrowUp,ArrowLeft"":26,""ArrowUp,ArrowRight"":10,""ArrowDown,ArrowLeft"":5,""ArrowDown,ArrowRight"":17}","true","ArrowUp,ArrowLeft","false","","","original","1","80","","",""
"html-keyboard-response","199","944606","0.0-4.0-2.0-1.40","spark_pilot_2","7110","5","8","Male","","","","","","","null","<div style=""font-size:60px;"">+</div>","null","fixation","","","","","","","","","","","81","","",""
"revaluation","200","950635","0.0-4.0-2.0-0.41","spark_pilot_2","7110","5","8","Male","","false","","","","","[1183.3999998569489,894.7000000476837]","./assets/img/canyon/memory/14.jpg","[""ArrowUp"",""ArrowLeft""]","value training","canyon","26","{""ArrowUp,ArrowLeft"":26,""ArrowUp,ArrowRight"":10,""ArrowDown,ArrowLeft"":5,""ArrowDown,ArrowRight"":17}","true","ArrowUp,ArrowLeft","false","","","original","1","82","","",""
"html-keyboard-response","201","951145","0.0-4.0-2.0-1.41","spark_pilot_2","7110","5","8","Male","","","","","","","null","<div style=""font-size:60px;"">+</div>","null","fixation","","","","","","","","","","","83","","",""
"revaluation","202","957164","0.0-4.0-2.0-0.42","spark_pilot_2","7110","5","8","Male","","false","","","","","[468.60000014305115,332.2000000476837]","./assets/img/canyon/memory/22.jpg","[""ArrowUp"",""ArrowLeft""]","value training","canyon","26","{""ArrowUp,ArrowLeft"":26,""ArrowUp,ArrowRight"":10,""ArrowDown,ArrowLeft"":5,""ArrowDown,ArrowRight"":17}","true","ArrowUp,ArrowLeft","false","","","original","1","84","","",""
"html-keyboard-response","203","957666","0.0-4.0-2.0-1.42","spark_pilot_2","7110","5","8","Male","","","","","","","null","<div style=""font-size:60px;"">+</div>","null","fixation","","","","","","","","","","","85","","",""
"revaluation","204","963685","0.0-4.0-2.0-0.43","spark_pilot_2","7110","5","8","Male","","false","","","","","[682.9000000953674,355.5]","./assets/img/canyon/memory/34.jpg","[""ArrowUp"",""ArrowLeft""]","value training","canyon","26","{""ArrowUp,ArrowLeft"":26,""ArrowUp,ArrowRight"":10,""ArrowDown,ArrowLeft"":5,""ArrowDown,ArrowRight"":17}","true","ArrowUp,ArrowLeft","false","","","original","1","86","","",""
"html-keyboard-response","205","964192","0.0-4.0-2.0-1.43","spark_pilot_2","7110","5","8","Male","","","","","","","null","<div style=""font-size:60px;"">+</div>","null","fixation","","","","","","","","","","","87","","",""
"revaluation","206","970222","0.0-4.0-2.0-0.44","spark_pilot_2","7110","5","8","Male","","false","","","","","[638.2000000476837,553.3999998569489]","./assets/img/canyon/memory/37.jpg","[""ArrowUp"",""ArrowLeft""]","value training","canyon","26","{""ArrowUp,ArrowLeft"":26,""ArrowUp,ArrowRight"":10,""ArrowDown,ArrowLeft"":5,""ArrowDown,ArrowRight"":17}","true","ArrowUp,ArrowLeft","false","","","original","1","88","","",""
"html-keyboard-response","207","970730","0.0-4.0-2.0-1.44","spark_pilot_2","7110","5","8","Male","","","","","","","null","<div style=""font-size:60px;"">+</div>","null","fixation","","","","","","","","","","","89","","",""
"revaluation","208","976755","0.0-4.0-2.0-0.45","spark_pilot_2","7110","5","8","Male","","false","","","","","[686.4000000953674,394.40000009536743]","./assets/img/canyon/memory/8.jpg","[""ArrowUp"",""ArrowLeft""]","value training","canyon","26","{""ArrowUp,ArrowLeft"":26,""ArrowUp,ArrowRight"":10,""ArrowDown,ArrowLeft"":5,""ArrowDown,ArrowRight"":17}","true","ArrowUp,ArrowLeft","false","","","original","1","90","","",""
"html-keyboard-response","209","977265","0.0-4.0-2.0-1.45","spark_pilot_2","7110","5","8","Male","","","","","","","null","<div style=""font-size:60px;"">+</div>","null","fixation","","","","","","","","","","","91","","",""
"revaluation","210","981285","0.0-4.0-2.0-0.46","spark_pilot_2","7110","5","8","Male","","false","","","","","[631.2000000476837]","./assets/img/canyon/catch/4.jpg","[""spaceBar""]","value training","canyon","0","{""ArrowUp,ArrowLeft"":26,""ArrowUp,ArrowRight"":10,""ArrowDown,ArrowLeft"":5,""ArrowDown,ArrowRight"":17}","true","spaceBar","true","","","original","1","92","","",""
"html-keyboard-response","211","981789","0.0-4.0-2.0-1.46","spark_pilot_2","7110","5","8","Male","","","","","","","null","<div style=""font-size:60px;"">+</div>","null","fixation","","","","","","","","","","","93","","",""
"revaluation","212","985804","0.0-4.0-2.0-0.47","spark_pilot_2","7110","5","8","Male","","false","","","","","[1318.4000000953674]","./assets/img/canyon/catch/2.jpg","[""spaceBar""]","value training","canyon","0","{""ArrowUp,ArrowLeft"":26,""ArrowUp,ArrowRight"":10,""ArrowDown,ArrowLeft"":5,""ArrowDown,ArrowRight"":17}","true","spaceBar","true","","","original","1","94","","",""
"html-keyboard-response","213","986312","0.0-4.0-2.0-1.47","spark_pilot_2","7110","5","8","Male","","","","","","","null","<div style=""font-size:60px;"">+</div>","null","fixation","","","","","","","","","","","95","","",""
"revaluation","214","992335","0.0-4.0-2.0-0.48","spark_pilot_2","7110","5","8","Male","","false","","","","","[633.9000000953674,567.5]","./assets/img/canyon/memory/17.jpg","[""ArrowUp"",""ArrowLeft""]","value training","canyon","26","{""ArrowUp,ArrowLeft"":26,""ArrowUp,ArrowRight"":10,""ArrowDown,ArrowLeft"":5,""ArrowDown,ArrowRight"":17}","true","ArrowUp,ArrowLeft","false","","","original","1","96","","",""
"html-keyboard-response","215","992853","0.0-4.0-2.0-1.48","spark_pilot_2","7110","5","8","Male","","","","","","","null","<div style=""font-size:60px;"">+</div>","null","fixation","","","","","","","","","","","97","","",""
"revaluation","216","998880","0.0-4.0-2.0-0.49","spark_pilot_2","7110","5","8","Male","","false","","","","","[562.3999998569489,955.2000000476837]","./assets/img/canyon/memory/28.jpg","[""ArrowUp"",""ArrowLeft""]","value training","canyon","26","{""ArrowUp,ArrowLeft"":26,""ArrowUp,ArrowRight"":10,""ArrowDown,ArrowLeft"":5,""ArrowDown,ArrowRight"":17}","true","ArrowUp,ArrowLeft","false","","","original","1","98","","",""
"html-keyboard-response","217","999389","0.0-4.0-2.0-1.49","spark_pilot_2","7110","5","8","Male","","","","","","","null","<div style=""font-size:60px;"">+</div>","null","fixation","","","","","","","","","","","99","","",""
"learning-instructions","218","1016938","0.0-4.0-3.0-0.0","spark_pilot_2","7110","5","8","Male","","","","","","","4341.599999904633","<p> Now, you will travel with a friend who will choose whether you go up or down first. </p>
            <p> On these turns, you will just see the animal that they found. You will still get to choose which chest to search for treasure.</p>","","instructions","","","","","","","","","","","","","",""
"revaluation","219","1020973","0.0-4.0-4.0-0.0","spark_pilot_2","7110","5","8","Male","","false","","","","","[836.2999999523163]","./assets/img/canyon/animals/lion.jpg","[""ArrowLeft""]","revaluation","canyon","26","{""ArrowUp,ArrowLeft"":26,""ArrowUp,ArrowRight"":10,""ArrowDown,ArrowLeft"":5,""ArrowDown,ArrowRight"":17}","true","ArrowUp,ArrowLeft","","","","original","1","0","","",""
"html-keyboard-response","220","1021493","0.0-4.0-4.0-1.0","spark_pilot_2","7110","5","8","Male","","","","","","","null","<div style=""font-size:60px;"">+</div>","null","fixation","","","","","","","","","","","1","","",""
"revaluation","221","1025533","0.0-4.0-4.0-0.1","spark_pilot_2","7110","5","8","Male","","false","","","","","[921.1999998092651]","./assets/img/canyon/animals/lion.jpg","[""ArrowLeft""]","revaluation","canyon","26","{""ArrowUp,ArrowLeft"":26,""ArrowUp,ArrowRight"":10,""ArrowDown,ArrowLeft"":5,""ArrowDown,ArrowRight"":17}","true","ArrowUp,ArrowLeft","","","","original","1","2","","",""
"html-keyboard-response","222","1026042","0.0-4.0-4.0-1.1","spark_pilot_2","7110","5","8","Male","","","","","","","null","<div style=""font-size:60px;"">+</div>","null","fixation","","","","","","","","","","","3","","",""
"revaluation","223","1030063","0.0-4.0-4.0-0.2","spark_pilot_2","7110","5","8","Male","","false","","","","","[479.40000009536743]","./assets/img/canyon/animals/giraffe.jpg","[""ArrowRight""]","revaluation","canyon","17","{""ArrowUp,ArrowLeft"":26,""ArrowUp,ArrowRight"":10,""ArrowDown,ArrowLeft"":5,""ArrowDown,ArrowRight"":17}","true","ArrowDown,ArrowRight","","","","original","1","4","","",""
"html-keyboard-response","224","1030583","0.0-4.0-4.0-1.2","spark_pilot_2","7110","5","8","Male","","","","","","","null","<div style=""font-size:60px;"">+</div>","null","fixation","","","","","","","","","","","5","","",""
"revaluation","225","1034614","0.0-4.0-4.0-0.3","spark_pilot_2","7110","5","8","Male","","false","","","","","[1585.5]","./assets/img/canyon/animals/lion.jpg","[""ArrowRight""]","revaluation","canyon","10","{""ArrowUp,ArrowLeft"":26,""ArrowUp,ArrowRight"":10,""ArrowDown,ArrowLeft"":5,""ArrowDown,ArrowRight"":17}","false","ArrowUp,ArrowRight","","","","original","1","6","","",""
"html-keyboard-response","226","1035133","0.0-4.0-4.0-1.3","spark_pilot_2","7110","5","8","Male","","","","","","","null","<div style=""font-size:60px;"">+</div>","null","fixation","","","","","","","","","","","7","","",""
"revaluation","227","1039153","0.0-4.0-4.0-0.4","spark_pilot_2","7110","5","8","Male","","false","","","","","[565.5999999046326]","./assets/img/canyon/animals/giraffe.jpg","[""ArrowLeft""]","revaluation","canyon","5","{""ArrowUp,ArrowLeft"":26,""ArrowUp,ArrowRight"":10,""ArrowDown,ArrowLeft"":5,""ArrowDown,ArrowRight"":17}","false","ArrowDown,ArrowLeft","","","","original","1","8","","",""
"html-keyboard-response","228","1039672","0.0-4.0-4.0-1.4","spark_pilot_2","7110","5","8","Male","","","","","","","null","<div style=""font-size:60px;"">+</div>","null","fixation","","","","","","","","","","","9","","",""
"revaluation","229","1043710","0.0-4.0-4.0-0.5","spark_pilot_2","7110","5","8","Male","","false","","","","","[476.90000009536743]","./assets/img/canyon/animals/lion.jpg","[""ArrowLeft""]","revaluation","canyon","26","{""ArrowUp,ArrowLeft"":26,""ArrowUp,ArrowRight"":10,""ArrowDown,ArrowLeft"":5,""ArrowDown,ArrowRight"":17}","true","ArrowUp,ArrowLeft","","","","original","1","10","","",""
"html-keyboard-response","230","1044217","0.0-4.0-4.0-1.5","spark_pilot_2","7110","5","8","Male","","","","","","","null","<div style=""font-size:60px;"">+</div>","null","fixation","","","","","","","","","","","11","","",""
"revaluation","231","1048231","0.0-4.0-4.0-0.6","spark_pilot_2","7110","5","8","Male","","false","","","","","[885.0999999046326]","./assets/img/canyon/animals/giraffe.jpg","[""ArrowLeft""]","revaluation","canyon","5","{""ArrowUp,ArrowLeft"":26,""ArrowUp,ArrowRight"":10,""ArrowDown,ArrowLeft"":5,""ArrowDown,ArrowRight"":17}","false","ArrowDown,ArrowLeft","","","","original","1","12","","",""
"html-keyboard-response","232","1048740","0.0-4.0-4.0-1.6","spark_pilot_2","7110","5","8","Male","","","","","","","null","<div style=""font-size:60px;"">+</div>","null","fixation","","","","","","","","","","","13","","",""
"revaluation","233","1052766","0.0-4.0-4.0-0.7","spark_pilot_2","7110","5","8","Male","","false","","","","","[1304.8000001907349]","./assets/img/canyon/animals/giraffe.jpg","[""ArrowRight""]","revaluation","canyon","17","{""ArrowUp,ArrowLeft"":26,""ArrowUp,ArrowRight"":10,""ArrowDown,ArrowLeft"":5,""ArrowDown,ArrowRight"":17}","true","ArrowDown,ArrowRight","","","","original","1","14","","",""
"html-keyboard-response","234","1053273","0.0-4.0-4.0-1.7","spark_pilot_2","7110","5","8","Male","","","","","","","null","<div style=""font-size:60px;"">+</div>","null","fixation","","","","","","","","","","","15","","",""
"revaluation","235","1057283","0.0-4.0-4.0-0.8","spark_pilot_2","7110","5","8","Male","","false","","","","","[885.7000000476837]","./assets/img/canyon/animals/lion.jpg","[""ArrowLeft""]","revaluation","canyon","26","{""ArrowUp,ArrowLeft"":26,""ArrowUp,ArrowRight"":10,""ArrowDown,ArrowLeft"":5,""ArrowDown,ArrowRight"":17}","true","ArrowUp,ArrowLeft","","","","original","1","16","","",""
"html-keyboard-response","236","1057787","0.0-4.0-4.0-1.8","spark_pilot_2","7110","5","8","Male","","","","","","","null","<div style=""font-size:60px;"">+</div>","null","fixation","","","","","","","","","","","17","","",""
"revaluation","237","1061809","0.0-4.0-4.0-0.9","spark_pilot_2","7110","5","8","Male","","false","","","","","[555.5]","./assets/img/canyon/animals/giraffe.jpg","[""ArrowRight""]","revaluation","canyon","17","{""ArrowUp,ArrowLeft"":26,""ArrowUp,ArrowRight"":10,""ArrowDown,ArrowLeft"":5,""ArrowDown,ArrowRight"":17}","true","ArrowDown,ArrowRight","","","","original","1","18","","",""
"html-keyboard-response","238","1062311","0.0-4.0-4.0-1.9","spark_pilot_2","7110","5","8","Male","","","","","","","null","<div style=""font-size:60px;"">+</div>","null","fixation","","","","","","","","","","","19","","",""
"revaluation","239","1066320","0.0-4.0-4.0-0.10","spark_pilot_2","7110","5","8","Male","","false","","","","","[1022.1000001430511]","./assets/img/canyon/animals/giraffe.jpg","[""ArrowRight""]","revaluation","canyon","17","{""ArrowUp,ArrowLeft"":26,""ArrowUp,ArrowRight"":10,""ArrowDown,ArrowLeft"":5,""ArrowDown,ArrowRight"":17}","true","ArrowDown,ArrowRight","","","","original","1","20","","",""
"html-keyboard-response","240","1066830","0.0-4.0-4.0-1.10","spark_pilot_2","7110","5","8","Male","","","","","","","null","<div style=""font-size:60px;"">+</div>","null","fixation","","","","","","","","","","","21","","",""
"revaluation","241","1070856","0.0-4.0-4.0-0.11","spark_pilot_2","7110","5","8","Male","","false","","","","","[1222.2999999523163]","./assets/img/canyon/animals/lion.jpg","[""ArrowLeft""]","revaluation","canyon","26","{""ArrowUp,ArrowLeft"":26,""ArrowUp,ArrowRight"":10,""ArrowDown,ArrowLeft"":5,""ArrowDown,ArrowRight"":17}","true","ArrowUp,ArrowLeft","","","","original","1","22","","",""
"html-keyboard-response","242","1071360","0.0-4.0-4.0-1.11","spark_pilot_2","7110","5","8","Male","","","","","","","null","<div style=""font-size:60px;"">+</div>","null","fixation","","","","","","","","","","","23","","",""
"revaluation","243","1075382","0.0-4.0-4.0-0.12","spark_pilot_2","7110","5","8","Male","","false","","","","","[1203]","./assets/img/canyon/animals/lion.jpg","[""ArrowLeft""]","revaluation","canyon","26","{""ArrowUp,ArrowLeft"":26,""ArrowUp,ArrowRight"":10,""ArrowDown,ArrowLeft"":5,""ArrowDown,ArrowRight"":17}","true","ArrowUp,ArrowLeft","","","","original","1","24","","",""
"html-keyboard-response","244","1075885","0.0-4.0-4.0-1.12","spark_pilot_2","7110","5","8","Male","","","","","","","null","<div style=""font-size:60px;"">+</div>","null","fixation","","","","","","","","","","","25","","",""
"revaluation","245","1079907","0.0-4.0-4.0-0.13","spark_pilot_2","7110","5","8","Male","","true","","","","","[]","./assets/img/canyon/animals/lion.jpg","[]","revaluation","canyon","-5","{""ArrowUp,ArrowLeft"":26,""ArrowUp,ArrowRight"":10,""ArrowDown,ArrowLeft"":5,""ArrowDown,ArrowRight"":17}","false","ArrowUp","","","","original","1","26","","",""
"html-keyboard-response","246","1080416","0.0-4.0-4.0-1.13","spark_pilot_2","7110","5","8","Male","","","","","","","null","<div style=""font-size:60px;"">+</div>","null","fixation","","","","","","","","","","","27","","",""
"revaluation","247","1084437","0.0-4.0-4.0-0.14","spark_pilot_2","7110","5","8","Male","","false","","","","","[912]","./assets/img/canyon/animals/lion.jpg","[""ArrowLeft""]","revaluation","canyon","26","{""ArrowUp,ArrowLeft"":26,""ArrowUp,ArrowRight"":10,""ArrowDown,ArrowLeft"":5,""ArrowDown,ArrowRight"":17}","true","ArrowUp,ArrowLeft","","","","original","1","28","","",""
"html-keyboard-response","248","1084944","0.0-4.0-4.0-1.14","spark_pilot_2","7110","5","8","Male","","","","","","","null","<div style=""font-size:60px;"">+</div>","null","fixation","","","","","","","","","","","29","","",""
"revaluation","249","1088963","0.0-4.0-4.0-0.15","spark_pilot_2","7110","5","8","Male","","false","","","","","[971.0999999046326]","./assets/img/canyon/animals/giraffe.jpg","[""ArrowRight""]","revaluation","canyon","17","{""ArrowUp,ArrowLeft"":26,""ArrowUp,ArrowRight"":10,""ArrowDown,ArrowLeft"":5,""ArrowDown,ArrowRight"":17}","true","ArrowDown,ArrowRight","","","","original","1","30","","",""
"html-keyboard-response","250","1089467","0.0-4.0-4.0-1.15","spark_pilot_2","7110","5","8","Male","","","","","","","null","<div style=""font-size:60px;"">+</div>","null","fixation","","","","","","","","","","","31","","",""
"revaluation","251","1093487","0.0-4.0-4.0-0.16","spark_pilot_2","7110","5","8","Male","","false","","","","","[748.5]","./assets/img/canyon/animals/giraffe.jpg","[""ArrowRight""]","revaluation","canyon","17","{""ArrowUp,ArrowLeft"":26,""ArrowUp,ArrowRight"":10,""ArrowDown,ArrowLeft"":5,""ArrowDown,ArrowRight"":17}","true","ArrowDown,ArrowRight","","","","original","1","32","","",""
"html-keyboard-response","252","1093993","0.0-4.0-4.0-1.16","spark_pilot_2","7110","5","8","Male","","","","","","","null","<div style=""font-size:60px;"">+</div>","null","fixation","","","","","","","","","","","33","","",""
"revaluation","253","1098002","0.0-4.0-4.0-0.17","spark_pilot_2","7110","5","8","Male","","false","","","","","[895.7999999523163]","./assets/img/canyon/animals/giraffe.jpg","[""ArrowRight""]","revaluation","canyon","17","{""ArrowUp,ArrowLeft"":26,""ArrowUp,ArrowRight"":10,""ArrowDown,ArrowLeft"":5,""ArrowDown,ArrowRight"":17}","true","ArrowDown,ArrowRight","","","","original","1","34","","",""
"html-keyboard-response","254","1098508","0.0-4.0-4.0-1.17","spark_pilot_2","7110","5","8","Male","","","","","","","null","<div style=""font-size:60px;"">+</div>","null","fixation","","","","","","","","","","","35","","",""
"learning-instructions","255","1111775","0.0-4.0-5.0-0.0","spark_pilot_2","7110","5","8","Male","","","","","","","1419.5999999046326","<p> Time to play the dot game! </p>
            <p> For one minute, click the red dots on the following screen as they appear. </p>
            <p><b> Don't look away, as you will earn bonus for clicking dots</b>. </p>","","instructions","","","","","","","","","","","","","",""
"revaluation","256","1171783","0.0-4.0-6.0-0.0","spark_pilot_2","7110","5","8","Male","","","","","","","[296,214,147,121,112,115]","","","rest","","60","","","","","0","60000","","","","","",""
"learning-instructions","257","1180513","0.0-4.0-7.0-0.0","spark_pilot_2","7110","5","8","Male","","","","","","","2327.7000000476837","<p> You have almost finished this part of the game! </p>
            <p> We are going to ask you to make a few more choices. </p>","","instructions","","","","","","","","","","","","","",""
"learning-instructions","258","1197588","0.0-4.0-7.0-0.1","spark_pilot_2","7110","5","8","Male","","","","","","","3112","<p> First, you need to decide whether to go up or down. When you see each picture, use the arrow keys to make your choice. </p>
            <p><b>You will not see which animal you found, but try to get to the one that will give you the most treasure.</b></p>","","instructions","","","","","","","","","","","","","",""
"revaluation","259","1199124","0.0-4.0-8.0-0.0","spark_pilot_2","7110","5","8","Male","","false","","","","","[1533.8999998569489]","./assets/img/canyon/test/0.jpg","[""ArrowUp""]","first stage test","canyon","0","{""ArrowUp,ArrowLeft"":26,""ArrowUp,ArrowRight"":10,""ArrowDown,ArrowLeft"":5,""ArrowDown,ArrowRight"":17}","true","ArrowUp","false","","","original","1","","","",""
"html-keyboard-response","260","1199633","0.0-4.0-8.0-1.0","spark_pilot_2","7110","5","8","Male","","","","","","","null","<div style=""font-size:60px;"">+</div>","null","fixation","","","","","","","","","","","","","",""
"revaluation","261","1200534","0.0-4.0-8.0-0.1","spark_pilot_2","7110","5","8","Male","","false","","","","","[894.0999999046326]","./assets/img/canyon/test/3.jpg","[""ArrowUp""]","first stage test","canyon","0","{""ArrowUp,ArrowLeft"":26,""ArrowUp,ArrowRight"":10,""ArrowDown,ArrowLeft"":5,""ArrowDown,ArrowRight"":17}","true","ArrowUp","false","","","original","1","","","",""
"html-keyboard-response","262","1201053","0.0-4.0-8.0-1.1","spark_pilot_2","7110","5","8","Male","","","","","","","null","<div style=""font-size:60px;"">+</div>","null","fixation","","","","","","","","","","","","","",""
"revaluation","263","1202065","0.0-4.0-8.0-0.2","spark_pilot_2","7110","5","8","Male","","false","","","","","[1005.7999999523163]","./assets/img/canyon/test/2.jpg","[""ArrowUp""]","first stage test","canyon","0","{""ArrowUp,ArrowLeft"":26,""ArrowUp,ArrowRight"":10,""ArrowDown,ArrowLeft"":5,""ArrowDown,ArrowRight"":17}","true","ArrowUp","false","","","original","1","","","",""
"html-keyboard-response","264","1202573","0.0-4.0-8.0-1.2","spark_pilot_2","7110","5","8","Male","","","","","","","null","<div style=""font-size:60px;"">+</div>","null","fixation","","","","","","","","","","","","","",""
"revaluation","265","1203207","0.0-4.0-8.0-0.3","spark_pilot_2","7110","5","8","Male","","false","","","","","[627.3999998569489]","./assets/img/canyon/test/1.jpg","[""ArrowUp""]","first stage test","canyon","0","{""ArrowUp,ArrowLeft"":26,""ArrowUp,ArrowRight"":10,""ArrowDown,ArrowLeft"":5,""ArrowDown,ArrowRight"":17}","true","ArrowUp","false","","","original","1","","","",""
"html-keyboard-response","266","1203723","0.0-4.0-8.0-1.3","spark_pilot_2","7110","5","8","Male","","","","","","","null","<div style=""font-size:60px;"">+</div>","null","fixation","","","","","","","","","","","","","",""
"learning-instructions","267","1217323","0.0-4.0-9.0-0.0","spark_pilot_2","7110","5","8","Male","","","","","","","2256.399999856949","<p> Now you will see the animals again and can search their chests for treasure. </p>
            <p> This time, you will not see how much treasure you earned, but you will earn more bonus money for making better choices. </p>","","instructions","","","","","","","","","","","","","",""
"revaluation","268","1218210","0.0-4.0-10.0-0.0","spark_pilot_2","7110","5","8","Male","","false","","","","","[884.9000000953674]","./assets/img/canyon/animals/lion.jpg","[""ArrowLeft""]","second stage test","canyon","0","{""ArrowUp,ArrowLeft"":26,""ArrowUp,ArrowRight"":10,""ArrowDown,ArrowLeft"":5,""ArrowDown,ArrowRight"":17}","true","ArrowUp,ArrowLeft","","","","original","1","","","",""
"html-keyboard-response","269","1218724","0.0-4.0-10.0-1.0","spark_pilot_2","7110","5","8","Male","","","","","","","null","<div style=""font-size:60px;"">+</div>","null","fixation","","","","","","","","","","","","","",""
"revaluation","270","1219485","0.0-4.0-10.0-0.1","spark_pilot_2","7110","5","8","Male","","false","","","","","[755.4000000953674]","./assets/img/canyon/animals/lion.jpg","[""ArrowLeft""]","second stage test","canyon","0","{""ArrowUp,ArrowLeft"":26,""ArrowUp,ArrowRight"":10,""ArrowDown,ArrowLeft"":5,""ArrowDown,ArrowRight"":17}","true","ArrowUp,ArrowLeft","","","","original","1","","","",""
"html-keyboard-response","271","1219994","0.0-4.0-10.0-1.1","spark_pilot_2","7110","5","8","Male","","","","","","","null","<div style=""font-size:60px;"">+</div>","null","fixation","","","","","","","","","","","","","",""
"revaluation","272","1220740","0.0-4.0-10.0-0.2","spark_pilot_2","7110","5","8","Male","","false","","","","","[739.7000000476837]","./assets/img/canyon/animals/lion.jpg","[""ArrowLeft""]","second stage test","canyon","0","{""ArrowUp,ArrowLeft"":26,""ArrowUp,ArrowRight"":10,""ArrowDown,ArrowLeft"":5,""ArrowDown,ArrowRight"":17}","true","ArrowUp,ArrowLeft","","","","original","1","","","",""
"html-keyboard-response","273","1221254","0.0-4.0-10.0-1.2","spark_pilot_2","7110","5","8","Male","","","","","","","null","<div style=""font-size:60px;"">+</div>","null","fixation","","","","","","","","","","","","","",""
"revaluation","274","1221937","0.0-4.0-10.0-0.3","spark_pilot_2","7110","5","8","Male","","false","","","","","[676.7999999523163]","./assets/img/canyon/animals/lion.jpg","[""ArrowLeft""]","second stage test","canyon","0","{""ArrowUp,ArrowLeft"":26,""ArrowUp,ArrowRight"":10,""ArrowDown,ArrowLeft"":5,""ArrowDown,ArrowRight"":17}","true","ArrowUp,ArrowLeft","","","","original","1","","","",""
"html-keyboard-response","275","1222454","0.0-4.0-10.0-1.3","spark_pilot_2","7110","5","8","Male","","","","","","","null","<div style=""font-size:60px;"">+</div>","null","fixation","","","","","","","","","","","","","",""
"revaluation","276","1223353","0.0-4.0-10.0-0.4","spark_pilot_2","7110","5","8","Male","","false","","","","","[894.5]","./assets/img/canyon/animals/giraffe.jpg","[""ArrowRight""]","second stage test","canyon","0","{""ArrowUp,ArrowLeft"":26,""ArrowUp,ArrowRight"":10,""ArrowDown,ArrowLeft"":5,""ArrowDown,ArrowRight"":17}","true","ArrowDown,ArrowRight","","","","original","1","","","",""
"html-keyboard-response","277","1223864","0.0-4.0-10.0-1.4","spark_pilot_2","7110","5","8","Male","","","","","","","null","<div style=""font-size:60px;"">+</div>","null","fixation","","","","","","","","","","","","","",""
"revaluation","278","1224703","0.0-4.0-10.0-0.5","spark_pilot_2","7110","5","8","Male","","false","","","","","[834.0999999046326]","./assets/img/canyon/animals/giraffe.jpg","[""ArrowRight""]","second stage test","canyon","0","{""ArrowUp,ArrowLeft"":26,""ArrowUp,ArrowRight"":10,""ArrowDown,ArrowLeft"":5,""ArrowDown,ArrowRight"":17}","true","ArrowDown,ArrowRight","","","","original","1","","","",""
"html-keyboard-response","279","1225214","0.0-4.0-10.0-1.5","spark_pilot_2","7110","5","8","Male","","","","","","","null","<div style=""font-size:60px;"">+</div>","null","fixation","","","","","","","","","","","","","",""
"revaluation","280","1225669","0.0-4.0-10.0-0.6","spark_pilot_2","7110","5","8","Male","","false","","","","","[449.90000009536743]","./assets/img/canyon/animals/giraffe.jpg","[""ArrowRight""]","second stage test","canyon","0","{""ArrowUp,ArrowLeft"":26,""ArrowUp,ArrowRight"":10,""ArrowDown,ArrowLeft"":5,""ArrowDown,ArrowRight"":17}","true","ArrowDown,ArrowRight","","","","original","1","","","",""
"html-keyboard-response","281","1226173","0.0-4.0-10.0-1.6","spark_pilot_2","7110","5","8","Male","","","","","","","null","<div style=""font-size:60px;"">+</div>","null","fixation","","","","","","","","","","","","","",""
"revaluation","282","1226877","0.0-4.0-10.0-0.7","spark_pilot_2","7110","5","8","Male","","false","","","","","[698]","./assets/img/canyon/animals/giraffe.jpg","[""ArrowRight""]","second stage test","canyon","0","{""ArrowUp,ArrowLeft"":26,""ArrowUp,ArrowRight"":10,""ArrowDown,ArrowLeft"":5,""ArrowDown,ArrowRight"":17}","true","ArrowDown,ArrowRight","","","","original","1","","","",""
"html-keyboard-response","283","1227384","0.0-4.0-10.0-1.7","spark_pilot_2","7110","5","8","Male","","","","","","","null","<div style=""font-size:60px;"">+</div>","null","fixation","","","","","","","","","","","","","",""
"learning-instructions","284","1233252","0.0-4.0-0.1-0.2","spark_pilot_2","7110","5","8","Male","","","","","","","3064.800000190735","<p> This time you are searching for treasure in the <b>ocean</b>.</p>","","instructions","","","","","","","","","","","","","",""
"learning-instructions","285","1253809","0.0-4.0-0.1-0.3","spark_pilot_2","7110","5","8","Male","","","","","","","3303.5","<p><b>New</b> animals with <b>new</b> treasure chests live here. You need to explore to discover where the animal with the best treasure chest is.</p>
                    <p> Like before, once you figure out which animal has the chest with the most treasure, you should try to get to that animal and select that chest! </p>","","instructions","","","","","","","","","","","","","",""
"learning-instructions","286","1270179","0.0-4.0-1.1-0.1","spark_pilot_2","7110","5","8","Male","","","","","","","1631.3999998569489","<p> Remember, when you see a picture of the place, use the up and down keys to <b>find an animal</b>.</p>
            <p> When you encounter an animal, you should use the left and right keys to <b>select a treasure chest</b>.</p>
            <p> Don't forget to look out for the robber! </p>","","instructions","","","","","","","","","","","","","",""
"revaluation","287","1276224","0.0-4.0-2.1-0.50","spark_pilot_2","7110","5","8","Male","","false","","","","","[1529.7000000476837,1518.4000000953674]","./assets/img/ocean/memory/26.jpg","[""ArrowUp"",""ArrowLeft""]","value training","ocean","23","{""ArrowUp,ArrowLeft"":23,""ArrowUp,ArrowRight"":10,""ArrowDown,ArrowLeft"":8,""ArrowDown,ArrowRight"":30}","false","ArrowUp,ArrowLeft","false","","","revaluation","2","0","","",""
"html-keyboard-response","288","1276744","0.0-4.0-2.1-1.50","spark_pilot_2","7110","5","8","Male","","","","","","","null","<div style=""font-size:60px;"">+</div>","null","fixation","","","","","","","","","","","1","","",""
"revaluation","289","1282774","0.0-4.0-2.1-0.51","spark_pilot_2","7110","5","8","Male","","false","","","","","[1038.5,609.1999998092651]","./assets/img/ocean/memory/22.jpg","[""ArrowDown"",""ArrowRight""]","value training","ocean","30","{""ArrowUp,ArrowLeft"":23,""ArrowUp,ArrowRight"":10,""ArrowDown,ArrowLeft"":8,""ArrowDown,ArrowRight"":30}","true","ArrowDown,ArrowRight","false","","","revaluation","2","2","","",""
"html-keyboard-response","290","1283294","0.0-4.0-2.1-1.51","spark_pilot_2","7110","5","8","Male","","","","","","","null","<div style=""font-size:60px;"">+</div>","null","fixation","","","","","","","","","","","3","","",""
"revaluation","291","1287334","0.0-4.0-2.1-0.52","spark_pilot_2","7110","5","8","Male","","false","","","","","[1650.7000000476837]","./assets/img/ocean/catch/0.jpg","[""spaceBar""]","value training","ocean","0","{""ArrowUp,ArrowLeft"":23,""ArrowUp,ArrowRight"":10,""ArrowDown,ArrowLeft"":8,""ArrowDown,ArrowRight"":30}","true","spaceBar","true","","","revaluation","2","4","","",""
"html-keyboard-response","292","1287844","0.0-4.0-2.1-1.52","spark_pilot_2","7110","5","8","Male","","","","","","","null","<div style=""font-size:60px;"">+</div>","null","fixation","","","","","","","","","","","5","","",""
"revaluation","293","1293884","0.0-4.0-2.1-0.53","spark_pilot_2","7110","5","8","Male","","false","","","","","[1231.0999999046326,478.7999999523163]","./assets/img/ocean/memory/31.jpg","[""ArrowDown"",""ArrowLeft""]","value training","ocean","8","{""ArrowUp,ArrowLeft"":23,""ArrowUp,ArrowRight"":10,""ArrowDown,ArrowLeft"":8,""ArrowDown,ArrowRight"":30}","false","ArrowDown,ArrowLeft","false","","","revaluation","2","6","","",""
"html-keyboard-response","294","1294394","0.0-4.0-2.1-1.53","spark_pilot_2","7110","5","8","Male","","","","","","","null","<div style=""font-size:60px;"">+</div>","null","fixation","","","","","","","","","","","7","","",""
"revaluation","295","1300424","0.0-4.0-2.1-0.54","spark_pilot_2","7110","5","8","Male","","false","","","","","[1052.2000000476837,725.5999999046326]","./assets/img/ocean/memory/8.jpg","[""ArrowUp"",""ArrowRight""]","value training","ocean","10","{""ArrowUp,ArrowLeft"":23,""ArrowUp,ArrowRight"":10,""ArrowDown,ArrowLeft"":8,""ArrowDown,ArrowRight"":30}","false","ArrowUp,ArrowRight","false","","","revaluation","2","8","","",""
"html-keyboard-response","296","1300934","0.0-4.0-2.1-1.54","spark_pilot_2","7110","5","8","Male","","","","","","","null","<div style=""font-size:60px;"">+</div>","null","fixation","","","","","","","","","","","9","","",""
"revaluation","297","1306947","0.0-4.0-2.1-0.55","spark_pilot_2","7110","5","8","Male","","false","","","","","[387.59999990463257,641.8999998569489]","./assets/img/ocean/memory/14.jpg","[""ArrowUp"",""ArrowLeft""]","value training","ocean","23","{""ArrowUp,ArrowLeft"":23,""ArrowUp,ArrowRight"":10,""ArrowDown,ArrowLeft"":8,""ArrowDown,ArrowRight"":30}","false","ArrowUp,ArrowLeft","false","","","revaluation","2","10","","",""
"html-keyboard-response","298","1307452","0.0-4.0-2.1-1.55","spark_pilot_2","7110","5","8","Male","","","","","","","null","<div style=""font-size:60px;"">+</div>","null","fixation","","","","","","","","","","","11","","",""
"revaluation","299","1313477","0.0-4.0-2.1-0.56","spark_pilot_2","7110","5","8","Male","","false","","","","","[404.09999990463257,484.7000000476837]","./assets/img/ocean/memory/22.jpg","[""ArrowDown"",""ArrowRight""]","value training","ocean","30","{""ArrowUp,ArrowLeft"":23,""ArrowUp,ArrowRight"":10,""ArrowDown,ArrowLeft"":8,""ArrowDown,ArrowRight"":30}","true","ArrowDown,ArrowRight","false","","","revaluation","2","12","","",""
"html-keyboard-response","300","1313987","0.0-4.0-2.1-1.56","spark_pilot_2","7110","5","8","Male","","","","","","","null","<div style=""font-size:60px;"">+</div>","null","fixation","","","","","","","","","","","13","","",""
"revaluation","301","1320021","0.0-4.0-2.1-0.57","spark_pilot_2","7110","5","8","Male","","false","","","","","[457.7000000476837,398.80000019073486]","./assets/img/ocean/memory/5.jpg","[""ArrowDown"",""ArrowRight""]","value training","ocean","30","{""ArrowUp,ArrowLeft"":23,""ArrowUp,ArrowRight"":10,""ArrowDown,ArrowLeft"":8,""ArrowDown,ArrowRight"":30}","true","ArrowDown,ArrowRight","false","","","revaluation","2","14","","",""
"html-keyboard-response","302","1320530","0.0-4.0-2.1-1.57","spark_pilot_2","7110","5","8","Male","","","","","","","null","<div style=""font-size:60px;"">+</div>","null","fixation","","","","","","","","","","","15","","",""
"revaluation","303","1324556","0.0-4.0-2.1-0.58","spark_pilot_2","7110","5","8","Male","","false","","","","","[1032.5999999046326]","./assets/img/ocean/catch/6.jpg","[""spaceBar""]","value training","ocean","0","{""ArrowUp,ArrowLeft"":23,""ArrowUp,ArrowRight"":10,""ArrowDown,ArrowLeft"":8,""ArrowDown,ArrowRight"":30}","true","spaceBar","true","","","revaluation","2","16","","",""
"html-keyboard-response","304","1325067","0.0-4.0-2.1-1.58","spark_pilot_2","7110","5","8","Male","","","","","","","null","<div style=""font-size:60px;"">+</div>","null","fixation","","","","","","","","","","","17","","",""
"revaluation","305","1329081","0.0-4.0-2.1-0.59","spark_pilot_2","7110","5","8","Male","","true","","","","","[]","./assets/img/ocean/memory/15.jpg","[]","value training","ocean","-5","{""ArrowUp,ArrowLeft"":23,""ArrowUp,ArrowRight"":10,""ArrowDown,ArrowLeft"":8,""ArrowDown,ArrowRight"":30}","false","","false","","","revaluation","2","18","","",""
"html-keyboard-response","306","1329590","0.0-4.0-2.1-1.59","spark_pilot_2","7110","5","8","Male","","","","","","","null","<div style=""font-size:60px;"">+</div>","null","fixation","","","","","","","","","","","19","","",""
"revaluation","307","1335622","0.0-4.0-2.1-0.60","spark_pilot_2","7110","5","8","Male","","false","","","","","[722.9000000953674,560.8999998569489]","./assets/img/ocean/memory/9.jpg","[""ArrowDown"",""ArrowRight""]","value training","ocean","30","{""ArrowUp,ArrowLeft"":23,""ArrowUp,ArrowRight"":10,""ArrowDown,ArrowLeft"":8,""ArrowDown,ArrowRight"":30}","true","ArrowDown,ArrowRight","false","","","revaluation","2","20","","",""
"html-keyboard-response","308","1336124","0.0-4.0-2.1-1.60","spark_pilot_2","7110","5","8","Male","","","","","","","null","<div style=""font-size:60px;"">+</div>","null","fixation","","","","","","","","","","","21","","",""
"revaluation","309","1342148","0.0-4.0-2.1-0.61","spark_pilot_2","7110","5","8","Male","","false","","","","","[1689.3999998569489,426.90000009536743]","./assets/img/ocean/memory/5.jpg","[""ArrowDown"",""ArrowRight""]","value training","ocean","30","{""ArrowUp,ArrowLeft"":23,""ArrowUp,ArrowRight"":10,""ArrowDown,ArrowLeft"":8,""ArrowDown,ArrowRight"":30}","true","ArrowDown,ArrowRight","false","","","revaluation","2","22","","",""
"html-keyboard-response","310","1342660","0.0-4.0-2.1-1.61","spark_pilot_2","7110","5","8","Male","","","","","","","null","<div style=""font-size:60px;"">+</div>","null","fixation","","","","","","","","","","","23","","",""
