"trial_type","trial_index","time_elapsed","internal_node_id","task_version","subject_id","assigned_condition","age","gender","success","timeout","failed_images","failed_audio","failed_video","browser_interaction","rt","stimulus","response","task_part","environment","score","rewardMap","correct","fullState","isCatch","numberMissed","duration","condition","order","trial_num","key_press","ground_truth","bonus"
"pavlovia","0","1333","0.0-0.0","spark_pilot_2","7341","2","13","Female","","","","","","","","","","","","","","","","","","","","","","","",""
"preload","1","10766","0.0-1.0","spark_pilot_2","7341","2","13","Female","true","false","[]","[]","[]","[{""event"":""fullscreenenter"",""trial"":2,""time"":13563}]","","","","","","","","","","","","","","","","","",""
"fullscreen","2","14552","0.0-2.0","spark_pilot_2","7341","2","13","Female","true","","","","","","","","","","","","","","","","","","","","","","",""
"audio-button-response","3","16083","0.0-3.0-0.0-0.0","spark_pilot_2","7341","2","13","Female","","","","","","","1501","./assets/audio/audiotest/turtle.mp3","2","audio_test","","","","","","","","","","","","","",""
"learning-instructions","4","24173","0.0-3.0-1.0-0.0","spark_pilot_2","7341","2","13","Female","","","","","","","1113.0999999642372","<p> Welcome! Please remember to stay in fullscreen mode and don't click away from the experiment. </p>","","instructions","","","","","","","","","","","","","",""
"learning-instructions","5","33783","0.0-3.0-1.0-0.1","spark_pilot_2","7341","2","13","Female","","","","","","","1192.0999999642372","<p> Today you will be playing a game to earn treasure. </p>
            <p> At the end of the experiment, you will earn a bonus based on how much treasure you find. </p>
            <img src='./assets/img/instructions/treasure.jpg' class='instructions-image'>","","instructions","","","","","","","","","","","","","",""
"learning-instructions","6","44695","0.0-3.0-1.0-0.2","spark_pilot_2","7341","2","13","Female","","","","","","","2654.699999988079","<p> Animals have hidden treasure in treasure chests. </p>
            <p> You need to first find an animal and then choose which of their treasure chests to search. </p>
            <img src='./assets/img/space/animals/cat.jpg' class='instructions-image'>","","instructions","","","","","","","","","","","","","",""
"learning-instructions","7","58991","0.0-3.0-1.0-0.3","spark_pilot_2","7341","2","13","Female","","","","","","","1150.6000000238419","<p> In each round, you will search for treasure in a different place. In the real game, there will be two rounds. </p>
            <p> You will begin with a separate, practice round where you will search for treasure in outer space. </p>
            <img src='./assets/img/space/0.jpg' class='instructions-image'>","","instructions","","","","","","","","","","","","","",""
"learning-instructions","8","71141","0.0-3.0-1.0-0.4","spark_pilot_2","7341","2","13","Female","","","","","","","740.6999999880791","<p> On every turn, you will see a picture of the place that you are in, but the specific image may be different each time. </p>
            <p> For example, both of these images mean you are in outer space. </p>
            <img src='./assets/img/instructions/outerspace.jpg' class='instructions-image'>","","instructions","","","","","","","","","","","","","",""
"learning-instructions","9","80369","0.0-3.0-1.0-0.5","spark_pilot_2","7341","2","13","Female","","","","","","","1408.800000011921","<p> You need to decide which direction to travel in. </p>
            <p> You can choose between going <b>up or down</b> by using the arrow keys. </p>
            <img src='./assets/img/instructions/updown.jpg' class='instructions-image'>","","instructions","","","","","","","","","","","","","",""
"learning-instructions","10","89946","0.0-3.0-1.0-0.6","spark_pilot_2","7341","2","13","Female","","","","","","","764.9000000357628","<p> You will have <b>2 seconds</b> to make your choice. </p>
            <p> If you do not make a choice within 2 seconds, you will not find an animal or earn treasure. </p>
            <img src='./assets/img/instructions/2seconds.jpg' class='instructions-image'>","","instructions","","","","","","","","","","","","","",""
"learning-instructions","11","97663","0.0-3.0-1.0-0.7","spark_pilot_2","7341","2","13","Female","","","","","","","682.8000000119209","<p> Let’s try practicing that now! </p>
            <p> When you see a picture of the place you are in, press the <b>up</b> key to travel up. </p>
            <img src='./assets/img/instructions/pressUp.jpg' class='instructions-image'>","","instructions","","","","","","","","","","","","","",""
"revaluation","12","101699","0.0-3.0-2.0-0.0","spark_pilot_2","7341","2","13","Female","","false","","","","","[1459.6000000238419]","./assets/img/space/0.jpg","[""ArrowUp""]","first stage practice","space","0","null","null","ArrowUp","false","","","","","","","",""
"html-keyboard-response","13","102207","0.0-3.0-2.0-1.0","spark_pilot_2","7341","2","13","Female","","","","","","","null","<div style=""font-size:60px;"">+</div>","null","fixation","","","","","","","","","","","","","",""
"revaluation","14","106227","0.0-3.0-2.0-0.1","spark_pilot_2","7341","2","13","Female","","false","","","","","[1296.9000000357628]","./assets/img/space/1.jpg","[""ArrowUp""]","first stage practice","space","0","null","null","ArrowUp","false","","","","","","","",""
"html-keyboard-response","15","106748","0.0-3.0-2.0-1.1","spark_pilot_2","7341","2","13","Female","","","","","","","null","<div style=""font-size:60px;"">+</div>","null","fixation","","","","","","","","","","","","","",""
"revaluation","16","110769","0.0-3.0-2.0-0.2","spark_pilot_2","7341","2","13","Female","","false","","","","","[1731.6000000238419]","./assets/img/space/2.jpg","[""ArrowUp""]","first stage practice","space","0","null","null","ArrowUp","false","","","","","","","",""
"html-keyboard-response","17","111278","0.0-3.0-2.0-1.2","spark_pilot_2","7341","2","13","Female","","","","","","","null","<div style=""font-size:60px;"">+</div>","null","fixation","","","","","","","","","","","","","",""
"learning-instructions","18","117995","0.0-3.0-3.0-0.0","spark_pilot_2","7341","2","13","Female","","","","","","","2015.6000000238419","<p> Great job! Now try pressing the <b>down</b> key to travel down. </p>
            <img src='./assets/img/instructions/pressDown.jpg' class='instructions-image'>","","instructions","","","","","","","","","","","","","",""
"revaluation","19","122028","0.0-3.0-4.0-0.0","spark_pilot_2","7341","2","13","Female","","false","","","","","[1470.1000000238419]","./assets/img/space/3.jpg","[""ArrowDown""]","first stage practice","space","0","null","null","ArrowDown","false","","","","","","","",""
"html-keyboard-response","20","122548","0.0-3.0-4.0-1.0","spark_pilot_2","7341","2","13","Female","","","","","","","null","<div style=""font-size:60px;"">+</div>","null","fixation","","","","","","","","","","","","","",""
"revaluation","21","126568","0.0-3.0-4.0-0.1","spark_pilot_2","7341","2","13","Female","","false","","","","","[380.7000000476837]","./assets/img/space/4.jpg","[""ArrowDown""]","first stage practice","space","0","null","null","ArrowDown","false","","","","","","","",""
"html-keyboard-response","22","127078","0.0-3.0-4.0-1.1","spark_pilot_2","7341","2","13","Female","","","","","","","null","<div style=""font-size:60px;"">+</div>","null","fixation","","","","","","","","","","","","","",""
"revaluation","23","131118","0.0-3.0-4.0-0.2","spark_pilot_2","7341","2","13","Female","","false","","","","","[1018.1999999880791]","./assets/img/space/5.jpg","[""ArrowDown""]","first stage practice","space","0","null","null","ArrowDown","false","","","","","","","",""
"html-keyboard-response","24","131627","0.0-3.0-4.0-1.2","spark_pilot_2","7341","2","13","Female","","","","","","","null","<div style=""font-size:60px;"">+</div>","null","fixation","","","","","","","","","","","","","",""
"learning-instructions","25","142346","0.0-3.0-5.0-0.0","spark_pilot_2","7341","2","13","Female","","","","","","","877.6000000238419","<p> The animals don’t move, so the animal in the upper part of a place will stay in the upper part of a place, and the animal in the lower part of a place will stay in the lower part of a place. </p>","","instructions","","","","","","","","","","","","","",""
"learning-instructions","26","152206","0.0-3.0-5.0-0.1","spark_pilot_2","7341","2","13","Female","","","","","","","737.5","<p> Each animal has two treasure chests for you to choose from. </p>
            <p> The amount of treasure in each chest can range from <b> 0 to 40 pieces.</b></p>","","instructions","","","","","","","","","","","","","",""
"learning-instructions","27","164122","0.0-3.0-5.0-0.2","spark_pilot_2","7341","2","13","Female","","","","","","","732.6999999880791","<p> You should decide which chest to search for treasure by using the <b>left</b> and <b>right</b> arrow keys. </p>
            <p><b> Pay attention to which animal is on the screen, as the animals have different treasure chests. </b></p>
            <img src='./assets/img/instructions/leftright.jpg' class='instructions-image'>","","instructions","","","","","","","","","","","","","",""
"learning-instructions","28","172806","0.0-3.0-5.0-0.3","spark_pilot_2","7341","2","13","Female","","","","","","","2327.2000000476837","<p> Let’s try practicing that now. </p>
            <p> When you see an animal, choose which chest to search for treasure. </p>
            <img src='./assets/img/instructions/chooseChest.jpg' class='instructions-image'>","","instructions","","","","","","","","","","","","","",""
"revaluation","29","176838","0.0-3.0-6.0-0.0","spark_pilot_2","7341","2","13","Female","","false","","","","","[1273.2999999523163]","./assets/img/space/animals/rabbit.jpg","[""ArrowRight""]","second stage practice","space","23","{""ArrowUp,ArrowLeft"":3,""ArrowUp,ArrowRight"":36,""ArrowDown,ArrowLeft"":15,""ArrowDown,ArrowRight"":23}","true","ArrowDown,ArrowRight","","","","","","","","",""
"html-keyboard-response","30","177358","0.0-3.0-6.0-1.0","spark_pilot_2","7341","2","13","Female","","","","","","","null","<div style=""font-size:60px;"">+</div>","null","fixation","","","","","","","","","","","","","",""
"revaluation","31","181378","0.0-3.0-6.0-0.1","spark_pilot_2","7341","2","13","Female","","false","","","","","[633.8999999761581]","./assets/img/space/animals/rabbit.jpg","[""ArrowLeft""]","second stage practice","space","15","{""ArrowUp,ArrowLeft"":3,""ArrowUp,ArrowRight"":36,""ArrowDown,ArrowLeft"":15,""ArrowDown,ArrowRight"":23}","false","ArrowDown,ArrowLeft","","","","","","","","",""
"html-keyboard-response","32","181898","0.0-3.0-6.0-1.1","spark_pilot_2","7341","2","13","Female","","","","","","","null","<div style=""font-size:60px;"">+</div>","null","fixation","","","","","","","","","","","","","",""
"revaluation","33","185928","0.0-3.0-6.0-0.2","spark_pilot_2","7341","2","13","Female","","false","","","","","[318.5999999642372]","./assets/img/space/animals/cat.jpg","[""ArrowRight""]","second stage practice","space","36","{""ArrowUp,ArrowLeft"":3,""ArrowUp,ArrowRight"":36,""ArrowDown,ArrowLeft"":15,""ArrowDown,ArrowRight"":23}","true","ArrowUp,ArrowRight","","","","","","","","",""
"html-keyboard-response","34","186438","0.0-3.0-6.0-1.2","spark_pilot_2","7341","2","13","Female","","","","","","","null","<div style=""font-size:60px;"">+</div>","null","fixation","","","","","","","","","","","","","",""
"revaluation","35","190478","0.0-3.0-6.0-0.3","spark_pilot_2","7341","2","13","Female","","false","","","","","[930.6999999880791]","./assets/img/space/animals/cat.jpg","[""ArrowLeft""]","second stage practice","space","3","{""ArrowUp,ArrowLeft"":3,""ArrowUp,ArrowRight"":36,""ArrowDown,ArrowLeft"":15,""ArrowDown,ArrowRight"":23}","false","ArrowUp,ArrowLeft","","","","","","","","",""
"html-keyboard-response","36","190998","0.0-3.0-6.0-1.3","spark_pilot_2","7341","2","13","Female","","","","","","","null","<div style=""font-size:60px;"">+</div>","null","fixation","","","","","","","","","","","","","",""
"learning-instructions","37","214302","0.0-3.0-7.0-0.0","spark_pilot_2","7341","2","13","Female","","","","","","","6483","<p> Great job. Now let’s try putting it together. </p>
            <p> On each turn, you will first see a picture to remind you of the place you are in, and you need to choose whether to go up or down. </p>
            <p> Then you will see an animal and choose which of its chests to search for treasure. </p>","","instructions","","","","","","","","","","","","","",""
"learning-instructions","38","223788","0.0-3.0-7.0-0.1","spark_pilot_2","7341","2","13","Female","","","","","","","1229.300000011921","<p> When you choose whether to go up or down, try to go to the animal with the chest with the most treasure. </p>
            <p> Try practicing that now! </p>","","instructions","","","","","","","","","","","","","",""
"revaluation","39","229828","0.0-3.0-8.0-0.0","spark_pilot_2","7341","2","13","Female","","false","","","","","[1565,404.80000001192093]","./assets/img/space/6.jpg","[""ArrowUp"",""ArrowRight""]","full practice","space","36","{""ArrowUp,ArrowLeft"":3,""ArrowUp,ArrowRight"":36,""ArrowDown,ArrowLeft"":15,""ArrowDown,ArrowRight"":23}","true","ArrowUp,ArrowRight","false","","","","","","","",""
"html-keyboard-response","40","230338","0.0-3.0-8.0-1.0","spark_pilot_2","7341","2","13","Female","","","","","","","null","<div style=""font-size:60px;"">+</div>","null","fixation","","","","","","","","","","","","","",""
"revaluation","41","236378","0.0-3.0-8.0-0.1","spark_pilot_2","7341","2","13","Female","","false","","","","","[965.4000000357628,478.60000002384186]","./assets/img/space/7.jpg","[""ArrowUp"",""ArrowRight""]","full practice","space","36","{""ArrowUp,ArrowLeft"":3,""ArrowUp,ArrowRight"":36,""ArrowDown,ArrowLeft"":15,""ArrowDown,ArrowRight"":23}","true","ArrowUp,ArrowRight","false","","","","","","","",""
"html-keyboard-response","42","236898","0.0-3.0-8.0-1.1","spark_pilot_2","7341","2","13","Female","","","","","","","null","<div style=""font-size:60px;"">+</div>","null","fixation","","","","","","","","","","","","","",""
"revaluation","43","242934","0.0-3.0-8.0-0.2","spark_pilot_2","7341","2","13","Female","","false","","","","","[589.8999999761581,348.80000001192093]","./assets/img/space/8.jpg","[""ArrowUp"",""ArrowRight""]","full practice","space","36","{""ArrowUp,ArrowLeft"":3,""ArrowUp,ArrowRight"":36,""ArrowDown,ArrowLeft"":15,""ArrowDown,ArrowRight"":23}","true","ArrowUp,ArrowRight","false","","","","","","","",""
"html-keyboard-response","44","243448","0.0-3.0-8.0-1.2","spark_pilot_2","7341","2","13","Female","","","","","","","null","<div style=""font-size:60px;"">+</div>","null","fixation","","","","","","","","","","","","","",""
"revaluation","45","249488","0.0-3.0-8.0-0.3","spark_pilot_2","7341","2","13","Female","","false","","","","","[711.3999999761581,350.19999998807907]","./assets/img/space/9.jpg","[""ArrowUp"",""ArrowRight""]","full practice","space","36","{""ArrowUp,ArrowLeft"":3,""ArrowUp,ArrowRight"":36,""ArrowDown,ArrowLeft"":15,""ArrowDown,ArrowRight"":23}","true","ArrowUp,ArrowRight","false","","","","","","","",""
"html-keyboard-response","46","250008","0.0-3.0-8.0-1.3","spark_pilot_2","7341","2","13","Female","","","","","","","null","<div style=""font-size:60px;"">+</div>","null","fixation","","","","","","","","","","","","","",""
"revaluation","47","256019","0.0-3.0-8.0-0.4","spark_pilot_2","7341","2","13","Female","","false","","","","","[480.39999997615814,320.4000000357628]","./assets/img/space/10.jpg","[""ArrowUp"",""ArrowLeft""]","full practice","space","3","{""ArrowUp,ArrowLeft"":3,""ArrowUp,ArrowRight"":36,""ArrowDown,ArrowLeft"":15,""ArrowDown,ArrowRight"":23}","false","ArrowUp,ArrowLeft","false","","","","","","","",""
"html-keyboard-response","48","256522","0.0-3.0-8.0-1.4","spark_pilot_2","7341","2","13","Female","","","","","","","null","<div style=""font-size:60px;"">+</div>","null","fixation","","","","","","","","","","","","","",""
"learning-instructions","49","267738","0.0-3.0-9.0-0.0","spark_pilot_2","7341","2","13","Female","","","","","","","915","<p> One last thing: sometimes, you will see a robber. The robber can be anywhere in the picture. </p>
            <p> If you do not stop them, you will lose treasure. </p>
            <img src='./assets/img/instructions/robber.jpg' class='instructions-image'>","","instructions","","","","","","","","","","","","","",""
"learning-instructions","50","276750","0.0-3.0-9.0-0.1","spark_pilot_2","7341","2","13","Female","","","","","","","1857.7000000476837","<p> If you see the robber, you should <b>press the space bar</b> rather than using the arrow keys. </p>
            <p> Try practicing that now! </p>","","instructions","","","","","","","","","","","","","",""
"revaluation","51","280761","0.0-3.0-10.0-0.0","spark_pilot_2","7341","2","13","Female","","false","","","","","[1010.6000000238419]","./assets/img/space/catch/0.jpg","[""spaceBar""]","catch practice","space","0","{""ArrowUp,ArrowLeft"":3,""ArrowUp,ArrowRight"":36,""ArrowDown,ArrowLeft"":15,""ArrowDown,ArrowRight"":23}","true","spaceBar","true","","","","","","","",""
"html-keyboard-response","52","281271","0.0-3.0-10.0-1.0","spark_pilot_2","7341","2","13","Female","","","","","","","null","<div style=""font-size:60px;"">+</div>","null","fixation","","","","","","","","","","","","","",""
"revaluation","53","285291","0.0-3.0-10.0-0.1","spark_pilot_2","7341","2","13","Female","","false","","","","","[951.5]","./assets/img/space/catch/1.jpg","[""spaceBar""]","catch practice","space","0","{""ArrowUp,ArrowLeft"":3,""ArrowUp,ArrowRight"":36,""ArrowDown,ArrowLeft"":15,""ArrowDown,ArrowRight"":23}","true","spaceBar","true","","","","","","","",""
"html-keyboard-response","54","285811","0.0-3.0-10.0-1.1","spark_pilot_2","7341","2","13","Female","","","","","","","null","<div style=""font-size:60px;"">+</div>","null","fixation","","","","","","","","","","","","","",""
"revaluation","55","289842","0.0-3.0-10.0-0.2","spark_pilot_2","7341","2","13","Female","","false","","","","","[547.3999999761581]","./assets/img/space/catch/2.jpg","[""spaceBar""]","catch practice","space","0","{""ArrowUp,ArrowLeft"":3,""ArrowUp,ArrowRight"":36,""ArrowDown,ArrowLeft"":15,""ArrowDown,ArrowRight"":23}","true","spaceBar","true","","","","","","","",""
"html-keyboard-response","56","290361","0.0-3.0-10.0-1.2","spark_pilot_2","7341","2","13","Female","","","","","","","null","<div style=""font-size:60px;"">+</div>","null","fixation","","","","","","","","","","","","","",""
"learning-instructions","57","304876","0.0-3.0-11.0-0.0","spark_pilot_2","7341","2","13","Female","","","","","","","913.3000000119209","<p> After you explore a place to find treasure, it will be time to play a different game. </p>
            <p> During this game, red dots will appear on the screen and fall down slowly. </p>
            <p><b> You must click on them before they reach the bottom. </b></p>
            <img src='./assets/img/instructions/dotGame.jpg' class='instructions-image'>","","instructions","","","","","","","","","","","","","",""
"learning-instructions","58","311680","0.0-3.0-11.0-0.1","spark_pilot_2","7341","2","13","Female","","","","","","","907.9000000357628","<p> For every dot you click, you will earn additional treasure. </p>
            <p> Let’s try practicing that now. </p>","","instructions","","","","","","","","","","","","","",""
"revaluation","59","326688","0.0-3.0-12.0-0.0","spark_pilot_2","7341","2","13","Female","","","","","","","[187]","","","rest practice","","10","","","","","0","15000","","","","","",""
"learning-instructions","60","332732","0.0-3.0-13.0-0.0-0.0","spark_pilot_2","7341","2","13","Female","","","","","","","799.6000000238419","<p> Now, you will practice a shortened version of the game to get a sense of how it all fits together. </p>","","instructions","","","","","","","","","","","","","",""
"learning-instructions","61","336670","0.0-3.0-13.0-0.0-0.1","spark_pilot_2","7341","2","13","Female","","","","","","","747.9000000357628","<p>This time you are searching for treasure in outer space.</p>","","instructions","","","","","","","","","","","","","",""
"learning-instructions","62","353252","0.0-3.0-13.0-1.0-0.0","spark_pilot_2","7341","2","13","Female","","","","","","","1829.3999999761581","<p> Remember, when you see a picture of the place, use the up and down keys to <b>find an animal</b>.</p>
            <p> When you encounter an animal, you should use the left and right keys to <b>select a treasure chest</b>.</p>
            <p> Don't forget to look out for the robber! </p>","","instructions","","","","","","","","","","","","","",""
"revaluation","63","357271","0.0-3.0-13.0-2.0-0.0","spark_pilot_2","7341","2","13","Female","","true","","","","","[]","./assets/img/space/11.jpg","[]","practice block","space","-5","{""ArrowUp,ArrowLeft"":3,""ArrowUp,ArrowRight"":36,""ArrowDown,ArrowLeft"":15,""ArrowDown,ArrowRight"":23}","false","","false","","","","","","","",""
"html-keyboard-response","64","357791","0.0-3.0-13.0-2.0-1.0","spark_pilot_2","7341","2","13","Female","","","","","","","null","<div style=""font-size:60px;"">+</div>","null","fixation","","","","","","","","","","","","","",""
"revaluation","65","363831","0.0-3.0-13.0-2.0-0.1","spark_pilot_2","7341","2","13","Female","","false","","","","","[656.5999999642372,393.2999999523163]","./assets/img/space/12.jpg","[""ArrowUp"",""ArrowRight""]","practice block","space","36","{""ArrowUp,ArrowLeft"":3,""ArrowUp,ArrowRight"":36,""ArrowDown,ArrowLeft"":15,""ArrowDown,ArrowRight"":23}","true","ArrowUp,ArrowRight","false","","","","","","","",""
"html-keyboard-response","66","364341","0.0-3.0-13.0-2.0-1.1","spark_pilot_2","7341","2","13","Female","","","","","","","null","<div style=""font-size:60px;"">+</div>","null","fixation","","","","","","","","","","","","","",""
"revaluation","67","370391","0.0-3.0-13.0-2.0-0.2","spark_pilot_2","7341","2","13","Female","","false","","","","","[682.1999999880791,329.10000002384186]","./assets/img/space/13.jpg","[""ArrowUp"",""ArrowLeft""]","practice block","space","3","{""ArrowUp,ArrowLeft"":3,""ArrowUp,ArrowRight"":36,""ArrowDown,ArrowLeft"":15,""ArrowDown,ArrowRight"":23}","false","ArrowUp,ArrowLeft","false","","","","","","","",""
"html-keyboard-response","68","370901","0.0-3.0-13.0-2.0-1.2","spark_pilot_2","7341","2","13","Female","","","","","","","null","<div style=""font-size:60px;"">+</div>","null","fixation","","","","","","","","","","","","","",""
"revaluation","69","376931","0.0-3.0-13.0-2.0-0.3","spark_pilot_2","7341","2","13","Female","","false","","","","","[329.39999997615814,401.19999998807907]","./assets/img/space/14.jpg","[""ArrowDown"",""ArrowRight""]","practice block","space","23","{""ArrowUp,ArrowLeft"":3,""ArrowUp,ArrowRight"":36,""ArrowDown,ArrowLeft"":15,""ArrowDown,ArrowRight"":23}","false","ArrowDown,ArrowRight","false","","","","","","","",""
"html-keyboard-response","70","377451","0.0-3.0-13.0-2.0-1.3","spark_pilot_2","7341","2","13","Female","","","","","","","null","<div style=""font-size:60px;"">+</div>","null","fixation","","","","","","","","","","","","","",""
"revaluation","71","383474","0.0-3.0-13.0-2.0-0.4","spark_pilot_2","7341","2","13","Female","","false","","","","","[636.8999999761581,301]","./assets/img/space/11.jpg","[""ArrowDown"",""ArrowLeft""]","practice block","space","15","{""ArrowUp,ArrowLeft"":3,""ArrowUp,ArrowRight"":36,""ArrowDown,ArrowLeft"":15,""ArrowDown,ArrowRight"":23}","false","ArrowDown,ArrowLeft","false","","","","","","","",""
"html-keyboard-response","72","383975","0.0-3.0-13.0-2.0-1.4","spark_pilot_2","7341","2","13","Female","","","","","","","null","<div style=""font-size:60px;"">+</div>","null","fixation","","","","","","","","","","","","","",""
"revaluation","73","389992","0.0-3.0-13.0-2.0-0.5","spark_pilot_2","7341","2","13","Female","","false","","","","","[903.9000000357628,423.89999997615814]","./assets/img/space/12.jpg","[""ArrowUp"",""ArrowRight""]","practice block","space","36","{""ArrowUp,ArrowLeft"":3,""ArrowUp,ArrowRight"":36,""ArrowDown,ArrowLeft"":15,""ArrowDown,ArrowRight"":23}","true","ArrowUp,ArrowRight","false","","","","","","","",""
"html-keyboard-response","74","390493","0.0-3.0-13.0-2.0-1.5","spark_pilot_2","7341","2","13","Female","","","","","","","null","<div style=""font-size:60px;"">+</div>","null","fixation","","","","","","","","","","","","","",""
"revaluation","75","396499","0.0-3.0-13.0-2.0-0.6","spark_pilot_2","7341","2","13","Female","","false","","","","","[386.5999999642372,281.0999999642372]","./assets/img/space/13.jpg","[""ArrowUp"",""ArrowRight""]","practice block","space","36","{""ArrowUp,ArrowLeft"":3,""ArrowUp,ArrowRight"":36,""ArrowDown,ArrowLeft"":15,""ArrowDown,ArrowRight"":23}","true","ArrowUp,ArrowRight","false","","","","","","","",""
"html-keyboard-response","76","397000","0.0-3.0-13.0-2.0-1.6","spark_pilot_2","7341","2","13","Female","","","","","","","null","<div style=""font-size:60px;"">+</div>","null","fixation","","","","","","","","","","","","","",""
"revaluation","77","403005","0.0-3.0-13.0-2.0-0.7","spark_pilot_2","7341","2","13","Female","","false","","","","","[432.5999999642372,415.19999998807907]","./assets/img/space/14.jpg","[""ArrowUp"",""ArrowRight""]","practice block","space","36","{""ArrowUp,ArrowLeft"":3,""ArrowUp,ArrowRight"":36,""ArrowDown,ArrowLeft"":15,""ArrowDown,ArrowRight"":23}","true","ArrowUp,ArrowRight","false","","","","","","","",""
"html-keyboard-response","78","403506","0.0-3.0-13.0-2.0-1.7","spark_pilot_2","7341","2","13","Female","","","","","","","null","<div style=""font-size:60px;"">+</div>","null","fixation","","","","","","","","","","","","","",""
"revaluation","79","407510","0.0-3.0-13.0-2.0-0.8","spark_pilot_2","7341","2","13","Female","","false","","","","","[717.3999999761581]","./assets/img/space/catch/3.jpg","[""spaceBar""]","practice block","space","0","{""ArrowUp,ArrowLeft"":3,""ArrowUp,ArrowRight"":36,""ArrowDown,ArrowLeft"":15,""ArrowDown,ArrowRight"":23}","true","spaceBar","true","","","","","","","",""
"html-keyboard-response","80","408012","0.0-3.0-13.0-2.0-1.8","spark_pilot_2","7341","2","13","Female","","","","","","","null","<div style=""font-size:60px;"">+</div>","null","fixation","","","","","","","","","","","","","",""
"learning-instructions","81","423390","0.0-3.0-13.0-3.0-0.0","spark_pilot_2","7341","2","13","Female","","","","","","","2458.599999964237","<p> Now, you will travel with a friend who will choose whether you go up or down first. </p>
            <p> On these turns, you will just see the animal that they found. You will still get to choose which chest to search for treasure.</p>","","instructions","","","","","","","","","","","","","",""
"revaluation","82","427420","0.0-3.0-13.0-4.0-0.0","spark_pilot_2","7341","2","13","Female","","false","","","","","[1530.3999999761581]","./assets/img/space/animals/cat.jpg","[""ArrowRight""]","practice block","space","36","{""ArrowUp,ArrowLeft"":3,""ArrowUp,ArrowRight"":36,""ArrowDown,ArrowLeft"":15,""ArrowDown,ArrowRight"":23}","true","ArrowUp,ArrowRight","","","","","","","","",""
"html-keyboard-response","83","427929","0.0-3.0-13.0-4.0-1.0","spark_pilot_2","7341","2","13","Female","","","","","","","null","<div style=""font-size:60px;"">+</div>","null","fixation","","","","","","","","","","","","","",""
"revaluation","84","431960","0.0-3.0-13.0-4.0-0.1","spark_pilot_2","7341","2","13","Female","","false","","","","","[430.0999999642372]","./assets/img/space/animals/rabbit.jpg","[""ArrowLeft""]","practice block","space","15","{""ArrowUp,ArrowLeft"":3,""ArrowUp,ArrowRight"":36,""ArrowDown,ArrowLeft"":15,""ArrowDown,ArrowRight"":23}","false","ArrowDown,ArrowLeft","","","","","","","","",""
"html-keyboard-response","85","432470","0.0-3.0-13.0-4.0-1.1","spark_pilot_2","7341","2","13","Female","","","","","","","null","<div style=""font-size:60px;"">+</div>","null","fixation","","","","","","","","","","","","","",""
"revaluation","86","436500","0.0-3.0-13.0-4.0-0.2","spark_pilot_2","7341","2","13","Female","","false","","","","","[585.2000000476837]","./assets/img/space/animals/cat.jpg","[""ArrowRight""]","practice block","space","36","{""ArrowUp,ArrowLeft"":3,""ArrowUp,ArrowRight"":36,""ArrowDown,ArrowLeft"":15,""ArrowDown,ArrowRight"":23}","true","ArrowUp,ArrowRight","","","","","","","","",""
"html-keyboard-response","87","437019","0.0-3.0-13.0-4.0-1.2","spark_pilot_2","7341","2","13","Female","","","","","","","null","<div style=""font-size:60px;"">+</div>","null","fixation","","","","","","","","","","","","","",""
"revaluation","88","441050","0.0-3.0-13.0-4.0-0.3","spark_pilot_2","7341","2","13","Female","","false","","","","","[594.8999999761581]","./assets/img/space/animals/rabbit.jpg","[""ArrowRight""]","practice block","space","23","{""ArrowUp,ArrowLeft"":3,""ArrowUp,ArrowRight"":36,""ArrowDown,ArrowLeft"":15,""ArrowDown,ArrowRight"":23}","true","ArrowDown,ArrowRight","","","","","","","","",""
"html-keyboard-response","89","441569","0.0-3.0-13.0-4.0-1.3","spark_pilot_2","7341","2","13","Female","","","","","","","null","<div style=""font-size:60px;"">+</div>","null","fixation","","","","","","","","","","","","","",""
"learning-instructions","90","449855","0.0-3.0-13.0-5.0-0.0","spark_pilot_2","7341","2","13","Female","","","","","","","924.5999999642372","<p> Time to play the dot game! </p>
            <p> For 15 seconds, click the red dots on the following screen as they appear. </p>","","instructions","","","","","","","","","","","","","",""
"revaluation","91","464856","0.0-3.0-13.0-6.0-0.0","spark_pilot_2","7341","2","13","Female","","","","","","","[76]","","","rest practice","","10","","","","","0","15000","","","","","",""
"learning-instructions","92","472391","0.0-3.0-13.0-7.0-0.0","spark_pilot_2","7341","2","13","Female","","","","","","","1419.7999999523163","<p> You have almost finished this part of the game! </p>
            <p> We are going to ask you to make a few more choices. </p>","","instructions","","","","","","","","","","","","","",""
"learning-instructions","93","501021","0.0-3.0-13.0-7.0-0.1","spark_pilot_2","7341","2","13","Female","","","","","","","14619.900000035763","<p> First, you need to decide whether to go up or down. When you see each picture, use the arrow keys to make your choice. </p>
            <p><b>You will not see which animal you found, but try to get to the one that will give you the most treasure.</b></p>","","instructions","","","","","","","","","","","","","",""
"revaluation","94","502729","0.0-3.0-13.0-8.0","spark_pilot_2","7341","2","13","Female","","false","","","","","[1707]","./assets/img/space/15.jpg","[""ArrowUp""]","practice block","space","0","{""ArrowUp,ArrowLeft"":3,""ArrowUp,ArrowRight"":36,""ArrowDown,ArrowLeft"":15,""ArrowDown,ArrowRight"":23}","true","ArrowUp","false","","","","","","","",""
"html-keyboard-response","95","503249","0.0-3.0-13.0-9.0","spark_pilot_2","7341","2","13","Female","","","","","","","null","<div style=""font-size:60px;"">+</div>","null","fixation","","","","","","","","","","","","","",""
"learning-instructions","96","516525","0.0-3.0-13.0-10.0-0.0","spark_pilot_2","7341","2","13","Female","","","","","","","1904.300000011921","<p> Now you will see the animals again and can search their chests for treasure. </p>
            <p> This time, you will not see how much treasure you earned, but you will earn more bonus money for making better choices. </p>","","instructions","","","","","","","","","","","","","",""
"revaluation","97","517473","0.0-3.0-13.0-11.0-0.0","spark_pilot_2","7341","2","13","Female","","false","","","","","[946.7999999523163]","./assets/img/space/animals/cat.jpg","[""ArrowRight""]","practice block","space","0","{""ArrowUp,ArrowLeft"":3,""ArrowUp,ArrowRight"":36,""ArrowDown,ArrowLeft"":15,""ArrowDown,ArrowRight"":23}","true","ArrowUp,ArrowRight","","","","","","","","",""
"html-keyboard-response","98","517975","0.0-3.0-13.0-11.0-1.0","spark_pilot_2","7341","2","13","Female","","","","","","","null","<div style=""font-size:60px;"">+</div>","null","fixation","","","","","","","","","","","","","",""
"revaluation","99","518993","0.0-3.0-13.0-11.0-0.1","spark_pilot_2","7341","2","13","Female","","false","","","","","[1015.9000000357628]","./assets/img/space/animals/rabbit.jpg","[""ArrowRight""]","practice block","space","0","{""ArrowUp,ArrowLeft"":3,""ArrowUp,ArrowRight"":36,""ArrowDown,ArrowLeft"":15,""ArrowDown,ArrowRight"":23}","true","ArrowDown,ArrowRight","","","","","","","","",""
"html-keyboard-response","100","519499","0.0-3.0-13.0-11.0-1.1","spark_pilot_2","7341","2","13","Female","","","","","","","null","<div style=""font-size:60px;"">+</div>","null","fixation","","","","","","","","","","","","","",""
"learning-instructions","101","524929","0.0-3.0-14.0-0.0","spark_pilot_2","7341","2","13","Female","","","","","","","847.7000000476837","<p> Before you start, we're going to ask you a few questions about how the game works. </p>","","instructions","","","","","","","","","","","","","",""
"comp-q","102","531673","0.0-3.0-15.0-0.0-0.0","spark_pilot_2","7341","2","13","Female","","","","","","","1168","<p> <b> True or False? </b> </p>
            <p> There can be 50 pieces of treasure in a given animal's chest. </p>","1","comp_question","","","","true","","","","","","","","","",""
"comp-q","103","539103","0.0-3.0-15.0-0.0-1.0","spark_pilot_2","7341","2","13","Female","","","","","","","772.1999999880791","<p> <b> That's right! </b> The amount of treasure in each chest can range from 0 to 40 pieces. </p>","0","comp_answer","","","","","","","","","","","","","",""
"comp-q","104","546881","0.0-3.0-15.0-0.1-0.1","spark_pilot_2","7341","2","13","Female","","","","","","","670.4000000357628","<p> <b> True or False? </b> </p><p> In this game, all animals have the same amount of treasure in their left and right chests. </p>","1","comp_question","","","","true","","","","","","","","","",""
"comp-q","105","552860","0.0-3.0-15.0-0.1-1.1","spark_pilot_2","7341","2","13","Female","","","","","","","758.4000000357628","<p> <b> That's right! </b> Animals have different amounts of treasure in their treasure chests. </p>","0","comp_answer","","","","","","","","","","","","","",""
"comp-q","106","559471","0.0-3.0-15.0-0.2-0.2","spark_pilot_2","7341","2","13","Female","","","","","","","769.5999999642372","<p> <b> True or False? </b> </p><p> The same animal will always be there if you go up in the same place. </p>","0","comp_question","","","","true","","","","","","","","","",""
"comp-q","107","566891","0.0-3.0-15.0-0.2-1.2","spark_pilot_2","7341","2","13","Female","","","","","","","970.6999999880791","<p> <b> That's right! </b> One animal lives in the upper part and one lives in the lower part of every place. </p>","0","comp_answer","","","","","","","","","","","","","",""
"comp-q","108","573257","0.0-3.0-15.0-0.3-0.3","spark_pilot_2","7341","2","13","Female","","","","","","","845.8000000119209","<p> <b> True or False? </b> </p><p> If you see a different picture, it means you are in a new place. </p>","1","comp_question","","","","true","","","","","","","","","",""
"comp-q","109","585154","0.0-3.0-15.0-0.3-1.3","spark_pilot_2","7341","2","13","Female","","","","","","","672.5","<p> <b> That's right! </b> Lots of different images may show the same place. For example,  you may see three different images that all remind you that you are in outer space. </p>","0","comp_answer","","","","","","","","","","","","","",""
"learning-instructions","110","595906","0.0-3.0-16.0-0.0","spark_pilot_2","7341","2","13","Female","","","","","","","904.5","<p> Good job. Remember to do your best because the amount of treasure you earn will be converted into bonus money. </p>
            <p> It’s time to start the real game! </p>","","instructions","","","","","","","","","","","","","",""
"learning-instructions","111","600583","0.0-4.0-0.0-0.0","spark_pilot_2","7341","2","13","Female","","","","","","","1981.699999988079","<p> This time you are searching for treasure in the <b>ocean</b>.</p>","","instructions","","","","","","","","","","","","","",""
"learning-instructions","112","619562","0.0-4.0-0.0-0.1","spark_pilot_2","7341","2","13","Female","","","","","","","1679.699999988079","<p><b>New</b> animals with <b>new</b> treasure chests live here. You need to explore to discover where the animal with the best treasure chest is.</p>
                    <p> Like before, once you figure out which animal has the chest with the most treasure, you should try to get to that animal and select that chest! </p>","","instructions","","","","","","","","","","","","","",""
"learning-instructions","113","635167","0.0-4.0-1.0-0.0","spark_pilot_2","7341","2","13","Female","","","","","","","876.3999999761581","<p> Remember, when you see a picture of the place, use the up and down keys to <b>find an animal</b>.</p>
            <p> When you encounter an animal, you should use the left and right keys to <b>select a treasure chest</b>.</p>
            <p> Don't forget to look out for the robber! </p>","","instructions","","","","","","","","","","","","","",""
"revaluation","114","641200","0.0-4.0-2.0-0.0","spark_pilot_2","7341","2","13","Female","","false","","","","","[1408.5,783.9000000357628]","./assets/img/ocean/memory/21.jpg","[""ArrowUp"",""ArrowRight""]","value training","ocean","10","{""ArrowUp,ArrowLeft"":23,""ArrowUp,ArrowRight"":10,""ArrowDown,ArrowLeft"":8,""ArrowDown,ArrowRight"":30}","false","ArrowUp,ArrowRight","false","","","revaluation","1","0","","",""
"html-keyboard-response","115","641720","0.0-4.0-2.0-1.0","spark_pilot_2","7341","2","13","Female","","","","","","","null","<div style=""font-size:60px;"">+</div>","null","fixation","","","","","","","","","","","1","","",""
"revaluation","116","647770","0.0-4.0-2.0-0.1","spark_pilot_2","7341","2","13","Female","","false","","","","","[486.9000000357628,536]","./assets/img/ocean/memory/38.jpg","[""ArrowUp"",""ArrowLeft""]","value training","ocean","23","{""ArrowUp,ArrowLeft"":23,""ArrowUp,ArrowRight"":10,""ArrowDown,ArrowLeft"":8,""ArrowDown,ArrowRight"":30}","false","ArrowUp,ArrowLeft","false","","","revaluation","1","2","","",""
"html-keyboard-response","117","648290","0.0-4.0-2.0-1.1","spark_pilot_2","7341","2","13","Female","","","","","","","null","<div style=""font-size:60px;"">+</div>","null","fixation","","","","","","","","","","","3","","",""
"revaluation","118","654340","0.0-4.0-2.0-0.2","spark_pilot_2","7341","2","13","Female","","false","","","","","[605.0999999642372,371.2999999523163]","./assets/img/ocean/memory/17.jpg","[""ArrowDown"",""ArrowLeft""]","value training","ocean","8","{""ArrowUp,ArrowLeft"":23,""ArrowUp,ArrowRight"":10,""ArrowDown,ArrowLeft"":8,""ArrowDown,ArrowRight"":30}","false","ArrowDown,ArrowLeft","false","","","revaluation","1","4","","",""
"html-keyboard-response","119","654860","0.0-4.0-2.0-1.2","spark_pilot_2","7341","2","13","Female","","","","","","","null","<div style=""font-size:60px;"">+</div>","null","fixation","","","","","","","","","","","5","","",""
"revaluation","120","660910","0.0-4.0-2.0-0.3","spark_pilot_2","7341","2","13","Female","","false","","","","","[458.7000000476837,369.5999999642372]","./assets/img/ocean/memory/28.jpg","[""ArrowDown"",""ArrowRight""]","value training","ocean","30","{""ArrowUp,ArrowLeft"":23,""ArrowUp,ArrowRight"":10,""ArrowDown,ArrowLeft"":8,""ArrowDown,ArrowRight"":30}","true","ArrowDown,ArrowRight","false","","","revaluation","1","6","","",""
"html-keyboard-response","121","661420","0.0-4.0-2.0-1.3","spark_pilot_2","7341","2","13","Female","","","","","","","null","<div style=""font-size:60px;"">+</div>","null","fixation","","","","","","","","","","","7","","",""
"revaluation","122","665441","0.0-4.0-2.0-0.4","spark_pilot_2","7341","2","13","Female","","false","","","","","[755.3000000119209]","./assets/img/ocean/catch/4.jpg","[""spaceBar""]","value training","ocean","0","{""ArrowUp,ArrowLeft"":23,""ArrowUp,ArrowRight"":10,""ArrowDown,ArrowLeft"":8,""ArrowDown,ArrowRight"":30}","true","spaceBar","true","","","revaluation","1","8","","",""
"html-keyboard-response","123","665942","0.0-4.0-2.0-1.4","spark_pilot_2","7341","2","13","Female","","","","","","","null","<div style=""font-size:60px;"">+</div>","null","fixation","","","","","","","","","","","9","","",""
"revaluation","124","671947","0.0-4.0-2.0-0.5","spark_pilot_2","7341","2","13","Female","","false","","","","","[504.60000002384186,440]","./assets/img/ocean/memory/16.jpg","[""ArrowDown"",""ArrowRight""]","value training","ocean","30","{""ArrowUp,ArrowLeft"":23,""ArrowUp,ArrowRight"":10,""ArrowDown,ArrowLeft"":8,""ArrowDown,ArrowRight"":30}","true","ArrowDown,ArrowRight","false","","","revaluation","1","10","","",""
"html-keyboard-response","125","672448","0.0-4.0-2.0-1.5","spark_pilot_2","7341","2","13","Female","","","","","","","null","<div style=""font-size:60px;"">+</div>","null","fixation","","","","","","","","","","","11","","",""
"revaluation","126","678454","0.0-4.0-2.0-0.6","spark_pilot_2","7341","2","13","Female","","false","","","","","[542.8999999761581,381.19999998807907]","./assets/img/ocean/memory/17.jpg","[""ArrowDown"",""ArrowRight""]","value training","ocean","30","{""ArrowUp,ArrowLeft"":23,""ArrowUp,ArrowRight"":10,""ArrowDown,ArrowLeft"":8,""ArrowDown,ArrowRight"":30}","true","ArrowDown,ArrowRight","false","","","revaluation","1","12","","",""
"html-keyboard-response","127","678955","0.0-4.0-2.0-1.6","spark_pilot_2","7341","2","13","Female","","","","","","","null","<div style=""font-size:60px;"">+</div>","null","fixation","","","","","","","","","","","13","","",""
"revaluation","128","684960","0.0-4.0-2.0-0.7","spark_pilot_2","7341","2","13","Female","","false","","","","","[763.5999999642372,314.80000001192093]","./assets/img/ocean/memory/8.jpg","[""ArrowDown"",""ArrowRight""]","value training","ocean","30","{""ArrowUp,ArrowLeft"":23,""ArrowUp,ArrowRight"":10,""ArrowDown,ArrowLeft"":8,""ArrowDown,ArrowRight"":30}","true","ArrowDown,ArrowRight","false","","","revaluation","1","14","","",""
"html-keyboard-response","129","685462","0.0-4.0-2.0-1.7","spark_pilot_2","7341","2","13","Female","","","","","","","null","<div style=""font-size:60px;"">+</div>","null","fixation","","","","","","","","","","","15","","",""
"revaluation","130","691467","0.0-4.0-2.0-0.8","spark_pilot_2","7341","2","13","Female","","false","","","","","[696.5,367.9000000357628]","./assets/img/ocean/memory/1.jpg","[""ArrowDown"",""ArrowRight""]","value training","ocean","30","{""ArrowUp,ArrowLeft"":23,""ArrowUp,ArrowRight"":10,""ArrowDown,ArrowLeft"":8,""ArrowDown,ArrowRight"":30}","true","ArrowDown,ArrowRight","false","","","revaluation","1","16","","",""
"html-keyboard-response","131","691969","0.0-4.0-2.0-1.8","spark_pilot_2","7341","2","13","Female","","","","","","","null","<div style=""font-size:60px;"">+</div>","null","fixation","","","","","","","","","","","17","","",""
"revaluation","132","697974","0.0-4.0-2.0-0.9","spark_pilot_2","7341","2","13","Female","","false","","","","","[773.9000000357628,420.7999999523163]","./assets/img/ocean/memory/36.jpg","[""ArrowDown"",""ArrowRight""]","value training","ocean","30","{""ArrowUp,ArrowLeft"":23,""ArrowUp,ArrowRight"":10,""ArrowDown,ArrowLeft"":8,""ArrowDown,ArrowRight"":30}","true","ArrowDown,ArrowRight","false","","","revaluation","1","18","","",""
"html-keyboard-response","133","698476","0.0-4.0-2.0-1.9","spark_pilot_2","7341","2","13","Female","","","","","","","null","<div style=""font-size:60px;"">+</div>","null","fixation","","","","","","","","","","","19","","",""
"revaluation","134","704481","0.0-4.0-2.0-0.10","spark_pilot_2","7341","2","13","Female","","false","","","","","[819.5,418.9000000357628]","./assets/img/ocean/memory/5.jpg","[""ArrowDown"",""ArrowRight""]","value training","ocean","30","{""ArrowUp,ArrowLeft"":23,""ArrowUp,ArrowRight"":10,""ArrowDown,ArrowLeft"":8,""ArrowDown,ArrowRight"":30}","true","ArrowDown,ArrowRight","false","","","revaluation","1","20","","",""
"html-keyboard-response","135","704983","0.0-4.0-2.0-1.10","spark_pilot_2","7341","2","13","Female","","","","","","","null","<div style=""font-size:60px;"">+</div>","null","fixation","","","","","","","","","","","21","","",""
"revaluation","136","710997","0.0-4.0-2.0-0.11","spark_pilot_2","7341","2","13","Female","","false","","","","","[600.4000000357628,391.4000000357628]","./assets/img/ocean/memory/1.jpg","[""ArrowDown"",""ArrowRight""]","value training","ocean","30","{""ArrowUp,ArrowLeft"":23,""ArrowUp,ArrowRight"":10,""ArrowDown,ArrowLeft"":8,""ArrowDown,ArrowRight"":30}","true","ArrowDown,ArrowRight","false","","","revaluation","1","22","","",""
"html-keyboard-response","137","711498","0.0-4.0-2.0-1.11","spark_pilot_2","7341","2","13","Female","","","","","","","null","<div style=""font-size:60px;"">+</div>","null","fixation","","","","","","","","","","","23","","",""
"revaluation","138","717504","0.0-4.0-2.0-0.12","spark_pilot_2","7341","2","13","Female","","false","","","","","[701,316.5999999642372]","./assets/img/ocean/memory/4.jpg","[""ArrowDown"",""ArrowRight""]","value training","ocean","30","{""ArrowUp,ArrowLeft"":23,""ArrowUp,ArrowRight"":10,""ArrowDown,ArrowLeft"":8,""ArrowDown,ArrowRight"":30}","true","ArrowDown,ArrowRight","false","","","revaluation","1","24","","",""
"html-keyboard-response","139","718007","0.0-4.0-2.0-1.12","spark_pilot_2","7341","2","13","Female","","","","","","","null","<div style=""font-size:60px;"">+</div>","null","fixation","","","","","","","","","","","25","","",""
"revaluation","140","722011","0.0-4.0-2.0-0.13","spark_pilot_2","7341","2","13","Female","","false","","","","","[688.6999999880791]","./assets/img/ocean/catch/7.jpg","[""spaceBar""]","value training","ocean","0","{""ArrowUp,ArrowLeft"":23,""ArrowUp,ArrowRight"":10,""ArrowDown,ArrowLeft"":8,""ArrowDown,ArrowRight"":30}","true","spaceBar","true","","","revaluation","1","26","","",""
"html-keyboard-response","141","722512","0.0-4.0-2.0-1.13","spark_pilot_2","7341","2","13","Female","","","","","","","null","<div style=""font-size:60px;"">+</div>","null","fixation","","","","","","","","","","","27","","",""
"revaluation","142","728517","0.0-4.0-2.0-0.14","spark_pilot_2","7341","2","13","Female","","false","","","","","[695.6999999880791,390.7000000476837]","./assets/img/ocean/memory/0.jpg","[""ArrowDown"",""ArrowRight""]","value training","ocean","30","{""ArrowUp,ArrowLeft"":23,""ArrowUp,ArrowRight"":10,""ArrowDown,ArrowLeft"":8,""ArrowDown,ArrowRight"":30}","true","ArrowDown,ArrowRight","false","","","revaluation","1","28","","",""
"html-keyboard-response","143","729017","0.0-4.0-2.0-1.14","spark_pilot_2","7341","2","13","Female","","","","","","","null","<div style=""font-size:60px;"">+</div>","null","fixation","","","","","","","","","","","29","","",""
"revaluation","144","735024","0.0-4.0-2.0-0.15","spark_pilot_2","7341","2","13","Female","","false","","","","","[732.9000000357628,684.6000000238419]","./assets/img/ocean/memory/29.jpg","[""ArrowDown"",""ArrowRight""]","value training","ocean","30","{""ArrowUp,ArrowLeft"":23,""ArrowUp,ArrowRight"":10,""ArrowDown,ArrowLeft"":8,""ArrowDown,ArrowRight"":30}","true","ArrowDown,ArrowRight","false","","","revaluation","1","30","","",""
"html-keyboard-response","145","735525","0.0-4.0-2.0-1.15","spark_pilot_2","7341","2","13","Female","","","","","","","null","<div style=""font-size:60px;"">+</div>","null","fixation","","","","","","","","","","","31","","",""
"revaluation","146","741529","0.0-4.0-2.0-0.16","spark_pilot_2","7341","2","13","Female","","false","","","","","[738.1999999880791,1385.6000000238419]","./assets/img/ocean/memory/36.jpg","[""ArrowDown"",""ArrowRight""]","value training","ocean","30","{""ArrowUp,ArrowLeft"":23,""ArrowUp,ArrowRight"":10,""ArrowDown,ArrowLeft"":8,""ArrowDown,ArrowRight"":30}","true","ArrowDown,ArrowRight","false","","","revaluation","1","32","","",""
"html-keyboard-response","147","742031","0.0-4.0-2.0-1.16","spark_pilot_2","7341","2","13","Female","","","","","","","null","<div style=""font-size:60px;"">+</div>","null","fixation","","","","","","","","","","","33","","",""
"revaluation","148","746035","0.0-4.0-2.0-0.17","spark_pilot_2","7341","2","13","Female","","false","","","","","[696.3999999761581]","./assets/img/ocean/catch/2.jpg","[""spaceBar""]","value training","ocean","0","{""ArrowUp,ArrowLeft"":23,""ArrowUp,ArrowRight"":10,""ArrowDown,ArrowLeft"":8,""ArrowDown,ArrowRight"":30}","true","spaceBar","true","","","revaluation","1","34","","",""
"html-keyboard-response","149","746536","0.0-4.0-2.0-1.17","spark_pilot_2","7341","2","13","Female","","","","","","","null","<div style=""font-size:60px;"">+</div>","null","fixation","","","","","","","","","","","35","","",""
"revaluation","150","752541","0.0-4.0-2.0-0.18","spark_pilot_2","7341","2","13","Female","","false","","","","","[718.8000000119209,366.39999997615814]","./assets/img/ocean/memory/33.jpg","[""ArrowDown"",""ArrowRight""]","value training","ocean","30","{""ArrowUp,ArrowLeft"":23,""ArrowUp,ArrowRight"":10,""ArrowDown,ArrowLeft"":8,""ArrowDown,ArrowRight"":30}","true","ArrowDown,ArrowRight","false","","","revaluation","1","36","","",""
"html-keyboard-response","151","753043","0.0-4.0-2.0-1.18","spark_pilot_2","7341","2","13","Female","","","","","","","null","<div style=""font-size:60px;"">+</div>","null","fixation","","","","","","","","","","","37","","",""
"revaluation","152","759049","0.0-4.0-2.0-0.19","spark_pilot_2","7341","2","13","Female","","false","","","","","[612.3000000119209,546.4000000357628]","./assets/img/ocean/memory/38.jpg","[""ArrowDown"",""ArrowRight""]","value training","ocean","30","{""ArrowUp,ArrowLeft"":23,""ArrowUp,ArrowRight"":10,""ArrowDown,ArrowLeft"":8,""ArrowDown,ArrowRight"":30}","true","ArrowDown,ArrowRight","false","","","revaluation","1","38","","",""
"html-keyboard-response","153","759550","0.0-4.0-2.0-1.19","spark_pilot_2","7341","2","13","Female","","","","","","","null","<div style=""font-size:60px;"">+</div>","null","fixation","","","","","","","","","","","39","","",""
"revaluation","154","765555","0.0-4.0-2.0-0.20","spark_pilot_2","7341","2","13","Female","","false","","","","","[448.80000001192093,415.69999998807907]","./assets/img/ocean/memory/9.jpg","[""ArrowDown"",""ArrowRight""]","value training","ocean","30","{""ArrowUp,ArrowLeft"":23,""ArrowUp,ArrowRight"":10,""ArrowDown,ArrowLeft"":8,""ArrowDown,ArrowRight"":30}","true","ArrowDown,ArrowRight","false","","","revaluation","1","40","","",""
"html-keyboard-response","155","766057","0.0-4.0-2.0-1.20","spark_pilot_2","7341","2","13","Female","","","","","","","null","<div style=""font-size:60px;"">+</div>","null","fixation","","","","","","","","","","","41","","",""
"revaluation","156","770060","0.0-4.0-2.0-0.21","spark_pilot_2","7341","2","13","Female","","false","","","","","[766.2000000476837]","./assets/img/ocean/catch/6.jpg","[""spaceBar""]","value training","ocean","0","{""ArrowUp,ArrowLeft"":23,""ArrowUp,ArrowRight"":10,""ArrowDown,ArrowLeft"":8,""ArrowDown,ArrowRight"":30}","true","spaceBar","true","","","revaluation","1","42","","",""
"html-keyboard-response","157","770562","0.0-4.0-2.0-1.21","spark_pilot_2","7341","2","13","Female","","","","","","","null","<div style=""font-size:60px;"">+</div>","null","fixation","","","","","","","","","","","43","","",""
"revaluation","158","776568","0.0-4.0-2.0-0.22","spark_pilot_2","7341","2","13","Female","","false","","","","","[596.9000000357628,547.1999999880791]","./assets/img/ocean/memory/23.jpg","[""ArrowDown"",""ArrowRight""]","value training","ocean","30","{""ArrowUp,ArrowLeft"":23,""ArrowUp,ArrowRight"":10,""ArrowDown,ArrowLeft"":8,""ArrowDown,ArrowRight"":30}","true","ArrowDown,ArrowRight","false","","","revaluation","1","44","","",""
"html-keyboard-response","159","777070","0.0-4.0-2.0-1.22","spark_pilot_2","7341","2","13","Female","","","","","","","null","<div style=""font-size:60px;"">+</div>","null","fixation","","","","","","","","","","","45","","",""
"revaluation","160","783075","0.0-4.0-2.0-0.23","spark_pilot_2","7341","2","13","Female","","false","","","","","[409.39999997615814,424.10000002384186]","./assets/img/ocean/memory/33.jpg","[""ArrowDown"",""ArrowRight""]","value training","ocean","30","{""ArrowUp,ArrowLeft"":23,""ArrowUp,ArrowRight"":10,""ArrowDown,ArrowLeft"":8,""ArrowDown,ArrowRight"":30}","true","ArrowDown,ArrowRight","false","","","revaluation","1","46","","",""
"html-keyboard-response","161","783576","0.0-4.0-2.0-1.23","spark_pilot_2","7341","2","13","Female","","","","","","","null","<div style=""font-size:60px;"">+</div>","null","fixation","","","","","","","","","","","47","","",""
"revaluation","162","789580","0.0-4.0-2.0-0.24","spark_pilot_2","7341","2","13","Female","","false","","","","","[590.3999999761581,501.5999999642372]","./assets/img/ocean/memory/23.jpg","[""ArrowDown"",""ArrowRight""]","value training","ocean","30","{""ArrowUp,ArrowLeft"":23,""ArrowUp,ArrowRight"":10,""ArrowDown,ArrowLeft"":8,""ArrowDown,ArrowRight"":30}","true","ArrowDown,ArrowRight","false","","","revaluation","1","48","","",""
"html-keyboard-response","163","790082","0.0-4.0-2.0-1.24","spark_pilot_2","7341","2","13","Female","","","","","","","null","<div style=""font-size:60px;"">+</div>","null","fixation","","","","","","","","","","","49","","",""
"revaluation","164","796088","0.0-4.0-2.0-0.25","spark_pilot_2","7341","2","13","Female","","false","","","","","[685.1000000238419,538.6999999880791]","./assets/img/ocean/memory/26.jpg","[""ArrowDown"",""ArrowRight""]","value training","ocean","30","{""ArrowUp,ArrowLeft"":23,""ArrowUp,ArrowRight"":10,""ArrowDown,ArrowLeft"":8,""ArrowDown,ArrowRight"":30}","true","ArrowDown,ArrowRight","false","","","revaluation","1","50","","",""
"html-keyboard-response","165","796589","0.0-4.0-2.0-1.25","spark_pilot_2","7341","2","13","Female","","","","","","","null","<div style=""font-size:60px;"">+</div>","null","fixation","","","","","","","","","","","51","","",""
"revaluation","166","802595","0.0-4.0-2.0-0.26","spark_pilot_2","7341","2","13","Female","","false","","","","","[473,448]","./assets/img/ocean/memory/25.jpg","[""ArrowDown"",""ArrowRight""]","value training","ocean","30","{""ArrowUp,ArrowLeft"":23,""ArrowUp,ArrowRight"":10,""ArrowDown,ArrowLeft"":8,""ArrowDown,ArrowRight"":30}","true","ArrowDown,ArrowRight","false","","","revaluation","1","52","","",""
"html-keyboard-response","167","803097","0.0-4.0-2.0-1.26","spark_pilot_2","7341","2","13","Female","","","","","","","null","<div style=""font-size:60px;"">+</div>","null","fixation","","","","","","","","","","","53","","",""
"revaluation","168","809101","0.0-4.0-2.0-0.27","spark_pilot_2","7341","2","13","Female","","false","","","","","[910.6000000238419,414.10000002384186]","./assets/img/ocean/memory/18.jpg","[""ArrowDown"",""ArrowRight""]","value training","ocean","30","{""ArrowUp,ArrowLeft"":23,""ArrowUp,ArrowRight"":10,""ArrowDown,ArrowLeft"":8,""ArrowDown,ArrowRight"":30}","true","ArrowDown,ArrowRight","false","","","revaluation","1","54","","",""
"html-keyboard-response","169","809603","0.0-4.0-2.0-1.27","spark_pilot_2","7341","2","13","Female","","","","","","","null","<div style=""font-size:60px;"">+</div>","null","fixation","","","","","","","","","","","55","","",""
"revaluation","170","815608","0.0-4.0-2.0-0.28","spark_pilot_2","7341","2","13","Female","","false","","","","","[836.1999999880791,555.1999999880791]","./assets/img/ocean/memory/37.jpg","[""ArrowDown"",""ArrowRight""]","value training","ocean","30","{""ArrowUp,ArrowLeft"":23,""ArrowUp,ArrowRight"":10,""ArrowDown,ArrowLeft"":8,""ArrowDown,ArrowRight"":30}","true","ArrowDown,ArrowRight","false","","","revaluation","1","56","","",""
"html-keyboard-response","171","816110","0.0-4.0-2.0-1.28","spark_pilot_2","7341","2","13","Female","","","","","","","null","<div style=""font-size:60px;"">+</div>","null","fixation","","","","","","","","","","","57","","",""
"revaluation","172","822114","0.0-4.0-2.0-0.29","spark_pilot_2","7341","2","13","Female","","false","","","","","[857.1999999880791,440.19999998807907]","./assets/img/ocean/memory/9.jpg","[""ArrowDown"",""ArrowRight""]","value training","ocean","30","{""ArrowUp,ArrowLeft"":23,""ArrowUp,ArrowRight"":10,""ArrowDown,ArrowLeft"":8,""ArrowDown,ArrowRight"":30}","true","ArrowDown,ArrowRight","false","","","revaluation","1","58","","",""
"html-keyboard-response","173","822615","0.0-4.0-2.0-1.29","spark_pilot_2","7341","2","13","Female","","","","","","","null","<div style=""font-size:60px;"">+</div>","null","fixation","","","","","","","","","","","59","","",""
"revaluation","174","828620","0.0-4.0-2.0-0.30","spark_pilot_2","7341","2","13","Female","","false","","","","","[463.5999999642372,407]","./assets/img/ocean/memory/8.jpg","[""ArrowDown"",""ArrowRight""]","value training","ocean","30","{""ArrowUp,ArrowLeft"":23,""ArrowUp,ArrowRight"":10,""ArrowDown,ArrowLeft"":8,""ArrowDown,ArrowRight"":30}","true","ArrowDown,ArrowRight","false","","","revaluation","1","60","","",""
"html-keyboard-response","175","829123","0.0-4.0-2.0-1.30","spark_pilot_2","7341","2","13","Female","","","","","","","null","<div style=""font-size:60px;"">+</div>","null","fixation","","","","","","","","","","","61","","",""
"revaluation","176","833127","0.0-4.0-2.0-0.31","spark_pilot_2","7341","2","13","Female","","false","","","","","[587.9000000357628]","./assets/img/ocean/catch/0.jpg","[""spaceBar""]","value training","ocean","0","{""ArrowUp,ArrowLeft"":23,""ArrowUp,ArrowRight"":10,""ArrowDown,ArrowLeft"":8,""ArrowDown,ArrowRight"":30}","true","spaceBar","true","","","revaluation","1","62","","",""
"html-keyboard-response","177","833629","0.0-4.0-2.0-1.31","spark_pilot_2","7341","2","13","Female","","","","","","","null","<div style=""font-size:60px;"">+</div>","null","fixation","","","","","","","","","","","63","","",""
"revaluation","178","837633","0.0-4.0-2.0-0.32","spark_pilot_2","7341","2","13","Female","","false","","","","","[706.1000000238419]","./assets/img/ocean/catch/5.jpg","[""spaceBar""]","value training","ocean","0","{""ArrowUp,ArrowLeft"":23,""ArrowUp,ArrowRight"":10,""ArrowDown,ArrowLeft"":8,""ArrowDown,ArrowRight"":30}","true","spaceBar","true","","","revaluation","1","64","","",""
"html-keyboard-response","179","838134","0.0-4.0-2.0-1.32","spark_pilot_2","7341","2","13","Female","","","","","","","null","<div style=""font-size:60px;"">+</div>","null","fixation","","","","","","","","","","","65","","",""
"revaluation","180","844139","0.0-4.0-2.0-0.33","spark_pilot_2","7341","2","13","Female","","false","","","","","[576.5,360.2000000476837]","./assets/img/ocean/memory/25.jpg","[""ArrowDown"",""ArrowRight""]","value training","ocean","30","{""ArrowUp,ArrowLeft"":23,""ArrowUp,ArrowRight"":10,""ArrowDown,ArrowLeft"":8,""ArrowDown,ArrowRight"":30}","true","ArrowDown,ArrowRight","false","","","revaluation","1","66","","",""
"html-keyboard-response","181","844641","0.0-4.0-2.0-1.33","spark_pilot_2","7341","2","13","Female","","","","","","","null","<div style=""font-size:60px;"">+</div>","null","fixation","","","","","","","","","","","67","","",""
"revaluation","182","850646","0.0-4.0-2.0-0.34","spark_pilot_2","7341","2","13","Female","","false","","","","","[629.6999999880791,333.69999998807907]","./assets/img/ocean/memory/16.jpg","[""ArrowDown"",""ArrowRight""]","value training","ocean","30","{""ArrowUp,ArrowLeft"":23,""ArrowUp,ArrowRight"":10,""ArrowDown,ArrowLeft"":8,""ArrowDown,ArrowRight"":30}","true","ArrowDown,ArrowRight","false","","","revaluation","1","68","","",""
"html-keyboard-response","183","851147","0.0-4.0-2.0-1.34","spark_pilot_2","7341","2","13","Female","","","","","","","null","<div style=""font-size:60px;"">+</div>","null","fixation","","","","","","","","","","","69","","",""
"revaluation","184","857153","0.0-4.0-2.0-0.35","spark_pilot_2","7341","2","13","Female","","false","","","","","[563.8999999761581,314.89999997615814]","./assets/img/ocean/memory/19.jpg","[""ArrowDown"",""ArrowRight""]","value training","ocean","30","{""ArrowUp,ArrowLeft"":23,""ArrowUp,ArrowRight"":10,""ArrowDown,ArrowLeft"":8,""ArrowDown,ArrowRight"":30}","true","ArrowDown,ArrowRight","false","","","revaluation","1","70","","",""
"html-keyboard-response","185","857655","0.0-4.0-2.0-1.35","spark_pilot_2","7341","2","13","Female","","","","","","","null","<div style=""font-size:60px;"">+</div>","null","fixation","","","","","","","","","","","71","","",""
"revaluation","186","863661","0.0-4.0-2.0-0.36","spark_pilot_2","7341","2","13","Female","","false","","","","","[639,428.89999997615814]","./assets/img/ocean/memory/19.jpg","[""ArrowDown"",""ArrowRight""]","value training","ocean","30","{""ArrowUp,ArrowLeft"":23,""ArrowUp,ArrowRight"":10,""ArrowDown,ArrowLeft"":8,""ArrowDown,ArrowRight"":30}","true","ArrowDown,ArrowRight","false","","","revaluation","1","72","","",""
"html-keyboard-response","187","864162","0.0-4.0-2.0-1.36","spark_pilot_2","7341","2","13","Female","","","","","","","null","<div style=""font-size:60px;"">+</div>","null","fixation","","","","","","","","","","","73","","",""
"revaluation","188","870167","0.0-4.0-2.0-0.37","spark_pilot_2","7341","2","13","Female","","false","","","","","[651.8999999761581,435.39999997615814]","./assets/img/ocean/memory/4.jpg","[""ArrowDown"",""ArrowRight""]","value training","ocean","30","{""ArrowUp,ArrowLeft"":23,""ArrowUp,ArrowRight"":10,""ArrowDown,ArrowLeft"":8,""ArrowDown,ArrowRight"":30}","true","ArrowDown,ArrowRight","false","","","revaluation","1","74","","",""
"html-keyboard-response","189","870668","0.0-4.0-2.0-1.37","spark_pilot_2","7341","2","13","Female","","","","","","","null","<div style=""font-size:60px;"">+</div>","null","fixation","","","","","","","","","","","75","","",""
"revaluation","190","876674","0.0-4.0-2.0-0.38","spark_pilot_2","7341","2","13","Female","","false","","","","","[1033.5,425.89999997615814]","./assets/img/ocean/memory/21.jpg","[""ArrowDown"",""ArrowRight""]","value training","ocean","30","{""ArrowUp,ArrowLeft"":23,""ArrowUp,ArrowRight"":10,""ArrowDown,ArrowLeft"":8,""ArrowDown,ArrowRight"":30}","true","ArrowDown,ArrowRight","false","","","revaluation","1","76","","",""
"html-keyboard-response","191","877175","0.0-4.0-2.0-1.38","spark_pilot_2","7341","2","13","Female","","","","","","","null","<div style=""font-size:60px;"">+</div>","null","fixation","","","","","","","","","","","77","","",""
"revaluation","192","883180","0.0-4.0-2.0-0.39","spark_pilot_2","7341","2","13","Female","","false","","","","","[519.9000000357628,623]","./assets/img/ocean/memory/29.jpg","[""ArrowDown"",""ArrowRight""]","value training","ocean","30","{""ArrowUp,ArrowLeft"":23,""ArrowUp,ArrowRight"":10,""ArrowDown,ArrowLeft"":8,""ArrowDown,ArrowRight"":30}","true","ArrowDown,ArrowRight","false","","","revaluation","1","78","","",""
"html-keyboard-response","193","883681","0.0-4.0-2.0-1.39","spark_pilot_2","7341","2","13","Female","","","","","","","null","<div style=""font-size:60px;"">+</div>","null","fixation","","","","","","","","","","","79","","",""
"revaluation","194","889685","0.0-4.0-2.0-0.40","spark_pilot_2","7341","2","13","Female","","false","","","","","[508.60000002384186,540.9000000357628]","./assets/img/ocean/memory/26.jpg","[""ArrowDown"",""ArrowRight""]","value training","ocean","30","{""ArrowUp,ArrowLeft"":23,""ArrowUp,ArrowRight"":10,""ArrowDown,ArrowLeft"":8,""ArrowDown,ArrowRight"":30}","true","ArrowDown,ArrowRight","false","","","revaluation","1","80","","",""
"html-keyboard-response","195","890186","0.0-4.0-2.0-1.40","spark_pilot_2","7341","2","13","Female","","","","","","","null","<div style=""font-size:60px;"">+</div>","null","fixation","","","","","","","","","","","81","","",""
"revaluation","196","896190","0.0-4.0-2.0-0.41","spark_pilot_2","7341","2","13","Female","","false","","","","","[828.3000000119209,339.7000000476837]","./assets/img/ocean/memory/24.jpg","[""ArrowDown"",""ArrowRight""]","value training","ocean","30","{""ArrowUp,ArrowLeft"":23,""ArrowUp,ArrowRight"":10,""ArrowDown,ArrowLeft"":8,""ArrowDown,ArrowRight"":30}","true","ArrowDown,ArrowRight","false","","","revaluation","1","82","","",""
"html-keyboard-response","197","896692","0.0-4.0-2.0-1.41","spark_pilot_2","7341","2","13","Female","","","","","","","null","<div style=""font-size:60px;"">+</div>","null","fixation","","","","","","","","","","","83","","",""
"revaluation","198","900696","0.0-4.0-2.0-0.42","spark_pilot_2","7341","2","13","Female","","false","","","","","[753.6999999880791]","./assets/img/ocean/catch/1.jpg","[""spaceBar""]","value training","ocean","0","{""ArrowUp,ArrowLeft"":23,""ArrowUp,ArrowRight"":10,""ArrowDown,ArrowLeft"":8,""ArrowDown,ArrowRight"":30}","true","spaceBar","true","","","revaluation","1","84","","",""
"html-keyboard-response","199","901197","0.0-4.0-2.0-1.42","spark_pilot_2","7341","2","13","Female","","","","","","","null","<div style=""font-size:60px;"">+</div>","null","fixation","","","","","","","","","","","85","","",""
"revaluation","200","907201","0.0-4.0-2.0-0.43","spark_pilot_2","7341","2","13","Female","","false","","","","","[617.5,441.10000002384186]","./assets/img/ocean/memory/18.jpg","[""ArrowDown"",""ArrowRight""]","value training","ocean","30","{""ArrowUp,ArrowLeft"":23,""ArrowUp,ArrowRight"":10,""ArrowDown,ArrowLeft"":8,""ArrowDown,ArrowRight"":30}","true","ArrowDown,ArrowRight","false","","","revaluation","1","86","","",""
"html-keyboard-response","201","907702","0.0-4.0-2.0-1.43","spark_pilot_2","7341","2","13","Female","","","","","","","null","<div style=""font-size:60px;"">+</div>","null","fixation","","","","","","","","","","","87","","",""
"revaluation","202","913707","0.0-4.0-2.0-0.44","spark_pilot_2","7341","2","13","Female","","false","","","","","[511.9000000357628,846.9000000357628]","./assets/img/ocean/memory/5.jpg","[""ArrowDown"",""ArrowRight""]","value training","ocean","30","{""ArrowUp,ArrowLeft"":23,""ArrowUp,ArrowRight"":10,""ArrowDown,ArrowLeft"":8,""ArrowDown,ArrowRight"":30}","true","ArrowDown,ArrowRight","false","","","revaluation","1","88","","",""
"html-keyboard-response","203","914209","0.0-4.0-2.0-1.44","spark_pilot_2","7341","2","13","Female","","","","","","","null","<div style=""font-size:60px;"">+</div>","null","fixation","","","","","","","","","","","89","","",""
"revaluation","204","918213","0.0-4.0-2.0-0.45","spark_pilot_2","7341","2","13","Female","","false","","","","","[645.6999999880791]","./assets/img/ocean/catch/3.jpg","[""spaceBar""]","value training","ocean","0","{""ArrowUp,ArrowLeft"":23,""ArrowUp,ArrowRight"":10,""ArrowDown,ArrowLeft"":8,""ArrowDown,ArrowRight"":30}","true","spaceBar","true","","","revaluation","1","90","","",""
"html-keyboard-response","205","918715","0.0-4.0-2.0-1.45","spark_pilot_2","7341","2","13","Female","","","","","","","null","<div style=""font-size:60px;"">+</div>","null","fixation","","","","","","","","","","","91","","",""
"revaluation","206","924719","0.0-4.0-2.0-0.46","spark_pilot_2","7341","2","13","Female","","false","","","","","[1004.6000000238419,587]","./assets/img/ocean/memory/24.jpg","[""ArrowDown"",""ArrowRight""]","value training","ocean","30","{""ArrowUp,ArrowLeft"":23,""ArrowUp,ArrowRight"":10,""ArrowDown,ArrowLeft"":8,""ArrowDown,ArrowRight"":30}","true","ArrowDown,ArrowRight","false","","","revaluation","1","92","","",""
"html-keyboard-response","207","925221","0.0-4.0-2.0-1.46","spark_pilot_2","7341","2","13","Female","","","","","","","null","<div style=""font-size:60px;"">+</div>","null","fixation","","","","","","","","","","","93","","",""
"revaluation","208","931225","0.0-4.0-2.0-0.47","spark_pilot_2","7341","2","13","Female","","false","","","","","[1369.800000011921,881.3999999761581]","./assets/img/ocean/memory/28.jpg","[""ArrowDown"",""ArrowRight""]","value training","ocean","30","{""ArrowUp,ArrowLeft"":23,""ArrowUp,ArrowRight"":10,""ArrowDown,ArrowLeft"":8,""ArrowDown,ArrowRight"":30}","true","ArrowDown,ArrowRight","false","","","revaluation","1","94","","",""
"html-keyboard-response","209","931727","0.0-4.0-2.0-1.47","spark_pilot_2","7341","2","13","Female","","","","","","","null","<div style=""font-size:60px;"">+</div>","null","fixation","","","","","","","","","","","95","","",""
"revaluation","210","937733","0.0-4.0-2.0-0.48","spark_pilot_2","7341","2","13","Female","","false","","","","","[631.1000000238419,454.60000002384186]","./assets/img/ocean/memory/37.jpg","[""ArrowDown"",""ArrowRight""]","value training","ocean","30","{""ArrowUp,ArrowLeft"":23,""ArrowUp,ArrowRight"":10,""ArrowDown,ArrowLeft"":8,""ArrowDown,ArrowRight"":30}","true","ArrowDown,ArrowRight","false","","","revaluation","1","96","","",""
"html-keyboard-response","211","938234","0.0-4.0-2.0-1.48","spark_pilot_2","7341","2","13","Female","","","","","","","null","<div style=""font-size:60px;"">+</div>","null","fixation","","","","","","","","","","","97","","",""
"revaluation","212","944239","0.0-4.0-2.0-0.49","spark_pilot_2","7341","2","13","Female","","false","","","","","[573.0999999642372,363.69999998807907]","./assets/img/ocean/memory/0.jpg","[""ArrowDown"",""ArrowRight""]","value training","ocean","30","{""ArrowUp,ArrowLeft"":23,""ArrowUp,ArrowRight"":10,""ArrowDown,ArrowLeft"":8,""ArrowDown,ArrowRight"":30}","true","ArrowDown,ArrowRight","false","","","revaluation","1","98","","",""
"html-keyboard-response","213","944751","0.0-4.0-2.0-1.49","spark_pilot_2","7341","2","13","Female","","","","","","","null","<div style=""font-size:60px;"">+</div>","null","fixation","","","","","","","","","","","99","","",""
"learning-instructions","214","959646","0.0-4.0-3.0-0.0","spark_pilot_2","7341","2","13","Female","","","","","","","2000","<p> Now, you will travel with a friend who will choose whether you go up or down first. </p>
            <p> On these turns, you will just see the animal that they found. You will still get to choose which chest to search for treasure.</p>","","instructions","","","","","","","","","","","","","",""
"revaluation","215","963675","0.0-4.0-4.0-0.0","spark_pilot_2","7341","2","13","Female","","false","","","","","[1137]","./assets/img/ocean/animals/octopus.jpg","[""ArrowRight""]","revaluation","ocean","7","{""ArrowUp,ArrowLeft"":27,""ArrowUp,ArrowRight"":15,""ArrowDown,ArrowLeft"":21,""ArrowDown,ArrowRight"":7}","false","ArrowDown,ArrowRight","","","","revaluation","1","0","","",""
"html-keyboard-response","216","964185","0.0-4.0-4.0-1.0","spark_pilot_2","7341","2","13","Female","","","","","","","null","<div style=""font-size:60px;"">+</div>","null","fixation","","","","","","","","","","","1","","",""
"revaluation","217","968215","0.0-4.0-4.0-0.1","spark_pilot_2","7341","2","13","Female","","false","","","","","[660.6999999880791]","./assets/img/ocean/animals/octopus.jpg","[""ArrowLeft""]","revaluation","ocean","21","{""ArrowUp,ArrowLeft"":27,""ArrowUp,ArrowRight"":15,""ArrowDown,ArrowLeft"":21,""ArrowDown,ArrowRight"":7}","true","ArrowDown,ArrowLeft","","","","revaluation","1","2","","",""
"html-keyboard-response","218","968735","0.0-4.0-4.0-1.1","spark_pilot_2","7341","2","13","Female","","","","","","","null","<div style=""font-size:60px;"">+</div>","null","fixation","","","","","","","","","","","3","","",""
"revaluation","219","972765","0.0-4.0-4.0-0.2","spark_pilot_2","7341","2","13","Female","","false","","","","","[576]","./assets/img/ocean/animals/seahorse.jpg","[""ArrowRight""]","revaluation","ocean","15","{""ArrowUp,ArrowLeft"":27,""ArrowUp,ArrowRight"":15,""ArrowDown,ArrowLeft"":21,""ArrowDown,ArrowRight"":7}","false","ArrowUp,ArrowRight","","","","revaluation","1","4","","",""
"html-keyboard-response","220","973275","0.0-4.0-4.0-1.2","spark_pilot_2","7341","2","13","Female","","","","","","","null","<div style=""font-size:60px;"">+</div>","null","fixation","","","","","","","","","","","5","","",""
"revaluation","221","977295","0.0-4.0-4.0-0.3","spark_pilot_2","7341","2","13","Female","","false","","","","","[355.10000002384186]","./assets/img/ocean/animals/octopus.jpg","[""ArrowLeft""]","revaluation","ocean","21","{""ArrowUp,ArrowLeft"":27,""ArrowUp,ArrowRight"":15,""ArrowDown,ArrowLeft"":21,""ArrowDown,ArrowRight"":7}","true","ArrowDown,ArrowLeft","","","","revaluation","1","6","","",""
"html-keyboard-response","222","977814","0.0-4.0-4.0-1.3","spark_pilot_2","7341","2","13","Female","","","","","","","null","<div style=""font-size:60px;"">+</div>","null","fixation","","","","","","","","","","","7","","",""
"revaluation","223","981845","0.0-4.0-4.0-0.4","spark_pilot_2","7341","2","13","Female","","false","","","","","[463.60000002384186]","./assets/img/ocean/animals/seahorse.jpg","[""ArrowLeft""]","revaluation","ocean","27","{""ArrowUp,ArrowLeft"":27,""ArrowUp,ArrowRight"":15,""ArrowDown,ArrowLeft"":21,""ArrowDown,ArrowRight"":7}","true","ArrowUp,ArrowLeft","","","","revaluation","1","8","","",""
"html-keyboard-response","224","982365","0.0-4.0-4.0-1.4","spark_pilot_2","7341","2","13","Female","","","","","","","null","<div style=""font-size:60px;"">+</div>","null","fixation","","","","","","","","","","","9","","",""
"revaluation","225","986385","0.0-4.0-4.0-0.5","spark_pilot_2","7341","2","13","Female","","false","","","","","[353.69999998807907]","./assets/img/ocean/animals/seahorse.jpg","[""ArrowLeft""]","revaluation","ocean","27","{""ArrowUp,ArrowLeft"":27,""ArrowUp,ArrowRight"":15,""ArrowDown,ArrowLeft"":21,""ArrowDown,ArrowRight"":7}","true","ArrowUp,ArrowLeft","","","","revaluation","1","10","","",""
"html-keyboard-response","226","986894","0.0-4.0-4.0-1.5","spark_pilot_2","7341","2","13","Female","","","","","","","null","<div style=""font-size:60px;"">+</div>","null","fixation","","","","","","","","","","","11","","",""
"revaluation","227","990898","0.0-4.0-4.0-0.6","spark_pilot_2","7341","2","13","Female","","false","","","","","[72.89999997615814]","./assets/img/ocean/animals/seahorse.jpg","[""ArrowLeft""]","revaluation","ocean","27","{""ArrowUp,ArrowLeft"":27,""ArrowUp,ArrowRight"":15,""ArrowDown,ArrowLeft"":21,""ArrowDown,ArrowRight"":7}","true","ArrowUp,ArrowLeft","","","","revaluation","1","12","","",""
"html-keyboard-response","228","991400","0.0-4.0-4.0-1.6","spark_pilot_2","7341","2","13","Female","","","","","","","null","<div style=""font-size:60px;"">+</div>","null","fixation","","","","","","","","","","","13","","",""
"revaluation","229","995404","0.0-4.0-4.0-0.7","spark_pilot_2","7341","2","13","Female","","false","","","","","[430.39999997615814]","./assets/img/ocean/animals/octopus.jpg","[""ArrowLeft""]","revaluation","ocean","21","{""ArrowUp,ArrowLeft"":27,""ArrowUp,ArrowRight"":15,""ArrowDown,ArrowLeft"":21,""ArrowDown,ArrowRight"":7}","true","ArrowDown,ArrowLeft","","","","revaluation","1","14","","",""
"html-keyboard-response","230","995906","0.0-4.0-4.0-1.7","spark_pilot_2","7341","2","13","Female","","","","","","","null","<div style=""font-size:60px;"">+</div>","null","fixation","","","","","","","","","","","15","","",""
"revaluation","231","999910","0.0-4.0-4.0-0.8","spark_pilot_2","7341","2","13","Female","","false","","","","","[332.80000001192093]","./assets/img/ocean/animals/seahorse.jpg","[""ArrowLeft""]","revaluation","ocean","27","{""ArrowUp,ArrowLeft"":27,""ArrowUp,ArrowRight"":15,""ArrowDown,ArrowLeft"":21,""ArrowDown,ArrowRight"":7}","true","ArrowUp,ArrowLeft","","","","revaluation","1","16","","",""
"html-keyboard-response","232","1000411","0.0-4.0-4.0-1.8","spark_pilot_2","7341","2","13","Female","","","","","","","null","<div style=""font-size:60px;"">+</div>","null","fixation","","","","","","","","","","","17","","",""
"revaluation","233","1004415","0.0-4.0-4.0-0.9","spark_pilot_2","7341","2","13","Female","","false","","","","","[538.1999999880791]","./assets/img/ocean/animals/seahorse.jpg","[""ArrowLeft""]","revaluation","ocean","27","{""ArrowUp,ArrowLeft"":27,""ArrowUp,ArrowRight"":15,""ArrowDown,ArrowLeft"":21,""ArrowDown,ArrowRight"":7}","true","ArrowUp,ArrowLeft","","","","revaluation","1","18","","",""
"html-keyboard-response","234","1004919","0.0-4.0-4.0-1.9","spark_pilot_2","7341","2","13","Female","","","","","","","null","<div style=""font-size:60px;"">+</div>","null","fixation","","","","","","","","","","","19","","",""
"revaluation","235","1008923","0.0-4.0-4.0-0.10","spark_pilot_2","7341","2","13","Female","","false","","","","","[631]","./assets/img/ocean/animals/octopus.jpg","[""ArrowRight""]","revaluation","ocean","7","{""ArrowUp,ArrowLeft"":27,""ArrowUp,ArrowRight"":15,""ArrowDown,ArrowLeft"":21,""ArrowDown,ArrowRight"":7}","false","ArrowDown,ArrowRight","","","","revaluation","1","20","","",""
"html-keyboard-response","236","1009424","0.0-4.0-4.0-1.10","spark_pilot_2","7341","2","13","Female","","","","","","","null","<div style=""font-size:60px;"">+</div>","null","fixation","","","","","","","","","","","21","","",""
"revaluation","237","1013442","0.0-4.0-4.0-0.11","spark_pilot_2","7341","2","13","Female","","false","","","","","[582.3999999761581]","./assets/img/ocean/animals/seahorse.jpg","[""ArrowLeft""]","revaluation","ocean","27","{""ArrowUp,ArrowLeft"":27,""ArrowUp,ArrowRight"":15,""ArrowDown,ArrowLeft"":21,""ArrowDown,ArrowRight"":7}","true","ArrowUp,ArrowLeft","","","","revaluation","1","22","","",""
"html-keyboard-response","238","1013943","0.0-4.0-4.0-1.11","spark_pilot_2","7341","2","13","Female","","","","","","","null","<div style=""font-size:60px;"">+</div>","null","fixation","","","","","","","","","","","23","","",""
"revaluation","239","1017947","0.0-4.0-4.0-0.12","spark_pilot_2","7341","2","13","Female","","false","","","","","[487.5]","./assets/img/ocean/animals/octopus.jpg","[""ArrowLeft""]","revaluation","ocean","21","{""ArrowUp,ArrowLeft"":27,""ArrowUp,ArrowRight"":15,""ArrowDown,ArrowLeft"":21,""ArrowDown,ArrowRight"":7}","true","ArrowDown,ArrowLeft","","","","revaluation","1","24","","",""
"html-keyboard-response","240","1018448","0.0-4.0-4.0-1.12","spark_pilot_2","7341","2","13","Female","","","","","","","null","<div style=""font-size:60px;"">+</div>","null","fixation","","","","","","","","","","","25","","",""
"revaluation","241","1022453","0.0-4.0-4.0-0.13","spark_pilot_2","7341","2","13","Female","","false","","","","","[461.69999998807907]","./assets/img/ocean/animals/seahorse.jpg","[""ArrowLeft""]","revaluation","ocean","27","{""ArrowUp,ArrowLeft"":27,""ArrowUp,ArrowRight"":15,""ArrowDown,ArrowLeft"":21,""ArrowDown,ArrowRight"":7}","true","ArrowUp,ArrowLeft","","","","revaluation","1","26","","",""
"html-keyboard-response","242","1022954","0.0-4.0-4.0-1.13","spark_pilot_2","7341","2","13","Female","","","","","","","null","<div style=""font-size:60px;"">+</div>","null","fixation","","","","","","","","","","","27","","",""
"revaluation","243","1026959","0.0-4.0-4.0-0.14","spark_pilot_2","7341","2","13","Female","","false","","","","","[428.30000001192093]","./assets/img/ocean/animals/octopus.jpg","[""ArrowLeft""]","revaluation","ocean","21","{""ArrowUp,ArrowLeft"":27,""ArrowUp,ArrowRight"":15,""ArrowDown,ArrowLeft"":21,""ArrowDown,ArrowRight"":7}","true","ArrowDown,ArrowLeft","","","","revaluation","1","28","","",""
"html-keyboard-response","244","1027460","0.0-4.0-4.0-1.14","spark_pilot_2","7341","2","13","Female","","","","","","","null","<div style=""font-size:60px;"">+</div>","null","fixation","","","","","","","","","","","29","","",""
"revaluation","245","1031464","0.0-4.0-4.0-0.15","spark_pilot_2","7341","2","13","Female","","false","","","","","[418.39999997615814]","./assets/img/ocean/animals/seahorse.jpg","[""ArrowLeft""]","revaluation","ocean","27","{""ArrowUp,ArrowLeft"":27,""ArrowUp,ArrowRight"":15,""ArrowDown,ArrowLeft"":21,""ArrowDown,ArrowRight"":7}","true","ArrowUp,ArrowLeft","","","","revaluation","1","30","","",""
"html-keyboard-response","246","1031965","0.0-4.0-4.0-1.15","spark_pilot_2","7341","2","13","Female","","","","","","","null","<div style=""font-size:60px;"">+</div>","null","fixation","","","","","","","","","","","31","","",""
"revaluation","247","1035969","0.0-4.0-4.0-0.16","spark_pilot_2","7341","2","13","Female","","false","","","","","[497]","./assets/img/ocean/animals/octopus.jpg","[""ArrowLeft""]","revaluation","ocean","21","{""ArrowUp,ArrowLeft"":27,""ArrowUp,ArrowRight"":15,""ArrowDown,ArrowLeft"":21,""ArrowDown,ArrowRight"":7}","true","ArrowDown,ArrowLeft","","","","revaluation","1","32","","",""
"html-keyboard-response","248","1036470","0.0-4.0-4.0-1.16","spark_pilot_2","7341","2","13","Female","","","","","","","null","<div style=""font-size:60px;"">+</div>","null","fixation","","","","","","","","","","","33","","",""
"revaluation","249","1040475","0.0-4.0-4.0-0.17","spark_pilot_2","7341","2","13","Female","","false","","","","","[504.2000000476837]","./assets/img/ocean/animals/octopus.jpg","[""ArrowLeft""]","revaluation","ocean","21","{""ArrowUp,ArrowLeft"":27,""ArrowUp,ArrowRight"":15,""ArrowDown,ArrowLeft"":21,""ArrowDown,ArrowRight"":7}","true","ArrowDown,ArrowLeft","","","","revaluation","1","34","","",""
"html-keyboard-response","250","1040976","0.0-4.0-4.0-1.17","spark_pilot_2","7341","2","13","Female","","","","","","","null","<div style=""font-size:60px;"">+</div>","null","fixation","","","","","","","","","","","35","","",""
"learning-instructions","251","1054194","0.0-4.0-5.0-0.0","spark_pilot_2","7341","2","13","Female","","","","","","","1709.9000000357628","<p> Time to play the dot game! </p>
            <p> For one minute, click the red dots on the following screen as they appear. </p>
            <p><b> Don't look away, as you will earn bonus for clicking dots</b>. </p>","","instructions","","","","","","","","","","","","","",""
"revaluation","252","1114197","0.0-4.0-6.0-0.0","spark_pilot_2","7341","2","13","Female","","","","","","","[55,72,43,88,49,63,63]","","","rest","","70","","","","","0","60000","","","","","",""
"learning-instructions","253","1122008","0.0-4.0-7.0-0.0","spark_pilot_2","7341","2","13","Female","","","","","","","1708.1000000238419","<p> You have almost finished this part of the game! </p>
            <p> We are going to ask you to make a few more choices. </p>","","instructions","","","","","","","","","","","","","",""
"learning-instructions","254","1138088","0.0-4.0-7.0-0.1","spark_pilot_2","7341","2","13","Female","","","","","","","2117.2000000476837","<p> First, you need to decide whether to go up or down. When you see each picture, use the arrow keys to make your choice. </p>
            <p><b>You will not see which animal you found, but try to get to the one that will give you the most treasure.</b></p>","","instructions","","","","","","","","","","","","","",""
"revaluation","255","1139552","0.0-4.0-8.0-0.0","spark_pilot_2","7341","2","13","Female","","false","","","","","[1462.5]","./assets/img/ocean/test/3.jpg","[""ArrowUp""]","first stage test","ocean","0","{""ArrowUp,ArrowLeft"":27,""ArrowUp,ArrowRight"":15,""ArrowDown,ArrowLeft"":21,""ArrowDown,ArrowRight"":7}","true","ArrowUp","false","","","revaluation","1","","","",""
"html-keyboard-response","256","1140059","0.0-4.0-8.0-1.0","spark_pilot_2","7341","2","13","Female","","","","","","","null","<div style=""font-size:60px;"">+</div>","null","fixation","","","","","","","","","","","","","",""
"revaluation","257","1141648","0.0-4.0-8.0-0.1","spark_pilot_2","7341","2","13","Female","","false","","","","","[1586.699999988079]","./assets/img/ocean/test/1.jpg","[""ArrowDown""]","first stage test","ocean","0","{""ArrowUp,ArrowLeft"":27,""ArrowUp,ArrowRight"":15,""ArrowDown,ArrowLeft"":21,""ArrowDown,ArrowRight"":7}","false","ArrowDown","false","","","revaluation","1","","","",""
"html-keyboard-response","258","1142154","0.0-4.0-8.0-1.1","spark_pilot_2","7341","2","13","Female","","","","","","","null","<div style=""font-size:60px;"">+</div>","null","fixation","","","","","","","","","","","","","",""
"revaluation","259","1142968","0.0-4.0-8.0-0.2","spark_pilot_2","7341","2","13","Female","","false","","","","","[812.3999999761581]","./assets/img/ocean/test/0.jpg","[""ArrowDown""]","first stage test","ocean","0","{""ArrowUp,ArrowLeft"":27,""ArrowUp,ArrowRight"":15,""ArrowDown,ArrowLeft"":21,""ArrowDown,ArrowRight"":7}","false","ArrowDown","false","","","revaluation","1","","","",""
"html-keyboard-response","260","1143489","0.0-4.0-8.0-1.2","spark_pilot_2","7341","2","13","Female","","","","","","","null","<div style=""font-size:60px;"">+</div>","null","fixation","","","","","","","","","","","","","",""
"revaluation","261","1144400","0.0-4.0-8.0-0.3","spark_pilot_2","7341","2","13","Female","","false","","","","","[908.6000000238419]","./assets/img/ocean/test/2.jpg","[""ArrowDown""]","first stage test","ocean","0","{""ArrowUp,ArrowLeft"":27,""ArrowUp,ArrowRight"":15,""ArrowDown,ArrowLeft"":21,""ArrowDown,ArrowRight"":7}","false","ArrowDown","false","","","revaluation","1","","","",""
"html-keyboard-response","262","1144909","0.0-4.0-8.0-1.3","spark_pilot_2","7341","2","13","Female","","","","","","","null","<div style=""font-size:60px;"">+</div>","null","fixation","","","","","","","","","","","","","",""
"learning-instructions","263","1158920","0.0-4.0-9.0-0.0","spark_pilot_2","7341","2","13","Female","","","","","","","2669.2000000476837","<p> Now you will see the animals again and can search their chests for treasure. </p>
            <p> This time, you will not see how much treasure you earned, but you will earn more bonus money for making better choices. </p>","","instructions","","","","","","","","","","","","","",""
"revaluation","264","1160248","0.0-4.0-10.0-0.0","spark_pilot_2","7341","2","13","Female","","false","","","","","[1326.699999988079]","./assets/img/ocean/animals/seahorse.jpg","[""ArrowLeft""]","second stage test","ocean","0","{""ArrowUp,ArrowLeft"":27,""ArrowUp,ArrowRight"":15,""ArrowDown,ArrowLeft"":21,""ArrowDown,ArrowRight"":7}","true","ArrowUp,ArrowLeft","","","","revaluation","1","","","",""
"html-keyboard-response","265","1160759","0.0-4.0-10.0-1.0","spark_pilot_2","7341","2","13","Female","","","","","","","null","<div style=""font-size:60px;"">+</div>","null","fixation","","","","","","","","","","","","","",""
"revaluation","266","1161336","0.0-4.0-10.0-0.1","spark_pilot_2","7341","2","13","Female","","false","","","","","[574.8000000119209]","./assets/img/ocean/animals/seahorse.jpg","[""ArrowRight""]","second stage test","ocean","0","{""ArrowUp,ArrowLeft"":27,""ArrowUp,ArrowRight"":15,""ArrowDown,ArrowLeft"":21,""ArrowDown,ArrowRight"":7}","false","ArrowUp,ArrowRight","","","","revaluation","1","","","",""
"html-keyboard-response","267","1161839","0.0-4.0-10.0-1.1","spark_pilot_2","7341","2","13","Female","","","","","","","null","<div style=""font-size:60px;"">+</div>","null","fixation","","","","","","","","","","","","","",""
"revaluation","268","1162272","0.0-4.0-10.0-0.2","spark_pilot_2","7341","2","13","Female","","false","","","","","[430.60000002384186]","./assets/img/ocean/animals/seahorse.jpg","[""ArrowLeft""]","second stage test","ocean","0","{""ArrowUp,ArrowLeft"":27,""ArrowUp,ArrowRight"":15,""ArrowDown,ArrowLeft"":21,""ArrowDown,ArrowRight"":7}","true","ArrowUp,ArrowLeft","","","","revaluation","1","","","",""
"html-keyboard-response","269","1162789","0.0-4.0-10.0-1.2","spark_pilot_2","7341","2","13","Female","","","","","","","null","<div style=""font-size:60px;"">+</div>","null","fixation","","","","","","","","","","","","","",""
"revaluation","270","1163088","0.0-4.0-10.0-0.3","spark_pilot_2","7341","2","13","Female","","false","","","","","[296.69999998807907]","./assets/img/ocean/animals/seahorse.jpg","[""ArrowRight""]","second stage test","ocean","0","{""ArrowUp,ArrowLeft"":27,""ArrowUp,ArrowRight"":15,""ArrowDown,ArrowLeft"":21,""ArrowDown,ArrowRight"":7}","false","ArrowUp,ArrowRight","","","","revaluation","1","","","",""
"html-keyboard-response","271","1163609","0.0-4.0-10.0-1.3","spark_pilot_2","7341","2","13","Female","","","","","","","null","<div style=""font-size:60px;"">+</div>","null","fixation","","","","","","","","","","","","","",""
"revaluation","272","1164176","0.0-4.0-10.0-0.4","spark_pilot_2","7341","2","13","Female","","false","","","","","[564.8999999761581]","./assets/img/ocean/animals/octopus.jpg","[""ArrowLeft""]","second stage test","ocean","0","{""ArrowUp,ArrowLeft"":27,""ArrowUp,ArrowRight"":15,""ArrowDown,ArrowLeft"":21,""ArrowDown,ArrowRight"":7}","true","ArrowDown,ArrowLeft","","","","revaluation","1","","","",""
"html-keyboard-response","273","1164689","0.0-4.0-10.0-1.4","spark_pilot_2","7341","2","13","Female","","","","","","","null","<div style=""font-size:60px;"">+</div>","null","fixation","","","","","","","","","","","","","",""
"revaluation","274","1164960","0.0-4.0-10.0-0.5","spark_pilot_2","7341","2","13","Female","","false","","","","","[268.89999997615814]","./assets/img/ocean/animals/octopus.jpg","[""ArrowRight""]","second stage test","ocean","0","{""ArrowUp,ArrowLeft"":27,""ArrowUp,ArrowRight"":15,""ArrowDown,ArrowLeft"":21,""ArrowDown,ArrowRight"":7}","false","ArrowDown,ArrowRight","","","","revaluation","1","","","",""
"html-keyboard-response","275","1165469","0.0-4.0-10.0-1.5","spark_pilot_2","7341","2","13","Female","","","","","","","null","<div style=""font-size:60px;"">+</div>","null","fixation","","","","","","","","","","","","","",""
"revaluation","276","1165768","0.0-4.0-10.0-0.6","spark_pilot_2","7341","2","13","Female","","false","","","","","[297.69999998807907]","./assets/img/ocean/animals/octopus.jpg","[""ArrowLeft""]","second stage test","ocean","0","{""ArrowUp,ArrowLeft"":27,""ArrowUp,ArrowRight"":15,""ArrowDown,ArrowLeft"":21,""ArrowDown,ArrowRight"":7}","true","ArrowDown,ArrowLeft","","","","revaluation","1","","","",""
"html-keyboard-response","277","1166279","0.0-4.0-10.0-1.6","spark_pilot_2","7341","2","13","Female","","","","","","","null","<div style=""font-size:60px;"">+</div>","null","fixation","","","","","","","","","","","","","",""
"revaluation","278","1166592","0.0-4.0-10.0-0.7","spark_pilot_2","7341","2","13","Female","","false","","","","","[310.5]","./assets/img/ocean/animals/octopus.jpg","[""ArrowRight""]","second stage test","ocean","0","{""ArrowUp,ArrowLeft"":27,""ArrowUp,ArrowRight"":15,""ArrowDown,ArrowLeft"":21,""ArrowDown,ArrowRight"":7}","false","ArrowDown,ArrowRight","","","","revaluation","1","","","",""
"html-keyboard-response","279","1167099","0.0-4.0-10.0-1.7","spark_pilot_2","7341","2","13","Female","","","","","","","null","<div style=""font-size:60px;"">+</div>","null","fixation","","","","","","","","","","","","","",""
"learning-instructions","280","1171876","0.0-4.0-0.1-0.2","spark_pilot_2","7341","2","13","Female","","","","","","","2016.5999999642372","<p> This time you are searching for treasure in the <b>canyon</b>.</p>","","instructions","","","","","","","","","","","","","",""
"learning-instructions","281","1190448","0.0-4.0-0.1-0.3","spark_pilot_2","7341","2","13","Female","","","","","","","1328","<p><b>New</b> animals with <b>new</b> treasure chests live here. You need to explore to discover where the animal with the best treasure chest is.</p>
                    <p> Like before, once you figure out which animal has the chest with the most treasure, you should try to get to that animal and select that chest! </p>","","instructions","","","","","","","","","","","","","",""
"learning-instructions","282","1212206","0.0-4.0-1.1-0.1","spark_pilot_2","7341","2","13","Female","","","","","","","7035.399999976158","<p> Remember, when you see a picture of the place, use the up and down keys to <b>find an animal</b>.</p>
            <p> When you encounter an animal, you should use the left and right keys to <b>select a treasure chest</b>.</p>
            <p> Don't forget to look out for the robber! </p>","","instructions","","","","","","","","","","","","","",""
"revaluation","283","1218219","0.0-4.0-2.1-0.50","spark_pilot_2","7341","2","13","Female","","false","","","","","[1497,910.6999999880791]","./assets/img/canyon/memory/25.jpg","[""ArrowUp"",""ArrowRight""]","value training","canyon","10","{""ArrowUp,ArrowLeft"":26,""ArrowUp,ArrowRight"":10,""ArrowDown,ArrowLeft"":5,""ArrowDown,ArrowRight"":17}","false","ArrowUp,ArrowRight","false","","","original","2","0","","",""
"html-keyboard-response","284","1218739","0.0-4.0-2.1-1.50","spark_pilot_2","7341","2","13","Female","","","","","","","null","<div style=""font-size:60px;"">+</div>","null","fixation","","","","","","","","","","","1","","",""
"revaluation","285","1224759","0.0-4.0-2.1-0.51","spark_pilot_2","7341","2","13","Female","","false","","","","","[290.5999999642372,296.10000002384186]","./assets/img/canyon/memory/0.jpg","[""ArrowUp"",""ArrowLeft""]","value training","canyon","26","{""ArrowUp,ArrowLeft"":26,""ArrowUp,ArrowRight"":10,""ArrowDown,ArrowLeft"":5,""ArrowDown,ArrowRight"":17}","true","ArrowUp,ArrowLeft","false","","","original","2","2","","",""
"html-keyboard-response","286","1225278","0.0-4.0-2.1-1.51","spark_pilot_2","7341","2","13","Female","","","","","","","null","<div style=""font-size:60px;"">+</div>","null","fixation","","","","","","","","","","","3","","",""
"revaluation","287","1231319","0.0-4.0-2.1-0.52","spark_pilot_2","7341","2","13","Female","","false","","","","","[414.89999997615814,639.3000000119209]","./assets/img/canyon/memory/23.jpg","[""ArrowDown"",""ArrowLeft""]","value training","canyon","5","{""ArrowUp,ArrowLeft"":26,""ArrowUp,ArrowRight"":10,""ArrowDown,ArrowLeft"":5,""ArrowDown,ArrowRight"":17}","false","ArrowDown,ArrowLeft","false","","","original","2","4","","",""
"html-keyboard-response","288","1231839","0.0-4.0-2.1-1.52","spark_pilot_2","7341","2","13","Female","","","","","","","null","<div style=""font-size:60px;"">+</div>","null","fixation","","","","","","","","","","","5","","",""
"revaluation","289","1237850","0.0-4.0-2.1-0.53","spark_pilot_2","7341","2","13","Female","","false","","","","","[334.80000001192093,279.2000000476837]","./assets/img/canyon/memory/25.jpg","[""ArrowDown"",""ArrowRight""]","value training","canyon","17","{""ArrowUp,ArrowLeft"":26,""ArrowUp,ArrowRight"":10,""ArrowDown,ArrowLeft"":5,""ArrowDown,ArrowRight"":17}","false","ArrowDown,ArrowRight","false","","","original","2","6","","",""
"html-keyboard-response","290","1238352","0.0-4.0-2.1-1.53","spark_pilot_2","7341","2","13","Female","","","","","","","null","<div style=""font-size:60px;"">+</div>","null","fixation","","","","","","","","","","","7","","",""
"revaluation","291","1242356","0.0-4.0-2.1-0.54","spark_pilot_2","7341","2","13","Female","","false","","","","","[1333.699999988079]","./assets/img/canyon/catch/2.jpg","[""spaceBar""]","value training","canyon","0","{""ArrowUp,ArrowLeft"":26,""ArrowUp,ArrowRight"":10,""ArrowDown,ArrowLeft"":5,""ArrowDown,ArrowRight"":17}","true","spaceBar","true","","","original","2","8","","",""
"html-keyboard-response","292","1242857","0.0-4.0-2.1-1.54","spark_pilot_2","7341","2","13","Female","","","","","","","null","<div style=""font-size:60px;"">+</div>","null","fixation","","","","","","","","","","","9","","",""
"revaluation","293","1246861","0.0-4.0-2.1-0.55","spark_pilot_2","7341","2","13","Female","","false","","","","","[604.4000000357628]","./assets/img/canyon/catch/3.jpg","[""spaceBar""]","value training","canyon","0","{""ArrowUp,ArrowLeft"":26,""ArrowUp,ArrowRight"":10,""ArrowDown,ArrowLeft"":5,""ArrowDown,ArrowRight"":17}","true","spaceBar","true","","","original","2","10","","",""
"html-keyboard-response","294","1247363","0.0-4.0-2.1-1.55","spark_pilot_2","7341","2","13","Female","","","","","","","null","<div style=""font-size:60px;"">+</div>","null","fixation","","","","","","","","","","","11","","",""
"revaluation","295","1253368","0.0-4.0-2.1-0.56","spark_pilot_2","7341","2","13","Female","","false","","","","","[1282.699999988079,426]","./assets/img/canyon/memory/17.jpg","[""ArrowUp"",""ArrowLeft""]","value training","canyon","26","{""ArrowUp,ArrowLeft"":26,""ArrowUp,ArrowRight"":10,""ArrowDown,ArrowLeft"":5,""ArrowDown,ArrowRight"":17}","true","ArrowUp,ArrowLeft","false","","","original","2","12","","",""
"html-keyboard-response","296","1253884","0.0-4.0-2.1-1.56","spark_pilot_2","7341","2","13","Female","","","","","","","null","<div style=""font-size:60px;"">+</div>","null","fixation","","","","","","","","","","","13","","",""
"revaluation","297","1259889","0.0-4.0-2.1-0.57","spark_pilot_2","7341","2","13","Female","","false","","","","","[602,352.80000001192093]","./assets/img/canyon/memory/18.jpg","[""ArrowUp"",""ArrowLeft""]","value training","canyon","26","{""ArrowUp,ArrowLeft"":26,""ArrowUp,ArrowRight"":10,""ArrowDown,ArrowLeft"":5,""ArrowDown,ArrowRight"":17}","true","ArrowUp,ArrowLeft","false","","","original","2","14","","",""
"html-keyboard-response","298","1260390","0.0-4.0-2.1-1.57","spark_pilot_2","7341","2","13","Female","","","","","","","null","<div style=""font-size:60px;"">+</div>","null","fixation","","","","","","","","","","","15","","",""
"revaluation","299","1266395","0.0-4.0-2.1-0.58","spark_pilot_2","7341","2","13","Female","","false","","","","","[1231.5,326.39999997615814]","./assets/img/canyon/memory/24.jpg","[""ArrowUp"",""ArrowLeft""]","value training","canyon","26","{""ArrowUp,ArrowLeft"":26,""ArrowUp,ArrowRight"":10,""ArrowDown,ArrowLeft"":5,""ArrowDown,ArrowRight"":17}","true","ArrowUp,ArrowLeft","false","","","original","2","16","","",""
"html-keyboard-response","300","1266896","0.0-4.0-2.1-1.58","spark_pilot_2","7341","2","13","Female","","","","","","","null","<div style=""font-size:60px;"">+</div>","null","fixation","","","","","","","","","","","17","","",""
"revaluation","301","1272902","0.0-4.0-2.1-0.59","spark_pilot_2","7341","2","13","Female","","false","","","","","[909.3999999761581,356.19999998807907]","./assets/img/canyon/memory/0.jpg","[""ArrowUp"",""ArrowLeft""]","value training","canyon","26","{""ArrowUp,ArrowLeft"":26,""ArrowUp,ArrowRight"":10,""ArrowDown,ArrowLeft"":5,""ArrowDown,ArrowRight"":17}","true","ArrowUp,ArrowLeft","false","","","original","2","18","","",""
"html-keyboard-response","302","1273404","0.0-4.0-2.1-1.59","spark_pilot_2","7341","2","13","Female","","","","","","","null","<div style=""font-size:60px;"">+</div>","null","fixation","","","","","","","","","","","19","","",""
"revaluation","303","1279408","0.0-4.0-2.1-0.60","spark_pilot_2","7341","2","13","Female","","false","","","","","[546,385.0999999642372]","./assets/img/canyon/memory/9.jpg","[""ArrowUp"",""ArrowLeft""]","value training","canyon","26","{""ArrowUp,ArrowLeft"":26,""ArrowUp,ArrowRight"":10,""ArrowDown,ArrowLeft"":5,""ArrowDown,ArrowRight"":17}","true","ArrowUp,ArrowLeft","false","","","original","2","20","","",""
"html-keyboard-response","304","1279912","0.0-4.0-2.1-1.60","spark_pilot_2","7341","2","13","Female","","","","","","","null","<div style=""font-size:60px;"">+</div>","null","fixation","","","","","","","","","","","21","","",""
"revaluation","305","1283916","0.0-4.0-2.1-0.61","spark_pilot_2","7341","2","13","Female","","false","","","","","[677]","./assets/img/canyon/catch/6.jpg","[""spaceBar""]","value training","canyon","0","{""ArrowUp,ArrowLeft"":26,""ArrowUp,ArrowRight"":10,""ArrowDown,ArrowLeft"":5,""ArrowDown,ArrowRight"":17}","true","spaceBar","true","","","original","2","22","","",""
