"trial_type","trial_index","time_elapsed","internal_node_id","task_version","subject_id","assigned_condition","age","gender","success","timeout","failed_images","failed_audio","failed_video","browser_interaction","value","rt","stimulus","response","task_part","environment","score","rewardMap","correct","fullState","isCatch","numberMissed","duration","condition","order","trial_num","key_press","ground_truth","bonus"
"pavlovia","0","1127","0.0-0.0","spark_pilot_2","7431","2","18","Female","","","","","","","","","","","","","","","","","","","","","","","","",""
"preload","1","16670","0.0-1.0","spark_pilot_2","7431","2","18","Female","true","false","[]","[]","[]","[{""event"":""fullscreenenter"",""trial"":2,""time"":18688}]","","","","","","","","","","","","","","","","","","",""
"fullscreen","2","19615","0.0-2.0","spark_pilot_2","7431","2","18","Female","true","","","","","","","","","","","","","","","","","","","","","","","",""
"call-function","3","53851","0.0-3.0","spark_pilot_2","7431","2","18","Female","","","","","","","","","","","","","","","","","","","","","","","","",""
"audio-button-response","4","55557","0.0-4.0-0.0-0.0","spark_pilot_2","7431","2","18","Female","","","","","","","","1168","./assets/audio/audiotest/turtle.mp3","2","audio_test","","","","","","","","","","","","","",""
"learning-instructions","5","64907","0.0-4.0-1.0-0.0","spark_pilot_2","7431","2","18","Female","","","","","","","","2395","<p> Welcome! Please remember to stay in fullscreen mode and don't click away from the experiment. </p>","","instructions","","","","","","","","","","","","","",""
"learning-instructions","6","78401","0.0-4.0-1.0-0.1","spark_pilot_2","7431","2","18","Female","","","","","","","","5108.999999999985","<p> Today you will be playing a game to earn treasure. </p>
            <p> At the end of the experiment, you will earn a bonus based on how much treasure you find. </p>
            <img src='./assets/img/instructions/treasure.jpg' class='instructions-image'>","","instructions","","","","","","","","","","","","","",""
"learning-instructions","7","87504","0.0-4.0-1.0-0.2","spark_pilot_2","7431","2","18","Female","","","","","","","","867","<p> Animals have hidden treasure in treasure chests. </p>
            <p> You need to first find an animal and then choose which of their treasure chests to search. </p>
            <img src='./assets/img/space/animals/cat.jpg' class='instructions-image'>","","instructions","","","","","","","","","","","","","",""
"learning-instructions","8","101619","0.0-4.0-1.0-0.3","spark_pilot_2","7431","2","18","Female","","","","","","","","988","<p> In each round, you will search for treasure in a different place. In the real game, there will be two rounds. </p>
            <p> You will begin with a separate, practice round where you will search for treasure in outer space. </p>
            <img src='./assets/img/space/0.jpg' class='instructions-image'>","","instructions","","","","","","","","","","","","","",""
"learning-instructions","9","125075","0.0-4.0-1.0-0.4","spark_pilot_2","7431","2","18","Female","","","","","","","","12066","<p> On every turn, you will see a picture of the place that you are in, but the specific image may be different each time. </p>
            <p> For example, both of these images mean you are in outer space. </p>
            <img src='./assets/img/instructions/outerspace.jpg' class='instructions-image'>","","instructions","","","","","","","","","","","","","",""
"learning-instructions","10","134293","0.0-4.0-1.0-0.5","spark_pilot_2","7431","2","18","Female","","","","","","","","1415","<p> You need to decide which direction to travel in. </p>
            <p> You can choose between going <b>up or down</b> by using the arrow keys. </p>
            <img src='./assets/img/instructions/updown.jpg' class='instructions-image'>","","instructions","","","","","","","","","","","","","",""
"learning-instructions","11","144956","0.0-4.0-1.0-0.6","spark_pilot_2","7431","2","18","Female","","","","","","","","1878","<p> You will have <b>2 seconds</b> to make your choice. </p>
            <p> If you do not make a choice within 2 seconds, you will not find an animal or earn treasure. </p>
            <img src='./assets/img/instructions/2seconds.jpg' class='instructions-image'>","","instructions","","","","","","","","","","","","","",""
"learning-instructions","12","153274","0.0-4.0-1.0-0.7","spark_pilot_2","7431","2","18","Female","","","","","","","","1304.000000000029","<p> Let’s try practicing that now! </p>
            <p> When you see a picture of the place you are in, press the <b>up</b> key to travel up. </p>
            <img src='./assets/img/instructions/pressUp.jpg' class='instructions-image'>","","instructions","","","","","","","","","","","","","",""
"revaluation","13","157285","0.0-4.0-2.0-0.0","spark_pilot_2","7431","2","18","Female","","false","","","","","","[649]","./assets/img/space/0.jpg","[""ArrowUp""]","first stage practice","space","0","null","null","ArrowUp","false","","","","","","","",""
"html-keyboard-response","14","157786","0.0-4.0-2.0-1.0","spark_pilot_2","7431","2","18","Female","","","","","","","","null","<div style=""font-size:60px;"">+</div>","null","fixation","","","","","","","","","","","","","",""
"revaluation","15","161789","0.0-4.0-2.0-0.1","spark_pilot_2","7431","2","18","Female","","false","","","","","","[1160]","./assets/img/space/1.jpg","[""ArrowUp""]","first stage practice","space","0","null","null","ArrowUp","false","","","","","","","",""
"html-keyboard-response","16","162290","0.0-4.0-2.0-1.1","spark_pilot_2","7431","2","18","Female","","","","","","","","null","<div style=""font-size:60px;"">+</div>","null","fixation","","","","","","","","","","","","","",""
"revaluation","17","166294","0.0-4.0-2.0-0.2","spark_pilot_2","7431","2","18","Female","","false","","","","","","[509.9999999999709]","./assets/img/space/2.jpg","[""ArrowUp""]","first stage practice","space","0","null","null","ArrowUp","false","","","","","","","",""
"html-keyboard-response","18","166796","0.0-4.0-2.0-1.2","spark_pilot_2","7431","2","18","Female","","","","","","","","null","<div style=""font-size:60px;"">+</div>","null","fixation","","","","","","","","","","","","","",""
"learning-instructions","19","174596","0.0-4.0-3.0-0.0","spark_pilot_2","7431","2","18","Female","","","","","","","","3116","<p> Great job! Now try pressing the <b>down</b> key to travel down. </p>
            <img src='./assets/img/instructions/pressDown.jpg' class='instructions-image'>","","instructions","","","","","","","","","","","","","",""
"revaluation","20","178599","0.0-4.0-4.0-0.0","spark_pilot_2","7431","2","18","Female","","false","","","","","","[534.0000000000291]","./assets/img/space/3.jpg","[""ArrowDown""]","first stage practice","space","0","null","null","ArrowDown","false","","","","","","","",""
"html-keyboard-response","21","179100","0.0-4.0-4.0-1.0","spark_pilot_2","7431","2","18","Female","","","","","","","","null","<div style=""font-size:60px;"">+</div>","null","fixation","","","","","","","","","","","","","",""
"revaluation","22","183105","0.0-4.0-4.0-0.1","spark_pilot_2","7431","2","18","Female","","false","","","","","","[515]","./assets/img/space/4.jpg","[""ArrowDown""]","first stage practice","space","0","null","null","ArrowDown","false","","","","","","","",""
"html-keyboard-response","23","183609","0.0-4.0-4.0-1.1","spark_pilot_2","7431","2","18","Female","","","","","","","","null","<div style=""font-size:60px;"">+</div>","null","fixation","","","","","","","","","","","","","",""
"revaluation","24","187614","0.0-4.0-4.0-0.2","spark_pilot_2","7431","2","18","Female","","false","","","","","","[449]","./assets/img/space/5.jpg","[""ArrowDown""]","first stage practice","space","0","null","null","ArrowDown","false","","","","","","","",""
"html-keyboard-response","25","188115","0.0-4.0-4.0-1.2","spark_pilot_2","7431","2","18","Female","","","","","","","","null","<div style=""font-size:60px;"">+</div>","null","fixation","","","","","","","","","","","","","",""
"learning-instructions","26","199190","0.0-4.0-5.0-0.0","spark_pilot_2","7431","2","18","Female","","","","","","","","1250","<p> The animals don’t move, so the animal in the upper part of a place will stay in the upper part of a place, and the animal in the lower part of a place will stay in the lower part of a place. </p>","","instructions","","","","","","","","","","","","","",""
"learning-instructions","27","209502","0.0-4.0-5.0-0.1","spark_pilot_2","7431","2","18","Female","","","","","","","","1204.999999999971","<p> Each animal has two treasure chests for you to choose from. </p>
            <p> The amount of treasure in each chest can range from <b> 0 to 40 pieces.</b></p>","","instructions","","","","","","","","","","","","","",""
"learning-instructions","28","222203","0.0-4.0-5.0-0.2","spark_pilot_2","7431","2","18","Female","","","","","","","","1536.999999999971","<p> You should decide which chest to search for treasure by using the <b>left</b> and <b>right</b> arrow keys. </p>
            <p><b> Pay attention to which animal is on the screen, as the animals have different treasure chests. </b></p>
            <img src='./assets/img/instructions/leftright.jpg' class='instructions-image'>","","instructions","","","","","","","","","","","","","",""
"learning-instructions","29","229615","0.0-4.0-5.0-0.3","spark_pilot_2","7431","2","18","Female","","","","","","","","1067","<p> Let’s try practicing that now. </p>
            <p> When you see an animal, choose which chest to search for treasure. </p>
            <img src='./assets/img/instructions/chooseChest.jpg' class='instructions-image'>","","instructions","","","","","","","","","","","","","",""
"revaluation","30","233618","0.0-4.0-6.0-0.0","spark_pilot_2","7431","2","18","Female","","false","","","","","","[594]","./assets/img/space/animals/cat.jpg","[""ArrowRight""]","second stage practice","space","36","{""ArrowUp,ArrowLeft"":3,""ArrowUp,ArrowRight"":36,""ArrowDown,ArrowLeft"":15,""ArrowDown,ArrowRight"":23}","true","ArrowUp,ArrowRight","","","","","","","","",""
"html-keyboard-response","31","234119","0.0-4.0-6.0-1.0","spark_pilot_2","7431","2","18","Female","","","","","","","","null","<div style=""font-size:60px;"">+</div>","null","fixation","","","","","","","","","","","","","",""
"revaluation","32","238122","0.0-4.0-6.0-0.1","spark_pilot_2","7431","2","18","Female","","false","","","","","","[617]","./assets/img/space/animals/cat.jpg","[""ArrowLeft""]","second stage practice","space","3","{""ArrowUp,ArrowLeft"":3,""ArrowUp,ArrowRight"":36,""ArrowDown,ArrowLeft"":15,""ArrowDown,ArrowRight"":23}","false","ArrowUp,ArrowLeft","","","","","","","","",""
"html-keyboard-response","33","238624","0.0-4.0-6.0-1.1","spark_pilot_2","7431","2","18","Female","","","","","","","","null","<div style=""font-size:60px;"">+</div>","null","fixation","","","","","","","","","","","","","",""
"revaluation","34","242627","0.0-4.0-6.0-0.2","spark_pilot_2","7431","2","18","Female","","false","","","","","","[647.0000000000291]","./assets/img/space/animals/rabbit.jpg","[""ArrowLeft""]","second stage practice","space","15","{""ArrowUp,ArrowLeft"":3,""ArrowUp,ArrowRight"":36,""ArrowDown,ArrowLeft"":15,""ArrowDown,ArrowRight"":23}","false","ArrowDown,ArrowLeft","","","","","","","","",""
"html-keyboard-response","35","243128","0.0-4.0-6.0-1.2","spark_pilot_2","7431","2","18","Female","","","","","","","","null","<div style=""font-size:60px;"">+</div>","null","fixation","","","","","","","","","","","","","",""
"revaluation","36","247132","0.0-4.0-6.0-0.3","spark_pilot_2","7431","2","18","Female","","false","","","","","","[1069]","./assets/img/space/animals/rabbit.jpg","[""ArrowRight""]","second stage practice","space","23","{""ArrowUp,ArrowLeft"":3,""ArrowUp,ArrowRight"":36,""ArrowDown,ArrowLeft"":15,""ArrowDown,ArrowRight"":23}","true","ArrowDown,ArrowRight","","","","","","","","",""
"html-keyboard-response","37","247633","0.0-4.0-6.0-1.3","spark_pilot_2","7431","2","18","Female","","","","","","","","null","<div style=""font-size:60px;"">+</div>","null","fixation","","","","","","","","","","","","","",""
"learning-instructions","38","265605","0.0-4.0-7.0-0.0","spark_pilot_2","7431","2","18","Female","","","","","","","","1187","<p> Great job. Now let’s try putting it together. </p>
            <p> On each turn, you will first see a picture to remind you of the place you are in, and you need to choose whether to go up or down. </p>
            <p> Then you will see an animal and choose which of its chests to search for treasure. </p>","","instructions","","","","","","","","","","","","","",""
"learning-instructions","39","276944","0.0-4.0-7.0-0.1","spark_pilot_2","7431","2","18","Female","","","","","","","","1019","<p> When you choose whether to go up or down, try to go to the animal with the chest with the most treasure. </p>
            <p> Try practicing that now! </p>","","instructions","","","","","","","","","","","","","",""
"revaluation","40","282947","0.0-4.0-8.0-0.0","spark_pilot_2","7431","2","18","Female","","false","","","","","","[1013,1570]","./assets/img/space/6.jpg","[""ArrowUp"",""ArrowRight""]","full practice","space","36","{""ArrowUp,ArrowLeft"":3,""ArrowUp,ArrowRight"":36,""ArrowDown,ArrowLeft"":15,""ArrowDown,ArrowRight"":23}","true","ArrowUp,ArrowRight","false","","","","","","","",""
"html-keyboard-response","41","283449","0.0-4.0-8.0-1.0","spark_pilot_2","7431","2","18","Female","","","","","","","","null","<div style=""font-size:60px;"">+</div>","null","fixation","","","","","","","","","","","","","",""
"revaluation","42","289453","0.0-4.0-8.0-0.1","spark_pilot_2","7431","2","18","Female","","false","","","","","","[1393,965.0000000000582]","./assets/img/space/7.jpg","[""ArrowDown"",""ArrowRight""]","full practice","space","23","{""ArrowUp,ArrowLeft"":3,""ArrowUp,ArrowRight"":36,""ArrowDown,ArrowLeft"":15,""ArrowDown,ArrowRight"":23}","false","ArrowDown,ArrowRight","false","","","","","","","",""
"html-keyboard-response","43","289955","0.0-4.0-8.0-1.1","spark_pilot_2","7431","2","18","Female","","","","","","","","null","<div style=""font-size:60px;"">+</div>","null","fixation","","","","","","","","","","","","","",""
"revaluation","44","295959","0.0-4.0-8.0-0.2","spark_pilot_2","7431","2","18","Female","","false","","","","","","[1224,646]","./assets/img/space/8.jpg","[""ArrowUp"",""ArrowRight""]","full practice","space","36","{""ArrowUp,ArrowLeft"":3,""ArrowUp,ArrowRight"":36,""ArrowDown,ArrowLeft"":15,""ArrowDown,ArrowRight"":23}","true","ArrowUp,ArrowRight","false","","","","","","","",""
"html-keyboard-response","45","296460","0.0-4.0-8.0-1.2","spark_pilot_2","7431","2","18","Female","","","","","","","","null","<div style=""font-size:60px;"">+</div>","null","fixation","","","","","","","","","","","","","",""
"revaluation","46","302464","0.0-4.0-8.0-0.3","spark_pilot_2","7431","2","18","Female","","false","","","","","","[711,986]","./assets/img/space/9.jpg","[""ArrowDown"",""ArrowRight""]","full practice","space","23","{""ArrowUp,ArrowLeft"":3,""ArrowUp,ArrowRight"":36,""ArrowDown,ArrowLeft"":15,""ArrowDown,ArrowRight"":23}","false","ArrowDown,ArrowRight","false","","","","","","","",""
"html-keyboard-response","47","302966","0.0-4.0-8.0-1.3","spark_pilot_2","7431","2","18","Female","","","","","","","","null","<div style=""font-size:60px;"">+</div>","null","fixation","","","","","","","","","","","","","",""
"revaluation","48","308970","0.0-4.0-8.0-0.4","spark_pilot_2","7431","2","18","Female","","false","","","","","","[807,501]","./assets/img/space/10.jpg","[""ArrowUp"",""ArrowRight""]","full practice","space","36","{""ArrowUp,ArrowLeft"":3,""ArrowUp,ArrowRight"":36,""ArrowDown,ArrowLeft"":15,""ArrowDown,ArrowRight"":23}","true","ArrowUp,ArrowRight","false","","","","","","","",""
"html-keyboard-response","49","309472","0.0-4.0-8.0-1.4","spark_pilot_2","7431","2","18","Female","","","","","","","","null","<div style=""font-size:60px;"">+</div>","null","fixation","","","","","","","","","","","","","",""
"learning-instructions","50","321932","0.0-4.0-9.0-0.0","spark_pilot_2","7431","2","18","Female","","","","","","","","2171","<p> One last thing: sometimes, you will see a robber. The robber can be anywhere in the picture. </p>
            <p> If you do not stop them, you will lose treasure. </p>
            <img src='./assets/img/instructions/robber.jpg' class='instructions-image'>","","instructions","","","","","","","","","","","","","",""
"learning-instructions","51","329965","0.0-4.0-9.0-0.1","spark_pilot_2","7431","2","18","Female","","","","","","","","885","<p> If you see the robber, you should <b>press the space bar</b> rather than using the arrow keys. </p>
            <p> Try practicing that now! </p>","","instructions","","","","","","","","","","","","","",""
"revaluation","52","333967","0.0-4.0-10.0-0.0","spark_pilot_2","7431","2","18","Female","","false","","","","","","[936]","./assets/img/space/catch/0.jpg","[""spaceBar""]","catch practice","space","0","{""ArrowUp,ArrowLeft"":3,""ArrowUp,ArrowRight"":36,""ArrowDown,ArrowLeft"":15,""ArrowDown,ArrowRight"":23}","true","spaceBar","true","","","","","","","",""
"html-keyboard-response","53","334468","0.0-4.0-10.0-1.0","spark_pilot_2","7431","2","18","Female","","","","","","","","null","<div style=""font-size:60px;"">+</div>","null","fixation","","","","","","","","","","","","","",""
"revaluation","54","338471","0.0-4.0-10.0-0.1","spark_pilot_2","7431","2","18","Female","","false","","","","","","[604]","./assets/img/space/catch/1.jpg","[""spaceBar""]","catch practice","space","0","{""ArrowUp,ArrowLeft"":3,""ArrowUp,ArrowRight"":36,""ArrowDown,ArrowLeft"":15,""ArrowDown,ArrowRight"":23}","true","spaceBar","true","","","","","","","",""
"html-keyboard-response","55","338972","0.0-4.0-10.0-1.1","spark_pilot_2","7431","2","18","Female","","","","","","","","null","<div style=""font-size:60px;"">+</div>","null","fixation","","","","","","","","","","","","","",""
"revaluation","56","342974","0.0-4.0-10.0-0.2","spark_pilot_2","7431","2","18","Female","","false","","","","","","[673]","./assets/img/space/catch/2.jpg","[""spaceBar""]","catch practice","space","0","{""ArrowUp,ArrowLeft"":3,""ArrowUp,ArrowRight"":36,""ArrowDown,ArrowLeft"":15,""ArrowDown,ArrowRight"":23}","true","spaceBar","true","","","","","","","",""
"html-keyboard-response","57","343476","0.0-4.0-10.0-1.2","spark_pilot_2","7431","2","18","Female","","","","","","","","null","<div style=""font-size:60px;"">+</div>","null","fixation","","","","","","","","","","","","","",""
"learning-instructions","58","361790","0.0-4.0-11.0-0.0","spark_pilot_2","7431","2","18","Female","","","","","","","","3663","<p> After you explore a place to find treasure, it will be time to play a different game. </p>
            <p> During this game, red dots will appear on the screen and fall down slowly. </p>
            <p><b> You must click on them before they reach the bottom. </b></p>
            <img src='./assets/img/instructions/dotGame.jpg' class='instructions-image'>","","instructions","","","","","","","","","","","","","",""
"learning-instructions","59","369569","0.0-4.0-11.0-0.1","spark_pilot_2","7431","2","18","Female","","","","","","","","1408.9999999999418","<p> For every dot you click, you will earn additional treasure. </p>
            <p> Let’s try practicing that now. </p>","","instructions","","","","","","","","","","","","","",""
"revaluation","60","384571","0.0-4.0-12.0-0.0","spark_pilot_2","7431","2","18","Female","","","","","","","","[73]","","","rest practice","","10","","","","","0","15000","","","","","",""
"learning-instructions","61","391641","0.0-4.0-13.0-0.0-0.0","spark_pilot_2","7431","2","18","Female","","","","","","","","1843","<p> Now, you will practice a shortened version of the game to get a sense of how it all fits together. </p>","","instructions","","","","","","","","","","","","","",""
"learning-instructions","62","395817","0.0-4.0-13.0-0.0-0.1","spark_pilot_2","7431","2","18","Female","","","","","","","","1003","<p>This time you are searching for treasure in outer space.</p>","","instructions","","","","","","","","","","","","","",""
"learning-instructions","63","411883","0.0-4.0-13.0-1.0-0.0","spark_pilot_2","7431","2","18","Female","","","","","","","","1322","<p> Remember, when you see a picture of the place, use the up and down keys to <b>find an animal</b>.</p>
            <p> When you encounter an animal, you should use the left and right keys to <b>select a treasure chest</b>.</p>
            <p> Don't forget to look out for the robber! </p>","","instructions","","","","","","","","","","","","","",""
"revaluation","64","417887","0.0-4.0-13.0-2.0-0.0","spark_pilot_2","7431","2","18","Female","","false","","","","","","[723.9999999999418,580]","./assets/img/space/11.jpg","[""ArrowUp"",""ArrowRight""]","practice block","space","36","{""ArrowUp,ArrowLeft"":3,""ArrowUp,ArrowRight"":36,""ArrowDown,ArrowLeft"":15,""ArrowDown,ArrowRight"":23}","true","ArrowUp,ArrowRight","false","","","","","","","",""
"html-keyboard-response","65","418388","0.0-4.0-13.0-2.0-1.0","spark_pilot_2","7431","2","18","Female","","","","","","","","null","<div style=""font-size:60px;"">+</div>","null","fixation","","","","","","","","","","","","","",""
"revaluation","66","424391","0.0-4.0-13.0-2.0-0.1","spark_pilot_2","7431","2","18","Female","","false","","","","","","[1260,487.0000000000582]","./assets/img/space/12.jpg","[""ArrowUp"",""ArrowRight""]","practice block","space","36","{""ArrowUp,ArrowLeft"":3,""ArrowUp,ArrowRight"":36,""ArrowDown,ArrowLeft"":15,""ArrowDown,ArrowRight"":23}","true","ArrowUp,ArrowRight","false","","","","","","","",""
"html-keyboard-response","67","424892","0.0-4.0-13.0-2.0-1.1","spark_pilot_2","7431","2","18","Female","","","","","","","","null","<div style=""font-size:60px;"">+</div>","null","fixation","","","","","","","","","","","","","",""
"revaluation","68","430897","0.0-4.0-13.0-2.0-0.2","spark_pilot_2","7431","2","18","Female","","false","","","","","","[959,473.9999999999418]","./assets/img/space/13.jpg","[""ArrowUp"",""ArrowRight""]","practice block","space","36","{""ArrowUp,ArrowLeft"":3,""ArrowUp,ArrowRight"":36,""ArrowDown,ArrowLeft"":15,""ArrowDown,ArrowRight"":23}","true","ArrowUp,ArrowRight","false","","","","","","","",""
"html-keyboard-response","69","431399","0.0-4.0-13.0-2.0-1.2","spark_pilot_2","7431","2","18","Female","","","","","","","","null","<div style=""font-size:60px;"">+</div>","null","fixation","","","","","","","","","","","","","",""
"revaluation","70","437403","0.0-4.0-13.0-2.0-0.3","spark_pilot_2","7431","2","18","Female","","false","","","","","","[870.9999999999418,385]","./assets/img/space/14.jpg","[""ArrowUp"",""ArrowRight""]","practice block","space","36","{""ArrowUp,ArrowLeft"":3,""ArrowUp,ArrowRight"":36,""ArrowDown,ArrowLeft"":15,""ArrowDown,ArrowRight"":23}","true","ArrowUp,ArrowRight","false","","","","","","","",""
"html-keyboard-response","71","437904","0.0-4.0-13.0-2.0-1.3","spark_pilot_2","7431","2","18","Female","","","","","","","","null","<div style=""font-size:60px;"">+</div>","null","fixation","","","","","","","","","","","","","",""
"revaluation","72","443908","0.0-4.0-13.0-2.0-0.4","spark_pilot_2","7431","2","18","Female","","false","","","","","","[1359,660]","./assets/img/space/11.jpg","[""ArrowUp"",""ArrowRight""]","practice block","space","36","{""ArrowUp,ArrowLeft"":3,""ArrowUp,ArrowRight"":36,""ArrowDown,ArrowLeft"":15,""ArrowDown,ArrowRight"":23}","true","ArrowUp,ArrowRight","false","","","","","","","",""
"html-keyboard-response","73","444408","0.0-4.0-13.0-2.0-1.4","spark_pilot_2","7431","2","18","Female","","","","","","","","null","<div style=""font-size:60px;"">+</div>","null","fixation","","","","","","","","","","","","","",""
"revaluation","74","450413","0.0-4.0-13.0-2.0-0.5","spark_pilot_2","7431","2","18","Female","","false","","","","","","[670,289]","./assets/img/space/12.jpg","[""ArrowUp"",""ArrowRight""]","practice block","space","36","{""ArrowUp,ArrowLeft"":3,""ArrowUp,ArrowRight"":36,""ArrowDown,ArrowLeft"":15,""ArrowDown,ArrowRight"":23}","true","ArrowUp,ArrowRight","false","","","","","","","",""
"html-keyboard-response","75","450914","0.0-4.0-13.0-2.0-1.5","spark_pilot_2","7431","2","18","Female","","","","","","","","null","<div style=""font-size:60px;"">+</div>","null","fixation","","","","","","","","","","","","","",""
"revaluation","76","456918","0.0-4.0-13.0-2.0-0.6","spark_pilot_2","7431","2","18","Female","","false","","","","","","[772,337]","./assets/img/space/13.jpg","[""ArrowUp"",""ArrowRight""]","practice block","space","36","{""ArrowUp,ArrowLeft"":3,""ArrowUp,ArrowRight"":36,""ArrowDown,ArrowLeft"":15,""ArrowDown,ArrowRight"":23}","true","ArrowUp,ArrowRight","false","","","","","","","",""
"html-keyboard-response","77","457419","0.0-4.0-13.0-2.0-1.6","spark_pilot_2","7431","2","18","Female","","","","","","","","null","<div style=""font-size:60px;"">+</div>","null","fixation","","","","","","","","","","","","","",""
"revaluation","78","463423","0.0-4.0-13.0-2.0-0.7","spark_pilot_2","7431","2","18","Female","","false","","","","","","[1028,302]","./assets/img/space/14.jpg","[""ArrowUp"",""ArrowRight""]","practice block","space","36","{""ArrowUp,ArrowLeft"":3,""ArrowUp,ArrowRight"":36,""ArrowDown,ArrowLeft"":15,""ArrowDown,ArrowRight"":23}","true","ArrowUp,ArrowRight","false","","","","","","","",""
"html-keyboard-response","79","463924","0.0-4.0-13.0-2.0-1.7","spark_pilot_2","7431","2","18","Female","","","","","","","","null","<div style=""font-size:60px;"">+</div>","null","fixation","","","","","","","","","","","","","",""
"revaluation","80","467927","0.0-4.0-13.0-2.0-0.8","spark_pilot_2","7431","2","18","Female","","false","","","","","","[700.0000000000582]","./assets/img/space/catch/3.jpg","[""spaceBar""]","practice block","space","0","{""ArrowUp,ArrowLeft"":3,""ArrowUp,ArrowRight"":36,""ArrowDown,ArrowLeft"":15,""ArrowDown,ArrowRight"":23}","true","spaceBar","true","","","","","","","",""
"html-keyboard-response","81","468428","0.0-4.0-13.0-2.0-1.8","spark_pilot_2","7431","2","18","Female","","","","","","","","null","<div style=""font-size:60px;"">+</div>","null","fixation","","","","","","","","","","","","","",""
"learning-instructions","82","483104","0.0-4.0-13.0-3.0-0.0","spark_pilot_2","7431","2","18","Female","","","","","","","","1785","<p> Now, you will travel with a friend who will choose whether you go up or down first. </p>
            <p> On these turns, you will just see the animal that they found. You will still get to choose which chest to search for treasure.</p>","","instructions","","","","","","","","","","","","","",""
"revaluation","83","487107","0.0-4.0-13.0-4.0-0.0","spark_pilot_2","7431","2","18","Female","","false","","","","","","[1036]","./assets/img/space/animals/rabbit.jpg","[""ArrowRight""]","practice block","space","23","{""ArrowUp,ArrowLeft"":3,""ArrowUp,ArrowRight"":36,""ArrowDown,ArrowLeft"":15,""ArrowDown,ArrowRight"":23}","true","ArrowDown,ArrowRight","","","","","","","","",""
"html-keyboard-response","84","487609","0.0-4.0-13.0-4.0-1.0","spark_pilot_2","7431","2","18","Female","","","","","","","","null","<div style=""font-size:60px;"">+</div>","null","fixation","","","","","","","","","","","","","",""
"revaluation","85","491612","0.0-4.0-13.0-4.0-0.1","spark_pilot_2","7431","2","18","Female","","false","","","","","","[1006]","./assets/img/space/animals/rabbit.jpg","[""ArrowRight""]","practice block","space","23","{""ArrowUp,ArrowLeft"":3,""ArrowUp,ArrowRight"":36,""ArrowDown,ArrowLeft"":15,""ArrowDown,ArrowRight"":23}","true","ArrowDown,ArrowRight","","","","","","","","",""
"html-keyboard-response","86","492113","0.0-4.0-13.0-4.0-1.1","spark_pilot_2","7431","2","18","Female","","","","","","","","null","<div style=""font-size:60px;"">+</div>","null","fixation","","","","","","","","","","","","","",""
"revaluation","87","496121","0.0-4.0-13.0-4.0-0.2","spark_pilot_2","7431","2","18","Female","","false","","","","","","[741.9999999999418]","./assets/img/space/animals/cat.jpg","[""ArrowRight""]","practice block","space","36","{""ArrowUp,ArrowLeft"":3,""ArrowUp,ArrowRight"":36,""ArrowDown,ArrowLeft"":15,""ArrowDown,ArrowRight"":23}","true","ArrowUp,ArrowRight","","","","","","","","",""
"html-keyboard-response","88","496622","0.0-4.0-13.0-4.0-1.2","spark_pilot_2","7431","2","18","Female","","","","","","","","null","<div style=""font-size:60px;"">+</div>","null","fixation","","","","","","","","","","","","","",""
"revaluation","89","500626","0.0-4.0-13.0-4.0-0.3","spark_pilot_2","7431","2","18","Female","","false","","","","","","[585.0000000000582]","./assets/img/space/animals/cat.jpg","[""ArrowLeft""]","practice block","space","3","{""ArrowUp,ArrowLeft"":3,""ArrowUp,ArrowRight"":36,""ArrowDown,ArrowLeft"":15,""ArrowDown,ArrowRight"":23}","false","ArrowUp,ArrowLeft","","","","","","","","",""
"html-keyboard-response","90","501128","0.0-4.0-13.0-4.0-1.3","spark_pilot_2","7431","2","18","Female","","","","","","","","null","<div style=""font-size:60px;"">+</div>","null","fixation","","","","","","","","","","","","","",""
"learning-instructions","91","509957","0.0-4.0-13.0-5.0-0.0","spark_pilot_2","7431","2","18","Female","","","","","","","","1482","<p> Time to play the dot game! </p>
            <p> For 15 seconds, click the red dots on the following screen as they appear. </p>","","instructions","","","","","","","","","","","","","",""
"revaluation","92","524959","0.0-4.0-13.0-6.0-0.0","spark_pilot_2","7431","2","18","Female","","","","","","","","[63]","","","rest practice","","10","","","","","0","15000","","","","","",""
"learning-instructions","93","532883","0.0-4.0-13.0-7.0-0.0","spark_pilot_2","7431","2","18","Female","","","","","","","","1816","<p> You have almost finished this part of the game! </p>
            <p> We are going to ask you to make a few more choices. </p>","","instructions","","","","","","","","","","","","","",""
"learning-instructions","94","553041","0.0-4.0-13.0-7.0-0.1","spark_pilot_2","7431","2","18","Female","","","","","","","","4522","<p> First, you need to decide whether to go up or down. When you see each picture, use the arrow keys to make your choice. </p>
            <p><b>You will not see which animal you found, but try to get to the one that will give you the most treasure.</b></p>","","instructions","","","","","","","","","","","","","",""
"revaluation","95","554369","0.0-4.0-13.0-8.0","spark_pilot_2","7431","2","18","Female","","false","","","","","","[1327]","./assets/img/space/15.jpg","[""ArrowUp""]","practice block","space","0","{""ArrowUp,ArrowLeft"":3,""ArrowUp,ArrowRight"":36,""ArrowDown,ArrowLeft"":15,""ArrowDown,ArrowRight"":23}","true","ArrowUp","false","","","","","","","",""
"html-keyboard-response","96","554871","0.0-4.0-13.0-9.0","spark_pilot_2","7431","2","18","Female","","","","","","","","null","<div style=""font-size:60px;"">+</div>","null","fixation","","","","","","","","","","","","","",""
"learning-instructions","97","567298","0.0-4.0-13.0-10.0-0.0","spark_pilot_2","7431","2","18","Female","","","","","","","","1076","<p> Now you will see the animals again and can search their chests for treasure. </p>
            <p> This time, you will not see how much treasure you earned, but you will earn more bonus money for making better choices. </p>","","instructions","","","","","","","","","","","","","",""
"revaluation","98","569480","0.0-4.0-13.0-11.0-0.0","spark_pilot_2","7431","2","18","Female","","false","","","","","","[2180]","./assets/img/space/animals/cat.jpg","[""ArrowRight""]","practice block","space","0","{""ArrowUp,ArrowLeft"":3,""ArrowUp,ArrowRight"":36,""ArrowDown,ArrowLeft"":15,""ArrowDown,ArrowRight"":23}","true","ArrowUp,ArrowRight","","","","","","","","",""
"html-keyboard-response","99","569982","0.0-4.0-13.0-11.0-1.0","spark_pilot_2","7431","2","18","Female","","","","","","","","null","<div style=""font-size:60px;"">+</div>","null","fixation","","","","","","","","","","","","","",""
"revaluation","100","571282","0.0-4.0-13.0-11.0-0.1","spark_pilot_2","7431","2","18","Female","","false","","","","","","[1299]","./assets/img/space/animals/rabbit.jpg","[""ArrowRight""]","practice block","space","0","{""ArrowUp,ArrowLeft"":3,""ArrowUp,ArrowRight"":36,""ArrowDown,ArrowLeft"":15,""ArrowDown,ArrowRight"":23}","true","ArrowDown,ArrowRight","","","","","","","","",""
"html-keyboard-response","101","571784","0.0-4.0-13.0-11.0-1.1","spark_pilot_2","7431","2","18","Female","","","","","","","","null","<div style=""font-size:60px;"">+</div>","null","fixation","","","","","","","","","","","","","",""
"learning-instructions","102","577522","0.0-4.0-14.0-0.0","spark_pilot_2","7431","2","18","Female","","","","","","","","1177","<p> Before you start, we're going to ask you a few questions about how the game works. </p>","","instructions","","","","","","","","","","","","","",""
"comp-q","103","584242","0.0-4.0-15.0-0.0-0.0","spark_pilot_2","7431","2","18","Female","","","","","","","","1154.9999999998836","<p> <b> True or False? </b> </p>
            <p> There can be 50 pieces of treasure in a given animal's chest. </p>","1","comp_question","","","","true","","","","","","","","","",""
"comp-q","104","592448","0.0-4.0-15.0-0.0-1.0","spark_pilot_2","7431","2","18","Female","","","","","","","","1567","<p> <b> That's right! </b> The amount of treasure in each chest can range from 0 to 40 pieces. </p>","0","comp_answer","","","","","","","","","","","","","",""
"comp-q","105","600979","0.0-4.0-15.0-0.1-0.1","spark_pilot_2","7431","2","18","Female","","","","","","","","1434","<p> <b> True or False? </b> </p><p> In this game, all animals have the same amount of treasure in their left and right chests. </p>","1","comp_question","","","","true","","","","","","","","","",""
"comp-q","106","607560","0.0-4.0-15.0-0.1-1.1","spark_pilot_2","7431","2","18","Female","","","","","","","","1367","<p> <b> That's right! </b> Animals have different amounts of treasure in their treasure chests. </p>","0","comp_answer","","","","","","","","","","","","","",""
"comp-q","107","615886","0.0-4.0-15.0-0.2-0.2","spark_pilot_2","7431","2","18","Female","","","","","","","","2499","<p> <b> True or False? </b> </p><p> The same animal will always be there if you go up in the same place. </p>","0","comp_question","","","","true","","","","","","","","","",""
"comp-q","108","632387","0.0-4.0-15.0-0.2-1.2","spark_pilot_2","7431","2","18","Female","","","","","","","","10072","<p> <b> That's right! </b> One animal lives in the upper part and one lives in the lower part of every place. </p>","0","comp_answer","","","","","","","","","","","","","",""
"comp-q","109","638628","0.0-4.0-15.0-0.3-0.3","spark_pilot_2","7431","2","18","Female","","","","","","","","735","<p> <b> True or False? </b> </p><p> If you see a different picture, it means you are in a new place. </p>","0","comp_question","","","","false","","","","","","","","","",""
"comp-q","110","652724","0.0-4.0-15.0-0.3-1.3","spark_pilot_2","7431","2","18","Female","","","","","","","","3026","<p> <b>Incorrect.</b> Lots of different images may show the same place. For example,  you may see three different images that all remind you that you are in outer space. </p>","0","comp_answer","","","","","","","","","","","","","",""
"comp-q","111","658902","0.0-4.0-15.0-0.4-0.4","spark_pilot_2","7431","2","18","Female","","","","","","","","676.0000000001164","<p> <b> True or False? </b> </p><p> If you see a different picture, it means you are in a new place. </p>","1","comp_question","","","","true","","","","","","","","","",""
"comp-q","112","678947","0.0-4.0-15.0-0.4-1.4","spark_pilot_2","7431","2","18","Female","","","","","","","","8845","<p> <b> That's right! </b> Lots of different images may show the same place. For example,  you may see three different images that all remind you that you are in outer space. </p>","0","comp_answer","","","","","","","","","","","","","",""
"learning-instructions","113","690030","0.0-4.0-16.0-0.0","spark_pilot_2","7431","2","18","Female","","","","","","","","1253","<p> Good job. Remember to do your best because the amount of treasure you earn will be converted into bonus money. </p>
            <p> It’s time to start the real game! </p>","","instructions","","","","","","","","","","","","","",""
"learning-instructions","114","694147","0.0-5.0-0.0-0.0","spark_pilot_2","7431","2","18","Female","","","","","","","","1426","<p> This time you are searching for treasure in the <b>ocean</b>.</p>","","instructions","","","","","","","","","","","","","",""
"learning-instructions","115","712084","0.0-5.0-0.0-0.1","spark_pilot_2","7431","2","18","Female","","","","","","","","668","<p><b>New</b> animals with <b>new</b> treasure chests live here. You need to explore to discover where the animal with the best treasure chest is.</p>
                    <p> Like before, once you figure out which animal has the chest with the most treasure, you should try to get to that animal and select that chest! </p>","","instructions","","","","","","","","","","","","","",""
"learning-instructions","116","727934","0.0-5.0-1.0-0.0","spark_pilot_2","7431","2","18","Female","","","","","","","","1118.0000000001164","<p> Remember, when you see a picture of the place, use the up and down keys to <b>find an animal</b>.</p>
            <p> When you encounter an animal, you should use the left and right keys to <b>select a treasure chest</b>.</p>
            <p> Don't forget to look out for the robber! </p>","","instructions","","","","","","","","","","","","","",""
"revaluation","117","733938","0.0-5.0-2.0-0.0","spark_pilot_2","7431","2","18","Female","","false","","","","","","[844,809]","./assets/img/ocean/memory/31.jpg","[""ArrowUp"",""ArrowLeft""]","value training","ocean","23","{""ArrowUp,ArrowLeft"":23,""ArrowUp,ArrowRight"":10,""ArrowDown,ArrowLeft"":8,""ArrowDown,ArrowRight"":30}","false","ArrowUp,ArrowLeft","false","","","revaluation","1","0","","",""
"html-keyboard-response","118","734439","0.0-5.0-2.0-1.0","spark_pilot_2","7431","2","18","Female","","","","","","","","null","<div style=""font-size:60px;"">+</div>","null","fixation","","","","","","","","","","","1","","",""
"revaluation","119","740443","0.0-5.0-2.0-0.1","spark_pilot_2","7431","2","18","Female","","false","","","","","","[649,470]","./assets/img/ocean/memory/8.jpg","[""ArrowUp"",""ArrowRight""]","value training","ocean","10","{""ArrowUp,ArrowLeft"":23,""ArrowUp,ArrowRight"":10,""ArrowDown,ArrowLeft"":8,""ArrowDown,ArrowRight"":30}","false","ArrowUp,ArrowRight","false","","","revaluation","1","2","","",""
"html-keyboard-response","120","740945","0.0-5.0-2.0-1.1","spark_pilot_2","7431","2","18","Female","","","","","","","","null","<div style=""font-size:60px;"">+</div>","null","fixation","","","","","","","","","","","3","","",""
"revaluation","121","746948","0.0-5.0-2.0-0.2","spark_pilot_2","7431","2","18","Female","","false","","","","","","[343,439.0000000001164]","./assets/img/ocean/memory/19.jpg","[""ArrowDown"",""ArrowLeft""]","value training","ocean","8","{""ArrowUp,ArrowLeft"":23,""ArrowUp,ArrowRight"":10,""ArrowDown,ArrowLeft"":8,""ArrowDown,ArrowRight"":30}","false","ArrowDown,ArrowLeft","false","","","revaluation","1","4","","",""
"html-keyboard-response","122","747450","0.0-5.0-2.0-1.2","spark_pilot_2","7431","2","18","Female","","","","","","","","null","<div style=""font-size:60px;"">+</div>","null","fixation","","","","","","","","","","","5","","",""
"revaluation","123","751452","0.0-5.0-2.0-0.3","spark_pilot_2","7431","2","18","Female","","false","","","","","","[346]","./assets/img/ocean/catch/7.jpg","[""ArrowDown""]","value training","ocean","-10","{""ArrowUp,ArrowLeft"":23,""ArrowUp,ArrowRight"":10,""ArrowDown,ArrowLeft"":8,""ArrowDown,ArrowRight"":30}","false","ArrowDown","true","","","revaluation","1","6","","",""
"html-keyboard-response","124","751954","0.0-5.0-2.0-1.3","spark_pilot_2","7431","2","18","Female","","","","","","","","null","<div style=""font-size:60px;"">+</div>","null","fixation","","","","","","","","","","","7","","",""
"revaluation","125","757959","0.0-5.0-2.0-0.4","spark_pilot_2","7431","2","18","Female","","false","","","","","","[942,329]","./assets/img/ocean/memory/33.jpg","[""ArrowDown"",""ArrowRight""]","value training","ocean","30","{""ArrowUp,ArrowLeft"":23,""ArrowUp,ArrowRight"":10,""ArrowDown,ArrowLeft"":8,""ArrowDown,ArrowRight"":30}","true","ArrowDown,ArrowRight","false","","","revaluation","1","8","","",""
"html-keyboard-response","126","758459","0.0-5.0-2.0-1.4","spark_pilot_2","7431","2","18","Female","","","","","","","","null","<div style=""font-size:60px;"">+</div>","null","fixation","","","","","","","","","","","9","","",""
"revaluation","127","764464","0.0-5.0-2.0-0.5","spark_pilot_2","7431","2","18","Female","","false","","","","","","[735,378]","./assets/img/ocean/memory/39.jpg","[""ArrowDown"",""ArrowRight""]","value training","ocean","30","{""ArrowUp,ArrowLeft"":23,""ArrowUp,ArrowRight"":10,""ArrowDown,ArrowLeft"":8,""ArrowDown,ArrowRight"":30}","true","ArrowDown,ArrowRight","false","","","revaluation","1","10","","",""
"html-keyboard-response","128","764965","0.0-5.0-2.0-1.5","spark_pilot_2","7431","2","18","Female","","","","","","","","null","<div style=""font-size:60px;"">+</div>","null","fixation","","","","","","","","","","","11","","",""
"revaluation","129","770970","0.0-5.0-2.0-0.6","spark_pilot_2","7431","2","18","Female","","false","","","","","","[861,443]","./assets/img/ocean/memory/33.jpg","[""ArrowDown"",""ArrowRight""]","value training","ocean","30","{""ArrowUp,ArrowLeft"":23,""ArrowUp,ArrowRight"":10,""ArrowDown,ArrowLeft"":8,""ArrowDown,ArrowRight"":30}","true","ArrowDown,ArrowRight","false","","","revaluation","1","12","","",""
"html-keyboard-response","130","771472","0.0-5.0-2.0-1.6","spark_pilot_2","7431","2","18","Female","","","","","","","","null","<div style=""font-size:60px;"">+</div>","null","fixation","","","","","","","","","","","13","","",""
"revaluation","131","777480","0.0-5.0-2.0-0.7","spark_pilot_2","7431","2","18","Female","","false","","","","","","[1063,537]","./assets/img/ocean/memory/31.jpg","[""ArrowDown"",""ArrowRight""]","value training","ocean","30","{""ArrowUp,ArrowLeft"":23,""ArrowUp,ArrowRight"":10,""ArrowDown,ArrowLeft"":8,""ArrowDown,ArrowRight"":30}","true","ArrowDown,ArrowRight","false","","","revaluation","1","14","","",""
"html-keyboard-response","132","777982","0.0-5.0-2.0-1.7","spark_pilot_2","7431","2","18","Female","","","","","","","","null","<div style=""font-size:60px;"">+</div>","null","fixation","","","","","","","","","","","15","","",""
"revaluation","133","783988","0.0-5.0-2.0-0.8","spark_pilot_2","7431","2","18","Female","","false","","","","","","[649,396]","./assets/img/ocean/memory/36.jpg","[""ArrowDown"",""ArrowRight""]","value training","ocean","30","{""ArrowUp,ArrowLeft"":23,""ArrowUp,ArrowRight"":10,""ArrowDown,ArrowLeft"":8,""ArrowDown,ArrowRight"":30}","true","ArrowDown,ArrowRight","false","","","revaluation","1","16","","",""
"html-keyboard-response","134","784489","0.0-5.0-2.0-1.8","spark_pilot_2","7431","2","18","Female","","","","","","","","null","<div style=""font-size:60px;"">+</div>","null","fixation","","","","","","","","","","","17","","",""
"revaluation","135","788492","0.0-5.0-2.0-0.9","spark_pilot_2","7431","2","18","Female","","false","","","","","","[784]","./assets/img/ocean/catch/3.jpg","[""spaceBar""]","value training","ocean","0","{""ArrowUp,ArrowLeft"":23,""ArrowUp,ArrowRight"":10,""ArrowDown,ArrowLeft"":8,""ArrowDown,ArrowRight"":30}","true","spaceBar","true","","","revaluation","1","18","","",""
"html-keyboard-response","136","788994","0.0-5.0-2.0-1.9","spark_pilot_2","7431","2","18","Female","","","","","","","","null","<div style=""font-size:60px;"">+</div>","null","fixation","","","","","","","","","","","19","","",""
"revaluation","137","794999","0.0-5.0-2.0-0.10","spark_pilot_2","7431","2","18","Female","","false","","","","","","[507,398]","./assets/img/ocean/memory/34.jpg","[""ArrowDown"",""ArrowRight""]","value training","ocean","30","{""ArrowUp,ArrowLeft"":23,""ArrowUp,ArrowRight"":10,""ArrowDown,ArrowLeft"":8,""ArrowDown,ArrowRight"":30}","true","ArrowDown,ArrowRight","false","","","revaluation","1","20","","",""
"html-keyboard-response","138","795501","0.0-5.0-2.0-1.10","spark_pilot_2","7431","2","18","Female","","","","","","","","null","<div style=""font-size:60px;"">+</div>","null","fixation","","","","","","","","","","","21","","",""
"revaluation","139","801504","0.0-5.0-2.0-0.11","spark_pilot_2","7431","2","18","Female","","false","","","","","","[966,452.9999999998836]","./assets/img/ocean/memory/17.jpg","[""ArrowDown"",""ArrowRight""]","value training","ocean","30","{""ArrowUp,ArrowLeft"":23,""ArrowUp,ArrowRight"":10,""ArrowDown,ArrowLeft"":8,""ArrowDown,ArrowRight"":30}","true","ArrowDown,ArrowRight","false","","","revaluation","1","22","","",""
"html-keyboard-response","140","802005","0.0-5.0-2.0-1.11","spark_pilot_2","7431","2","18","Female","","","","","","","","null","<div style=""font-size:60px;"">+</div>","null","fixation","","","","","","","","","","","23","","",""
"revaluation","141","808009","0.0-5.0-2.0-0.12","spark_pilot_2","7431","2","18","Female","","false","","","","","","[934,347.0000000001164]","./assets/img/ocean/memory/38.jpg","[""ArrowDown"",""ArrowRight""]","value training","ocean","30","{""ArrowUp,ArrowLeft"":23,""ArrowUp,ArrowRight"":10,""ArrowDown,ArrowLeft"":8,""ArrowDown,ArrowRight"":30}","true","ArrowDown,ArrowRight","false","","","revaluation","1","24","","",""
"html-keyboard-response","142","808511","0.0-5.0-2.0-1.12","spark_pilot_2","7431","2","18","Female","","","","","","","","null","<div style=""font-size:60px;"">+</div>","null","fixation","","","","","","","","","","","25","","",""
"revaluation","143","812514","0.0-5.0-2.0-0.13","spark_pilot_2","7431","2","18","Female","","false","","","","","","[593]","./assets/img/ocean/catch/0.jpg","[""spaceBar""]","value training","ocean","0","{""ArrowUp,ArrowLeft"":23,""ArrowUp,ArrowRight"":10,""ArrowDown,ArrowLeft"":8,""ArrowDown,ArrowRight"":30}","true","spaceBar","true","","","revaluation","1","26","","",""
"html-keyboard-response","144","813015","0.0-5.0-2.0-1.13","spark_pilot_2","7431","2","18","Female","","","","","","","","null","<div style=""font-size:60px;"">+</div>","null","fixation","","","","","","","","","","","27","","",""
"revaluation","145","817018","0.0-5.0-2.0-0.14","spark_pilot_2","7431","2","18","Female","","false","","","","","","[1087]","./assets/img/ocean/catch/5.jpg","[""spaceBar""]","value training","ocean","0","{""ArrowUp,ArrowLeft"":23,""ArrowUp,ArrowRight"":10,""ArrowDown,ArrowLeft"":8,""ArrowDown,ArrowRight"":30}","true","spaceBar","true","","","revaluation","1","28","","",""
"html-keyboard-response","146","817520","0.0-5.0-2.0-1.14","spark_pilot_2","7431","2","18","Female","","","","","","","","null","<div style=""font-size:60px;"">+</div>","null","fixation","","","","","","","","","","","29","","",""
"revaluation","147","821522","0.0-5.0-2.0-0.15","spark_pilot_2","7431","2","18","Female","","false","","","","","","[633]","./assets/img/ocean/catch/6.jpg","[""spaceBar""]","value training","ocean","0","{""ArrowUp,ArrowLeft"":23,""ArrowUp,ArrowRight"":10,""ArrowDown,ArrowLeft"":8,""ArrowDown,ArrowRight"":30}","true","spaceBar","true","","","revaluation","1","30","","",""
"html-keyboard-response","148","822024","0.0-5.0-2.0-1.15","spark_pilot_2","7431","2","18","Female","","","","","","","","null","<div style=""font-size:60px;"">+</div>","null","fixation","","","","","","","","","","","31","","",""
"revaluation","149","828027","0.0-5.0-2.0-0.16","spark_pilot_2","7431","2","18","Female","","false","","","","","","[811,635]","./assets/img/ocean/memory/41.jpg","[""ArrowDown"",""ArrowRight""]","value training","ocean","30","{""ArrowUp,ArrowLeft"":23,""ArrowUp,ArrowRight"":10,""ArrowDown,ArrowLeft"":8,""ArrowDown,ArrowRight"":30}","true","ArrowDown,ArrowRight","false","","","revaluation","1","32","","",""
"html-keyboard-response","150","828529","0.0-5.0-2.0-1.16","spark_pilot_2","7431","2","18","Female","","","","","","","","null","<div style=""font-size:60px;"">+</div>","null","fixation","","","","","","","","","","","33","","",""
"revaluation","151","834533","0.0-5.0-2.0-0.17","spark_pilot_2","7431","2","18","Female","","false","","","","","","[1089,458]","./assets/img/ocean/memory/30.jpg","[""ArrowDown"",""ArrowRight""]","value training","ocean","30","{""ArrowUp,ArrowLeft"":23,""ArrowUp,ArrowRight"":10,""ArrowDown,ArrowLeft"":8,""ArrowDown,ArrowRight"":30}","true","ArrowDown,ArrowRight","false","","","revaluation","1","34","","",""
"html-keyboard-response","152","835034","0.0-5.0-2.0-1.17","spark_pilot_2","7431","2","18","Female","","","","","","","","null","<div style=""font-size:60px;"">+</div>","null","fixation","","","","","","","","","","","35","","",""
"revaluation","153","841037","0.0-5.0-2.0-0.18","spark_pilot_2","7431","2","18","Female","","false","","","","","","[686,316]","./assets/img/ocean/memory/15.jpg","[""ArrowDown"",""ArrowRight""]","value training","ocean","30","{""ArrowUp,ArrowLeft"":23,""ArrowUp,ArrowRight"":10,""ArrowDown,ArrowLeft"":8,""ArrowDown,ArrowRight"":30}","true","ArrowDown,ArrowRight","false","","","revaluation","1","36","","",""
"html-keyboard-response","154","841538","0.0-5.0-2.0-1.18","spark_pilot_2","7431","2","18","Female","","","","","","","","null","<div style=""font-size:60px;"">+</div>","null","fixation","","","","","","","","","","","37","","",""
"revaluation","155","847542","0.0-5.0-2.0-0.19","spark_pilot_2","7431","2","18","Female","","false","","","","","","[568,358]","./assets/img/ocean/memory/9.jpg","[""ArrowDown"",""ArrowRight""]","value training","ocean","30","{""ArrowUp,ArrowLeft"":23,""ArrowUp,ArrowRight"":10,""ArrowDown,ArrowLeft"":8,""ArrowDown,ArrowRight"":30}","true","ArrowDown,ArrowRight","false","","","revaluation","1","38","","",""
"html-keyboard-response","156","848043","0.0-5.0-2.0-1.19","spark_pilot_2","7431","2","18","Female","","","","","","","","null","<div style=""font-size:60px;"">+</div>","null","fixation","","","","","","","","","","","39","","",""
"revaluation","157","854047","0.0-5.0-2.0-0.20","spark_pilot_2","7431","2","18","Female","","false","","","","","","[731,388.9999999998836]","./assets/img/ocean/memory/18.jpg","[""ArrowDown"",""ArrowRight""]","value training","ocean","30","{""ArrowUp,ArrowLeft"":23,""ArrowUp,ArrowRight"":10,""ArrowDown,ArrowLeft"":8,""ArrowDown,ArrowRight"":30}","true","ArrowDown,ArrowRight","false","","","revaluation","1","40","","",""
"html-keyboard-response","158","854548","0.0-5.0-2.0-1.20","spark_pilot_2","7431","2","18","Female","","","","","","","","null","<div style=""font-size:60px;"">+</div>","null","fixation","","","","","","","","","","","41","","",""
"revaluation","159","860553","0.0-5.0-2.0-0.21","spark_pilot_2","7431","2","18","Female","","false","","","","","","[638,382.9999999998836]","./assets/img/ocean/memory/34.jpg","[""ArrowDown"",""ArrowRight""]","value training","ocean","30","{""ArrowUp,ArrowLeft"":23,""ArrowUp,ArrowRight"":10,""ArrowDown,ArrowLeft"":8,""ArrowDown,ArrowRight"":30}","true","ArrowDown,ArrowRight","false","","","revaluation","1","42","","",""
"html-keyboard-response","160","861054","0.0-5.0-2.0-1.21","spark_pilot_2","7431","2","18","Female","","","","","","","","null","<div style=""font-size:60px;"">+</div>","null","fixation","","","","","","","","","","","43","","",""
"revaluation","161","867058","0.0-5.0-2.0-0.22","spark_pilot_2","7431","2","18","Female","","false","","","","","","[913.9999999998836,570]","./assets/img/ocean/memory/11.jpg","[""ArrowDown"",""ArrowRight""]","value training","ocean","30","{""ArrowUp,ArrowLeft"":23,""ArrowUp,ArrowRight"":10,""ArrowDown,ArrowLeft"":8,""ArrowDown,ArrowRight"":30}","true","ArrowDown,ArrowRight","false","","","revaluation","1","44","","",""
"html-keyboard-response","162","867560","0.0-5.0-2.0-1.22","spark_pilot_2","7431","2","18","Female","","","","","","","","null","<div style=""font-size:60px;"">+</div>","null","fixation","","","","","","","","","","","45","","",""
"revaluation","163","873564","0.0-5.0-2.0-0.23","spark_pilot_2","7431","2","18","Female","","false","","","","","","[727,668]","./assets/img/ocean/memory/17.jpg","[""ArrowDown"",""ArrowRight""]","value training","ocean","30","{""ArrowUp,ArrowLeft"":23,""ArrowUp,ArrowRight"":10,""ArrowDown,ArrowLeft"":8,""ArrowDown,ArrowRight"":30}","true","ArrowDown,ArrowRight","false","","","revaluation","1","46","","",""
"html-keyboard-response","164","874065","0.0-5.0-2.0-1.23","spark_pilot_2","7431","2","18","Female","","","","","","","","null","<div style=""font-size:60px;"">+</div>","null","fixation","","","","","","","","","","","47","","",""
"revaluation","165","880067","0.0-5.0-2.0-0.24","spark_pilot_2","7431","2","18","Female","","false","","","","","","[700.0000000001164,526]","./assets/img/ocean/memory/15.jpg","[""ArrowDown"",""ArrowRight""]","value training","ocean","30","{""ArrowUp,ArrowLeft"":23,""ArrowUp,ArrowRight"":10,""ArrowDown,ArrowLeft"":8,""ArrowDown,ArrowRight"":30}","true","ArrowDown,ArrowRight","false","","","revaluation","1","48","","",""
"html-keyboard-response","166","880568","0.0-5.0-2.0-1.24","spark_pilot_2","7431","2","18","Female","","","","","","","","null","<div style=""font-size:60px;"">+</div>","null","fixation","","","","","","","","","","","49","","",""
"revaluation","167","886572","0.0-5.0-2.0-0.25","spark_pilot_2","7431","2","18","Female","","false","","","","","","[654,1117]","./assets/img/ocean/memory/38.jpg","[""ArrowDown"",""ArrowRight""]","value training","ocean","30","{""ArrowUp,ArrowLeft"":23,""ArrowUp,ArrowRight"":10,""ArrowDown,ArrowLeft"":8,""ArrowDown,ArrowRight"":30}","true","ArrowDown,ArrowRight","false","","","revaluation","1","50","","",""
"html-keyboard-response","168","887074","0.0-5.0-2.0-1.25","spark_pilot_2","7431","2","18","Female","","","","","","","","null","<div style=""font-size:60px;"">+</div>","null","fixation","","","","","","","","","","","51","","",""
"revaluation","169","893077","0.0-5.0-2.0-0.26","spark_pilot_2","7431","2","18","Female","","false","","","","","","[456.0000000001164,590]","./assets/img/ocean/memory/3.jpg","[""ArrowDown"",""ArrowRight""]","value training","ocean","30","{""ArrowUp,ArrowLeft"":23,""ArrowUp,ArrowRight"":10,""ArrowDown,ArrowLeft"":8,""ArrowDown,ArrowRight"":30}","true","ArrowDown,ArrowRight","false","","","revaluation","1","52","","",""
"html-keyboard-response","170","893578","0.0-5.0-2.0-1.26","spark_pilot_2","7431","2","18","Female","","","","","","","","null","<div style=""font-size:60px;"">+</div>","null","fixation","","","","","","","","","","","53","","",""
"revaluation","171","899583","0.0-5.0-2.0-0.27","spark_pilot_2","7431","2","18","Female","","false","","","","","","[624.0000000001164,710]","./assets/img/ocean/memory/40.jpg","[""ArrowDown"",""ArrowRight""]","value training","ocean","30","{""ArrowUp,ArrowLeft"":23,""ArrowUp,ArrowRight"":10,""ArrowDown,ArrowLeft"":8,""ArrowDown,ArrowRight"":30}","true","ArrowDown,ArrowRight","false","","","revaluation","1","54","","",""
"html-keyboard-response","172","900084","0.0-5.0-2.0-1.27","spark_pilot_2","7431","2","18","Female","","","","","","","","null","<div style=""font-size:60px;"">+</div>","null","fixation","","","","","","","","","","","55","","",""
"revaluation","173","906088","0.0-5.0-2.0-0.28","spark_pilot_2","7431","2","18","Female","","false","","","","","","[571,476.0000000001164]","./assets/img/ocean/memory/9.jpg","[""ArrowDown"",""ArrowRight""]","value training","ocean","30","{""ArrowUp,ArrowLeft"":23,""ArrowUp,ArrowRight"":10,""ArrowDown,ArrowLeft"":8,""ArrowDown,ArrowRight"":30}","true","ArrowDown,ArrowRight","false","","","revaluation","1","56","","",""
"html-keyboard-response","174","906589","0.0-5.0-2.0-1.28","spark_pilot_2","7431","2","18","Female","","","","","","","","null","<div style=""font-size:60px;"">+</div>","null","fixation","","","","","","","","","","","57","","",""
"revaluation","175","912593","0.0-5.0-2.0-0.29","spark_pilot_2","7431","2","18","Female","","false","","","","","","[602.0000000001164,484.9999999998836]","./assets/img/ocean/memory/41.jpg","[""ArrowDown"",""ArrowRight""]","value training","ocean","30","{""ArrowUp,ArrowLeft"":23,""ArrowUp,ArrowRight"":10,""ArrowDown,ArrowLeft"":8,""ArrowDown,ArrowRight"":30}","true","ArrowDown,ArrowRight","false","","","revaluation","1","58","","",""
"html-keyboard-response","176","913095","0.0-5.0-2.0-1.29","spark_pilot_2","7431","2","18","Female","","","","","","","","null","<div style=""font-size:60px;"">+</div>","null","fixation","","","","","","","","","","","59","","",""
"revaluation","177","919100","0.0-5.0-2.0-0.30","spark_pilot_2","7431","2","18","Female","","false","","","","","","[584,418]","./assets/img/ocean/memory/8.jpg","[""ArrowDown"",""ArrowRight""]","value training","ocean","30","{""ArrowUp,ArrowLeft"":23,""ArrowUp,ArrowRight"":10,""ArrowDown,ArrowLeft"":8,""ArrowDown,ArrowRight"":30}","true","ArrowDown,ArrowRight","false","","","revaluation","1","60","","",""
"html-keyboard-response","178","919601","0.0-5.0-2.0-1.30","spark_pilot_2","7431","2","18","Female","","","","","","","","null","<div style=""font-size:60px;"">+</div>","null","fixation","","","","","","","","","","","61","","",""
"revaluation","179","925605","0.0-5.0-2.0-0.31","spark_pilot_2","7431","2","18","Female","","false","","","","","","[646,400]","./assets/img/ocean/memory/37.jpg","[""ArrowDown"",""ArrowRight""]","value training","ocean","30","{""ArrowUp,ArrowLeft"":23,""ArrowUp,ArrowRight"":10,""ArrowDown,ArrowLeft"":8,""ArrowDown,ArrowRight"":30}","true","ArrowDown,ArrowRight","false","","","revaluation","1","62","","",""
"html-keyboard-response","180","926106","0.0-5.0-2.0-1.31","spark_pilot_2","7431","2","18","Female","","","","","","","","null","<div style=""font-size:60px;"">+</div>","null","fixation","","","","","","","","","","","63","","",""
"revaluation","181","930109","0.0-5.0-2.0-0.32","spark_pilot_2","7431","2","18","Female","","true","","","","","","[]","./assets/img/ocean/memory/11.jpg","[]","value training","ocean","-5","{""ArrowUp,ArrowLeft"":23,""ArrowUp,ArrowRight"":10,""ArrowDown,ArrowLeft"":8,""ArrowDown,ArrowRight"":30}","false","","false","","","revaluation","1","64","","",""
"html-keyboard-response","182","930611","0.0-5.0-2.0-1.32","spark_pilot_2","7431","2","18","Female","","","","","","","","null","<div style=""font-size:60px;"">+</div>","null","fixation","","","","","","","","","","","65","","",""
"revaluation","183","936614","0.0-5.0-2.0-0.33","spark_pilot_2","7431","2","18","Female","","false","","","","","","[707,548]","./assets/img/ocean/memory/37.jpg","[""ArrowUp"",""ArrowLeft""]","value training","ocean","23","{""ArrowUp,ArrowLeft"":23,""ArrowUp,ArrowRight"":10,""ArrowDown,ArrowLeft"":8,""ArrowDown,ArrowRight"":30}","false","ArrowUp,ArrowLeft","false","","","revaluation","1","66","","",""
"html-keyboard-response","184","937116","0.0-5.0-2.0-1.33","spark_pilot_2","7431","2","18","Female","","","","","","","","null","<div style=""font-size:60px;"">+</div>","null","fixation","","","","","","","","","","","67","","",""
"revaluation","185","943119","0.0-5.0-2.0-0.34","spark_pilot_2","7431","2","18","Female","","false","","","","","","[432,350]","./assets/img/ocean/memory/19.jpg","[""ArrowDown"",""ArrowRight""]","value training","ocean","30","{""ArrowUp,ArrowLeft"":23,""ArrowUp,ArrowRight"":10,""ArrowDown,ArrowLeft"":8,""ArrowDown,ArrowRight"":30}","true","ArrowDown,ArrowRight","false","","","revaluation","1","68","","",""
"html-keyboard-response","186","943620","0.0-5.0-2.0-1.34","spark_pilot_2","7431","2","18","Female","","","","","","","","null","<div style=""font-size:60px;"">+</div>","null","fixation","","","","","","","","","","","69","","",""
"revaluation","187","949623","0.0-5.0-2.0-0.35","spark_pilot_2","7431","2","18","Female","","false","","","","","","[556,529]","./assets/img/ocean/memory/32.jpg","[""ArrowDown"",""ArrowRight""]","value training","ocean","30","{""ArrowUp,ArrowLeft"":23,""ArrowUp,ArrowRight"":10,""ArrowDown,ArrowLeft"":8,""ArrowDown,ArrowRight"":30}","true","ArrowDown,ArrowRight","false","","","revaluation","1","70","","",""
"html-keyboard-response","188","950124","0.0-5.0-2.0-1.35","spark_pilot_2","7431","2","18","Female","","","","","","","","null","<div style=""font-size:60px;"">+</div>","null","fixation","","","","","","","","","","","71","","",""
"revaluation","189","956128","0.0-5.0-2.0-0.36","spark_pilot_2","7431","2","18","Female","","false","","","","","","[611.9999999998836,491]","./assets/img/ocean/memory/22.jpg","[""ArrowDown"",""ArrowRight""]","value training","ocean","30","{""ArrowUp,ArrowLeft"":23,""ArrowUp,ArrowRight"":10,""ArrowDown,ArrowLeft"":8,""ArrowDown,ArrowRight"":30}","true","ArrowDown,ArrowRight","false","","","revaluation","1","72","","",""
"html-keyboard-response","190","956629","0.0-5.0-2.0-1.36","spark_pilot_2","7431","2","18","Female","","","","","","","","null","<div style=""font-size:60px;"">+</div>","null","fixation","","","","","","","","","","","73","","",""
"revaluation","191","960632","0.0-5.0-2.0-0.37","spark_pilot_2","7431","2","18","Female","","false","","","","","","[658.9999999998836]","./assets/img/ocean/catch/2.jpg","[""ArrowDown""]","value training","ocean","-10","{""ArrowUp,ArrowLeft"":23,""ArrowUp,ArrowRight"":10,""ArrowDown,ArrowLeft"":8,""ArrowDown,ArrowRight"":30}","false","ArrowDown","true","","","revaluation","1","74","","",""
"html-keyboard-response","192","961133","0.0-5.0-2.0-1.37","spark_pilot_2","7431","2","18","Female","","","","","","","","null","<div style=""font-size:60px;"">+</div>","null","fixation","","","","","","","","","","","75","","",""
"revaluation","193","965135","0.0-5.0-2.0-0.38","spark_pilot_2","7431","2","18","Female","","false","","","","","","[677.0000000001164]","./assets/img/ocean/catch/4.jpg","[""spaceBar""]","value training","ocean","0","{""ArrowUp,ArrowLeft"":23,""ArrowUp,ArrowRight"":10,""ArrowDown,ArrowLeft"":8,""ArrowDown,ArrowRight"":30}","true","spaceBar","true","","","revaluation","1","76","","",""
"html-keyboard-response","194","965636","0.0-5.0-2.0-1.38","spark_pilot_2","7431","2","18","Female","","","","","","","","null","<div style=""font-size:60px;"">+</div>","null","fixation","","","","","","","","","","","77","","",""
"revaluation","195","971640","0.0-5.0-2.0-0.39","spark_pilot_2","7431","2","18","Female","","false","","","","","","[723,488.9999999998836]","./assets/img/ocean/memory/3.jpg","[""ArrowDown"",""ArrowRight""]","value training","ocean","30","{""ArrowUp,ArrowLeft"":23,""ArrowUp,ArrowRight"":10,""ArrowDown,ArrowLeft"":8,""ArrowDown,ArrowRight"":30}","true","ArrowDown,ArrowRight","false","","","revaluation","1","78","","",""
"html-keyboard-response","196","972141","0.0-5.0-2.0-1.39","spark_pilot_2","7431","2","18","Female","","","","","","","","null","<div style=""font-size:60px;"">+</div>","null","fixation","","","","","","","","","","","79","","",""
"revaluation","197","978145","0.0-5.0-2.0-0.40","spark_pilot_2","7431","2","18","Female","","false","","","","","","[882,912.9999999998836]","./assets/img/ocean/memory/30.jpg","[""ArrowDown"",""ArrowRight""]","value training","ocean","30","{""ArrowUp,ArrowLeft"":23,""ArrowUp,ArrowRight"":10,""ArrowDown,ArrowLeft"":8,""ArrowDown,ArrowRight"":30}","true","ArrowDown,ArrowRight","false","","","revaluation","1","80","","",""
"html-keyboard-response","198","978646","0.0-5.0-2.0-1.40","spark_pilot_2","7431","2","18","Female","","","","","","","","null","<div style=""font-size:60px;"">+</div>","null","fixation","","","","","","","","","","","81","","",""
"revaluation","199","984651","0.0-5.0-2.0-0.41","spark_pilot_2","7431","2","18","Female","","false","","","","","","[613,1806.9999999998836]","./assets/img/ocean/memory/35.jpg","[""ArrowDown"",""ArrowRight""]","value training","ocean","30","{""ArrowUp,ArrowLeft"":23,""ArrowUp,ArrowRight"":10,""ArrowDown,ArrowLeft"":8,""ArrowDown,ArrowRight"":30}","true","ArrowDown,ArrowRight","false","","","revaluation","1","82","","",""
"html-keyboard-response","200","985152","0.0-5.0-2.0-1.41","spark_pilot_2","7431","2","18","Female","","","","","","","","null","<div style=""font-size:60px;"">+</div>","null","fixation","","","","","","","","","","","83","","",""
"revaluation","201","991156","0.0-5.0-2.0-0.42","spark_pilot_2","7431","2","18","Female","","false","","","","","","[666,451]","./assets/img/ocean/memory/18.jpg","[""ArrowDown"",""ArrowRight""]","value training","ocean","30","{""ArrowUp,ArrowLeft"":23,""ArrowUp,ArrowRight"":10,""ArrowDown,ArrowLeft"":8,""ArrowDown,ArrowRight"":30}","true","ArrowDown,ArrowRight","false","","","revaluation","1","84","","",""
"html-keyboard-response","202","991658","0.0-5.0-2.0-1.42","spark_pilot_2","7431","2","18","Female","","","","","","","","null","<div style=""font-size:60px;"">+</div>","null","fixation","","","","","","","","","","","85","","",""
"revaluation","203","997661","0.0-5.0-2.0-0.43","spark_pilot_2","7431","2","18","Female","","false","","","","","","[617,400]","./assets/img/ocean/memory/35.jpg","[""ArrowDown"",""ArrowRight""]","value training","ocean","30","{""ArrowUp,ArrowLeft"":23,""ArrowUp,ArrowRight"":10,""ArrowDown,ArrowLeft"":8,""ArrowDown,ArrowRight"":30}","true","ArrowDown,ArrowRight","false","","","revaluation","1","86","","",""
"html-keyboard-response","204","998162","0.0-5.0-2.0-1.43","spark_pilot_2","7431","2","18","Female","","","","","","","","null","<div style=""font-size:60px;"">+</div>","null","fixation","","","","","","","","","","","87","","",""
"revaluation","205","1004166","0.0-5.0-2.0-0.44","spark_pilot_2","7431","2","18","Female","","false","","","","","","[669,938]","./assets/img/ocean/memory/39.jpg","[""ArrowDown"",""ArrowRight""]","value training","ocean","30","{""ArrowUp,ArrowLeft"":23,""ArrowUp,ArrowRight"":10,""ArrowDown,ArrowLeft"":8,""ArrowDown,ArrowRight"":30}","true","ArrowDown,ArrowRight","false","","","revaluation","1","88","","",""
"html-keyboard-response","206","1004668","0.0-5.0-2.0-1.44","spark_pilot_2","7431","2","18","Female","","","","","","","","null","<div style=""font-size:60px;"">+</div>","null","fixation","","","","","","","","","","","89","","",""
"revaluation","207","1008672","0.0-5.0-2.0-0.45","spark_pilot_2","7431","2","18","Female","","false","","","","","","[792]","./assets/img/ocean/catch/1.jpg","[""spaceBar""]","value training","ocean","0","{""ArrowUp,ArrowLeft"":23,""ArrowUp,ArrowRight"":10,""ArrowDown,ArrowLeft"":8,""ArrowDown,ArrowRight"":30}","true","spaceBar","true","","","revaluation","1","90","","",""
"html-keyboard-response","208","1009173","0.0-5.0-2.0-1.45","spark_pilot_2","7431","2","18","Female","","","","","","","","null","<div style=""font-size:60px;"">+</div>","null","fixation","","","","","","","","","","","91","","",""
"revaluation","209","1015177","0.0-5.0-2.0-0.46","spark_pilot_2","7431","2","18","Female","","false","","","","","","[857,468]","./assets/img/ocean/memory/32.jpg","[""ArrowDown"",""ArrowRight""]","value training","ocean","30","{""ArrowUp,ArrowLeft"":23,""ArrowUp,ArrowRight"":10,""ArrowDown,ArrowLeft"":8,""ArrowDown,ArrowRight"":30}","true","ArrowDown,ArrowRight","false","","","revaluation","1","92","","",""
"html-keyboard-response","210","1015678","0.0-5.0-2.0-1.46","spark_pilot_2","7431","2","18","Female","","","","","","","","null","<div style=""font-size:60px;"">+</div>","null","fixation","","","","","","","","","","","93","","",""
"revaluation","211","1021682","0.0-5.0-2.0-0.47","spark_pilot_2","7431","2","18","Female","","false","","","","","","[574,365]","./assets/img/ocean/memory/40.jpg","[""ArrowDown"",""ArrowRight""]","value training","ocean","30","{""ArrowUp,ArrowLeft"":23,""ArrowUp,ArrowRight"":10,""ArrowDown,ArrowLeft"":8,""ArrowDown,ArrowRight"":30}","true","ArrowDown,ArrowRight","false","","","revaluation","1","94","","",""
"html-keyboard-response","212","1022183","0.0-5.0-2.0-1.47","spark_pilot_2","7431","2","18","Female","","","","","","","","null","<div style=""font-size:60px;"">+</div>","null","fixation","","","","","","","","","","","95","","",""
"revaluation","213","1028187","0.0-5.0-2.0-0.48","spark_pilot_2","7431","2","18","Female","","false","","","","","","[688.9999999998836,1662.0000000001164]","./assets/img/ocean/memory/22.jpg","[""ArrowDown"",""ArrowRight""]","value training","ocean","30","{""ArrowUp,ArrowLeft"":23,""ArrowUp,ArrowRight"":10,""ArrowDown,ArrowLeft"":8,""ArrowDown,ArrowRight"":30}","true","ArrowDown,ArrowRight","false","","","revaluation","1","96","","",""
"html-keyboard-response","214","1028689","0.0-5.0-2.0-1.48","spark_pilot_2","7431","2","18","Female","","","","","","","","null","<div style=""font-size:60px;"">+</div>","null","fixation","","","","","","","","","","","97","","",""
"revaluation","215","1034694","0.0-5.0-2.0-0.49","spark_pilot_2","7431","2","18","Female","","false","","","","","","[456,730]","./assets/img/ocean/memory/36.jpg","[""ArrowDown"",""ArrowRight""]","value training","ocean","30","{""ArrowUp,ArrowLeft"":23,""ArrowUp,ArrowRight"":10,""ArrowDown,ArrowLeft"":8,""ArrowDown,ArrowRight"":30}","true","ArrowDown,ArrowRight","false","","","revaluation","1","98","","",""
"html-keyboard-response","216","1035195","0.0-5.0-2.0-1.49","spark_pilot_2","7431","2","18","Female","","","","","","","","null","<div style=""font-size:60px;"">+</div>","null","fixation","","","","","","","","","","","99","","",""
"learning-instructions","217","1049829","0.0-5.0-3.0-0.0","spark_pilot_2","7431","2","18","Female","","","","","","","","1753","<p> Now, you will travel with a friend who will choose whether you go up or down first. </p>
            <p> On these turns, you will just see the animal that they found. You will still get to choose which chest to search for treasure.</p>","","instructions","","","","","","","","","","","","","",""
"revaluation","218","1053832","0.0-5.0-4.0-0.0","spark_pilot_2","7431","2","18","Female","","false","","","","","","[836]","./assets/img/ocean/animals/seahorse.jpg","[""ArrowLeft""]","revaluation","ocean","27","{""ArrowUp,ArrowLeft"":27,""ArrowUp,ArrowRight"":15,""ArrowDown,ArrowLeft"":21,""ArrowDown,ArrowRight"":7}","true","ArrowUp,ArrowLeft","","","","revaluation","1","0","","",""
"html-keyboard-response","219","1054334","0.0-5.0-4.0-1.0","spark_pilot_2","7431","2","18","Female","","","","","","","","null","<div style=""font-size:60px;"">+</div>","null","fixation","","","","","","","","","","","1","","",""
"revaluation","220","1058338","0.0-5.0-4.0-0.1","spark_pilot_2","7431","2","18","Female","","false","","","","","","[624]","./assets/img/ocean/animals/octopus.jpg","[""ArrowRight""]","revaluation","ocean","7","{""ArrowUp,ArrowLeft"":27,""ArrowUp,ArrowRight"":15,""ArrowDown,ArrowLeft"":21,""ArrowDown,ArrowRight"":7}","false","ArrowDown,ArrowRight","","","","revaluation","1","2","","",""
"html-keyboard-response","221","1058839","0.0-5.0-4.0-1.1","spark_pilot_2","7431","2","18","Female","","","","","","","","null","<div style=""font-size:60px;"">+</div>","null","fixation","","","","","","","","","","","3","","",""
"revaluation","222","1062842","0.0-5.0-4.0-0.2","spark_pilot_2","7431","2","18","Female","","false","","","","","","[566]","./assets/img/ocean/animals/seahorse.jpg","[""ArrowRight""]","revaluation","ocean","15","{""ArrowUp,ArrowLeft"":27,""ArrowUp,ArrowRight"":15,""ArrowDown,ArrowLeft"":21,""ArrowDown,ArrowRight"":7}","false","ArrowUp,ArrowRight","","","","revaluation","1","4","","",""
"html-keyboard-response","223","1063343","0.0-5.0-4.0-1.2","spark_pilot_2","7431","2","18","Female","","","","","","","","null","<div style=""font-size:60px;"">+</div>","null","fixation","","","","","","","","","","","5","","",""
"revaluation","224","1067346","0.0-5.0-4.0-0.3","spark_pilot_2","7431","2","18","Female","","false","","","","","","[407]","./assets/img/ocean/animals/seahorse.jpg","[""ArrowLeft""]","revaluation","ocean","27","{""ArrowUp,ArrowLeft"":27,""ArrowUp,ArrowRight"":15,""ArrowDown,ArrowLeft"":21,""ArrowDown,ArrowRight"":7}","true","ArrowUp,ArrowLeft","","","","revaluation","1","6","","",""
"html-keyboard-response","225","1067848","0.0-5.0-4.0-1.3","spark_pilot_2","7431","2","18","Female","","","","","","","","null","<div style=""font-size:60px;"">+</div>","null","fixation","","","","","","","","","","","7","","",""
"revaluation","226","1071851","0.0-5.0-4.0-0.4","spark_pilot_2","7431","2","18","Female","","false","","","","","","[580.9999999997672]","./assets/img/ocean/animals/seahorse.jpg","[""ArrowLeft""]","revaluation","ocean","27","{""ArrowUp,ArrowLeft"":27,""ArrowUp,ArrowRight"":15,""ArrowDown,ArrowLeft"":21,""ArrowDown,ArrowRight"":7}","true","ArrowUp,ArrowLeft","","","","revaluation","1","8","","",""
"html-keyboard-response","227","1072352","0.0-5.0-4.0-1.4","spark_pilot_2","7431","2","18","Female","","","","","","","","null","<div style=""font-size:60px;"">+</div>","null","fixation","","","","","","","","","","","9","","",""
"revaluation","228","1076355","0.0-5.0-4.0-0.5","spark_pilot_2","7431","2","18","Female","","false","","","","","","[645]","./assets/img/ocean/animals/octopus.jpg","[""ArrowLeft""]","revaluation","ocean","21","{""ArrowUp,ArrowLeft"":27,""ArrowUp,ArrowRight"":15,""ArrowDown,ArrowLeft"":21,""ArrowDown,ArrowRight"":7}","true","ArrowDown,ArrowLeft","","","","revaluation","1","10","","",""
"html-keyboard-response","229","1076856","0.0-5.0-4.0-1.5","spark_pilot_2","7431","2","18","Female","","","","","","","","null","<div style=""font-size:60px;"">+</div>","null","fixation","","","","","","","","","","","11","","",""
"revaluation","230","1080859","0.0-5.0-4.0-0.6","spark_pilot_2","7431","2","18","Female","","false","","","","","","[781]","./assets/img/ocean/animals/octopus.jpg","[""ArrowLeft""]","revaluation","ocean","21","{""ArrowUp,ArrowLeft"":27,""ArrowUp,ArrowRight"":15,""ArrowDown,ArrowLeft"":21,""ArrowDown,ArrowRight"":7}","true","ArrowDown,ArrowLeft","","","","revaluation","1","12","","",""
"html-keyboard-response","231","1081360","0.0-5.0-4.0-1.6","spark_pilot_2","7431","2","18","Female","","","","","","","","null","<div style=""font-size:60px;"">+</div>","null","fixation","","","","","","","","","","","13","","",""
"revaluation","232","1085363","0.0-5.0-4.0-0.7","spark_pilot_2","7431","2","18","Female","","false","","","","","","[750]","./assets/img/ocean/animals/seahorse.jpg","[""ArrowLeft""]","revaluation","ocean","27","{""ArrowUp,ArrowLeft"":27,""ArrowUp,ArrowRight"":15,""ArrowDown,ArrowLeft"":21,""ArrowDown,ArrowRight"":7}","true","ArrowUp,ArrowLeft","","","","revaluation","1","14","","",""
"html-keyboard-response","233","1085864","0.0-5.0-4.0-1.7","spark_pilot_2","7431","2","18","Female","","","","","","","","null","<div style=""font-size:60px;"">+</div>","null","fixation","","","","","","","","","","","15","","",""
"revaluation","234","1089867","0.0-5.0-4.0-0.8","spark_pilot_2","7431","2","18","Female","","false","","","","","","[465.00000000023283]","./assets/img/ocean/animals/seahorse.jpg","[""ArrowLeft""]","revaluation","ocean","27","{""ArrowUp,ArrowLeft"":27,""ArrowUp,ArrowRight"":15,""ArrowDown,ArrowLeft"":21,""ArrowDown,ArrowRight"":7}","true","ArrowUp,ArrowLeft","","","","revaluation","1","16","","",""
"html-keyboard-response","235","1090367","0.0-5.0-4.0-1.8","spark_pilot_2","7431","2","18","Female","","","","","","","","null","<div style=""font-size:60px;"">+</div>","null","fixation","","","","","","","","","","","17","","",""
"revaluation","236","1094370","0.0-5.0-4.0-0.9","spark_pilot_2","7431","2","18","Female","","false","","","","","","[477]","./assets/img/ocean/animals/seahorse.jpg","[""ArrowLeft""]","revaluation","ocean","27","{""ArrowUp,ArrowLeft"":27,""ArrowUp,ArrowRight"":15,""ArrowDown,ArrowLeft"":21,""ArrowDown,ArrowRight"":7}","true","ArrowUp,ArrowLeft","","","","revaluation","1","18","","",""
"html-keyboard-response","237","1094872","0.0-5.0-4.0-1.9","spark_pilot_2","7431","2","18","Female","","","","","","","","null","<div style=""font-size:60px;"">+</div>","null","fixation","","","","","","","","","","","19","","",""
"revaluation","238","1098874","0.0-5.0-4.0-0.10","spark_pilot_2","7431","2","18","Female","","true","","","","","","[]","./assets/img/ocean/animals/octopus.jpg","[]","revaluation","ocean","-5","{""ArrowUp,ArrowLeft"":27,""ArrowUp,ArrowRight"":15,""ArrowDown,ArrowLeft"":21,""ArrowDown,ArrowRight"":7}","false","ArrowDown","","","","revaluation","1","20","","",""
"html-keyboard-response","239","1099376","0.0-5.0-4.0-1.10","spark_pilot_2","7431","2","18","Female","","","","","","","","null","<div style=""font-size:60px;"">+</div>","null","fixation","","","","","","","","","","","21","","",""
"revaluation","240","1103378","0.0-5.0-4.0-0.11","spark_pilot_2","7431","2","18","Female","","false","","","","","","[502]","./assets/img/ocean/animals/seahorse.jpg","[""ArrowLeft""]","revaluation","ocean","27","{""ArrowUp,ArrowLeft"":27,""ArrowUp,ArrowRight"":15,""ArrowDown,ArrowLeft"":21,""ArrowDown,ArrowRight"":7}","true","ArrowUp,ArrowLeft","","","","revaluation","1","22","","",""
"html-keyboard-response","241","1103880","0.0-5.0-4.0-1.11","spark_pilot_2","7431","2","18","Female","","","","","","","","null","<div style=""font-size:60px;"">+</div>","null","fixation","","","","","","","","","","","23","","",""
"revaluation","242","1107882","0.0-5.0-4.0-0.12","spark_pilot_2","7431","2","18","Female","","false","","","","","","[489]","./assets/img/ocean/animals/octopus.jpg","[""ArrowLeft""]","revaluation","ocean","21","{""ArrowUp,ArrowLeft"":27,""ArrowUp,ArrowRight"":15,""ArrowDown,ArrowLeft"":21,""ArrowDown,ArrowRight"":7}","true","ArrowDown,ArrowLeft","","","","revaluation","1","24","","",""
"html-keyboard-response","243","1108383","0.0-5.0-4.0-1.12","spark_pilot_2","7431","2","18","Female","","","","","","","","null","<div style=""font-size:60px;"">+</div>","null","fixation","","","","","","","","","","","25","","",""
"revaluation","244","1112386","0.0-5.0-4.0-0.13","spark_pilot_2","7431","2","18","Female","","false","","","","","","[405]","./assets/img/ocean/animals/octopus.jpg","[""ArrowRight""]","revaluation","ocean","7","{""ArrowUp,ArrowLeft"":27,""ArrowUp,ArrowRight"":15,""ArrowDown,ArrowLeft"":21,""ArrowDown,ArrowRight"":7}","false","ArrowDown,ArrowRight","","","","revaluation","1","26","","",""
"html-keyboard-response","245","1112887","0.0-5.0-4.0-1.13","spark_pilot_2","7431","2","18","Female","","","","","","","","null","<div style=""font-size:60px;"">+</div>","null","fixation","","","","","","","","","","","27","","",""
"revaluation","246","1116890","0.0-5.0-4.0-0.14","spark_pilot_2","7431","2","18","Female","","false","","","","","","[463]","./assets/img/ocean/animals/octopus.jpg","[""ArrowLeft""]","revaluation","ocean","21","{""ArrowUp,ArrowLeft"":27,""ArrowUp,ArrowRight"":15,""ArrowDown,ArrowLeft"":21,""ArrowDown,ArrowRight"":7}","true","ArrowDown,ArrowLeft","","","","revaluation","1","28","","",""
"html-keyboard-response","247","1117391","0.0-5.0-4.0-1.14","spark_pilot_2","7431","2","18","Female","","","","","","","","null","<div style=""font-size:60px;"">+</div>","null","fixation","","","","","","","","","","","29","","",""
"revaluation","248","1121394","0.0-5.0-4.0-0.15","spark_pilot_2","7431","2","18","Female","","false","","","","","","[539]","./assets/img/ocean/animals/octopus.jpg","[""ArrowLeft""]","revaluation","ocean","21","{""ArrowUp,ArrowLeft"":27,""ArrowUp,ArrowRight"":15,""ArrowDown,ArrowLeft"":21,""ArrowDown,ArrowRight"":7}","true","ArrowDown,ArrowLeft","","","","revaluation","1","30","","",""
"html-keyboard-response","249","1121895","0.0-5.0-4.0-1.15","spark_pilot_2","7431","2","18","Female","","","","","","","","null","<div style=""font-size:60px;"">+</div>","null","fixation","","","","","","","","","","","31","","",""
"revaluation","250","1125898","0.0-5.0-4.0-0.16","spark_pilot_2","7431","2","18","Female","","false","","","","","","[667.9999999997672]","./assets/img/ocean/animals/octopus.jpg","[""ArrowLeft""]","revaluation","ocean","21","{""ArrowUp,ArrowLeft"":27,""ArrowUp,ArrowRight"":15,""ArrowDown,ArrowLeft"":21,""ArrowDown,ArrowRight"":7}","true","ArrowDown,ArrowLeft","","","","revaluation","1","32","","",""
"html-keyboard-response","251","1126399","0.0-5.0-4.0-1.16","spark_pilot_2","7431","2","18","Female","","","","","","","","null","<div style=""font-size:60px;"">+</div>","null","fixation","","","","","","","","","","","33","","",""
"revaluation","252","1130402","0.0-5.0-4.0-0.17","spark_pilot_2","7431","2","18","Female","","false","","","","","","[864]","./assets/img/ocean/animals/seahorse.jpg","[""ArrowLeft""]","revaluation","ocean","27","{""ArrowUp,ArrowLeft"":27,""ArrowUp,ArrowRight"":15,""ArrowDown,ArrowLeft"":21,""ArrowDown,ArrowRight"":7}","true","ArrowUp,ArrowLeft","","","","revaluation","1","34","","",""
"html-keyboard-response","253","1130903","0.0-5.0-4.0-1.17","spark_pilot_2","7431","2","18","Female","","","","","","","","null","<div style=""font-size:60px;"">+</div>","null","fixation","","","","","","","","","","","35","","",""
"learning-instructions","254","1143509","0.0-5.0-5.0-0.0","spark_pilot_2","7431","2","18","Female","","","","","","","","1318","<p> Time to play the dot game! </p>
            <p> For one minute, click the red dots on the following screen as they appear. </p>
            <p><b> Don't look away, as you will earn bonus for clicking dots</b>. </p>","","instructions","","","","","","","","","","","","","",""
"revaluation","255","1203509","0.0-5.0-6.0-0.0","spark_pilot_2","7431","2","18","Female","","","","","","","","[76,73,71,93,74,71,63]","","","rest","","70","","","","","0","60000","","","","","",""
"learning-instructions","256","1218307","0.0-5.0-7.0-0.0","spark_pilot_2","7431","2","18","Female","","","","","","","","8697.000000000233","<p> You have almost finished this part of the game! </p>
            <p> We are going to ask you to make a few more choices. </p>","","instructions","","","","","","","","","","","","","",""
"learning-instructions","257","1233807","0.0-5.0-7.0-0.1","spark_pilot_2","7431","2","18","Female","","","","","","","","1531.0000000002328","<p> First, you need to decide whether to go up or down. When you see each picture, use the arrow keys to make your choice. </p>
            <p><b>You will not see which animal you found, but try to get to the one that will give you the most treasure.</b></p>","","instructions","","","","","","","","","","","","","",""
"revaluation","258","1236855","0.0-5.0-8.0-0.0","spark_pilot_2","7431","2","18","Female","","false","","","","","","[3046.000000000233]","./assets/img/ocean/test/2.jpg","[""ArrowUp""]","first stage test","ocean","0","{""ArrowUp,ArrowLeft"":27,""ArrowUp,ArrowRight"":15,""ArrowDown,ArrowLeft"":21,""ArrowDown,ArrowRight"":7}","true","ArrowUp","false","","","revaluation","1","","","",""
"html-keyboard-response","259","1237356","0.0-5.0-8.0-1.0","spark_pilot_2","7431","2","18","Female","","","","","","","","null","<div style=""font-size:60px;"">+</div>","null","fixation","","","","","","","","","","","","","",""
"revaluation","260","1239103","0.0-5.0-8.0-0.1","spark_pilot_2","7431","2","18","Female","","false","","","","","","[1746]","./assets/img/ocean/test/1.jpg","[""ArrowUp""]","first stage test","ocean","0","{""ArrowUp,ArrowLeft"":27,""ArrowUp,ArrowRight"":15,""ArrowDown,ArrowLeft"":21,""ArrowDown,ArrowRight"":7}","true","ArrowUp","false","","","revaluation","1","","","",""
"html-keyboard-response","261","1239604","0.0-5.0-8.0-1.1","spark_pilot_2","7431","2","18","Female","","","","","","","","null","<div style=""font-size:60px;"">+</div>","null","fixation","","","","","","","","","","","","","",""
"revaluation","262","1241360","0.0-5.0-8.0-0.2","spark_pilot_2","7431","2","18","Female","","false","","","","","","[1755.9999999997672]","./assets/img/ocean/test/0.jpg","[""ArrowUp""]","first stage test","ocean","0","{""ArrowUp,ArrowLeft"":27,""ArrowUp,ArrowRight"":15,""ArrowDown,ArrowLeft"":21,""ArrowDown,ArrowRight"":7}","true","ArrowUp","false","","","revaluation","1","","","",""
"html-keyboard-response","263","1241862","0.0-5.0-8.0-1.2","spark_pilot_2","7431","2","18","Female","","","","","","","","null","<div style=""font-size:60px;"">+</div>","null","fixation","","","","","","","","","","","","","",""
"revaluation","264","1243390","0.0-5.0-8.0-0.3","spark_pilot_2","7431","2","18","Female","","false","","","","","","[1525.9999999997672]","./assets/img/ocean/test/3.jpg","[""ArrowDown""]","first stage test","ocean","0","{""ArrowUp,ArrowLeft"":27,""ArrowUp,ArrowRight"":15,""ArrowDown,ArrowLeft"":21,""ArrowDown,ArrowRight"":7}","false","ArrowDown","false","","","revaluation","1","","","",""
"html-keyboard-response","265","1243891","0.0-5.0-8.0-1.3","spark_pilot_2","7431","2","18","Female","","","","","","","","null","<div style=""font-size:60px;"">+</div>","null","fixation","","","","","","","","","","","","","",""
"learning-instructions","266","1256661","0.0-5.0-9.0-0.0","spark_pilot_2","7431","2","18","Female","","","","","","","","1428.0000000002328","<p> Now you will see the animals again and can search their chests for treasure. </p>
            <p> This time, you will not see how much treasure you earned, but you will earn more bonus money for making better choices. </p>","","instructions","","","","","","","","","","","","","",""
"revaluation","267","1258494","0.0-5.0-10.0-0.0","spark_pilot_2","7431","2","18","Female","","false","","","","","","[1832]","./assets/img/ocean/animals/seahorse.jpg","[""ArrowLeft""]","second stage test","ocean","0","{""ArrowUp,ArrowLeft"":27,""ArrowUp,ArrowRight"":15,""ArrowDown,ArrowLeft"":21,""ArrowDown,ArrowRight"":7}","true","ArrowUp,ArrowLeft","","","","revaluation","1","","","",""
"html-keyboard-response","268","1258995","0.0-5.0-10.0-1.0","spark_pilot_2","7431","2","18","Female","","","","","","","","null","<div style=""font-size:60px;"">+</div>","null","fixation","","","","","","","","","","","","","",""
"revaluation","269","1260109","0.0-5.0-10.0-0.1","spark_pilot_2","7431","2","18","Female","","false","","","","","","[1113]","./assets/img/ocean/animals/seahorse.jpg","[""ArrowLeft""]","second stage test","ocean","0","{""ArrowUp,ArrowLeft"":27,""ArrowUp,ArrowRight"":15,""ArrowDown,ArrowLeft"":21,""ArrowDown,ArrowRight"":7}","true","ArrowUp,ArrowLeft","","","","revaluation","1","","","",""
"html-keyboard-response","270","1260611","0.0-5.0-10.0-1.1","spark_pilot_2","7431","2","18","Female","","","","","","","","null","<div style=""font-size:60px;"">+</div>","null","fixation","","","","","","","","","","","","","",""
"revaluation","271","1261312","0.0-5.0-10.0-0.2","spark_pilot_2","7431","2","18","Female","","false","","","","","","[700]","./assets/img/ocean/animals/seahorse.jpg","[""ArrowLeft""]","second stage test","ocean","0","{""ArrowUp,ArrowLeft"":27,""ArrowUp,ArrowRight"":15,""ArrowDown,ArrowLeft"":21,""ArrowDown,ArrowRight"":7}","true","ArrowUp,ArrowLeft","","","","revaluation","1","","","",""
"html-keyboard-response","272","1261813","0.0-5.0-10.0-1.2","spark_pilot_2","7431","2","18","Female","","","","","","","","null","<div style=""font-size:60px;"">+</div>","null","fixation","","","","","","","","","","","","","",""
"revaluation","273","1262875","0.0-5.0-10.0-0.3","spark_pilot_2","7431","2","18","Female","","false","","","","","","[1059.9999999997672]","./assets/img/ocean/animals/seahorse.jpg","[""ArrowLeft""]","second stage test","ocean","0","{""ArrowUp,ArrowLeft"":27,""ArrowUp,ArrowRight"":15,""ArrowDown,ArrowLeft"":21,""ArrowDown,ArrowRight"":7}","true","ArrowUp,ArrowLeft","","","","revaluation","1","","","",""
"html-keyboard-response","274","1263376","0.0-5.0-10.0-1.3","spark_pilot_2","7431","2","18","Female","","","","","","","","null","<div style=""font-size:60px;"">+</div>","null","fixation","","","","","","","","","","","","","",""
"revaluation","275","1264340","0.0-5.0-10.0-0.4","spark_pilot_2","7431","2","18","Female","","false","","","","","","[962]","./assets/img/ocean/animals/octopus.jpg","[""ArrowRight""]","second stage test","ocean","0","{""ArrowUp,ArrowLeft"":27,""ArrowUp,ArrowRight"":15,""ArrowDown,ArrowLeft"":21,""ArrowDown,ArrowRight"":7}","false","ArrowDown,ArrowRight","","","","revaluation","1","","","",""
"html-keyboard-response","276","1264841","0.0-5.0-10.0-1.4","spark_pilot_2","7431","2","18","Female","","","","","","","","null","<div style=""font-size:60px;"">+</div>","null","fixation","","","","","","","","","","","","","",""
"revaluation","277","1265719","0.0-5.0-10.0-0.5","spark_pilot_2","7431","2","18","Female","","false","","","","","","[877.0000000002328]","./assets/img/ocean/animals/octopus.jpg","[""ArrowRight""]","second stage test","ocean","0","{""ArrowUp,ArrowLeft"":27,""ArrowUp,ArrowRight"":15,""ArrowDown,ArrowLeft"":21,""ArrowDown,ArrowRight"":7}","false","ArrowDown,ArrowRight","","","","revaluation","1","","","",""
"html-keyboard-response","278","1266221","0.0-5.0-10.0-1.5","spark_pilot_2","7431","2","18","Female","","","","","","","","null","<div style=""font-size:60px;"">+</div>","null","fixation","","","","","","","","","","","","","",""
"revaluation","279","1266846","0.0-5.0-10.0-0.6","spark_pilot_2","7431","2","18","Female","","false","","","","","","[623]","./assets/img/ocean/animals/octopus.jpg","[""ArrowRight""]","second stage test","ocean","0","{""ArrowUp,ArrowLeft"":27,""ArrowUp,ArrowRight"":15,""ArrowDown,ArrowLeft"":21,""ArrowDown,ArrowRight"":7}","false","ArrowDown,ArrowRight","","","","revaluation","1","","","",""
"html-keyboard-response","280","1267347","0.0-5.0-10.0-1.6","spark_pilot_2","7431","2","18","Female","","","","","","","","null","<div style=""font-size:60px;"">+</div>","null","fixation","","","","","","","","","","","","","",""
"revaluation","281","1267918","0.0-5.0-10.0-0.7","spark_pilot_2","7431","2","18","Female","","false","","","","","","[571]","./assets/img/ocean/animals/octopus.jpg","[""ArrowRight""]","second stage test","ocean","0","{""ArrowUp,ArrowLeft"":27,""ArrowUp,ArrowRight"":15,""ArrowDown,ArrowLeft"":21,""ArrowDown,ArrowRight"":7}","false","ArrowDown,ArrowRight","","","","revaluation","1","","","",""
"html-keyboard-response","282","1268419","0.0-5.0-10.0-1.7","spark_pilot_2","7431","2","18","Female","","","","","","","","null","<div style=""font-size:60px;"">+</div>","null","fixation","","","","","","","","","","","","","",""
"learning-instructions","283","1272349","0.0-5.0-0.1-0.2","spark_pilot_2","7431","2","18","Female","","","","","","","","1175","<p> This time you are searching for treasure in the <b>canyon</b>.</p>","","instructions","","","","","","","","","","","","","",""
"learning-instructions","284","1291271","0.0-5.0-0.1-0.3","spark_pilot_2","7431","2","18","Female","","","","","","","","1670","<p><b>New</b> animals with <b>new</b> treasure chests live here. You need to explore to discover where the animal with the best treasure chest is.</p>
                    <p> Like before, once you figure out which animal has the chest with the most treasure, you should try to get to that animal and select that chest! </p>","","instructions","","","","","","","","","","","","","",""
"learning-instructions","285","1307020","0.0-5.0-1.1-0.1","spark_pilot_2","7431","2","18","Female","","","","","","","","1004.0000000002328","<p> Remember, when you see a picture of the place, use the up and down keys to <b>find an animal</b>.</p>
            <p> When you encounter an animal, you should use the left and right keys to <b>select a treasure chest</b>.</p>
            <p> Don't forget to look out for the robber! </p>","","instructions","","","","","","","","","","","","","",""
"revaluation","286","1313035","0.0-5.0-2.1-0.50","spark_pilot_2","7431","2","18","Female","","false","","","","","","[1116,580]","./assets/img/canyon/memory/18.jpg","[""ArrowDown"",""ArrowLeft""]","value training","canyon","5","{""ArrowUp,ArrowLeft"":26,""ArrowUp,ArrowRight"":10,""ArrowDown,ArrowLeft"":5,""ArrowDown,ArrowRight"":17}","false","ArrowDown,ArrowLeft","false","","","original","2","0","","",""
"html-keyboard-response","287","1313537","0.0-5.0-2.1-1.50","spark_pilot_2","7431","2","18","Female","","","","","","","","null","<div style=""font-size:60px;"">+</div>","null","fixation","","","","","","","","","","","1","","",""
"revaluation","288","1319547","0.0-5.0-2.1-0.51","spark_pilot_2","7431","2","18","Female","","false","","","","","","[493.00000000023283,366]","./assets/img/canyon/memory/17.jpg","[""ArrowDown"",""ArrowRight""]","value training","canyon","17","{""ArrowUp,ArrowLeft"":26,""ArrowUp,ArrowRight"":10,""ArrowDown,ArrowLeft"":5,""ArrowDown,ArrowRight"":17}","false","ArrowDown,ArrowRight","false","","","original","2","2","","",""
"html-keyboard-response","289","1320050","0.0-5.0-2.1-1.51","spark_pilot_2","7431","2","18","Female","","","","","","","","null","<div style=""font-size:60px;"">+</div>","null","fixation","","","","","","","","","","","3","","",""
"revaluation","290","1324056","0.0-5.0-2.1-0.52","spark_pilot_2","7431","2","18","Female","","false","","","","","","[629]","./assets/img/canyon/catch/0.jpg","[""ArrowUp""]","value training","canyon","-10","{""ArrowUp,ArrowLeft"":26,""ArrowUp,ArrowRight"":10,""ArrowDown,ArrowLeft"":5,""ArrowDown,ArrowRight"":17}","false","ArrowUp","true","","","original","2","4","","",""
"html-keyboard-response","291","1324558","0.0-5.0-2.1-1.52","spark_pilot_2","7431","2","18","Female","","","","","","","","null","<div style=""font-size:60px;"">+</div>","null","fixation","","","","","","","","","","","5","","",""
"revaluation","292","1330565","0.0-5.0-2.1-0.53","spark_pilot_2","7431","2","18","Female","","false","","","","","","[1288,895]","./assets/img/canyon/memory/15.jpg","[""ArrowUp"",""ArrowLeft""]","value training","canyon","26","{""ArrowUp,ArrowLeft"":26,""ArrowUp,ArrowRight"":10,""ArrowDown,ArrowLeft"":5,""ArrowDown,ArrowRight"":17}","true","ArrowUp,ArrowLeft","false","","","original","2","6","","",""
"html-keyboard-response","293","1331067","0.0-5.0-2.1-1.53","spark_pilot_2","7431","2","18","Female","","","","","","","","null","<div style=""font-size:60px;"">+</div>","null","fixation","","","","","","","","","","","7","","",""
"revaluation","294","1337074","0.0-5.0-2.1-0.54","spark_pilot_2","7431","2","18","Female","","false","","","","","","[1068,384]","./assets/img/canyon/memory/36.jpg","[""ArrowUp"",""ArrowRight""]","value training","canyon","10","{""ArrowUp,ArrowLeft"":26,""ArrowUp,ArrowRight"":10,""ArrowDown,ArrowLeft"":5,""ArrowDown,ArrowRight"":17}","false","ArrowUp,ArrowRight","false","","","original","2","8","","",""
"html-keyboard-response","295","1337576","0.0-5.0-2.1-1.54","spark_pilot_2","7431","2","18","Female","","","","","","","","null","<div style=""font-size:60px;"">+</div>","null","fixation","","","","","","","","","","","9","","",""
"revaluation","296","1343581","0.0-5.0-2.1-0.55","spark_pilot_2","7431","2","18","Female","","false","","","","","","[808,373.00000000023283]","./assets/img/canyon/memory/9.jpg","[""ArrowUp"",""ArrowLeft""]","value training","canyon","26","{""ArrowUp,ArrowLeft"":26,""ArrowUp,ArrowRight"":10,""ArrowDown,ArrowLeft"":5,""ArrowDown,ArrowRight"":17}","true","ArrowUp,ArrowLeft","false","","","original","2","10","","",""
"html-keyboard-response","297","1344082","0.0-5.0-2.1-1.55","spark_pilot_2","7431","2","18","Female","","","","","","","","null","<div style=""font-size:60px;"">+</div>","null","fixation","","","","","","","","","","","11","","",""
"revaluation","298","1348086","0.0-5.0-2.1-0.56","spark_pilot_2","7431","2","18","Female","","false","","","","","","[620]","./assets/img/canyon/catch/1.jpg","[""spaceBar""]","value training","canyon","0","{""ArrowUp,ArrowLeft"":26,""ArrowUp,ArrowRight"":10,""ArrowDown,ArrowLeft"":5,""ArrowDown,ArrowRight"":17}","true","spaceBar","true","","","original","2","12","","",""
"html-keyboard-response","299","1348587","0.0-5.0-2.1-1.56","spark_pilot_2","7431","2","18","Female","","","","","","","","null","<div style=""font-size:60px;"">+</div>","null","fixation","","","","","","","","","","","13","","",""
"revaluation","300","1354592","0.0-5.0-2.1-0.57","spark_pilot_2","7431","2","18","Female","","false","","","","","","[896.9999999997672,325]","./assets/img/canyon/memory/41.jpg","[""ArrowUp"",""ArrowLeft""]","value training","canyon","26","{""ArrowUp,ArrowLeft"":26,""ArrowUp,ArrowRight"":10,""ArrowDown,ArrowLeft"":5,""ArrowDown,ArrowRight"":17}","true","ArrowUp,ArrowLeft","false","","","original","2","14","","",""
"html-keyboard-response","301","1355094","0.0-5.0-2.1-1.57","spark_pilot_2","7431","2","18","Female","","","","","","","","null","<div style=""font-size:60px;"">+</div>","null","fixation","","","","","","","","","","","15","","",""
"revaluation","302","1359097","0.0-5.0-2.1-0.58","spark_pilot_2","7431","2","18","Female","","false","","","","","","[600.0000000002328]","./assets/img/canyon/catch/5.jpg","[""spaceBar""]","value training","canyon","0","{""ArrowUp,ArrowLeft"":26,""ArrowUp,ArrowRight"":10,""ArrowDown,ArrowLeft"":5,""ArrowDown,ArrowRight"":17}","true","spaceBar","true","","","original","2","16","","",""
"html-keyboard-response","303","1359599","0.0-5.0-2.1-1.58","spark_pilot_2","7431","2","18","Female","","","","","","","","null","<div style=""font-size:60px;"">+</div>","null","fixation","","","","","","","","","","","17","","",""
"revaluation","304","1365603","0.0-5.0-2.1-0.59","spark_pilot_2","7431","2","18","Female","","false","","","","","","[1663,768.0000000002328]","./assets/img/canyon/memory/17.jpg","[""ArrowUp"",""ArrowLeft""]","value training","canyon","26","{""ArrowUp,ArrowLeft"":26,""ArrowUp,ArrowRight"":10,""ArrowDown,ArrowLeft"":5,""ArrowDown,ArrowRight"":17}","true","ArrowUp,ArrowLeft","false","","","original","2","18","","",""
"html-keyboard-response","305","1366104","0.0-5.0-2.1-1.59","spark_pilot_2","7431","2","18","Female","","","","","","","","null","<div style=""font-size:60px;"">+</div>","null","fixation","","","","","","","","","","","19","","",""
"revaluation","306","1372108","0.0-5.0-2.1-0.60","spark_pilot_2","7431","2","18","Female","","false","","","","","","[871,525]","./assets/img/canyon/memory/30.jpg","[""ArrowUp"",""ArrowLeft""]","value training","canyon","26","{""ArrowUp,ArrowLeft"":26,""ArrowUp,ArrowRight"":10,""ArrowDown,ArrowLeft"":5,""ArrowDown,ArrowRight"":17}","true","ArrowUp,ArrowLeft","false","","","original","2","20","","",""
"html-keyboard-response","307","1372609","0.0-5.0-2.1-1.60","spark_pilot_2","7431","2","18","Female","","","","","","","","null","<div style=""font-size:60px;"">+</div>","null","fixation","","","","","","","","","","","21","","",""
"revaluation","308","1378614","0.0-5.0-2.1-0.61","spark_pilot_2","7431","2","18","Female","","false","","","","","","[605,343.00000000023283]","./assets/img/canyon/memory/8.jpg","[""ArrowUp"",""ArrowLeft""]","value training","canyon","26","{""ArrowUp,ArrowLeft"":26,""ArrowUp,ArrowRight"":10,""ArrowDown,ArrowLeft"":5,""ArrowDown,ArrowRight"":17}","true","ArrowUp,ArrowLeft","false","","","original","2","22","","",""
"html-keyboard-response","309","1379116","0.0-5.0-2.1-1.61","spark_pilot_2","7431","2","18","Female","","","","","","","","null","<div style=""font-size:60px;"">+</div>","null","fixation","","","","","","","","","","","23","","",""
