"trial_type","trial_index","time_elapsed","internal_node_id","task_version","subject_id","assigned_condition","age","gender","success","timeout","failed_images","failed_audio","failed_video","browser_interaction","rt","stimulus","response","task_part","environment","score","rewardMap","correct","fullState","isCatch","numberMissed","duration","condition","order","trial_num","key_press","ground_truth","bonus"
"pavlovia","0","1969","0.0-0.0","spark_pilot_2","7398","5","16","Female","","","","","","","","","","","","","","","","","","","","","","","",""
"preload","1","34839","0.0-1.0","spark_pilot_2","7398","5","16","Female","true","false","[]","[]","[]","","","","","","","","","","","","","","","","","","",""
"fullscreen","2","40877","0.0-2.0","spark_pilot_2","7398","5","16","Female","true","","","","","[{""event"":""fullscreenenter"",""trial"":3,""time"":46284}]","","","","","","","","","","","","","","","","","",""
"audio-button-response","3","49355","0.0-3.0-0.0-0.0","spark_pilot_2","7398","5","16","Female","","","","","","","2429","./assets/audio/audiotest/turtle.mp3","2","audio_test","","","","","","","","","","","","","",""
"learning-instructions","4","58915","0.0-3.0-1.0-0.0","spark_pilot_2","7398","5","16","Female","","","","","","","2284","<p> Welcome! Please remember to stay in fullscreen mode and don't click away from the experiment. </p>","","instructions","","","","","","","","","","","","","",""
"learning-instructions","5","71519","0.0-3.0-1.0-0.1","spark_pilot_2","7398","5","16","Female","","","","","","","2154","<p> Today you will be playing a game to earn treasure. </p>
            <p> At the end of the experiment, you will earn a bonus based on how much treasure you find. </p>
            <img src='./assets/img/instructions/treasure.jpg' class='instructions-image'>","","instructions","","","","","","","","","","","","","",""
"learning-instructions","6","83115","0.0-3.0-1.0-0.2","spark_pilot_2","7398","5","16","Female","","","","","","","2203","<p> Animals have hidden treasure in treasure chests. </p>
            <p> You need to first find an animal and then choose which of their treasure chests to search. </p>
            <img src='./assets/img/space/animals/cat.jpg' class='instructions-image'>","","instructions","","","","","","","","","","","","","",""
"learning-instructions","7","97254","0.0-3.0-1.0-0.3","spark_pilot_2","7398","5","16","Female","","","","","","","761","<p> In each round, you will search for treasure in a different place. In the real game, there will be two rounds. </p>
            <p> You will begin with a separate, practice round where you will search for treasure in outer space. </p>
            <img src='./assets/img/space/0.jpg' class='instructions-image'>","","instructions","","","","","","","","","","","","","",""
"learning-instructions","8","109640","0.0-3.0-1.0-0.4","spark_pilot_2","7398","5","16","Female","","","","","","","726","<p> On every turn, you will see a picture of the place that you are in, but the specific image may be different each time. </p>
            <p> For example, both of these images mean you are in outer space. </p>
            <img src='./assets/img/instructions/outerspace.jpg' class='instructions-image'>","","instructions","","","","","","","","","","","","","",""
"learning-instructions","9","118548","0.0-3.0-1.0-0.5","spark_pilot_2","7398","5","16","Female","","","","","","","876","<p> You need to decide which direction to travel in. </p>
            <p> You can choose between going <b>up or down</b> by using the arrow keys. </p>
            <img src='./assets/img/instructions/updown.jpg' class='instructions-image'>","","instructions","","","","","","","","","","","","","",""
"learning-instructions","10","128292","0.0-3.0-1.0-0.6","spark_pilot_2","7398","5","16","Female","","","","","","","759","<p> You will have <b>2 seconds</b> to make your choice. </p>
            <p> If you do not make a choice within 2 seconds, you will not find an animal or earn treasure. </p>
            <img src='./assets/img/instructions/2seconds.jpg' class='instructions-image'>","","instructions","","","","","","","","","","","","","",""
"learning-instructions","11","136551","0.0-3.0-1.0-0.7","spark_pilot_2","7398","5","16","Female","","","","","","","1057","<p> Let’s try practicing that now! </p>
            <p> When you see a picture of the place you are in, press the <b>up</b> key to travel up. </p>
            <img src='./assets/img/instructions/pressUp.jpg' class='instructions-image'>","","instructions","","","","","","","","","","","","","",""
"revaluation","12","140633","0.0-3.0-2.0-0.0","spark_pilot_2","7398","5","16","Female","","false","","","","","[1742]","./assets/img/space/0.jpg","[""ArrowUp""]","first stage practice","space","0","null","null","ArrowUp","false","","","","","","","",""
"html-keyboard-response","13","141151","0.0-3.0-2.0-1.0","spark_pilot_2","7398","5","16","Female","","","","","","","null","<div style=""font-size:60px;"">+</div>","null","fixation","","","","","","","","","","","","","",""
"revaluation","14","145192","0.0-3.0-2.0-0.1","spark_pilot_2","7398","5","16","Female","","false","","","","","[826]","./assets/img/space/1.jpg","[""ArrowUp""]","first stage practice","space","0","null","null","ArrowUp","false","","","","","","","",""
"html-keyboard-response","15","145710","0.0-3.0-2.0-1.1","spark_pilot_2","7398","5","16","Female","","","","","","","null","<div style=""font-size:60px;"">+</div>","null","fixation","","","","","","","","","","","","","",""
"revaluation","16","149762","0.0-3.0-2.0-0.2","spark_pilot_2","7398","5","16","Female","","false","","","","","[870]","./assets/img/space/2.jpg","[""ArrowUp""]","first stage practice","space","0","null","null","ArrowUp","false","","","","","","","",""
"html-keyboard-response","17","150277","0.0-3.0-2.0-1.2","spark_pilot_2","7398","5","16","Female","","","","","","","null","<div style=""font-size:60px;"">+</div>","null","fixation","","","","","","","","","","","","","",""
"learning-instructions","18","157176","0.0-3.0-3.0-0.0","spark_pilot_2","7398","5","16","Female","","","","","","","2002","<p> Great job! Now try pressing the <b>down</b> key to travel down. </p>
            <img src='./assets/img/instructions/pressDown.jpg' class='instructions-image'>","","instructions","","","","","","","","","","","","","",""
"revaluation","19","161212","0.0-3.0-4.0-0.0","spark_pilot_2","7398","5","16","Female","","false","","","","","[819]","./assets/img/space/3.jpg","[""ArrowDown""]","first stage practice","space","0","null","null","ArrowDown","false","","","","","","","",""
"html-keyboard-response","20","161731","0.0-3.0-4.0-1.0","spark_pilot_2","7398","5","16","Female","","","","","","","null","<div style=""font-size:60px;"">+</div>","null","fixation","","","","","","","","","","","","","",""
"revaluation","21","165752","0.0-3.0-4.0-0.1","spark_pilot_2","7398","5","16","Female","","false","","","","","[668]","./assets/img/space/4.jpg","[""ArrowDown""]","first stage practice","space","0","null","null","ArrowDown","false","","","","","","","",""
"html-keyboard-response","22","166270","0.0-3.0-4.0-1.1","spark_pilot_2","7398","5","16","Female","","","","","","","null","<div style=""font-size:60px;"">+</div>","null","fixation","","","","","","","","","","","","","",""
"revaluation","23","170322","0.0-3.0-4.0-0.2","spark_pilot_2","7398","5","16","Female","","false","","","","","[497]","./assets/img/space/5.jpg","[""ArrowDown""]","first stage practice","space","0","null","null","ArrowDown","false","","","","","","","",""
"html-keyboard-response","24","170831","0.0-3.0-4.0-1.2","spark_pilot_2","7398","5","16","Female","","","","","","","null","<div style=""font-size:60px;"">+</div>","null","fixation","","","","","","","","","","","","","",""
"learning-instructions","25","183369","0.0-3.0-5.0-0.0","spark_pilot_2","7398","5","16","Female","","","","","","","2435","<p> The animals don’t move, so the animal in the upper part of a place will stay in the upper part of a place, and the animal in the lower part of a place will stay in the lower part of a place. </p>","","instructions","","","","","","","","","","","","","",""
"learning-instructions","26","193307","0.0-3.0-5.0-0.1","spark_pilot_2","7398","5","16","Female","","","","","","","594","<p> Each animal has two treasure chests for you to choose from. </p>
            <p> The amount of treasure in each chest can range from <b> 0 to 40 pieces.</b></p>","","instructions","","","","","","","","","","","","","",""
"learning-instructions","27","205400","0.0-3.0-5.0-0.2","spark_pilot_2","7398","5","16","Female","","","","","","","647","<p> You should decide which chest to search for treasure by using the <b>left</b> and <b>right</b> arrow keys. </p>
            <p><b> Pay attention to which animal is on the screen, as the animals have different treasure chests. </b></p>
            <img src='./assets/img/instructions/leftright.jpg' class='instructions-image'>","","instructions","","","","","","","","","","","","","",""
"learning-instructions","28","212613","0.0-3.0-5.0-0.3","spark_pilot_2","7398","5","16","Female","","","","","","","680","<p> Let’s try practicing that now. </p>
            <p> When you see an animal, choose which chest to search for treasure. </p>
            <img src='./assets/img/instructions/chooseChest.jpg' class='instructions-image'>","","instructions","","","","","","","","","","","","","",""
"revaluation","29","216640","0.0-3.0-6.0-0.0","spark_pilot_2","7398","5","16","Female","","false","","","","","[1348]","./assets/img/space/animals/cat.jpg","[""ArrowRight""]","second stage practice","space","36","{""ArrowUp,ArrowLeft"":3,""ArrowUp,ArrowRight"":36,""ArrowDown,ArrowLeft"":15,""ArrowDown,ArrowRight"":23}","true","ArrowUp,ArrowRight","","","","","","","","",""
"html-keyboard-response","30","217155","0.0-3.0-6.0-1.0","spark_pilot_2","7398","5","16","Female","","","","","","","null","<div style=""font-size:60px;"">+</div>","null","fixation","","","","","","","","","","","","","",""
"revaluation","31","221192","0.0-3.0-6.0-0.1","spark_pilot_2","7398","5","16","Female","","false","","","","","[708]","./assets/img/space/animals/rabbit.jpg","[""ArrowRight""]","second stage practice","space","23","{""ArrowUp,ArrowLeft"":3,""ArrowUp,ArrowRight"":36,""ArrowDown,ArrowLeft"":15,""ArrowDown,ArrowRight"":23}","true","ArrowDown,ArrowRight","","","","","","","","",""
"html-keyboard-response","32","221711","0.0-3.0-6.0-1.1","spark_pilot_2","7398","5","16","Female","","","","","","","null","<div style=""font-size:60px;"">+</div>","null","fixation","","","","","","","","","","","","","",""
"revaluation","33","225742","0.0-3.0-6.0-0.2","spark_pilot_2","7398","5","16","Female","","false","","","","","[431]","./assets/img/space/animals/cat.jpg","[""ArrowLeft""]","second stage practice","space","3","{""ArrowUp,ArrowLeft"":3,""ArrowUp,ArrowRight"":36,""ArrowDown,ArrowLeft"":15,""ArrowDown,ArrowRight"":23}","false","ArrowUp,ArrowLeft","","","","","","","","",""
"html-keyboard-response","34","226261","0.0-3.0-6.0-1.2","spark_pilot_2","7398","5","16","Female","","","","","","","null","<div style=""font-size:60px;"">+</div>","null","fixation","","","","","","","","","","","","","",""
"revaluation","35","230292","0.0-3.0-6.0-0.3","spark_pilot_2","7398","5","16","Female","","false","","","","","[558]","./assets/img/space/animals/rabbit.jpg","[""ArrowRight""]","second stage practice","space","23","{""ArrowUp,ArrowLeft"":3,""ArrowUp,ArrowRight"":36,""ArrowDown,ArrowLeft"":15,""ArrowDown,ArrowRight"":23}","true","ArrowDown,ArrowRight","","","","","","","","",""
"html-keyboard-response","36","230811","0.0-3.0-6.0-1.3","spark_pilot_2","7398","5","16","Female","","","","","","","null","<div style=""font-size:60px;"">+</div>","null","fixation","","","","","","","","","","","","","",""
"learning-instructions","37","249924","0.0-3.0-7.0-0.0","spark_pilot_2","7398","5","16","Female","","","","","","","1952","<p> Great job. Now let’s try putting it together. </p>
            <p> On each turn, you will first see a picture to remind you of the place you are in, and you need to choose whether to go up or down. </p>
            <p> Then you will see an animal and choose which of its chests to search for treasure. </p>","","instructions","","","","","","","","","","","","","",""
"learning-instructions","38","259015","0.0-3.0-7.0-0.1","spark_pilot_2","7398","5","16","Female","","","","","","","642","<p> When you choose whether to go up or down, try to go to the animal with the chest with the most treasure. </p>
            <p> Try practicing that now! </p>","","instructions","","","","","","","","","","","","","",""
"revaluation","39","265095","0.0-3.0-8.0-0.0","spark_pilot_2","7398","5","16","Female","","false","","","","","[1725,867]","./assets/img/space/6.jpg","[""ArrowUp"",""ArrowRight""]","full practice","space","36","{""ArrowUp,ArrowLeft"":3,""ArrowUp,ArrowRight"":36,""ArrowDown,ArrowLeft"":15,""ArrowDown,ArrowRight"":23}","true","ArrowUp,ArrowRight","false","","","","","","","",""
"html-keyboard-response","40","265611","0.0-3.0-8.0-1.0","spark_pilot_2","7398","5","16","Female","","","","","","","null","<div style=""font-size:60px;"">+</div>","null","fixation","","","","","","","","","","","","","",""
"revaluation","41","271652","0.0-3.0-8.0-0.1","spark_pilot_2","7398","5","16","Female","","false","","","","","[1051,648]","./assets/img/space/7.jpg","[""ArrowUp"",""ArrowLeft""]","full practice","space","3","{""ArrowUp,ArrowLeft"":3,""ArrowUp,ArrowRight"":36,""ArrowDown,ArrowLeft"":15,""ArrowDown,ArrowRight"":23}","false","ArrowUp,ArrowLeft","false","","","","","","","",""
"html-keyboard-response","42","272171","0.0-3.0-8.0-1.1","spark_pilot_2","7398","5","16","Female","","","","","","","null","<div style=""font-size:60px;"">+</div>","null","fixation","","","","","","","","","","","","","",""
"revaluation","43","278232","0.0-3.0-8.0-0.2","spark_pilot_2","7398","5","16","Female","","false","","","","","[1677,543]","./assets/img/space/8.jpg","[""ArrowUp"",""ArrowRight""]","full practice","space","36","{""ArrowUp,ArrowLeft"":3,""ArrowUp,ArrowRight"":36,""ArrowDown,ArrowLeft"":15,""ArrowDown,ArrowRight"":23}","true","ArrowUp,ArrowRight","false","","","","","","","",""
"html-keyboard-response","44","278751","0.0-3.0-8.0-1.2","spark_pilot_2","7398","5","16","Female","","","","","","","null","<div style=""font-size:60px;"">+</div>","null","fixation","","","","","","","","","","","","","",""
"revaluation","45","284811","0.0-3.0-8.0-0.3","spark_pilot_2","7398","5","16","Female","","false","","","","","[1183,606]","./assets/img/space/9.jpg","[""ArrowUp"",""ArrowRight""]","full practice","space","36","{""ArrowUp,ArrowLeft"":3,""ArrowUp,ArrowRight"":36,""ArrowDown,ArrowLeft"":15,""ArrowDown,ArrowRight"":23}","true","ArrowUp,ArrowRight","false","","","","","","","",""
"html-keyboard-response","46","285330","0.0-3.0-8.0-1.3","spark_pilot_2","7398","5","16","Female","","","","","","","null","<div style=""font-size:60px;"">+</div>","null","fixation","","","","","","","","","","","","","",""
"revaluation","47","291378","0.0-3.0-8.0-0.4","spark_pilot_2","7398","5","16","Female","","false","","","","","[962,502]","./assets/img/space/10.jpg","[""ArrowUp"",""ArrowRight""]","full practice","space","36","{""ArrowUp,ArrowLeft"":3,""ArrowUp,ArrowRight"":36,""ArrowDown,ArrowLeft"":15,""ArrowDown,ArrowRight"":23}","true","ArrowUp,ArrowRight","false","","","","","","","",""
"html-keyboard-response","48","291881","0.0-3.0-8.0-1.4","spark_pilot_2","7398","5","16","Female","","","","","","","null","<div style=""font-size:60px;"">+</div>","null","fixation","","","","","","","","","","","","","",""
"learning-instructions","49","304196","0.0-3.0-9.0-0.0","spark_pilot_2","7398","5","16","Female","","","","","","","1743","<p> One last thing: sometimes, you will see a robber. The robber can be anywhere in the picture. </p>
            <p> If you do not stop them, you will lose treasure. </p>
            <img src='./assets/img/instructions/robber.jpg' class='instructions-image'>","","instructions","","","","","","","","","","","","","",""
"learning-instructions","50","312049","0.0-3.0-9.0-0.1","spark_pilot_2","7398","5","16","Female","","","","","","","356","<p> If you see the robber, you should <b>press the space bar</b> rather than using the arrow keys. </p>
            <p> Try practicing that now! </p>","","instructions","","","","","","","","","","","","","",""
"revaluation","51","316072","0.0-3.0-10.0-0.0","spark_pilot_2","7398","5","16","Female","","false","","","","","[765]","./assets/img/space/catch/0.jpg","[""spaceBar""]","catch practice","space","0","{""ArrowUp,ArrowLeft"":3,""ArrowUp,ArrowRight"":36,""ArrowDown,ArrowLeft"":15,""ArrowDown,ArrowRight"":23}","true","spaceBar","true","","","","","","","",""
"html-keyboard-response","52","316591","0.0-3.0-10.0-1.0","spark_pilot_2","7398","5","16","Female","","","","","","","null","<div style=""font-size:60px;"">+</div>","null","fixation","","","","","","","","","","","","","",""
"revaluation","53","320622","0.0-3.0-10.0-0.1","spark_pilot_2","7398","5","16","Female","","false","","","","","[986]","./assets/img/space/catch/1.jpg","[""spaceBar""]","catch practice","space","0","{""ArrowUp,ArrowLeft"":3,""ArrowUp,ArrowRight"":36,""ArrowDown,ArrowLeft"":15,""ArrowDown,ArrowRight"":23}","true","spaceBar","true","","","","","","","",""
"html-keyboard-response","54","321140","0.0-3.0-10.0-1.1","spark_pilot_2","7398","5","16","Female","","","","","","","null","<div style=""font-size:60px;"">+</div>","null","fixation","","","","","","","","","","","","","",""
"revaluation","55","325161","0.0-3.0-10.0-0.2","spark_pilot_2","7398","5","16","Female","","false","","","","","[537]","./assets/img/space/catch/2.jpg","[""spaceBar""]","catch practice","space","0","{""ArrowUp,ArrowLeft"":3,""ArrowUp,ArrowRight"":36,""ArrowDown,ArrowLeft"":15,""ArrowDown,ArrowRight"":23}","true","spaceBar","true","","","","","","","",""
"html-keyboard-response","56","325681","0.0-3.0-10.0-1.2","spark_pilot_2","7398","5","16","Female","","","","","","","null","<div style=""font-size:60px;"">+</div>","null","fixation","","","","","","","","","","","","","",""
"learning-instructions","57","340972","0.0-3.0-11.0-0.0","spark_pilot_2","7398","5","16","Female","","","","","","","1398","<p> After you explore a place to find treasure, it will be time to play a different game. </p>
            <p> During this game, red dots will appear on the screen and fall down slowly. </p>
            <p><b> You must click on them before they reach the bottom. </b></p>
            <img src='./assets/img/instructions/dotGame.jpg' class='instructions-image'>","","instructions","","","","","","","","","","","","","",""
"learning-instructions","58","348851","0.0-3.0-11.0-0.1","spark_pilot_2","7398","5","16","Female","","","","","","","2038","<p> For every dot you click, you will earn additional treasure. </p>
            <p> Let’s try practicing that now. </p>","","instructions","","","","","","","","","","","","","",""
"revaluation","59","363860","0.0-3.0-12.0-0.0","spark_pilot_2","7398","5","16","Female","","","","","","","[175]","","","rest practice","","10","","","","","0","15000","","","","","",""
"learning-instructions","60","371041","0.0-3.0-13.0-0.0-0.0","spark_pilot_2","7398","5","16","Female","","","","","","","1768","<p> Now, you will practice a shortened version of the game to get a sense of how it all fits together. </p>","","instructions","","","","","","","","","","","","","",""
"learning-instructions","61","375101","0.0-3.0-13.0-0.0-0.1","spark_pilot_2","7398","5","16","Female","","","","","","","728","<p>This time you are searching for treasure in outer space.</p>","","instructions","","","","","","","","","","","","","",""
"learning-instructions","62","391503","0.0-3.0-13.0-1.0-0.0","spark_pilot_2","7398","5","16","Female","","","","","","","1388","<p> Remember, when you see a picture of the place, use the up and down keys to <b>find an animal</b>.</p>
            <p> When you encounter an animal, you should use the left and right keys to <b>select a treasure chest</b>.</p>
            <p> Don't forget to look out for the robber! </p>","","instructions","","","","","","","","","","","","","",""
"revaluation","63","397551","0.0-3.0-13.0-2.0-0.0","spark_pilot_2","7398","5","16","Female","","false","","","","","[1666,785]","./assets/img/space/11.jpg","[""ArrowUp"",""ArrowRight""]","practice block","space","36","{""ArrowUp,ArrowLeft"":3,""ArrowUp,ArrowRight"":36,""ArrowDown,ArrowLeft"":15,""ArrowDown,ArrowRight"":23}","true","ArrowUp,ArrowRight","false","","","","","","","",""
"html-keyboard-response","64","398071","0.0-3.0-13.0-2.0-1.0","spark_pilot_2","7398","5","16","Female","","","","","","","null","<div style=""font-size:60px;"">+</div>","null","fixation","","","","","","","","","","","","","",""
"revaluation","65","404102","0.0-3.0-13.0-2.0-0.1","spark_pilot_2","7398","5","16","Female","","false","","","","","[667,702]","./assets/img/space/12.jpg","[""ArrowUp"",""ArrowRight""]","practice block","space","36","{""ArrowUp,ArrowLeft"":3,""ArrowUp,ArrowRight"":36,""ArrowDown,ArrowLeft"":15,""ArrowDown,ArrowRight"":23}","true","ArrowUp,ArrowRight","false","","","","","","","",""
"html-keyboard-response","66","404621","0.0-3.0-13.0-2.0-1.1","spark_pilot_2","7398","5","16","Female","","","","","","","null","<div style=""font-size:60px;"">+</div>","null","fixation","","","","","","","","","","","","","",""
"revaluation","67","410662","0.0-3.0-13.0-2.0-0.2","spark_pilot_2","7398","5","16","Female","","false","","","","","[740,837]","./assets/img/space/13.jpg","[""ArrowUp"",""ArrowRight""]","practice block","space","36","{""ArrowUp,ArrowLeft"":3,""ArrowUp,ArrowRight"":36,""ArrowDown,ArrowLeft"":15,""ArrowDown,ArrowRight"":23}","true","ArrowUp,ArrowRight","false","","","","","","","",""
"html-keyboard-response","68","411181","0.0-3.0-13.0-2.0-1.2","spark_pilot_2","7398","5","16","Female","","","","","","","null","<div style=""font-size:60px;"">+</div>","null","fixation","","","","","","","","","","","","","",""
"revaluation","69","417232","0.0-3.0-13.0-2.0-0.3","spark_pilot_2","7398","5","16","Female","","false","","","","","[916,704]","./assets/img/space/14.jpg","[""ArrowUp"",""ArrowRight""]","practice block","space","36","{""ArrowUp,ArrowLeft"":3,""ArrowUp,ArrowRight"":36,""ArrowDown,ArrowLeft"":15,""ArrowDown,ArrowRight"":23}","true","ArrowUp,ArrowRight","false","","","","","","","",""
"html-keyboard-response","70","417751","0.0-3.0-13.0-2.0-1.3","spark_pilot_2","7398","5","16","Female","","","","","","","null","<div style=""font-size:60px;"">+</div>","null","fixation","","","","","","","","","","","","","",""
"revaluation","71","423811","0.0-3.0-13.0-2.0-0.4","spark_pilot_2","7398","5","16","Female","","false","","","","","[922,579]","./assets/img/space/11.jpg","[""ArrowUp"",""ArrowRight""]","practice block","space","36","{""ArrowUp,ArrowLeft"":3,""ArrowUp,ArrowRight"":36,""ArrowDown,ArrowLeft"":15,""ArrowDown,ArrowRight"":23}","true","ArrowUp,ArrowRight","false","","","","","","","",""
"html-keyboard-response","72","424330","0.0-3.0-13.0-2.0-1.4","spark_pilot_2","7398","5","16","Female","","","","","","","null","<div style=""font-size:60px;"">+</div>","null","fixation","","","","","","","","","","","","","",""
"revaluation","73","430393","0.0-3.0-13.0-2.0-0.5","spark_pilot_2","7398","5","16","Female","","false","","","","","[1016,376]","./assets/img/space/12.jpg","[""ArrowUp"",""ArrowRight""]","practice block","space","36","{""ArrowUp,ArrowLeft"":3,""ArrowUp,ArrowRight"":36,""ArrowDown,ArrowLeft"":15,""ArrowDown,ArrowRight"":23}","true","ArrowUp,ArrowRight","false","","","","","","","",""
"html-keyboard-response","74","430910","0.0-3.0-13.0-2.0-1.5","spark_pilot_2","7398","5","16","Female","","","","","","","null","<div style=""font-size:60px;"">+</div>","null","fixation","","","","","","","","","","","","","",""
"revaluation","75","436952","0.0-3.0-13.0-2.0-0.6","spark_pilot_2","7398","5","16","Female","","false","","","","","[551,384]","./assets/img/space/13.jpg","[""ArrowUp"",""ArrowRight""]","practice block","space","36","{""ArrowUp,ArrowLeft"":3,""ArrowUp,ArrowRight"":36,""ArrowDown,ArrowLeft"":15,""ArrowDown,ArrowRight"":23}","true","ArrowUp,ArrowRight","false","","","","","","","",""
"html-keyboard-response","76","437471","0.0-3.0-13.0-2.0-1.6","spark_pilot_2","7398","5","16","Female","","","","","","","null","<div style=""font-size:60px;"">+</div>","null","fixation","","","","","","","","","","","","","",""
"revaluation","77","443521","0.0-3.0-13.0-2.0-0.7","spark_pilot_2","7398","5","16","Female","","false","","","","","[913,673]","./assets/img/space/14.jpg","[""ArrowUp"",""ArrowRight""]","practice block","space","36","{""ArrowUp,ArrowLeft"":3,""ArrowUp,ArrowRight"":36,""ArrowDown,ArrowLeft"":15,""ArrowDown,ArrowRight"":23}","true","ArrowUp,ArrowRight","false","","","","","","","",""
"html-keyboard-response","78","444041","0.0-3.0-13.0-2.0-1.7","spark_pilot_2","7398","5","16","Female","","","","","","","null","<div style=""font-size:60px;"">+</div>","null","fixation","","","","","","","","","","","","","",""
"revaluation","79","448081","0.0-3.0-13.0-2.0-0.8","spark_pilot_2","7398","5","16","Female","","false","","","","","[860]","./assets/img/space/catch/3.jpg","[""spaceBar""]","practice block","space","0","{""ArrowUp,ArrowLeft"":3,""ArrowUp,ArrowRight"":36,""ArrowDown,ArrowLeft"":15,""ArrowDown,ArrowRight"":23}","true","spaceBar","true","","","","","","","",""
"html-keyboard-response","80","448601","0.0-3.0-13.0-2.0-1.8","spark_pilot_2","7398","5","16","Female","","","","","","","null","<div style=""font-size:60px;"">+</div>","null","fixation","","","","","","","","","","","","","",""
"learning-instructions","81","462962","0.0-3.0-13.0-3.0-0.0","spark_pilot_2","7398","5","16","Female","","","","","","","1171","<p> Now, you will travel with a friend who will choose whether you go up or down first. </p>
            <p> On these turns, you will just see the animal that they found. You will still get to choose which chest to search for treasure.</p>","","instructions","","","","","","","","","","","","","",""
"revaluation","82","466982","0.0-3.0-13.0-4.0-0.0","spark_pilot_2","7398","5","16","Female","","false","","","","","[1851]","./assets/img/space/animals/rabbit.jpg","[""ArrowLeft""]","practice block","space","15","{""ArrowUp,ArrowLeft"":3,""ArrowUp,ArrowRight"":36,""ArrowDown,ArrowLeft"":15,""ArrowDown,ArrowRight"":23}","false","ArrowDown,ArrowLeft","","","","","","","","",""
"html-keyboard-response","83","467501","0.0-3.0-13.0-4.0-1.0","spark_pilot_2","7398","5","16","Female","","","","","","","null","<div style=""font-size:60px;"">+</div>","null","fixation","","","","","","","","","","","","","",""
"revaluation","84","471542","0.0-3.0-13.0-4.0-0.1","spark_pilot_2","7398","5","16","Female","","false","","","","","[922]","./assets/img/space/animals/cat.jpg","[""ArrowRight""]","practice block","space","36","{""ArrowUp,ArrowLeft"":3,""ArrowUp,ArrowRight"":36,""ArrowDown,ArrowLeft"":15,""ArrowDown,ArrowRight"":23}","true","ArrowUp,ArrowRight","","","","","","","","",""
"html-keyboard-response","85","472061","0.0-3.0-13.0-4.0-1.1","spark_pilot_2","7398","5","16","Female","","","","","","","null","<div style=""font-size:60px;"">+</div>","null","fixation","","","","","","","","","","","","","",""
"revaluation","86","476102","0.0-3.0-13.0-4.0-0.2","spark_pilot_2","7398","5","16","Female","","false","","","","","[867]","./assets/img/space/animals/rabbit.jpg","[""ArrowLeft""]","practice block","space","15","{""ArrowUp,ArrowLeft"":3,""ArrowUp,ArrowRight"":36,""ArrowDown,ArrowLeft"":15,""ArrowDown,ArrowRight"":23}","false","ArrowDown,ArrowLeft","","","","","","","","",""
"html-keyboard-response","87","476621","0.0-3.0-13.0-4.0-1.2","spark_pilot_2","7398","5","16","Female","","","","","","","null","<div style=""font-size:60px;"">+</div>","null","fixation","","","","","","","","","","","","","",""
"revaluation","88","480652","0.0-3.0-13.0-4.0-0.3","spark_pilot_2","7398","5","16","Female","","false","","","","","[657]","./assets/img/space/animals/cat.jpg","[""ArrowRight""]","practice block","space","36","{""ArrowUp,ArrowLeft"":3,""ArrowUp,ArrowRight"":36,""ArrowDown,ArrowLeft"":15,""ArrowDown,ArrowRight"":23}","true","ArrowUp,ArrowRight","","","","","","","","",""
"html-keyboard-response","89","481171","0.0-3.0-13.0-4.0-1.3","spark_pilot_2","7398","5","16","Female","","","","","","","null","<div style=""font-size:60px;"">+</div>","null","fixation","","","","","","","","","","","","","",""
"learning-instructions","90","490812","0.0-3.0-13.0-5.0-0.0","spark_pilot_2","7398","5","16","Female","","","","","","","2049","<p> Time to play the dot game! </p>
            <p> For 15 seconds, click the red dots on the following screen as they appear. </p>","","instructions","","","","","","","","","","","","","",""
"revaluation","91","505831","0.0-3.0-13.0-6.0-0.0","spark_pilot_2","7398","5","16","Female","","","","","","","[247]","","","rest practice","","10","","","","","0","15000","","","","","",""
"learning-instructions","92","513213","0.0-3.0-13.0-7.0-0.0","spark_pilot_2","7398","5","16","Female","","","","","","","1051","<p> You have almost finished this part of the game! </p>
            <p> We are going to ask you to make a few more choices. </p>","","instructions","","","","","","","","","","","","","",""
"learning-instructions","93","528447","0.0-3.0-13.0-7.0-0.1","spark_pilot_2","7398","5","16","Female","","","","","","","934","<p> First, you need to decide whether to go up or down. When you see each picture, use the arrow keys to make your choice. </p>
            <p><b>You will not see which animal you found, but try to get to the one that will give you the most treasure.</b></p>","","instructions","","","","","","","","","","","","","",""
"revaluation","94","529851","0.0-3.0-13.0-8.0","spark_pilot_2","7398","5","16","Female","","false","","","","","[1400]","./assets/img/space/15.jpg","[""ArrowUp""]","practice block","space","0","{""ArrowUp,ArrowLeft"":3,""ArrowUp,ArrowRight"":36,""ArrowDown,ArrowLeft"":15,""ArrowDown,ArrowRight"":23}","true","ArrowUp","false","","","","","","","",""
"html-keyboard-response","95","530371","0.0-3.0-13.0-9.0","spark_pilot_2","7398","5","16","Female","","","","","","","null","<div style=""font-size:60px;"">+</div>","null","fixation","","","","","","","","","","","","","",""
"learning-instructions","96","544033","0.0-3.0-13.0-10.0-0.0","spark_pilot_2","7398","5","16","Female","","","","","","","1639","<p> Now you will see the animals again and can search their chests for treasure. </p>
            <p> This time, you will not see how much treasure you earned, but you will earn more bonus money for making better choices. </p>","","instructions","","","","","","","","","","","","","",""
"revaluation","97","545067","0.0-3.0-13.0-11.0-0.0","spark_pilot_2","7398","5","16","Female","","false","","","","","[1030]","./assets/img/space/animals/cat.jpg","[""ArrowRight""]","practice block","space","0","{""ArrowUp,ArrowLeft"":3,""ArrowUp,ArrowRight"":36,""ArrowDown,ArrowLeft"":15,""ArrowDown,ArrowRight"":23}","true","ArrowUp,ArrowRight","","","","","","","","",""
"html-keyboard-response","98","545571","0.0-3.0-13.0-11.0-1.0","spark_pilot_2","7398","5","16","Female","","","","","","","null","<div style=""font-size:60px;"">+</div>","null","fixation","","","","","","","","","","","","","",""
"revaluation","99","546620","0.0-3.0-13.0-11.0-0.1","spark_pilot_2","7398","5","16","Female","","false","","","","","[1043]","./assets/img/space/animals/rabbit.jpg","[""ArrowLeft""]","practice block","space","0","{""ArrowUp,ArrowLeft"":3,""ArrowUp,ArrowRight"":36,""ArrowDown,ArrowLeft"":15,""ArrowDown,ArrowRight"":23}","false","ArrowDown,ArrowLeft","","","","","","","","",""
"html-keyboard-response","100","547131","0.0-3.0-13.0-11.0-1.1","spark_pilot_2","7398","5","16","Female","","","","","","","null","<div style=""font-size:60px;"">+</div>","null","fixation","","","","","","","","","","","","","",""
"learning-instructions","101","553233","0.0-3.0-14.0-0.0","spark_pilot_2","7398","5","16","Female","","","","","","","1211","<p> Before you start, we're going to ask you a few questions about how the game works. </p>","","instructions","","","","","","","","","","","","","",""
"comp-q","102","560879","0.0-3.0-15.0-0.0-0.0","spark_pilot_2","7398","5","16","Female","","","","","","","1915","<p> <b> True or False? </b> </p>
            <p> There can be 50 pieces of treasure in a given animal's chest. </p>","0","comp_question","","","","false","","","","","","","","","",""
"comp-q","103","569673","0.0-3.0-15.0-0.0-1.0","spark_pilot_2","7398","5","16","Female","","","","","","","2069","<p> <b>Incorrect.</b> The amount of treasure in each chest can range from 0 to 40 pieces. </p>","0","comp_answer","","","","","","","","","","","","","",""
"comp-q","104","576492","0.0-3.0-15.0-0.1-0.1","spark_pilot_2","7398","5","16","Female","","","","","","","1247","<p> <b> True or False? </b> </p>
            <p> There can be 50 pieces of treasure in a given animal's chest. </p>","1","comp_question","","","","true","","","","","","","","","",""
"comp-q","105","586346","0.0-3.0-15.0-0.1-1.1","spark_pilot_2","7398","5","16","Female","","","","","","","3052","<p> <b> That's right! </b> The amount of treasure in each chest can range from 0 to 40 pieces. </p>","0","comp_answer","","","","","","","","","","","","","",""
"comp-q","106","595195","0.0-3.0-15.0-0.2-0.2","spark_pilot_2","7398","5","16","Female","","","","","","","1541","<p> <b> True or False? </b> </p><p> In this game, all animals have the same amount of treasure in their left and right chests. </p>","1","comp_question","","","","true","","","","","","","","","",""
"comp-q","107","602704","0.0-3.0-15.0-0.2-1.2","spark_pilot_2","7398","5","16","Female","","","","","","","2110","<p> <b> That's right! </b> Animals have different amounts of treasure in their treasure chests. </p>","0","comp_answer","","","","","","","","","","","","","",""
"comp-q","108","610117","0.0-3.0-15.0-0.3-0.3","spark_pilot_2","7398","5","16","Female","","","","","","","1390","<p> <b> True or False? </b> </p><p> The same animal will always be there if you go up in the same place. </p>","1","comp_question","","","","false","","","","","","","","","",""
"comp-q","109","618142","0.0-3.0-15.0-0.3-1.3","spark_pilot_2","7398","5","16","Female","","","","","","","1439","<p> <b>Incorrect.</b> One animal lives in the upper part and one lives in the lower part of every place. </p>","0","comp_answer","","","","","","","","","","","","","",""
"comp-q","110","625193","0.0-3.0-15.0-0.4-0.4","spark_pilot_2","7398","5","16","Female","","","","","","","1220","<p> <b> True or False? </b> </p><p> The same animal will always be there if you go up in the same place. </p>","0","comp_question","","","","true","","","","","","","","","",""
"comp-q","111","633568","0.0-3.0-15.0-0.4-1.4","spark_pilot_2","7398","5","16","Female","","","","","","","1715","<p> <b> That's right! </b> One animal lives in the upper part and one lives in the lower part of every place. </p>","0","comp_answer","","","","","","","","","","","","","",""
"comp-q","112","641455","0.0-3.0-15.0-0.5-0.5","spark_pilot_2","7398","5","16","Female","","","","","","","2161","<p> <b> True or False? </b> </p><p> If you see a different picture, it means you are in a new place. </p>","0","comp_question","","","","false","","","","","","","","","",""
"comp-q","113","655392","0.0-3.0-15.0-0.5-1.5","spark_pilot_2","7398","5","16","Female","","","","","","","2598","<p> <b>Incorrect.</b> Lots of different images may show the same place. For example,  you may see three different images that all remind you that you are in outer space. </p>","0","comp_answer","","","","","","","","","","","","","",""
"comp-q","114","662805","0.0-3.0-15.0-0.6-0.6","spark_pilot_2","7398","5","16","Female","","","","","","","1891","<p> <b> True or False? </b> </p><p> If you see a different picture, it means you are in a new place. </p>","1","comp_question","","","","true","","","","","","","","","",""
"comp-q","115","676742","0.0-3.0-15.0-0.6-1.6","spark_pilot_2","7398","5","16","Female","","","","","","","2458","<p> <b> That's right! </b> Lots of different images may show the same place. For example,  you may see three different images that all remind you that you are in outer space. </p>","0","comp_answer","","","","","","","","","","","","","",""
"learning-instructions","116","688952","0.0-3.0-16.0-0.0","spark_pilot_2","7398","5","16","Female","","","","","","","2158","<p> Good job. Remember to do your best because the amount of treasure you earn will be converted into bonus money. </p>
            <p> It’s time to start the real game! </p>","","instructions","","","","","","","","","","","","","",""
"learning-instructions","117","695808","0.0-4.0-0.0-0.0","spark_pilot_2","7398","5","16","Female","","","","","","","3955","<p> This time you are searching for treasure in the <b>canyon</b>.</p>","","instructions","","","","","","","","","","","","","",""
"learning-instructions","118","715301","0.0-4.0-0.0-0.1","spark_pilot_2","7398","5","16","Female","","","","","","","1896","<p><b>New</b> animals with <b>new</b> treasure chests live here. You need to explore to discover where the animal with the best treasure chest is.</p>
                    <p> Like before, once you figure out which animal has the chest with the most treasure, you should try to get to that animal and select that chest! </p>","","instructions","","","","","","","","","","","","","",""
"learning-instructions","119","730685","0.0-4.0-1.0-0.0","spark_pilot_2","7398","5","16","Female","","","","","","","641","<p> Remember, when you see a picture of the place, use the up and down keys to <b>find an animal</b>.</p>
            <p> When you encounter an animal, you should use the left and right keys to <b>select a treasure chest</b>.</p>
            <p> Don't forget to look out for the robber! </p>","","instructions","","","","","","","","","","","","","",""
"revaluation","120","736731","0.0-4.0-2.0-0.0","spark_pilot_2","7398","5","16","Female","","false","","","","","[1887,1014]","./assets/img/canyon/memory/5.jpg","[""ArrowUp"",""ArrowRight""]","value training","canyon","10","{""ArrowUp,ArrowLeft"":26,""ArrowUp,ArrowRight"":10,""ArrowDown,ArrowLeft"":5,""ArrowDown,ArrowRight"":17}","false","ArrowUp,ArrowRight","false","","","original","1","0","","",""
"html-keyboard-response","121","737251","0.0-4.0-2.0-1.0","spark_pilot_2","7398","5","16","Female","","","","","","","null","<div style=""font-size:60px;"">+</div>","null","fixation","","","","","","","","","","","1","","",""
"revaluation","122","743312","0.0-4.0-2.0-0.1","spark_pilot_2","7398","5","16","Female","","false","","","","","[801,908]","./assets/img/canyon/memory/7.jpg","[""ArrowUp"",""ArrowRight""]","value training","canyon","10","{""ArrowUp,ArrowLeft"":26,""ArrowUp,ArrowRight"":10,""ArrowDown,ArrowLeft"":5,""ArrowDown,ArrowRight"":17}","false","ArrowUp,ArrowRight","false","","","original","1","2","","",""
"html-keyboard-response","123","743832","0.0-4.0-2.0-1.1","spark_pilot_2","7398","5","16","Female","","","","","","","null","<div style=""font-size:60px;"">+</div>","null","fixation","","","","","","","","","","","3","","",""
"revaluation","124","747862","0.0-4.0-2.0-0.2","spark_pilot_2","7398","5","16","Female","","false","","","","","[1240]","./assets/img/canyon/catch/2.jpg","[""ArrowUp""]","value training","canyon","-10","{""ArrowUp,ArrowLeft"":26,""ArrowUp,ArrowRight"":10,""ArrowDown,ArrowLeft"":5,""ArrowDown,ArrowRight"":17}","false","ArrowUp","true","","","original","1","4","","",""
"html-keyboard-response","125","748371","0.0-4.0-2.0-1.2","spark_pilot_2","7398","5","16","Female","","","","","","","null","<div style=""font-size:60px;"">+</div>","null","fixation","","","","","","","","","","","5","","",""
"revaluation","126","754393","0.0-4.0-2.0-0.3","spark_pilot_2","7398","5","16","Female","","false","","","","","[1860,883]","./assets/img/canyon/memory/10.jpg","[""ArrowDown"",""ArrowLeft""]","value training","canyon","5","{""ArrowUp,ArrowLeft"":26,""ArrowUp,ArrowRight"":10,""ArrowDown,ArrowLeft"":5,""ArrowDown,ArrowRight"":17}","false","ArrowDown,ArrowLeft","false","","","original","1","6","","",""
"html-keyboard-response","127","754912","0.0-4.0-2.0-1.3","spark_pilot_2","7398","5","16","Female","","","","","","","null","<div style=""font-size:60px;"">+</div>","null","fixation","","","","","","","","","","","7","","",""
"revaluation","128","760951","0.0-4.0-2.0-0.4","spark_pilot_2","7398","5","16","Female","","false","","","","","[971,1547]","./assets/img/canyon/memory/15.jpg","[""ArrowUp"",""ArrowLeft""]","value training","canyon","26","{""ArrowUp,ArrowLeft"":26,""ArrowUp,ArrowRight"":10,""ArrowDown,ArrowLeft"":5,""ArrowDown,ArrowRight"":17}","true","ArrowUp,ArrowLeft","false","","","original","1","8","","",""
"html-keyboard-response","129","761471","0.0-4.0-2.0-1.4","spark_pilot_2","7398","5","16","Female","","","","","","","null","<div style=""font-size:60px;"">+</div>","null","fixation","","","","","","","","","","","9","","",""
"revaluation","130","765501","0.0-4.0-2.0-0.5","spark_pilot_2","7398","5","16","Female","","true","","","","","[]","./assets/img/canyon/memory/14.jpg","[]","value training","canyon","-5","{""ArrowUp,ArrowLeft"":26,""ArrowUp,ArrowRight"":10,""ArrowDown,ArrowLeft"":5,""ArrowDown,ArrowRight"":17}","false","","false","","","original","1","10","","",""
"html-keyboard-response","131","766021","0.0-4.0-2.0-1.5","spark_pilot_2","7398","5","16","Female","","","","","","","null","<div style=""font-size:60px;"">+</div>","null","fixation","","","","","","","","","","","11","","",""
"revaluation","132","772041","0.0-4.0-2.0-0.6","spark_pilot_2","7398","5","16","Female","","false","","","","","[1182,1550]","./assets/img/canyon/memory/2.jpg","[""ArrowUp"",""ArrowLeft""]","value training","canyon","26","{""ArrowUp,ArrowLeft"":26,""ArrowUp,ArrowRight"":10,""ArrowDown,ArrowLeft"":5,""ArrowDown,ArrowRight"":17}","true","ArrowUp,ArrowLeft","false","","","original","1","12","","",""
"html-keyboard-response","133","772561","0.0-4.0-2.0-1.6","spark_pilot_2","7398","5","16","Female","","","","","","","null","<div style=""font-size:60px;"">+</div>","null","fixation","","","","","","","","","","","13","","",""
"revaluation","134","778613","0.0-4.0-2.0-0.7","spark_pilot_2","7398","5","16","Female","","false","","","","","[1029,1127]","./assets/img/canyon/memory/0.jpg","[""ArrowUp"",""ArrowLeft""]","value training","canyon","26","{""ArrowUp,ArrowLeft"":26,""ArrowUp,ArrowRight"":10,""ArrowDown,ArrowLeft"":5,""ArrowDown,ArrowRight"":17}","true","ArrowUp,ArrowLeft","false","","","original","1","14","","",""
"html-keyboard-response","135","779132","0.0-4.0-2.0-1.7","spark_pilot_2","7398","5","16","Female","","","","","","","null","<div style=""font-size:60px;"">+</div>","null","fixation","","","","","","","","","","","15","","",""
"revaluation","136","783152","0.0-4.0-2.0-0.8","spark_pilot_2","7398","5","16","Female","","false","","","","","[904]","./assets/img/canyon/catch/5.jpg","[""spaceBar""]","value training","canyon","0","{""ArrowUp,ArrowLeft"":26,""ArrowUp,ArrowRight"":10,""ArrowDown,ArrowLeft"":5,""ArrowDown,ArrowRight"":17}","true","spaceBar","true","","","original","1","16","","",""
"html-keyboard-response","137","783672","0.0-4.0-2.0-1.8","spark_pilot_2","7398","5","16","Female","","","","","","","null","<div style=""font-size:60px;"">+</div>","null","fixation","","","","","","","","","","","17","","",""
"revaluation","138","789712","0.0-4.0-2.0-0.9","spark_pilot_2","7398","5","16","Female","","false","","","","","[1366,553]","./assets/img/canyon/memory/11.jpg","[""ArrowDown"",""ArrowRight""]","value training","canyon","17","{""ArrowUp,ArrowLeft"":26,""ArrowUp,ArrowRight"":10,""ArrowDown,ArrowLeft"":5,""ArrowDown,ArrowRight"":17}","false","ArrowDown,ArrowRight","false","","","original","1","18","","",""
"html-keyboard-response","139","790231","0.0-4.0-2.0-1.9","spark_pilot_2","7398","5","16","Female","","","","","","","null","<div style=""font-size:60px;"">+</div>","null","fixation","","","","","","","","","","","19","","",""
"revaluation","140","796262","0.0-4.0-2.0-0.10","spark_pilot_2","7398","5","16","Female","","false","","","","","[885,1422]","./assets/img/canyon/memory/18.jpg","[""ArrowUp"",""ArrowLeft""]","value training","canyon","26","{""ArrowUp,ArrowLeft"":26,""ArrowUp,ArrowRight"":10,""ArrowDown,ArrowLeft"":5,""ArrowDown,ArrowRight"":17}","true","ArrowUp,ArrowLeft","false","","","original","1","20","","",""
"html-keyboard-response","141","796781","0.0-4.0-2.0-1.10","spark_pilot_2","7398","5","16","Female","","","","","","","null","<div style=""font-size:60px;"">+</div>","null","fixation","","","","","","","","","","","21","","",""
"revaluation","142","802842","0.0-4.0-2.0-0.11","spark_pilot_2","7398","5","16","Female","","false","","","","","[1045,1131]","./assets/img/canyon/memory/4.jpg","[""ArrowUp"",""ArrowLeft""]","value training","canyon","26","{""ArrowUp,ArrowLeft"":26,""ArrowUp,ArrowRight"":10,""ArrowDown,ArrowLeft"":5,""ArrowDown,ArrowRight"":17}","true","ArrowUp,ArrowLeft","false","","","original","1","22","","",""
"html-keyboard-response","143","803359","0.0-4.0-2.0-1.11","spark_pilot_2","7398","5","16","Female","","","","","","","null","<div style=""font-size:60px;"">+</div>","null","fixation","","","","","","","","","","","23","","",""
"revaluation","144","809422","0.0-4.0-2.0-0.12","spark_pilot_2","7398","5","16","Female","","false","","","","","[1079,938]","./assets/img/canyon/memory/19.jpg","[""ArrowUp"",""ArrowLeft""]","value training","canyon","26","{""ArrowUp,ArrowLeft"":26,""ArrowUp,ArrowRight"":10,""ArrowDown,ArrowLeft"":5,""ArrowDown,ArrowRight"":17}","true","ArrowUp,ArrowLeft","false","","","original","1","24","","",""
"html-keyboard-response","145","809932","0.0-4.0-2.0-1.12","spark_pilot_2","7398","5","16","Female","","","","","","","null","<div style=""font-size:60px;"">+</div>","null","fixation","","","","","","","","","","","25","","",""
"revaluation","146","815971","0.0-4.0-2.0-0.13","spark_pilot_2","7398","5","16","Female","","false","","","","","[849,923]","./assets/img/canyon/memory/1.jpg","[""ArrowUp"",""ArrowLeft""]","value training","canyon","26","{""ArrowUp,ArrowLeft"":26,""ArrowUp,ArrowRight"":10,""ArrowDown,ArrowLeft"":5,""ArrowDown,ArrowRight"":17}","true","ArrowUp,ArrowLeft","false","","","original","1","26","","",""
"html-keyboard-response","147","816491","0.0-4.0-2.0-1.13","spark_pilot_2","7398","5","16","Female","","","","","","","null","<div style=""font-size:60px;"">+</div>","null","fixation","","","","","","","","","","","27","","",""
"revaluation","148","822532","0.0-4.0-2.0-0.14","spark_pilot_2","7398","5","16","Female","","false","","","","","[831,534]","./assets/img/canyon/memory/1.jpg","[""ArrowUp"",""ArrowLeft""]","value training","canyon","26","{""ArrowUp,ArrowLeft"":26,""ArrowUp,ArrowRight"":10,""ArrowDown,ArrowLeft"":5,""ArrowDown,ArrowRight"":17}","true","ArrowUp,ArrowLeft","false","","","original","1","28","","",""
"html-keyboard-response","149","823051","0.0-4.0-2.0-1.14","spark_pilot_2","7398","5","16","Female","","","","","","","null","<div style=""font-size:60px;"">+</div>","null","fixation","","","","","","","","","","","29","","",""
"revaluation","150","829102","0.0-4.0-2.0-0.15","spark_pilot_2","7398","5","16","Female","","false","","","","","[963,1065]","./assets/img/canyon/memory/17.jpg","[""ArrowUp"",""ArrowLeft""]","value training","canyon","26","{""ArrowUp,ArrowLeft"":26,""ArrowUp,ArrowRight"":10,""ArrowDown,ArrowLeft"":5,""ArrowDown,ArrowRight"":17}","true","ArrowUp,ArrowLeft","false","","","original","1","30","","",""
"html-keyboard-response","151","829622","0.0-4.0-2.0-1.15","spark_pilot_2","7398","5","16","Female","","","","","","","null","<div style=""font-size:60px;"">+</div>","null","fixation","","","","","","","","","","","31","","",""
"revaluation","152","835661","0.0-4.0-2.0-0.16","spark_pilot_2","7398","5","16","Female","","false","","","","","[828,852]","./assets/img/canyon/memory/3.jpg","[""ArrowUp"",""ArrowLeft""]","value training","canyon","26","{""ArrowUp,ArrowLeft"":26,""ArrowUp,ArrowRight"":10,""ArrowDown,ArrowLeft"":5,""ArrowDown,ArrowRight"":17}","true","ArrowUp,ArrowLeft","false","","","original","1","32","","",""
"html-keyboard-response","153","836181","0.0-4.0-2.0-1.16","spark_pilot_2","7398","5","16","Female","","","","","","","null","<div style=""font-size:60px;"">+</div>","null","fixation","","","","","","","","","","","33","","",""
"revaluation","154","842222","0.0-4.0-2.0-0.17","spark_pilot_2","7398","5","16","Female","","false","","","","","[724,945]","./assets/img/canyon/memory/2.jpg","[""ArrowUp"",""ArrowLeft""]","value training","canyon","26","{""ArrowUp,ArrowLeft"":26,""ArrowUp,ArrowRight"":10,""ArrowDown,ArrowLeft"":5,""ArrowDown,ArrowRight"":17}","true","ArrowUp,ArrowLeft","false","","","original","1","34","","",""
"html-keyboard-response","155","842741","0.0-4.0-2.0-1.17","spark_pilot_2","7398","5","16","Female","","","","","","","null","<div style=""font-size:60px;"">+</div>","null","fixation","","","","","","","","","","","35","","",""
"revaluation","156","848802","0.0-4.0-2.0-0.18","spark_pilot_2","7398","5","16","Female","","false","","","","","[1030,863]","./assets/img/canyon/memory/19.jpg","[""ArrowUp"",""ArrowLeft""]","value training","canyon","26","{""ArrowUp,ArrowLeft"":26,""ArrowUp,ArrowRight"":10,""ArrowDown,ArrowLeft"":5,""ArrowDown,ArrowRight"":17}","true","ArrowUp,ArrowLeft","false","","","original","1","36","","",""
"html-keyboard-response","157","849321","0.0-4.0-2.0-1.18","spark_pilot_2","7398","5","16","Female","","","","","","","null","<div style=""font-size:60px;"">+</div>","null","fixation","","","","","","","","","","","37","","",""
"revaluation","158","853362","0.0-4.0-2.0-0.19","spark_pilot_2","7398","5","16","Female","","false","","","","","[749]","./assets/img/canyon/catch/1.jpg","[""spaceBar""]","value training","canyon","0","{""ArrowUp,ArrowLeft"":26,""ArrowUp,ArrowRight"":10,""ArrowDown,ArrowLeft"":5,""ArrowDown,ArrowRight"":17}","true","spaceBar","true","","","original","1","38","","",""
"html-keyboard-response","159","853882","0.0-4.0-2.0-1.19","spark_pilot_2","7398","5","16","Female","","","","","","","null","<div style=""font-size:60px;"">+</div>","null","fixation","","","","","","","","","","","39","","",""
"revaluation","160","859922","0.0-4.0-2.0-0.20","spark_pilot_2","7398","5","16","Female","","false","","","","","[938,889]","./assets/img/canyon/memory/15.jpg","[""ArrowUp"",""ArrowLeft""]","value training","canyon","26","{""ArrowUp,ArrowLeft"":26,""ArrowUp,ArrowRight"":10,""ArrowDown,ArrowLeft"":5,""ArrowDown,ArrowRight"":17}","true","ArrowUp,ArrowLeft","false","","","original","1","40","","",""
"html-keyboard-response","161","860441","0.0-4.0-2.0-1.20","spark_pilot_2","7398","5","16","Female","","","","","","","null","<div style=""font-size:60px;"">+</div>","null","fixation","","","","","","","","","","","41","","",""
"revaluation","162","866502","0.0-4.0-2.0-0.21","spark_pilot_2","7398","5","16","Female","","false","","","","","[694,730]","./assets/img/canyon/memory/3.jpg","[""ArrowUp"",""ArrowLeft""]","value training","canyon","26","{""ArrowUp,ArrowLeft"":26,""ArrowUp,ArrowRight"":10,""ArrowDown,ArrowLeft"":5,""ArrowDown,ArrowRight"":17}","true","ArrowUp,ArrowLeft","false","","","original","1","42","","",""
"html-keyboard-response","163","867021","0.0-4.0-2.0-1.21","spark_pilot_2","7398","5","16","Female","","","","","","","null","<div style=""font-size:60px;"">+</div>","null","fixation","","","","","","","","","","","43","","",""
"revaluation","164","873062","0.0-4.0-2.0-0.22","spark_pilot_2","7398","5","16","Female","","false","","","","","[980,1046]","./assets/img/canyon/memory/5.jpg","[""ArrowUp"",""ArrowLeft""]","value training","canyon","26","{""ArrowUp,ArrowLeft"":26,""ArrowUp,ArrowRight"":10,""ArrowDown,ArrowLeft"":5,""ArrowDown,ArrowRight"":17}","true","ArrowUp,ArrowLeft","false","","","original","1","44","","",""
"html-keyboard-response","165","873580","0.0-4.0-2.0-1.22","spark_pilot_2","7398","5","16","Female","","","","","","","null","<div style=""font-size:60px;"">+</div>","null","fixation","","","","","","","","","","","45","","",""
"revaluation","166","877621","0.0-4.0-2.0-0.23","spark_pilot_2","7398","5","16","Female","","false","","","","","[875]","./assets/img/canyon/catch/0.jpg","[""spaceBar""]","value training","canyon","0","{""ArrowUp,ArrowLeft"":26,""ArrowUp,ArrowRight"":10,""ArrowDown,ArrowLeft"":5,""ArrowDown,ArrowRight"":17}","true","spaceBar","true","","","original","1","46","","",""
"html-keyboard-response","167","878141","0.0-4.0-2.0-1.23","spark_pilot_2","7398","5","16","Female","","","","","","","null","<div style=""font-size:60px;"">+</div>","null","fixation","","","","","","","","","","","47","","",""
"revaluation","168","884202","0.0-4.0-2.0-0.24","spark_pilot_2","7398","5","16","Female","","false","","","","","[801,710]","./assets/img/canyon/memory/16.jpg","[""ArrowUp"",""ArrowLeft""]","value training","canyon","26","{""ArrowUp,ArrowLeft"":26,""ArrowUp,ArrowRight"":10,""ArrowDown,ArrowLeft"":5,""ArrowDown,ArrowRight"":17}","true","ArrowUp,ArrowLeft","false","","","original","1","48","","",""
"html-keyboard-response","169","884722","0.0-4.0-2.0-1.24","spark_pilot_2","7398","5","16","Female","","","","","","","null","<div style=""font-size:60px;"">+</div>","null","fixation","","","","","","","","","","","49","","",""
"revaluation","170","888752","0.0-4.0-2.0-0.25","spark_pilot_2","7398","5","16","Female","","false","","","","","[830]","./assets/img/canyon/catch/7.jpg","[""spaceBar""]","value training","canyon","0","{""ArrowUp,ArrowLeft"":26,""ArrowUp,ArrowRight"":10,""ArrowDown,ArrowLeft"":5,""ArrowDown,ArrowRight"":17}","true","spaceBar","true","","","original","1","50","","",""
"html-keyboard-response","171","889261","0.0-4.0-2.0-1.25","spark_pilot_2","7398","5","16","Female","","","","","","","null","<div style=""font-size:60px;"">+</div>","null","fixation","","","","","","","","","","","51","","",""
"revaluation","172","895322","0.0-4.0-2.0-0.26","spark_pilot_2","7398","5","16","Female","","false","","","","","[942,745]","./assets/img/canyon/memory/20.jpg","[""ArrowUp"",""ArrowLeft""]","value training","canyon","26","{""ArrowUp,ArrowLeft"":26,""ArrowUp,ArrowRight"":10,""ArrowDown,ArrowLeft"":5,""ArrowDown,ArrowRight"":17}","true","ArrowUp,ArrowLeft","false","","","original","1","52","","",""
"html-keyboard-response","173","895841","0.0-4.0-2.0-1.26","spark_pilot_2","7398","5","16","Female","","","","","","","null","<div style=""font-size:60px;"">+</div>","null","fixation","","","","","","","","","","","53","","",""
"revaluation","174","899862","0.0-4.0-2.0-0.27","spark_pilot_2","7398","5","16","Female","","false","","","","","[658]","./assets/img/canyon/catch/3.jpg","[""spaceBar""]","value training","canyon","0","{""ArrowUp,ArrowLeft"":26,""ArrowUp,ArrowRight"":10,""ArrowDown,ArrowLeft"":5,""ArrowDown,ArrowRight"":17}","true","spaceBar","true","","","original","1","54","","",""
"html-keyboard-response","175","900381","0.0-4.0-2.0-1.27","spark_pilot_2","7398","5","16","Female","","","","","","","null","<div style=""font-size:60px;"">+</div>","null","fixation","","","","","","","","","","","55","","",""
"revaluation","176","906422","0.0-4.0-2.0-0.28","spark_pilot_2","7398","5","16","Female","","false","","","","","[776,503]","./assets/img/canyon/memory/13.jpg","[""ArrowUp"",""ArrowLeft""]","value training","canyon","26","{""ArrowUp,ArrowLeft"":26,""ArrowUp,ArrowRight"":10,""ArrowDown,ArrowLeft"":5,""ArrowDown,ArrowRight"":17}","true","ArrowUp,ArrowLeft","false","","","original","1","56","","",""
"html-keyboard-response","177","906942","0.0-4.0-2.0-1.28","spark_pilot_2","7398","5","16","Female","","","","","","","null","<div style=""font-size:60px;"">+</div>","null","fixation","","","","","","","","","","","57","","",""
"revaluation","178","912982","0.0-4.0-2.0-0.29","spark_pilot_2","7398","5","16","Female","","false","","","","","[1072,884]","./assets/img/canyon/memory/12.jpg","[""ArrowUp"",""ArrowLeft""]","value training","canyon","26","{""ArrowUp,ArrowLeft"":26,""ArrowUp,ArrowRight"":10,""ArrowDown,ArrowLeft"":5,""ArrowDown,ArrowRight"":17}","true","ArrowUp,ArrowLeft","false","","","original","1","58","","",""
"html-keyboard-response","179","913501","0.0-4.0-2.0-1.29","spark_pilot_2","7398","5","16","Female","","","","","","","null","<div style=""font-size:60px;"">+</div>","null","fixation","","","","","","","","","","","59","","",""
"revaluation","180","919562","0.0-4.0-2.0-0.30","spark_pilot_2","7398","5","16","Female","","false","","","","","[1048,905]","./assets/img/canyon/memory/8.jpg","[""ArrowUp"",""ArrowLeft""]","value training","canyon","26","{""ArrowUp,ArrowLeft"":26,""ArrowUp,ArrowRight"":10,""ArrowDown,ArrowLeft"":5,""ArrowDown,ArrowRight"":17}","true","ArrowUp,ArrowLeft","false","","","original","1","60","","",""
"html-keyboard-response","181","920081","0.0-4.0-2.0-1.30","spark_pilot_2","7398","5","16","Female","","","","","","","null","<div style=""font-size:60px;"">+</div>","null","fixation","","","","","","","","","","","61","","",""
"revaluation","182","926142","0.0-4.0-2.0-0.31","spark_pilot_2","7398","5","16","Female","","false","","","","","[975,1124]","./assets/img/canyon/memory/6.jpg","[""ArrowUp"",""ArrowLeft""]","value training","canyon","26","{""ArrowUp,ArrowLeft"":26,""ArrowUp,ArrowRight"":10,""ArrowDown,ArrowLeft"":5,""ArrowDown,ArrowRight"":17}","true","ArrowUp,ArrowLeft","false","","","original","1","62","","",""
"html-keyboard-response","183","926661","0.0-4.0-2.0-1.31","spark_pilot_2","7398","5","16","Female","","","","","","","null","<div style=""font-size:60px;"">+</div>","null","fixation","","","","","","","","","","","63","","",""
"revaluation","184","930702","0.0-4.0-2.0-0.32","spark_pilot_2","7398","5","16","Female","","false","","","","","[755]","./assets/img/canyon/catch/4.jpg","[""spaceBar""]","value training","canyon","0","{""ArrowUp,ArrowLeft"":26,""ArrowUp,ArrowRight"":10,""ArrowDown,ArrowLeft"":5,""ArrowDown,ArrowRight"":17}","true","spaceBar","true","","","original","1","64","","",""
"html-keyboard-response","185","931222","0.0-4.0-2.0-1.32","spark_pilot_2","7398","5","16","Female","","","","","","","null","<div style=""font-size:60px;"">+</div>","null","fixation","","","","","","","","","","","65","","",""
"revaluation","186","937263","0.0-4.0-2.0-0.33","spark_pilot_2","7398","5","16","Female","","false","","","","","[895,1133]","./assets/img/canyon/memory/10.jpg","[""ArrowUp"",""ArrowLeft""]","value training","canyon","26","{""ArrowUp,ArrowLeft"":26,""ArrowUp,ArrowRight"":10,""ArrowDown,ArrowLeft"":5,""ArrowDown,ArrowRight"":17}","true","ArrowUp,ArrowLeft","false","","","original","1","66","","",""
"html-keyboard-response","187","937781","0.0-4.0-2.0-1.33","spark_pilot_2","7398","5","16","Female","","","","","","","null","<div style=""font-size:60px;"">+</div>","null","fixation","","","","","","","","","","","67","","",""
"revaluation","188","943832","0.0-4.0-2.0-0.34","spark_pilot_2","7398","5","16","Female","","false","","","","","[1173,1083]","./assets/img/canyon/memory/4.jpg","[""ArrowUp"",""ArrowLeft""]","value training","canyon","26","{""ArrowUp,ArrowLeft"":26,""ArrowUp,ArrowRight"":10,""ArrowDown,ArrowLeft"":5,""ArrowDown,ArrowRight"":17}","true","ArrowUp,ArrowLeft","false","","","original","1","68","","",""
"html-keyboard-response","189","944352","0.0-4.0-2.0-1.34","spark_pilot_2","7398","5","16","Female","","","","","","","null","<div style=""font-size:60px;"">+</div>","null","fixation","","","","","","","","","","","69","","",""
"revaluation","190","950402","0.0-4.0-2.0-0.35","spark_pilot_2","7398","5","16","Female","","false","","","","","[656,1165]","./assets/img/canyon/memory/16.jpg","[""ArrowUp"",""ArrowLeft""]","value training","canyon","26","{""ArrowUp,ArrowLeft"":26,""ArrowUp,ArrowRight"":10,""ArrowDown,ArrowLeft"":5,""ArrowDown,ArrowRight"":17}","true","ArrowUp,ArrowLeft","false","","","original","1","70","","",""
"html-keyboard-response","191","950921","0.0-4.0-2.0-1.35","spark_pilot_2","7398","5","16","Female","","","","","","","null","<div style=""font-size:60px;"">+</div>","null","fixation","","","","","","","","","","","71","","",""
"revaluation","192","956972","0.0-4.0-2.0-0.36","spark_pilot_2","7398","5","16","Female","","false","","","","","[887,762]","./assets/img/canyon/memory/11.jpg","[""ArrowUp"",""ArrowLeft""]","value training","canyon","26","{""ArrowUp,ArrowLeft"":26,""ArrowUp,ArrowRight"":10,""ArrowDown,ArrowLeft"":5,""ArrowDown,ArrowRight"":17}","true","ArrowUp,ArrowLeft","false","","","original","1","72","","",""
"html-keyboard-response","193","957491","0.0-4.0-2.0-1.36","spark_pilot_2","7398","5","16","Female","","","","","","","null","<div style=""font-size:60px;"">+</div>","null","fixation","","","","","","","","","","","73","","",""
"revaluation","194","963552","0.0-4.0-2.0-0.37","spark_pilot_2","7398","5","16","Female","","false","","","","","[830,933]","./assets/img/canyon/memory/20.jpg","[""ArrowUp"",""ArrowLeft""]","value training","canyon","26","{""ArrowUp,ArrowLeft"":26,""ArrowUp,ArrowRight"":10,""ArrowDown,ArrowLeft"":5,""ArrowDown,ArrowRight"":17}","true","ArrowUp,ArrowLeft","false","","","original","1","74","","",""
"html-keyboard-response","195","964071","0.0-4.0-2.0-1.37","spark_pilot_2","7398","5","16","Female","","","","","","","null","<div style=""font-size:60px;"">+</div>","null","fixation","","","","","","","","","","","75","","",""
"revaluation","196","970112","0.0-4.0-2.0-0.38","spark_pilot_2","7398","5","16","Female","","false","","","","","[620,630]","./assets/img/canyon/memory/13.jpg","[""ArrowUp"",""ArrowLeft""]","value training","canyon","26","{""ArrowUp,ArrowLeft"":26,""ArrowUp,ArrowRight"":10,""ArrowDown,ArrowLeft"":5,""ArrowDown,ArrowRight"":17}","true","ArrowUp,ArrowLeft","false","","","original","1","76","","",""
"html-keyboard-response","197","970631","0.0-4.0-2.0-1.38","spark_pilot_2","7398","5","16","Female","","","","","","","null","<div style=""font-size:60px;"">+</div>","null","fixation","","","","","","","","","","","77","","",""
"revaluation","198","976691","0.0-4.0-2.0-0.39","spark_pilot_2","7398","5","16","Female","","false","","","","","[717,640]","./assets/img/canyon/memory/12.jpg","[""ArrowUp"",""ArrowLeft""]","value training","canyon","26","{""ArrowUp,ArrowLeft"":26,""ArrowUp,ArrowRight"":10,""ArrowDown,ArrowLeft"":5,""ArrowDown,ArrowRight"":17}","true","ArrowUp,ArrowLeft","false","","","original","1","78","","",""
"html-keyboard-response","199","977211","0.0-4.0-2.0-1.39","spark_pilot_2","7398","5","16","Female","","","","","","","null","<div style=""font-size:60px;"">+</div>","null","fixation","","","","","","","","","","","79","","",""
"revaluation","200","983243","0.0-4.0-2.0-0.40","spark_pilot_2","7398","5","16","Female","","false","","","","","[814,607]","./assets/img/canyon/memory/8.jpg","[""ArrowUp"",""ArrowLeft""]","value training","canyon","26","{""ArrowUp,ArrowLeft"":26,""ArrowUp,ArrowRight"":10,""ArrowDown,ArrowLeft"":5,""ArrowDown,ArrowRight"":17}","true","ArrowUp,ArrowLeft","false","","","original","1","80","","",""
"html-keyboard-response","201","983761","0.0-4.0-2.0-1.40","spark_pilot_2","7398","5","16","Female","","","","","","","null","<div style=""font-size:60px;"">+</div>","null","fixation","","","","","","","","","","","81","","",""
"revaluation","202","989812","0.0-4.0-2.0-0.41","spark_pilot_2","7398","5","16","Female","","false","","","","","[860,994]","./assets/img/canyon/memory/9.jpg","[""ArrowUp"",""ArrowRight""]","value training","canyon","10","{""ArrowUp,ArrowLeft"":26,""ArrowUp,ArrowRight"":10,""ArrowDown,ArrowLeft"":5,""ArrowDown,ArrowRight"":17}","false","ArrowUp,ArrowRight","false","","","original","1","82","","",""
"html-keyboard-response","203","990331","0.0-4.0-2.0-1.41","spark_pilot_2","7398","5","16","Female","","","","","","","null","<div style=""font-size:60px;"">+</div>","null","fixation","","","","","","","","","","","83","","",""
"revaluation","204","994362","0.0-4.0-2.0-0.42","spark_pilot_2","7398","5","16","Female","","false","","","","","[680]","./assets/img/canyon/catch/6.jpg","[""spaceBar""]","value training","canyon","0","{""ArrowUp,ArrowLeft"":26,""ArrowUp,ArrowRight"":10,""ArrowDown,ArrowLeft"":5,""ArrowDown,ArrowRight"":17}","true","spaceBar","true","","","original","1","84","","",""
"html-keyboard-response","205","994882","0.0-4.0-2.0-1.42","spark_pilot_2","7398","5","16","Female","","","","","","","null","<div style=""font-size:60px;"">+</div>","null","fixation","","","","","","","","","","","85","","",""
"revaluation","206","1000922","0.0-4.0-2.0-0.43","spark_pilot_2","7398","5","16","Female","","false","","","","","[712,497]","./assets/img/canyon/memory/6.jpg","[""ArrowUp"",""ArrowLeft""]","value training","canyon","26","{""ArrowUp,ArrowLeft"":26,""ArrowUp,ArrowRight"":10,""ArrowDown,ArrowLeft"":5,""ArrowDown,ArrowRight"":17}","true","ArrowUp,ArrowLeft","false","","","original","1","86","","",""
"html-keyboard-response","207","1001442","0.0-4.0-2.0-1.43","spark_pilot_2","7398","5","16","Female","","","","","","","null","<div style=""font-size:60px;"">+</div>","null","fixation","","","","","","","","","","","87","","",""
"revaluation","208","1007482","0.0-4.0-2.0-0.44","spark_pilot_2","7398","5","16","Female","","false","","","","","[691,683]","./assets/img/canyon/memory/7.jpg","[""ArrowUp"",""ArrowLeft""]","value training","canyon","26","{""ArrowUp,ArrowLeft"":26,""ArrowUp,ArrowRight"":10,""ArrowDown,ArrowLeft"":5,""ArrowDown,ArrowRight"":17}","true","ArrowUp,ArrowLeft","false","","","original","1","88","","",""
"html-keyboard-response","209","1008002","0.0-4.0-2.0-1.44","spark_pilot_2","7398","5","16","Female","","","","","","","null","<div style=""font-size:60px;"">+</div>","null","fixation","","","","","","","","","","","89","","",""
"revaluation","210","1014042","0.0-4.0-2.0-0.45","spark_pilot_2","7398","5","16","Female","","false","","","","","[824,512]","./assets/img/canyon/memory/0.jpg","[""ArrowUp"",""ArrowLeft""]","value training","canyon","26","{""ArrowUp,ArrowLeft"":26,""ArrowUp,ArrowRight"":10,""ArrowDown,ArrowLeft"":5,""ArrowDown,ArrowRight"":17}","true","ArrowUp,ArrowLeft","false","","","original","1","90","","",""
"html-keyboard-response","211","1014562","0.0-4.0-2.0-1.45","spark_pilot_2","7398","5","16","Female","","","","","","","null","<div style=""font-size:60px;"">+</div>","null","fixation","","","","","","","","","","","91","","",""
"revaluation","212","1020622","0.0-4.0-2.0-0.46","spark_pilot_2","7398","5","16","Female","","false","","","","","[644,585]","./assets/img/canyon/memory/9.jpg","[""ArrowUp"",""ArrowLeft""]","value training","canyon","26","{""ArrowUp,ArrowLeft"":26,""ArrowUp,ArrowRight"":10,""ArrowDown,ArrowLeft"":5,""ArrowDown,ArrowRight"":17}","true","ArrowUp,ArrowLeft","false","","","original","1","92","","",""
"html-keyboard-response","213","1021142","0.0-4.0-2.0-1.46","spark_pilot_2","7398","5","16","Female","","","","","","","null","<div style=""font-size:60px;"">+</div>","null","fixation","","","","","","","","","","","93","","",""
"revaluation","214","1027182","0.0-4.0-2.0-0.47","spark_pilot_2","7398","5","16","Female","","false","","","","","[1671,579]","./assets/img/canyon/memory/14.jpg","[""ArrowUp"",""ArrowLeft""]","value training","canyon","26","{""ArrowUp,ArrowLeft"":26,""ArrowUp,ArrowRight"":10,""ArrowDown,ArrowLeft"":5,""ArrowDown,ArrowRight"":17}","true","ArrowUp,ArrowLeft","false","","","original","1","94","","",""
"html-keyboard-response","215","1027701","0.0-4.0-2.0-1.47","spark_pilot_2","7398","5","16","Female","","","","","","","null","<div style=""font-size:60px;"">+</div>","null","fixation","","","","","","","","","","","95","","",""
"revaluation","216","1033742","0.0-4.0-2.0-0.48","spark_pilot_2","7398","5","16","Female","","false","","","","","[978,639]","./assets/img/canyon/memory/18.jpg","[""ArrowUp"",""ArrowLeft""]","value training","canyon","26","{""ArrowUp,ArrowLeft"":26,""ArrowUp,ArrowRight"":10,""ArrowDown,ArrowLeft"":5,""ArrowDown,ArrowRight"":17}","true","ArrowUp,ArrowLeft","false","","","original","1","96","","",""
"html-keyboard-response","217","1034261","0.0-4.0-2.0-1.48","spark_pilot_2","7398","5","16","Female","","","","","","","null","<div style=""font-size:60px;"">+</div>","null","fixation","","","","","","","","","","","97","","",""
"revaluation","218","1040292","0.0-4.0-2.0-0.49","spark_pilot_2","7398","5","16","Female","","false","","","","","[766,631]","./assets/img/canyon/memory/17.jpg","[""ArrowUp"",""ArrowLeft""]","value training","canyon","26","{""ArrowUp,ArrowLeft"":26,""ArrowUp,ArrowRight"":10,""ArrowDown,ArrowLeft"":5,""ArrowDown,ArrowRight"":17}","true","ArrowUp,ArrowLeft","false","","","original","1","98","","",""
"html-keyboard-response","219","1040811","0.0-4.0-2.0-1.49","spark_pilot_2","7398","5","16","Female","","","","","","","null","<div style=""font-size:60px;"">+</div>","null","fixation","","","","","","","","","","","99","","",""
"learning-instructions","220","1059943","0.0-4.0-3.0-0.0","spark_pilot_2","7398","5","16","Female","","","","","","","6239","<p> Now, you will travel with a friend who will choose whether you go up or down first. </p>
            <p> On these turns, you will just see the animal that they found. You will still get to choose which chest to search for treasure.</p>","","instructions","","","","","","","","","","","","","",""
"revaluation","221","1063982","0.0-4.0-4.0-0.0","spark_pilot_2","7398","5","16","Female","","false","","","","","[1645]","./assets/img/canyon/animals/lion.jpg","[""ArrowLeft""]","revaluation","canyon","26","{""ArrowUp,ArrowLeft"":26,""ArrowUp,ArrowRight"":10,""ArrowDown,ArrowLeft"":5,""ArrowDown,ArrowRight"":17}","true","ArrowUp,ArrowLeft","","","","original","1","0","","",""
"html-keyboard-response","222","1064501","0.0-4.0-4.0-1.0","spark_pilot_2","7398","5","16","Female","","","","","","","null","<div style=""font-size:60px;"">+</div>","null","fixation","","","","","","","","","","","1","","",""
"revaluation","223","1068542","0.0-4.0-4.0-0.1","spark_pilot_2","7398","5","16","Female","","false","","","","","[909]","./assets/img/canyon/animals/lion.jpg","[""ArrowLeft""]","revaluation","canyon","26","{""ArrowUp,ArrowLeft"":26,""ArrowUp,ArrowRight"":10,""ArrowDown,ArrowLeft"":5,""ArrowDown,ArrowRight"":17}","true","ArrowUp,ArrowLeft","","","","original","1","2","","",""
"html-keyboard-response","224","1069061","0.0-4.0-4.0-1.1","spark_pilot_2","7398","5","16","Female","","","","","","","null","<div style=""font-size:60px;"">+</div>","null","fixation","","","","","","","","","","","3","","",""
"revaluation","225","1073102","0.0-4.0-4.0-0.2","spark_pilot_2","7398","5","16","Female","","false","","","","","[689]","./assets/img/canyon/animals/lion.jpg","[""ArrowLeft""]","revaluation","canyon","26","{""ArrowUp,ArrowLeft"":26,""ArrowUp,ArrowRight"":10,""ArrowDown,ArrowLeft"":5,""ArrowDown,ArrowRight"":17}","true","ArrowUp,ArrowLeft","","","","original","1","4","","",""
"html-keyboard-response","226","1073622","0.0-4.0-4.0-1.2","spark_pilot_2","7398","5","16","Female","","","","","","","null","<div style=""font-size:60px;"">+</div>","null","fixation","","","","","","","","","","","5","","",""
"revaluation","227","1077662","0.0-4.0-4.0-0.3","spark_pilot_2","7398","5","16","Female","","false","","","","","[562]","./assets/img/canyon/animals/lion.jpg","[""ArrowLeft""]","revaluation","canyon","26","{""ArrowUp,ArrowLeft"":26,""ArrowUp,ArrowRight"":10,""ArrowDown,ArrowLeft"":5,""ArrowDown,ArrowRight"":17}","true","ArrowUp,ArrowLeft","","","","original","1","6","","",""
"html-keyboard-response","228","1078182","0.0-4.0-4.0-1.3","spark_pilot_2","7398","5","16","Female","","","","","","","null","<div style=""font-size:60px;"">+</div>","null","fixation","","","","","","","","","","","7","","",""
"revaluation","229","1082212","0.0-4.0-4.0-0.4","spark_pilot_2","7398","5","16","Female","","false","","","","","[486]","./assets/img/canyon/animals/lion.jpg","[""ArrowLeft""]","revaluation","canyon","26","{""ArrowUp,ArrowLeft"":26,""ArrowUp,ArrowRight"":10,""ArrowDown,ArrowLeft"":5,""ArrowDown,ArrowRight"":17}","true","ArrowUp,ArrowLeft","","","","original","1","8","","",""
"html-keyboard-response","230","1082731","0.0-4.0-4.0-1.4","spark_pilot_2","7398","5","16","Female","","","","","","","null","<div style=""font-size:60px;"">+</div>","null","fixation","","","","","","","","","","","9","","",""
"revaluation","231","1086767","0.0-4.0-4.0-0.5","spark_pilot_2","7398","5","16","Female","","false","","","","","[1304]","./assets/img/canyon/animals/giraffe.jpg","[""ArrowRight""]","revaluation","canyon","17","{""ArrowUp,ArrowLeft"":26,""ArrowUp,ArrowRight"":10,""ArrowDown,ArrowLeft"":5,""ArrowDown,ArrowRight"":17}","true","ArrowDown,ArrowRight","","","","original","1","10","","",""
"html-keyboard-response","232","1087270","0.0-4.0-4.0-1.5","spark_pilot_2","7398","5","16","Female","","","","","","","null","<div style=""font-size:60px;"">+</div>","null","fixation","","","","","","","","","","","11","","",""
"revaluation","233","1091313","0.0-4.0-4.0-0.6","spark_pilot_2","7398","5","16","Female","","false","","","","","[1356]","./assets/img/canyon/animals/giraffe.jpg","[""ArrowLeft""]","revaluation","canyon","5","{""ArrowUp,ArrowLeft"":26,""ArrowUp,ArrowRight"":10,""ArrowDown,ArrowLeft"":5,""ArrowDown,ArrowRight"":17}","false","ArrowDown,ArrowLeft","","","","original","1","12","","",""
"html-keyboard-response","234","1091831","0.0-4.0-4.0-1.6","spark_pilot_2","7398","5","16","Female","","","","","","","null","<div style=""font-size:60px;"">+</div>","null","fixation","","","","","","","","","","","13","","",""
"revaluation","235","1095872","0.0-4.0-4.0-0.7","spark_pilot_2","7398","5","16","Female","","false","","","","","[1273]","./assets/img/canyon/animals/lion.jpg","[""ArrowLeft""]","revaluation","canyon","26","{""ArrowUp,ArrowLeft"":26,""ArrowUp,ArrowRight"":10,""ArrowDown,ArrowLeft"":5,""ArrowDown,ArrowRight"":17}","true","ArrowUp,ArrowLeft","","","","original","1","14","","",""
"html-keyboard-response","236","1096391","0.0-4.0-4.0-1.7","spark_pilot_2","7398","5","16","Female","","","","","","","null","<div style=""font-size:60px;"">+</div>","null","fixation","","","","","","","","","","","15","","",""
"revaluation","237","1100422","0.0-4.0-4.0-0.8","spark_pilot_2","7398","5","16","Female","","false","","","","","[586]","./assets/img/canyon/animals/giraffe.jpg","[""ArrowRight""]","revaluation","canyon","17","{""ArrowUp,ArrowLeft"":26,""ArrowUp,ArrowRight"":10,""ArrowDown,ArrowLeft"":5,""ArrowDown,ArrowRight"":17}","true","ArrowDown,ArrowRight","","","","original","1","16","","",""
"html-keyboard-response","238","1100941","0.0-4.0-4.0-1.8","spark_pilot_2","7398","5","16","Female","","","","","","","null","<div style=""font-size:60px;"">+</div>","null","fixation","","","","","","","","","","","17","","",""
"revaluation","239","1104982","0.0-4.0-4.0-0.9","spark_pilot_2","7398","5","16","Female","","false","","","","","[1036]","./assets/img/canyon/animals/giraffe.jpg","[""ArrowRight""]","revaluation","canyon","17","{""ArrowUp,ArrowLeft"":26,""ArrowUp,ArrowRight"":10,""ArrowDown,ArrowLeft"":5,""ArrowDown,ArrowRight"":17}","true","ArrowDown,ArrowRight","","","","original","1","18","","",""
"html-keyboard-response","240","1105502","0.0-4.0-4.0-1.9","spark_pilot_2","7398","5","16","Female","","","","","","","null","<div style=""font-size:60px;"">+</div>","null","fixation","","","","","","","","","","","19","","",""
"revaluation","241","1109543","0.0-4.0-4.0-0.10","spark_pilot_2","7398","5","16","Female","","false","","","","","[927]","./assets/img/canyon/animals/giraffe.jpg","[""ArrowRight""]","revaluation","canyon","17","{""ArrowUp,ArrowLeft"":26,""ArrowUp,ArrowRight"":10,""ArrowDown,ArrowLeft"":5,""ArrowDown,ArrowRight"":17}","true","ArrowDown,ArrowRight","","","","original","1","20","","",""
"html-keyboard-response","242","1110061","0.0-4.0-4.0-1.10","spark_pilot_2","7398","5","16","Female","","","","","","","null","<div style=""font-size:60px;"">+</div>","null","fixation","","","","","","","","","","","21","","",""
"revaluation","243","1114102","0.0-4.0-4.0-0.11","spark_pilot_2","7398","5","16","Female","","false","","","","","[830]","./assets/img/canyon/animals/giraffe.jpg","[""ArrowRight""]","revaluation","canyon","17","{""ArrowUp,ArrowLeft"":26,""ArrowUp,ArrowRight"":10,""ArrowDown,ArrowLeft"":5,""ArrowDown,ArrowRight"":17}","true","ArrowDown,ArrowRight","","","","original","1","22","","",""
"html-keyboard-response","244","1114622","0.0-4.0-4.0-1.11","spark_pilot_2","7398","5","16","Female","","","","","","","null","<div style=""font-size:60px;"">+</div>","null","fixation","","","","","","","","","","","23","","",""
"revaluation","245","1118652","0.0-4.0-4.0-0.12","spark_pilot_2","7398","5","16","Female","","false","","","","","[720]","./assets/img/canyon/animals/lion.jpg","[""ArrowLeft""]","revaluation","canyon","26","{""ArrowUp,ArrowLeft"":26,""ArrowUp,ArrowRight"":10,""ArrowDown,ArrowLeft"":5,""ArrowDown,ArrowRight"":17}","true","ArrowUp,ArrowLeft","","","","original","1","24","","",""
"html-keyboard-response","246","1119171","0.0-4.0-4.0-1.12","spark_pilot_2","7398","5","16","Female","","","","","","","null","<div style=""font-size:60px;"">+</div>","null","fixation","","","","","","","","","","","25","","",""
"revaluation","247","1123212","0.0-4.0-4.0-0.13","spark_pilot_2","7398","5","16","Female","","false","","","","","[634]","./assets/img/canyon/animals/giraffe.jpg","[""ArrowRight""]","revaluation","canyon","17","{""ArrowUp,ArrowLeft"":26,""ArrowUp,ArrowRight"":10,""ArrowDown,ArrowLeft"":5,""ArrowDown,ArrowRight"":17}","true","ArrowDown,ArrowRight","","","","original","1","26","","",""
"html-keyboard-response","248","1123731","0.0-4.0-4.0-1.13","spark_pilot_2","7398","5","16","Female","","","","","","","null","<div style=""font-size:60px;"">+</div>","null","fixation","","","","","","","","","","","27","","",""
"revaluation","249","1127762","0.0-4.0-4.0-0.14","spark_pilot_2","7398","5","16","Female","","false","","","","","[585]","./assets/img/canyon/animals/lion.jpg","[""ArrowLeft""]","revaluation","canyon","26","{""ArrowUp,ArrowLeft"":26,""ArrowUp,ArrowRight"":10,""ArrowDown,ArrowLeft"":5,""ArrowDown,ArrowRight"":17}","true","ArrowUp,ArrowLeft","","","","original","1","28","","",""
"html-keyboard-response","250","1128282","0.0-4.0-4.0-1.14","spark_pilot_2","7398","5","16","Female","","","","","","","null","<div style=""font-size:60px;"">+</div>","null","fixation","","","","","","","","","","","29","","",""
"revaluation","251","1132323","0.0-4.0-4.0-0.15","spark_pilot_2","7398","5","16","Female","","false","","","","","[882]","./assets/img/canyon/animals/giraffe.jpg","[""ArrowRight""]","revaluation","canyon","17","{""ArrowUp,ArrowLeft"":26,""ArrowUp,ArrowRight"":10,""ArrowDown,ArrowLeft"":5,""ArrowDown,ArrowRight"":17}","true","ArrowDown,ArrowRight","","","","original","1","30","","",""
"html-keyboard-response","252","1132841","0.0-4.0-4.0-1.15","spark_pilot_2","7398","5","16","Female","","","","","","","null","<div style=""font-size:60px;"">+</div>","null","fixation","","","","","","","","","","","31","","",""
"revaluation","253","1136882","0.0-4.0-4.0-0.16","spark_pilot_2","7398","5","16","Female","","false","","","","","[1056]","./assets/img/canyon/animals/giraffe.jpg","[""ArrowRight""]","revaluation","canyon","17","{""ArrowUp,ArrowLeft"":26,""ArrowUp,ArrowRight"":10,""ArrowDown,ArrowLeft"":5,""ArrowDown,ArrowRight"":17}","true","ArrowDown,ArrowRight","","","","original","1","32","","",""
"html-keyboard-response","254","1137402","0.0-4.0-4.0-1.16","spark_pilot_2","7398","5","16","Female","","","","","","","null","<div style=""font-size:60px;"">+</div>","null","fixation","","","","","","","","","","","33","","",""
"revaluation","255","1141421","0.0-4.0-4.0-0.17","spark_pilot_2","7398","5","16","Female","","false","","","","","[728]","./assets/img/canyon/animals/lion.jpg","[""ArrowLeft""]","revaluation","canyon","26","{""ArrowUp,ArrowLeft"":26,""ArrowUp,ArrowRight"":10,""ArrowDown,ArrowLeft"":5,""ArrowDown,ArrowRight"":17}","true","ArrowUp,ArrowLeft","","","","original","1","34","","",""
"html-keyboard-response","256","1141941","0.0-4.0-4.0-1.17","spark_pilot_2","7398","5","16","Female","","","","","","","null","<div style=""font-size:60px;"">+</div>","null","fixation","","","","","","","","","","","35","","",""
"learning-instructions","257","1156129","0.0-4.0-5.0-0.0","spark_pilot_2","7398","5","16","Female","","","","","","","2335","<p> Time to play the dot game! </p>
            <p> For one minute, click the red dots on the following screen as they appear. </p>
            <p><b> Don't look away, as you will earn bonus for clicking dots</b>. </p>","","instructions","","","","","","","","","","","","","",""
"revaluation","258","1216141","0.0-4.0-6.0-0.0","spark_pilot_2","7398","5","16","Female","","","","","","","[107,107,108,113,127,117]","","","rest","","60","","","","","0","60000","","","","","",""
"learning-instructions","259","1224554","0.0-4.0-7.0-0.0","spark_pilot_2","7398","5","16","Female","","","","","","","2301","<p> You have almost finished this part of the game! </p>
            <p> We are going to ask you to make a few more choices. </p>","","instructions","","","","","","","","","","","","","",""
"learning-instructions","260","1240254","0.0-4.0-7.0-0.1","spark_pilot_2","7398","5","16","Female","","","","","","","1720","<p> First, you need to decide whether to go up or down. When you see each picture, use the arrow keys to make your choice. </p>
            <p><b>You will not see which animal you found, but try to get to the one that will give you the most treasure.</b></p>","","instructions","","","","","","","","","","","","","",""
"revaluation","261","1242173","0.0-4.0-8.0-0.0","spark_pilot_2","7398","5","16","Female","","false","","","","","[1916]","./assets/img/canyon/test/2.jpg","[""ArrowUp""]","first stage test","canyon","0","{""ArrowUp,ArrowLeft"":26,""ArrowUp,ArrowRight"":10,""ArrowDown,ArrowLeft"":5,""ArrowDown,ArrowRight"":17}","true","ArrowUp","false","","","original","1","","","",""
"html-keyboard-response","262","1242691","0.0-4.0-8.0-1.0","spark_pilot_2","7398","5","16","Female","","","","","","","null","<div style=""font-size:60px;"">+</div>","null","fixation","","","","","","","","","","","","","",""
"revaluation","263","1243681","0.0-4.0-8.0-0.1","spark_pilot_2","7398","5","16","Female","","false","","","","","[985]","./assets/img/canyon/test/3.jpg","[""ArrowUp""]","first stage test","canyon","0","{""ArrowUp,ArrowLeft"":26,""ArrowUp,ArrowRight"":10,""ArrowDown,ArrowLeft"":5,""ArrowDown,ArrowRight"":17}","true","ArrowUp","false","","","original","1","","","",""
"html-keyboard-response","264","1244191","0.0-4.0-8.0-1.1","spark_pilot_2","7398","5","16","Female","","","","","","","null","<div style=""font-size:60px;"">+</div>","null","fixation","","","","","","","","","","","","","",""
"revaluation","265","1245375","0.0-4.0-8.0-0.2","spark_pilot_2","7398","5","16","Female","","false","","","","","[1176]","./assets/img/canyon/test/1.jpg","[""ArrowUp""]","first stage test","canyon","0","{""ArrowUp,ArrowLeft"":26,""ArrowUp,ArrowRight"":10,""ArrowDown,ArrowLeft"":5,""ArrowDown,ArrowRight"":17}","true","ArrowUp","false","","","original","1","","","",""
"html-keyboard-response","266","1245891","0.0-4.0-8.0-1.2","spark_pilot_2","7398","5","16","Female","","","","","","","null","<div style=""font-size:60px;"">+</div>","null","fixation","","","","","","","","","","","","","",""
"revaluation","267","1247228","0.0-4.0-8.0-0.3","spark_pilot_2","7398","5","16","Female","","false","","","","","[1329]","./assets/img/canyon/test/0.jpg","[""ArrowUp""]","first stage test","canyon","0","{""ArrowUp,ArrowLeft"":26,""ArrowUp,ArrowRight"":10,""ArrowDown,ArrowLeft"":5,""ArrowDown,ArrowRight"":17}","true","ArrowUp","false","","","original","1","","","",""
"html-keyboard-response","268","1247732","0.0-4.0-8.0-1.3","spark_pilot_2","7398","5","16","Female","","","","","","","null","<div style=""font-size:60px;"">+</div>","null","fixation","","","","","","","","","","","","","",""
"learning-instructions","269","1260148","0.0-4.0-9.0-0.0","spark_pilot_2","7398","5","16","Female","","","","","","","1064","<p> Now you will see the animals again and can search their chests for treasure. </p>
            <p> This time, you will not see how much treasure you earned, but you will earn more bonus money for making better choices. </p>","","instructions","","","","","","","","","","","","","",""
"revaluation","270","1260857","0.0-4.0-10.0-0.0","spark_pilot_2","7398","5","16","Female","","false","","","","","[706]","./assets/img/canyon/animals/lion.jpg","[""ArrowLeft""]","second stage test","canyon","0","{""ArrowUp,ArrowLeft"":26,""ArrowUp,ArrowRight"":10,""ArrowDown,ArrowLeft"":5,""ArrowDown,ArrowRight"":17}","true","ArrowUp,ArrowLeft","","","","original","1","","","",""
"html-keyboard-response","271","1261362","0.0-4.0-10.0-1.0","spark_pilot_2","7398","5","16","Female","","","","","","","null","<div style=""font-size:60px;"">+</div>","null","fixation","","","","","","","","","","","","","",""
"revaluation","272","1261909","0.0-4.0-10.0-0.1","spark_pilot_2","7398","5","16","Female","","false","","","","","[541]","./assets/img/canyon/animals/lion.jpg","[""ArrowLeft""]","second stage test","canyon","0","{""ArrowUp,ArrowLeft"":26,""ArrowUp,ArrowRight"":10,""ArrowDown,ArrowLeft"":5,""ArrowDown,ArrowRight"":17}","true","ArrowUp,ArrowLeft","","","","original","1","","","",""
"html-keyboard-response","273","1262422","0.0-4.0-10.0-1.1","spark_pilot_2","7398","5","16","Female","","","","","","","null","<div style=""font-size:60px;"">+</div>","null","fixation","","","","","","","","","","","","","",""
"revaluation","274","1263064","0.0-4.0-10.0-0.2","spark_pilot_2","7398","5","16","Female","","false","","","","","[637]","./assets/img/canyon/animals/lion.jpg","[""ArrowLeft""]","second stage test","canyon","0","{""ArrowUp,ArrowLeft"":26,""ArrowUp,ArrowRight"":10,""ArrowDown,ArrowLeft"":5,""ArrowDown,ArrowRight"":17}","true","ArrowUp,ArrowLeft","","","","original","1","","","",""
"html-keyboard-response","275","1263572","0.0-4.0-10.0-1.2","spark_pilot_2","7398","5","16","Female","","","","","","","null","<div style=""font-size:60px;"">+</div>","null","fixation","","","","","","","","","","","","","",""
"revaluation","276","1264196","0.0-4.0-10.0-0.3","spark_pilot_2","7398","5","16","Female","","false","","","","","[618]","./assets/img/canyon/animals/lion.jpg","[""ArrowLeft""]","second stage test","canyon","0","{""ArrowUp,ArrowLeft"":26,""ArrowUp,ArrowRight"":10,""ArrowDown,ArrowLeft"":5,""ArrowDown,ArrowRight"":17}","true","ArrowUp,ArrowLeft","","","","original","1","","","",""
"html-keyboard-response","277","1264712","0.0-4.0-10.0-1.3","spark_pilot_2","7398","5","16","Female","","","","","","","null","<div style=""font-size:60px;"">+</div>","null","fixation","","","","","","","","","","","","","",""
"revaluation","278","1265622","0.0-4.0-10.0-0.4","spark_pilot_2","7398","5","16","Female","","false","","","","","[903]","./assets/img/canyon/animals/giraffe.jpg","[""ArrowRight""]","second stage test","canyon","0","{""ArrowUp,ArrowLeft"":26,""ArrowUp,ArrowRight"":10,""ArrowDown,ArrowLeft"":5,""ArrowDown,ArrowRight"":17}","true","ArrowDown,ArrowRight","","","","original","1","","","",""
"html-keyboard-response","279","1266131","0.0-4.0-10.0-1.4","spark_pilot_2","7398","5","16","Female","","","","","","","null","<div style=""font-size:60px;"">+</div>","null","fixation","","","","","","","","","","","","","",""
"revaluation","280","1266901","0.0-4.0-10.0-0.5","spark_pilot_2","7398","5","16","Female","","false","","","","","[764]","./assets/img/canyon/animals/giraffe.jpg","[""ArrowRight""]","second stage test","canyon","0","{""ArrowUp,ArrowLeft"":26,""ArrowUp,ArrowRight"":10,""ArrowDown,ArrowLeft"":5,""ArrowDown,ArrowRight"":17}","true","ArrowDown,ArrowRight","","","","original","1","","","",""
"html-keyboard-response","281","1267412","0.0-4.0-10.0-1.5","spark_pilot_2","7398","5","16","Female","","","","","","","null","<div style=""font-size:60px;"">+</div>","null","fixation","","","","","","","","","","","","","",""
"revaluation","282","1267852","0.0-4.0-10.0-0.6","spark_pilot_2","7398","5","16","Female","","false","","","","","[434]","./assets/img/canyon/animals/giraffe.jpg","[""ArrowRight""]","second stage test","canyon","0","{""ArrowUp,ArrowLeft"":26,""ArrowUp,ArrowRight"":10,""ArrowDown,ArrowLeft"":5,""ArrowDown,ArrowRight"":17}","true","ArrowDown,ArrowRight","","","","original","1","","","",""
"html-keyboard-response","283","1268361","0.0-4.0-10.0-1.6","spark_pilot_2","7398","5","16","Female","","","","","","","null","<div style=""font-size:60px;"">+</div>","null","fixation","","","","","","","","","","","","","",""
"revaluation","284","1268816","0.0-4.0-10.0-0.7","spark_pilot_2","7398","5","16","Female","","false","","","","","[446]","./assets/img/canyon/animals/giraffe.jpg","[""ArrowRight""]","second stage test","canyon","0","{""ArrowUp,ArrowLeft"":26,""ArrowUp,ArrowRight"":10,""ArrowDown,ArrowLeft"":5,""ArrowDown,ArrowRight"":17}","true","ArrowDown,ArrowRight","","","","original","1","","","",""
"html-keyboard-response","285","1269330","0.0-4.0-10.0-1.7","spark_pilot_2","7398","5","16","Female","","","","","","","null","<div style=""font-size:60px;"">+</div>","null","fixation","","","","","","","","","","","","","",""
"learning-instructions","286","1274143","0.0-4.0-0.1-0.2","spark_pilot_2","7398","5","16","Female","","","","","","","2011","<p> This time you are searching for treasure in the <b>ocean</b>.</p>","","instructions","","","","","","","","","","","","","",""
"learning-instructions","287","1292356","0.0-4.0-0.1-0.3","spark_pilot_2","7398","5","16","Female","","","","","","","952","<p><b>New</b> animals with <b>new</b> treasure chests live here. You need to explore to discover where the animal with the best treasure chest is.</p>
                    <p> Like before, once you figure out which animal has the chest with the most treasure, you should try to get to that animal and select that chest! </p>","","instructions","","","","","","","","","","","","","",""
"learning-instructions","288","1309221","0.0-4.0-1.1-0.1","spark_pilot_2","7398","5","16","Female","","","","","","","2126","<p> Remember, when you see a picture of the place, use the up and down keys to <b>find an animal</b>.</p>
            <p> When you encounter an animal, you should use the left and right keys to <b>select a treasure chest</b>.</p>
            <p> Don't forget to look out for the robber! </p>","","instructions","","","","","","","","","","","","","",""
"revaluation","289","1315272","0.0-4.0-2.1-0.50","spark_pilot_2","7398","5","16","Female","","false","","","","","[1967,958]","./assets/img/ocean/memory/17.jpg","[""ArrowUp"",""ArrowRight""]","value training","ocean","10","{""ArrowUp,ArrowLeft"":23,""ArrowUp,ArrowRight"":10,""ArrowDown,ArrowLeft"":8,""ArrowDown,ArrowRight"":30}","false","ArrowUp,ArrowRight","false","","","revaluation","2","0","","",""
"html-keyboard-response","290","1315791","0.0-4.0-2.1-1.50","spark_pilot_2","7398","5","16","Female","","","","","","","null","<div style=""font-size:60px;"">+</div>","null","fixation","","","","","","","","","","","1","","",""
"revaluation","291","1321852","0.0-4.0-2.1-0.51","spark_pilot_2","7398","5","16","Female","","false","","","","","[849,824]","./assets/img/ocean/memory/15.jpg","[""ArrowUp"",""ArrowLeft""]","value training","ocean","23","{""ArrowUp,ArrowLeft"":23,""ArrowUp,ArrowRight"":10,""ArrowDown,ArrowLeft"":8,""ArrowDown,ArrowRight"":30}","false","ArrowUp,ArrowLeft","false","","","revaluation","2","2","","",""
"html-keyboard-response","292","1322371","0.0-4.0-2.1-1.51","spark_pilot_2","7398","5","16","Female","","","","","","","null","<div style=""font-size:60px;"">+</div>","null","fixation","","","","","","","","","","","3","","",""
"revaluation","293","1328402","0.0-4.0-2.1-0.52","spark_pilot_2","7398","5","16","Female","","false","","","","","[840,967]","./assets/img/ocean/memory/11.jpg","[""ArrowUp"",""ArrowLeft""]","value training","ocean","23","{""ArrowUp,ArrowLeft"":23,""ArrowUp,ArrowRight"":10,""ArrowDown,ArrowLeft"":8,""ArrowDown,ArrowRight"":30}","false","ArrowUp,ArrowLeft","false","","","revaluation","2","4","","",""
"html-keyboard-response","294","1328922","0.0-4.0-2.1-1.52","spark_pilot_2","7398","5","16","Female","","","","","","","null","<div style=""font-size:60px;"">+</div>","null","fixation","","","","","","","","","","","5","","",""
"revaluation","295","1334973","0.0-4.0-2.1-0.53","spark_pilot_2","7398","5","16","Female","","false","","","","","[851,925]","./assets/img/ocean/memory/18.jpg","[""ArrowUp"",""ArrowLeft""]","value training","ocean","23","{""ArrowUp,ArrowLeft"":23,""ArrowUp,ArrowRight"":10,""ArrowDown,ArrowLeft"":8,""ArrowDown,ArrowRight"":30}","false","ArrowUp,ArrowLeft","false","","","revaluation","2","6","","",""
"html-keyboard-response","296","1335492","0.0-4.0-2.1-1.53","spark_pilot_2","7398","5","16","Female","","","","","","","null","<div style=""font-size:60px;"">+</div>","null","fixation","","","","","","","","","","","7","","",""
"revaluation","297","1339512","0.0-4.0-2.1-0.54","spark_pilot_2","7398","5","16","Female","","false","","","","","[598]","./assets/img/ocean/catch/2.jpg","[""spaceBar""]","value training","ocean","0","{""ArrowUp,ArrowLeft"":23,""ArrowUp,ArrowRight"":10,""ArrowDown,ArrowLeft"":8,""ArrowDown,ArrowRight"":30}","true","spaceBar","true","","","revaluation","2","8","","",""
"html-keyboard-response","298","1340032","0.0-4.0-2.1-1.54","spark_pilot_2","7398","5","16","Female","","","","","","","null","<div style=""font-size:60px;"">+</div>","null","fixation","","","","","","","","","","","9","","",""
"revaluation","299","1346092","0.0-4.0-2.1-0.55","spark_pilot_2","7398","5","16","Female","","false","","","","","[971,776]","./assets/img/ocean/memory/1.jpg","[""ArrowUp"",""ArrowLeft""]","value training","ocean","23","{""ArrowUp,ArrowLeft"":23,""ArrowUp,ArrowRight"":10,""ArrowDown,ArrowLeft"":8,""ArrowDown,ArrowRight"":30}","false","ArrowUp,ArrowLeft","false","","","revaluation","2","10","","",""
"html-keyboard-response","300","1346611","0.0-4.0-2.1-1.55","spark_pilot_2","7398","5","16","Female","","","","","","","null","<div style=""font-size:60px;"">+</div>","null","fixation","","","","","","","","","","","11","","",""
"revaluation","301","1352642","0.0-4.0-2.1-0.56","spark_pilot_2","7398","5","16","Female","","false","","","","","[752,825]","./assets/img/ocean/memory/5.jpg","[""ArrowUp"",""ArrowLeft""]","value training","ocean","23","{""ArrowUp,ArrowLeft"":23,""ArrowUp,ArrowRight"":10,""ArrowDown,ArrowLeft"":8,""ArrowDown,ArrowRight"":30}","false","ArrowUp,ArrowLeft","false","","","revaluation","2","12","","",""
"html-keyboard-response","302","1353162","0.0-4.0-2.1-1.56","spark_pilot_2","7398","5","16","Female","","","","","","","null","<div style=""font-size:60px;"">+</div>","null","fixation","","","","","","","","","","","13","","",""
"revaluation","303","1359202","0.0-4.0-2.1-0.57","spark_pilot_2","7398","5","16","Female","","false","","","","","[900,609]","./assets/img/ocean/memory/4.jpg","[""ArrowUp"",""ArrowLeft""]","value training","ocean","23","{""ArrowUp,ArrowLeft"":23,""ArrowUp,ArrowRight"":10,""ArrowDown,ArrowLeft"":8,""ArrowDown,ArrowRight"":30}","false","ArrowUp,ArrowLeft","false","","","revaluation","2","14","","",""
"html-keyboard-response","304","1359721","0.0-4.0-2.1-1.57","spark_pilot_2","7398","5","16","Female","","","","","","","null","<div style=""font-size:60px;"">+</div>","null","fixation","","","","","","","","","","","15","","",""
"revaluation","305","1365752","0.0-4.0-2.1-0.58","spark_pilot_2","7398","5","16","Female","","false","","","","","[711,1031]","./assets/img/ocean/memory/12.jpg","[""ArrowUp"",""ArrowLeft""]","value training","ocean","23","{""ArrowUp,ArrowLeft"":23,""ArrowUp,ArrowRight"":10,""ArrowDown,ArrowLeft"":8,""ArrowDown,ArrowRight"":30}","false","ArrowUp,ArrowLeft","false","","","revaluation","2","16","","",""
"html-keyboard-response","306","1366271","0.0-4.0-2.1-1.58","spark_pilot_2","7398","5","16","Female","","","","","","","null","<div style=""font-size:60px;"">+</div>","null","fixation","","","","","","","","","","","17","","",""
"revaluation","307","1372322","0.0-4.0-2.1-0.59","spark_pilot_2","7398","5","16","Female","","false","","","","","[692,753]","./assets/img/ocean/memory/3.jpg","[""ArrowUp"",""ArrowLeft""]","value training","ocean","23","{""ArrowUp,ArrowLeft"":23,""ArrowUp,ArrowRight"":10,""ArrowDown,ArrowLeft"":8,""ArrowDown,ArrowRight"":30}","false","ArrowUp,ArrowLeft","false","","","revaluation","2","18","","",""
"html-keyboard-response","308","1372842","0.0-4.0-2.1-1.59","spark_pilot_2","7398","5","16","Female","","","","","","","null","<div style=""font-size:60px;"">+</div>","null","fixation","","","","","","","","","","","19","","",""
"revaluation","309","1378902","0.0-4.0-2.1-0.60","spark_pilot_2","7398","5","16","Female","","false","","","","","[765,1049]","./assets/img/ocean/memory/14.jpg","[""ArrowUp"",""ArrowLeft""]","value training","ocean","23","{""ArrowUp,ArrowLeft"":23,""ArrowUp,ArrowRight"":10,""ArrowDown,ArrowLeft"":8,""ArrowDown,ArrowRight"":30}","false","ArrowUp,ArrowLeft","false","","","revaluation","2","20","","",""
"html-keyboard-response","310","1379421","0.0-4.0-2.1-1.60","spark_pilot_2","7398","5","16","Female","","","","","","","null","<div style=""font-size:60px;"">+</div>","null","fixation","","","","","","","","","","","21","","",""
"revaluation","311","1385482","0.0-4.0-2.1-0.61","spark_pilot_2","7398","5","16","Female","","false","","","","","[689,596]","./assets/img/ocean/memory/2.jpg","[""ArrowUp"",""ArrowLeft""]","value training","ocean","23","{""ArrowUp,ArrowLeft"":23,""ArrowUp,ArrowRight"":10,""ArrowDown,ArrowLeft"":8,""ArrowDown,ArrowRight"":30}","false","ArrowUp,ArrowLeft","false","","","revaluation","2","22","","",""
"html-keyboard-response","312","1386002","0.0-4.0-2.1-1.61","spark_pilot_2","7398","5","16","Female","","","","","","","null","<div style=""font-size:60px;"">+</div>","null","fixation","","","","","","","","","","","23","","",""
"revaluation","313","1392063","0.0-4.0-2.1-0.62","spark_pilot_2","7398","5","16","Female","","false","","","","","[732,692]","./assets/img/ocean/memory/2.jpg","[""ArrowUp"",""ArrowLeft""]","value training","ocean","23","{""ArrowUp,ArrowLeft"":23,""ArrowUp,ArrowRight"":10,""ArrowDown,ArrowLeft"":8,""ArrowDown,ArrowRight"":30}","false","ArrowUp,ArrowLeft","false","","","revaluation","2","24","","",""
"html-keyboard-response","314","1392582","0.0-4.0-2.1-1.62","spark_pilot_2","7398","5","16","Female","","","","","","","null","<div style=""font-size:60px;"">+</div>","null","fixation","","","","","","","","","","","25","","",""
"revaluation","315","1398623","0.0-4.0-2.1-0.63","spark_pilot_2","7398","5","16","Female","","false","","","","","[1537,684]","./assets/img/ocean/memory/19.jpg","[""ArrowUp"",""ArrowLeft""]","value training","ocean","23","{""ArrowUp,ArrowLeft"":23,""ArrowUp,ArrowRight"":10,""ArrowDown,ArrowLeft"":8,""ArrowDown,ArrowRight"":30}","false","ArrowUp,ArrowLeft","false","","","revaluation","2","26","","",""
