"trial_type","trial_index","time_elapsed","internal_node_id","task_version","subject_id","assigned_condition","age","gender","success","timeout","failed_images","failed_audio","failed_video","browser_interaction","rt","stimulus","response","task_part","environment","score","rewardMap","correct","fullState","isCatch","numberMissed","duration","condition","order","trial_num","key_press","ground_truth","bonus"
"pavlovia","0","1303","0.0-0.0","spark_pilot_2","7313","8","11","Female","","","","","","","","","","","","","","","","","","","","","","","",""
"preload","1","20268","0.0-1.0","spark_pilot_2","7313","8","11","Female","true","false","[]","[]","[]","[{""event"":""fullscreenenter"",""trial"":2,""time"":24415}]","","","","","","","","","","","","","","","","","",""
"fullscreen","2","25354","0.0-2.0","spark_pilot_2","7313","8","11","Female","true","","","","","","","","","","","","","","","","","","","","","","",""
"audio-button-response","3","30903","0.0-3.0-0.0-0.0","spark_pilot_2","7313","8","11","Female","","","","","","","3981","./assets/audio/audiotest/turtle.mp3","2","audio_test","","","","","","","","","","","","","",""
"learning-instructions","4","41002","0.0-3.0-1.0-0.0","spark_pilot_2","7313","8","11","Female","","","","","","","3089.600000143051","<p> Welcome! Please remember to stay in fullscreen mode and don't click away from the experiment. </p>","","instructions","","","","","","","","","","","","","",""
"learning-instructions","5","50336","0.0-3.0-1.0-0.1","spark_pilot_2","7313","8","11","Female","","","","","","","932.9000000953674","<p> Today you will be playing a game to earn treasure. </p>
            <p> At the end of the experiment, you will earn a bonus based on how much treasure you find. </p>
            <img src='./assets/img/instructions/treasure.jpg' class='instructions-image'>","","instructions","","","","","","","","","","","","","",""
"learning-instructions","6","60676","0.0-3.0-1.0-0.2","spark_pilot_2","7313","8","11","Female","","","","","","","2071.9000000953674","<p> Animals have hidden treasure in treasure chests. </p>
            <p> You need to first find an animal and then choose which of their treasure chests to search. </p>
            <img src='./assets/img/space/animals/cat.jpg' class='instructions-image'>","","instructions","","","","","","","","","","","","","",""
"learning-instructions","7","77909","0.0-3.0-1.0-0.3","spark_pilot_2","7313","8","11","Female","","","","","","","4075.2000000476837","<p> In each round, you will search for treasure in a different place. In the real game, there will be two rounds. </p>
            <p> You will begin with a separate, practice round where you will search for treasure in outer space. </p>
            <img src='./assets/img/space/0.jpg' class='instructions-image'>","","instructions","","","","","","","","","","","","","",""
"learning-instructions","8","93525","0.0-3.0-1.0-0.4","spark_pilot_2","7313","8","11","Female","","","","","","","4197.699999809265","<p> On every turn, you will see a picture of the place that you are in, but the specific image may be different each time. </p>
            <p> For example, both of these images mean you are in outer space. </p>
            <img src='./assets/img/instructions/outerspace.jpg' class='instructions-image'>","","instructions","","","","","","","","","","","","","",""
"learning-instructions","9","102874","0.0-3.0-1.0-0.5","spark_pilot_2","7313","8","11","Female","","","","","","","1497.5","<p> You need to decide which direction to travel in. </p>
            <p> You can choose between going <b>up or down</b> by using the arrow keys. </p>
            <img src='./assets/img/instructions/updown.jpg' class='instructions-image'>","","instructions","","","","","","","","","","","","","",""
"learning-instructions","10","112927","0.0-3.0-1.0-0.6","spark_pilot_2","7313","8","11","Female","","","","","","","1241.7000000476837","<p> You will have <b>2 seconds</b> to make your choice. </p>
            <p> If you do not make a choice within 2 seconds, you will not find an animal or earn treasure. </p>
            <img src='./assets/img/instructions/2seconds.jpg' class='instructions-image'>","","instructions","","","","","","","","","","","","","",""
"learning-instructions","11","121190","0.0-3.0-1.0-0.7","spark_pilot_2","7313","8","11","Female","","","","","","","1194.3999998569489","<p> Let’s try practicing that now! </p>
            <p> When you see a picture of the place you are in, press the <b>up</b> key to travel up. </p>
            <img src='./assets/img/instructions/pressUp.jpg' class='instructions-image'>","","instructions","","","","","","","","","","","","","",""
"revaluation","12","125228","0.0-3.0-2.0-0.0","spark_pilot_2","7313","8","11","Female","","false","","","","","[396.30000019073486]","./assets/img/space/0.jpg","[""ArrowUp""]","first stage practice","space","0","null","null","ArrowUp","false","","","","","","","",""
"html-keyboard-response","13","125744","0.0-3.0-2.0-1.0","spark_pilot_2","7313","8","11","Female","","","","","","","null","<div style=""font-size:60px;"">+</div>","null","fixation","","","","","","","","","","","","","",""
"revaluation","14","129763","0.0-3.0-2.0-0.1","spark_pilot_2","7313","8","11","Female","","false","","","","","[687.1000001430511]","./assets/img/space/1.jpg","[""ArrowUp""]","first stage practice","space","0","null","null","ArrowUp","false","","","","","","","",""
"html-keyboard-response","15","130269","0.0-3.0-2.0-1.1","spark_pilot_2","7313","8","11","Female","","","","","","","null","<div style=""font-size:60px;"">+</div>","null","fixation","","","","","","","","","","","","","",""
"revaluation","16","134295","0.0-3.0-2.0-0.2","spark_pilot_2","7313","8","11","Female","","false","","","","","[500.40000009536743]","./assets/img/space/2.jpg","[""ArrowUp""]","first stage practice","space","0","null","null","ArrowUp","false","","","","","","","",""
"html-keyboard-response","17","134813","0.0-3.0-2.0-1.2","spark_pilot_2","7313","8","11","Female","","","","","","","null","<div style=""font-size:60px;"">+</div>","null","fixation","","","","","","","","","","","","","",""
"learning-instructions","18","140978","0.0-3.0-3.0-0.0","spark_pilot_2","7313","8","11","Female","","","","","","","1439.7000000476837","<p> Great job! Now try pressing the <b>down</b> key to travel down. </p>
            <img src='./assets/img/instructions/pressDown.jpg' class='instructions-image'>","","instructions","","","","","","","","","","","","","",""
"revaluation","19","145002","0.0-3.0-4.0-0.0","spark_pilot_2","7313","8","11","Female","","false","","","","","[734.9000000953674]","./assets/img/space/3.jpg","[""ArrowDown""]","first stage practice","space","0","null","null","ArrowDown","false","","","","","","","",""
"html-keyboard-response","20","145515","0.0-3.0-4.0-1.0","spark_pilot_2","7313","8","11","Female","","","","","","","null","<div style=""font-size:60px;"">+</div>","null","fixation","","","","","","","","","","","","","",""
"revaluation","21","149533","0.0-3.0-4.0-0.1","spark_pilot_2","7313","8","11","Female","","false","","","","","[343.89999985694885]","./assets/img/space/4.jpg","[""ArrowDown""]","first stage practice","space","0","null","null","ArrowDown","false","","","","","","","",""
"html-keyboard-response","22","150046","0.0-3.0-4.0-1.1","spark_pilot_2","7313","8","11","Female","","","","","","","null","<div style=""font-size:60px;"">+</div>","null","fixation","","","","","","","","","","","","","",""
"revaluation","23","154080","0.0-3.0-4.0-0.2","spark_pilot_2","7313","8","11","Female","","false","","","","","[463.60000014305115]","./assets/img/space/5.jpg","[""ArrowDown""]","first stage practice","space","0","null","null","ArrowDown","false","","","","","","","",""
"html-keyboard-response","24","154593","0.0-3.0-4.0-1.2","spark_pilot_2","7313","8","11","Female","","","","","","","null","<div style=""font-size:60px;"">+</div>","null","fixation","","","","","","","","","","","","","",""
"learning-instructions","25","165594","0.0-3.0-5.0-0.0","spark_pilot_2","7313","8","11","Female","","","","","","","1105.6999998092651","<p> The animals don’t move, so the animal in the upper part of a place will stay in the upper part of a place, and the animal in the lower part of a place will stay in the lower part of a place. </p>","","instructions","","","","","","","","","","","","","",""
"learning-instructions","26","176177","0.0-3.0-5.0-0.1","spark_pilot_2","7313","8","11","Female","","","","","","","1409.2000000476837","<p> Each animal has two treasure chests for you to choose from. </p>
            <p> The amount of treasure in each chest can range from <b> 0 to 40 pieces.</b></p>","","instructions","","","","","","","","","","","","","",""
"learning-instructions","27","188905","0.0-3.0-5.0-0.2","spark_pilot_2","7313","8","11","Female","","","","","","","1488.2000000476837","<p> You should decide which chest to search for treasure by using the <b>left</b> and <b>right</b> arrow keys. </p>
            <p><b> Pay attention to which animal is on the screen, as the animals have different treasure chests. </b></p>
            <img src='./assets/img/instructions/leftright.jpg' class='instructions-image'>","","instructions","","","","","","","","","","","","","",""
"learning-instructions","28","196496","0.0-3.0-5.0-0.3","spark_pilot_2","7313","8","11","Female","","","","","","","1202.3999998569489","<p> Let’s try practicing that now. </p>
            <p> When you see an animal, choose which chest to search for treasure. </p>
            <img src='./assets/img/instructions/chooseChest.jpg' class='instructions-image'>","","instructions","","","","","","","","","","","","","",""
"revaluation","29","200518","0.0-3.0-6.0-0.0","spark_pilot_2","7313","8","11","Female","","false","","","","","[1470.5]","./assets/img/space/animals/cat.jpg","[""ArrowLeft""]","second stage practice","space","3","{""ArrowUp,ArrowLeft"":3,""ArrowUp,ArrowRight"":36,""ArrowDown,ArrowLeft"":15,""ArrowDown,ArrowRight"":23}","false","ArrowUp,ArrowLeft","","","","","","","","",""
"html-keyboard-response","30","201031","0.0-3.0-6.0-1.0","spark_pilot_2","7313","8","11","Female","","","","","","","null","<div style=""font-size:60px;"">+</div>","null","fixation","","","","","","","","","","","","","",""
"revaluation","31","205057","0.0-3.0-6.0-0.1","spark_pilot_2","7313","8","11","Female","","false","","","","","[493.2000000476837]","./assets/img/space/animals/rabbit.jpg","[""ArrowRight""]","second stage practice","space","23","{""ArrowUp,ArrowLeft"":3,""ArrowUp,ArrowRight"":36,""ArrowDown,ArrowLeft"":15,""ArrowDown,ArrowRight"":23}","true","ArrowDown,ArrowRight","","","","","","","","",""
"html-keyboard-response","32","205568","0.0-3.0-6.0-1.1","spark_pilot_2","7313","8","11","Female","","","","","","","null","<div style=""font-size:60px;"">+</div>","null","fixation","","","","","","","","","","","","","",""
"revaluation","33","209591","0.0-3.0-6.0-0.2","spark_pilot_2","7313","8","11","Female","","false","","","","","[480.69999980926514]","./assets/img/space/animals/cat.jpg","[""ArrowLeft""]","second stage practice","space","3","{""ArrowUp,ArrowLeft"":3,""ArrowUp,ArrowRight"":36,""ArrowDown,ArrowLeft"":15,""ArrowDown,ArrowRight"":23}","false","ArrowUp,ArrowLeft","","","","","","","","",""
"html-keyboard-response","34","210103","0.0-3.0-6.0-1.2","spark_pilot_2","7313","8","11","Female","","","","","","","null","<div style=""font-size:60px;"">+</div>","null","fixation","","","","","","","","","","","","","",""
"revaluation","35","214134","0.0-3.0-6.0-0.3","spark_pilot_2","7313","8","11","Female","","false","","","","","[631.7999999523163]","./assets/img/space/animals/rabbit.jpg","[""ArrowRight""]","second stage practice","space","23","{""ArrowUp,ArrowLeft"":3,""ArrowUp,ArrowRight"":36,""ArrowDown,ArrowLeft"":15,""ArrowDown,ArrowRight"":23}","true","ArrowDown,ArrowRight","","","","","","","","",""
"html-keyboard-response","36","214643","0.0-3.0-6.0-1.3","spark_pilot_2","7313","8","11","Female","","","","","","","null","<div style=""font-size:60px;"">+</div>","null","fixation","","","","","","","","","","","","","",""
"learning-instructions","37","232579","0.0-3.0-7.0-0.0","spark_pilot_2","7313","8","11","Female","","","","","","","1083.0999999046326","<p> Great job. Now let’s try putting it together. </p>
            <p> On each turn, you will first see a picture to remind you of the place you are in, and you need to choose whether to go up or down. </p>
            <p> Then you will see an animal and choose which of its chests to search for treasure. </p>","","instructions","","","","","","","","","","","","","",""
"learning-instructions","38","241755","0.0-3.0-7.0-0.1","spark_pilot_2","7313","8","11","Female","","","","","","","871.2999999523163","<p> When you choose whether to go up or down, try to go to the animal with the chest with the most treasure. </p>
            <p> Try practicing that now! </p>","","instructions","","","","","","","","","","","","","",""
"revaluation","39","247785","0.0-3.0-8.0-0.0","spark_pilot_2","7313","8","11","Female","","false","","","","","[588.5,512.0999999046326]","./assets/img/space/6.jpg","[""ArrowUp"",""ArrowLeft""]","full practice","space","3","{""ArrowUp,ArrowLeft"":3,""ArrowUp,ArrowRight"":36,""ArrowDown,ArrowLeft"":15,""ArrowDown,ArrowRight"":23}","false","ArrowUp,ArrowLeft","false","","","","","","","",""
"html-keyboard-response","40","248297","0.0-3.0-8.0-1.0","spark_pilot_2","7313","8","11","Female","","","","","","","null","<div style=""font-size:60px;"">+</div>","null","fixation","","","","","","","","","","","","","",""
"revaluation","41","254327","0.0-3.0-8.0-0.1","spark_pilot_2","7313","8","11","Female","","false","","","","","[469.59999990463257,308.5]","./assets/img/space/7.jpg","[""ArrowUp"",""ArrowRight""]","full practice","space","36","{""ArrowUp,ArrowLeft"":3,""ArrowUp,ArrowRight"":36,""ArrowDown,ArrowLeft"":15,""ArrowDown,ArrowRight"":23}","true","ArrowUp,ArrowRight","false","","","","","","","",""
"html-keyboard-response","42","254842","0.0-3.0-8.0-1.1","spark_pilot_2","7313","8","11","Female","","","","","","","null","<div style=""font-size:60px;"">+</div>","null","fixation","","","","","","","","","","","","","",""
"revaluation","43","260886","0.0-3.0-8.0-0.2","spark_pilot_2","7313","8","11","Female","","false","","","","","[323.7999999523163,427.10000014305115]","./assets/img/space/8.jpg","[""ArrowDown"",""ArrowLeft""]","full practice","space","15","{""ArrowUp,ArrowLeft"":3,""ArrowUp,ArrowRight"":36,""ArrowDown,ArrowLeft"":15,""ArrowDown,ArrowRight"":23}","false","ArrowDown,ArrowLeft","false","","","","","","","",""
"html-keyboard-response","44","261398","0.0-3.0-8.0-1.2","spark_pilot_2","7313","8","11","Female","","","","","","","null","<div style=""font-size:60px;"">+</div>","null","fixation","","","","","","","","","","","","","",""
"revaluation","45","267426","0.0-3.0-8.0-0.3","spark_pilot_2","7313","8","11","Female","","false","","","","","[764.2999999523163,441.39999985694885]","./assets/img/space/9.jpg","[""ArrowDown"",""ArrowRight""]","full practice","space","23","{""ArrowUp,ArrowLeft"":3,""ArrowUp,ArrowRight"":36,""ArrowDown,ArrowLeft"":15,""ArrowDown,ArrowRight"":23}","false","ArrowDown,ArrowRight","false","","","","","","","",""
"html-keyboard-response","46","267936","0.0-3.0-8.0-1.3","spark_pilot_2","7313","8","11","Female","","","","","","","null","<div style=""font-size:60px;"">+</div>","null","fixation","","","","","","","","","","","","","",""
"revaluation","47","273950","0.0-3.0-8.0-0.4","spark_pilot_2","7313","8","11","Female","","false","","","","","[326,385.59999990463257]","./assets/img/space/10.jpg","[""ArrowUp"",""ArrowRight""]","full practice","space","36","{""ArrowUp,ArrowLeft"":3,""ArrowUp,ArrowRight"":36,""ArrowDown,ArrowLeft"":15,""ArrowDown,ArrowRight"":23}","true","ArrowUp,ArrowRight","false","","","","","","","",""
"html-keyboard-response","48","274453","0.0-3.0-8.0-1.4","spark_pilot_2","7313","8","11","Female","","","","","","","null","<div style=""font-size:60px;"">+</div>","null","fixation","","","","","","","","","","","","","",""
"learning-instructions","49","286318","0.0-3.0-9.0-0.0","spark_pilot_2","7313","8","11","Female","","","","","","","1517.4000000953674","<p> One last thing: sometimes, you will see a robber. The robber can be anywhere in the picture. </p>
            <p> If you do not stop them, you will lose treasure. </p>
            <img src='./assets/img/instructions/robber.jpg' class='instructions-image'>","","instructions","","","","","","","","","","","","","",""
"learning-instructions","50","296107","0.0-3.0-9.0-0.1","spark_pilot_2","7313","8","11","Female","","","","","","","2598.100000143051","<p> If you see the robber, you should <b>press the space bar</b> rather than using the arrow keys. </p>
            <p> Try practicing that now! </p>","","instructions","","","","","","","","","","","","","",""
"revaluation","51","300128","0.0-3.0-10.0-0.0","spark_pilot_2","7313","8","11","Female","","false","","","","","[853.3999998569489]","./assets/img/space/catch/0.jpg","[""ArrowUp""]","catch practice","space","-10","{""ArrowUp,ArrowLeft"":3,""ArrowUp,ArrowRight"":36,""ArrowDown,ArrowLeft"":15,""ArrowDown,ArrowRight"":23}","false","ArrowUp","true","","","","","","","",""
"html-keyboard-response","52","300640","0.0-3.0-10.0-1.0","spark_pilot_2","7313","8","11","Female","","","","","","","null","<div style=""font-size:60px;"">+</div>","null","fixation","","","","","","","","","","","","","",""
"revaluation","53","304675","0.0-3.0-10.0-0.1","spark_pilot_2","7313","8","11","Female","","false","","","","","[543.5999999046326]","./assets/img/space/catch/1.jpg","[""spaceBar""]","catch practice","space","0","{""ArrowUp,ArrowLeft"":3,""ArrowUp,ArrowRight"":36,""ArrowDown,ArrowLeft"":15,""ArrowDown,ArrowRight"":23}","true","spaceBar","true","","","","","","","",""
"html-keyboard-response","54","305191","0.0-3.0-10.0-1.1","spark_pilot_2","7313","8","11","Female","","","","","","","null","<div style=""font-size:60px;"">+</div>","null","fixation","","","","","","","","","","","","","",""
"revaluation","55","309223","0.0-3.0-10.0-0.2","spark_pilot_2","7313","8","11","Female","","false","","","","","[531.9000000953674]","./assets/img/space/catch/2.jpg","[""spaceBar""]","catch practice","space","0","{""ArrowUp,ArrowLeft"":3,""ArrowUp,ArrowRight"":36,""ArrowDown,ArrowLeft"":15,""ArrowDown,ArrowRight"":23}","true","spaceBar","true","","","","","","","",""
"html-keyboard-response","56","309738","0.0-3.0-10.0-1.2","spark_pilot_2","7313","8","11","Female","","","","","","","null","<div style=""font-size:60px;"">+</div>","null","fixation","","","","","","","","","","","","","",""
"learning-instructions","57","325134","0.0-3.0-11.0-0.0","spark_pilot_2","7313","8","11","Female","","","","","","","1701.0999999046326","<p> After you explore a place to find treasure, it will be time to play a different game. </p>
            <p> During this game, red dots will appear on the screen and fall down slowly. </p>
            <p><b> You must click on them before they reach the bottom. </b></p>
            <img src='./assets/img/instructions/dotGame.jpg' class='instructions-image'>","","instructions","","","","","","","","","","","","","",""
"learning-instructions","58","332927","0.0-3.0-11.0-0.1","spark_pilot_2","7313","8","11","Female","","","","","","","2097.199999809265","<p> For every dot you click, you will earn additional treasure. </p>
            <p> Let’s try practicing that now. </p>","","instructions","","","","","","","","","","","","","",""
"revaluation","59","347943","0.0-3.0-12.0-0.0","spark_pilot_2","7313","8","11","Female","","","","","","","[124,73]","","","rest practice","","20","","","","","0","15000","","","","","",""
"learning-instructions","60","355933","0.0-3.0-13.0-0.0-0.0","spark_pilot_2","7313","8","11","Female","","","","","","","2710.7000000476837","<p> Now, you will practice a shortened version of the game to get a sense of how it all fits together. </p>","","instructions","","","","","","","","","","","","","",""
"learning-instructions","61","359912","0.0-3.0-13.0-0.0-0.1","spark_pilot_2","7313","8","11","Female","","","","","","","771.2000000476837","<p>This time you are searching for treasure in outer space.</p>","","instructions","","","","","","","","","","","","","",""
"learning-instructions","62","376194","0.0-3.0-13.0-1.0-0.0","spark_pilot_2","7313","8","11","Female","","","","","","","1453.2999999523163","<p> Remember, when you see a picture of the place, use the up and down keys to <b>find an animal</b>.</p>
            <p> When you encounter an animal, you should use the left and right keys to <b>select a treasure chest</b>.</p>
            <p> Don't forget to look out for the robber! </p>","","instructions","","","","","","","","","","","","","",""
"revaluation","63","382226","0.0-3.0-13.0-2.0-0.0","spark_pilot_2","7313","8","11","Female","","false","","","","","[1004.7000000476837,676]","./assets/img/space/11.jpg","[""ArrowDown"",""ArrowLeft""]","practice block","space","15","{""ArrowUp,ArrowLeft"":3,""ArrowUp,ArrowRight"":36,""ArrowDown,ArrowLeft"":15,""ArrowDown,ArrowRight"":23}","false","ArrowDown,ArrowLeft","false","","","","","","","",""
"html-keyboard-response","64","382743","0.0-3.0-13.0-2.0-1.0","spark_pilot_2","7313","8","11","Female","","","","","","","null","<div style=""font-size:60px;"">+</div>","null","fixation","","","","","","","","","","","","","",""
"revaluation","65","388769","0.0-3.0-13.0-2.0-0.1","spark_pilot_2","7313","8","11","Female","","false","","","","","[516.4000000953674,830.0999999046326]","./assets/img/space/12.jpg","[""ArrowUp"",""ArrowRight""]","practice block","space","36","{""ArrowUp,ArrowLeft"":3,""ArrowUp,ArrowRight"":36,""ArrowDown,ArrowLeft"":15,""ArrowDown,ArrowRight"":23}","true","ArrowUp,ArrowRight","false","","","","","","","",""
"html-keyboard-response","66","389283","0.0-3.0-13.0-2.0-1.1","spark_pilot_2","7313","8","11","Female","","","","","","","null","<div style=""font-size:60px;"">+</div>","null","fixation","","","","","","","","","","","","","",""
"revaluation","67","395306","0.0-3.0-13.0-2.0-0.2","spark_pilot_2","7313","8","11","Female","","false","","","","","[639.0999999046326,410]","./assets/img/space/13.jpg","[""ArrowUp"",""ArrowRight""]","practice block","space","36","{""ArrowUp,ArrowLeft"":3,""ArrowUp,ArrowRight"":36,""ArrowDown,ArrowLeft"":15,""ArrowDown,ArrowRight"":23}","true","ArrowUp,ArrowRight","false","","","","","","","",""
"html-keyboard-response","68","395816","0.0-3.0-13.0-2.0-1.2","spark_pilot_2","7313","8","11","Female","","","","","","","null","<div style=""font-size:60px;"">+</div>","null","fixation","","","","","","","","","","","","","",""
"revaluation","69","401859","0.0-3.0-13.0-2.0-0.3","spark_pilot_2","7313","8","11","Female","","false","","","","","[679.6000001430511,330.40000009536743]","./assets/img/space/14.jpg","[""ArrowUp"",""ArrowRight""]","practice block","space","36","{""ArrowUp,ArrowLeft"":3,""ArrowUp,ArrowRight"":36,""ArrowDown,ArrowLeft"":15,""ArrowDown,ArrowRight"":23}","true","ArrowUp,ArrowRight","false","","","","","","","",""
"html-keyboard-response","70","402377","0.0-3.0-13.0-2.0-1.3","spark_pilot_2","7313","8","11","Female","","","","","","","null","<div style=""font-size:60px;"">+</div>","null","fixation","","","","","","","","","","","","","",""
"revaluation","71","408393","0.0-3.0-13.0-2.0-0.4","spark_pilot_2","7313","8","11","Female","","false","","","","","[633.1000001430511,395.5]","./assets/img/space/11.jpg","[""ArrowUp"",""ArrowRight""]","practice block","space","36","{""ArrowUp,ArrowLeft"":3,""ArrowUp,ArrowRight"":36,""ArrowDown,ArrowLeft"":15,""ArrowDown,ArrowRight"":23}","true","ArrowUp,ArrowRight","false","","","","","","","",""
"html-keyboard-response","72","408896","0.0-3.0-13.0-2.0-1.4","spark_pilot_2","7313","8","11","Female","","","","","","","null","<div style=""font-size:60px;"">+</div>","null","fixation","","","","","","","","","","","","","",""
"revaluation","73","414904","0.0-3.0-13.0-2.0-0.5","spark_pilot_2","7313","8","11","Female","","false","","","","","[431.2000000476837,497.5]","./assets/img/space/12.jpg","[""ArrowUp"",""ArrowRight""]","practice block","space","36","{""ArrowUp,ArrowLeft"":3,""ArrowUp,ArrowRight"":36,""ArrowDown,ArrowLeft"":15,""ArrowDown,ArrowRight"":23}","true","ArrowUp,ArrowRight","false","","","","","","","",""
"html-keyboard-response","74","415406","0.0-3.0-13.0-2.0-1.5","spark_pilot_2","7313","8","11","Female","","","","","","","null","<div style=""font-size:60px;"">+</div>","null","fixation","","","","","","","","","","","","","",""
"revaluation","75","421424","0.0-3.0-13.0-2.0-0.6","spark_pilot_2","7313","8","11","Female","","false","","","","","[891.7000000476837,397.69999980926514]","./assets/img/space/13.jpg","[""ArrowUp"",""ArrowRight""]","practice block","space","36","{""ArrowUp,ArrowLeft"":3,""ArrowUp,ArrowRight"":36,""ArrowDown,ArrowLeft"":15,""ArrowDown,ArrowRight"":23}","true","ArrowUp,ArrowRight","false","","","","","","","",""
"html-keyboard-response","76","421927","0.0-3.0-13.0-2.0-1.6","spark_pilot_2","7313","8","11","Female","","","","","","","null","<div style=""font-size:60px;"">+</div>","null","fixation","","","","","","","","","","","","","",""
"revaluation","77","427940","0.0-3.0-13.0-2.0-0.7","spark_pilot_2","7313","8","11","Female","","false","","","","","[655.2999999523163,439.7999999523163]","./assets/img/space/14.jpg","[""ArrowUp"",""ArrowRight""]","practice block","space","36","{""ArrowUp,ArrowLeft"":3,""ArrowUp,ArrowRight"":36,""ArrowDown,ArrowLeft"":15,""ArrowDown,ArrowRight"":23}","true","ArrowUp,ArrowRight","false","","","","","","","",""
"html-keyboard-response","78","428442","0.0-3.0-13.0-2.0-1.7","spark_pilot_2","7313","8","11","Female","","","","","","","null","<div style=""font-size:60px;"">+</div>","null","fixation","","","","","","","","","","","","","",""
"revaluation","79","432453","0.0-3.0-13.0-2.0-0.8","spark_pilot_2","7313","8","11","Female","","false","","","","","[506.09999990463257]","./assets/img/space/catch/3.jpg","[""spaceBar""]","practice block","space","0","{""ArrowUp,ArrowLeft"":3,""ArrowUp,ArrowRight"":36,""ArrowDown,ArrowLeft"":15,""ArrowDown,ArrowRight"":23}","true","spaceBar","true","","","","","","","",""
"html-keyboard-response","80","432973","0.0-3.0-13.0-2.0-1.8","spark_pilot_2","7313","8","11","Female","","","","","","","null","<div style=""font-size:60px;"">+</div>","null","fixation","","","","","","","","","","","","","",""
"learning-instructions","81","449689","0.0-3.0-13.0-3.0-0.0","spark_pilot_2","7313","8","11","Female","","","","","","","2112.600000143051","<p> Now, you will travel with a friend who will choose whether you go up or down first. </p>
            <p> On these turns, you will just see the animal that they found. You will still get to choose which chest to search for treasure.</p>","","instructions","","","","","","","","","","","","","",""
"revaluation","82","453718","0.0-3.0-13.0-4.0-0.0","spark_pilot_2","7313","8","11","Female","","false","","","","","[1524.5]","./assets/img/space/animals/cat.jpg","[""ArrowRight""]","practice block","space","36","{""ArrowUp,ArrowLeft"":3,""ArrowUp,ArrowRight"":36,""ArrowDown,ArrowLeft"":15,""ArrowDown,ArrowRight"":23}","true","ArrowUp,ArrowRight","","","","","","","","",""
"html-keyboard-response","83","454232","0.0-3.0-13.0-4.0-1.0","spark_pilot_2","7313","8","11","Female","","","","","","","null","<div style=""font-size:60px;"">+</div>","null","fixation","","","","","","","","","","","","","",""
"revaluation","84","458256","0.0-3.0-13.0-4.0-0.1","spark_pilot_2","7313","8","11","Female","","false","","","","","[731.8999998569489]","./assets/img/space/animals/rabbit.jpg","[""ArrowLeft""]","practice block","space","15","{""ArrowUp,ArrowLeft"":3,""ArrowUp,ArrowRight"":36,""ArrowDown,ArrowLeft"":15,""ArrowDown,ArrowRight"":23}","false","ArrowDown,ArrowLeft","","","","","","","","",""
"html-keyboard-response","85","458769","0.0-3.0-13.0-4.0-1.1","spark_pilot_2","7313","8","11","Female","","","","","","","null","<div style=""font-size:60px;"">+</div>","null","fixation","","","","","","","","","","","","","",""
"revaluation","86","462801","0.0-3.0-13.0-4.0-0.2","spark_pilot_2","7313","8","11","Female","","false","","","","","[334.90000009536743]","./assets/img/space/animals/cat.jpg","[""ArrowRight""]","practice block","space","36","{""ArrowUp,ArrowLeft"":3,""ArrowUp,ArrowRight"":36,""ArrowDown,ArrowLeft"":15,""ArrowDown,ArrowRight"":23}","true","ArrowUp,ArrowRight","","","","","","","","",""
"html-keyboard-response","87","463317","0.0-3.0-13.0-4.0-1.2","spark_pilot_2","7313","8","11","Female","","","","","","","null","<div style=""font-size:60px;"">+</div>","null","fixation","","","","","","","","","","","","","",""
"revaluation","88","467338","0.0-3.0-13.0-4.0-0.3","spark_pilot_2","7313","8","11","Female","","false","","","","","[349.40000009536743]","./assets/img/space/animals/rabbit.jpg","[""ArrowRight""]","practice block","space","23","{""ArrowUp,ArrowLeft"":3,""ArrowUp,ArrowRight"":36,""ArrowDown,ArrowLeft"":15,""ArrowDown,ArrowRight"":23}","true","ArrowDown,ArrowRight","","","","","","","","",""
"html-keyboard-response","89","467856","0.0-3.0-13.0-4.0-1.3","spark_pilot_2","7313","8","11","Female","","","","","","","null","<div style=""font-size:60px;"">+</div>","null","fixation","","","","","","","","","","","","","",""
"learning-instructions","90","477015","0.0-3.0-13.0-5.0-0.0","spark_pilot_2","7313","8","11","Female","","","","","","","1768.1999998092651","<p> Time to play the dot game! </p>
            <p> For 15 seconds, click the red dots on the following screen as they appear. </p>","","instructions","","","","","","","","","","","","","",""
"revaluation","91","492019","0.0-3.0-13.0-6.0-0.0","spark_pilot_2","7313","8","11","Female","","","","","","","[97]","","","rest practice","","10","","","","","0","15000","","","","","",""
"learning-instructions","92","501283","0.0-3.0-13.0-7.0-0.0","spark_pilot_2","7313","8","11","Female","","","","","","","3125","<p> You have almost finished this part of the game! </p>
            <p> We are going to ask you to make a few more choices. </p>","","instructions","","","","","","","","","","","","","",""
"learning-instructions","93","517118","0.0-3.0-13.0-7.0-0.1","spark_pilot_2","7313","8","11","Female","","","","","","","1771.6000001430511","<p> First, you need to decide whether to go up or down. When you see each picture, use the arrow keys to make your choice. </p>
            <p><b>You will not see which animal you found, but try to get to the one that will give you the most treasure.</b></p>","","instructions","","","","","","","","","","","","","",""
"revaluation","94","518186","0.0-3.0-13.0-8.0","spark_pilot_2","7313","8","11","Female","","false","","","","","[1066.0999999046326]","./assets/img/space/15.jpg","[""ArrowUp""]","practice block","space","0","{""ArrowUp,ArrowLeft"":3,""ArrowUp,ArrowRight"":36,""ArrowDown,ArrowLeft"":15,""ArrowDown,ArrowRight"":23}","true","ArrowUp","false","","","","","","","",""
"html-keyboard-response","95","518690","0.0-3.0-13.0-9.0","spark_pilot_2","7313","8","11","Female","","","","","","","null","<div style=""font-size:60px;"">+</div>","null","fixation","","","","","","","","","","","","","",""
"learning-instructions","96","531012","0.0-3.0-13.0-10.0-0.0","spark_pilot_2","7313","8","11","Female","","","","","","","946.4000000953674","<p> Now you will see the animals again and can search their chests for treasure. </p>
            <p> This time, you will not see how much treasure you earned, but you will earn more bonus money for making better choices. </p>","","instructions","","","","","","","","","","","","","",""
"revaluation","97","531884","0.0-3.0-13.0-11.0-0.0","spark_pilot_2","7313","8","11","Female","","false","","","","","[870.7999999523163]","./assets/img/space/animals/cat.jpg","[""ArrowLeft""]","practice block","space","0","{""ArrowUp,ArrowLeft"":3,""ArrowUp,ArrowRight"":36,""ArrowDown,ArrowLeft"":15,""ArrowDown,ArrowRight"":23}","false","ArrowUp,ArrowLeft","","","","","","","","",""
"html-keyboard-response","98","532395","0.0-3.0-13.0-11.0-1.0","spark_pilot_2","7313","8","11","Female","","","","","","","null","<div style=""font-size:60px;"">+</div>","null","fixation","","","","","","","","","","","","","",""
"revaluation","99","533021","0.0-3.0-13.0-11.0-0.1","spark_pilot_2","7313","8","11","Female","","false","","","","","[622.7000000476837]","./assets/img/space/animals/rabbit.jpg","[""ArrowRight""]","practice block","space","0","{""ArrowUp,ArrowLeft"":3,""ArrowUp,ArrowRight"":36,""ArrowDown,ArrowLeft"":15,""ArrowDown,ArrowRight"":23}","true","ArrowDown,ArrowRight","","","","","","","","",""
"html-keyboard-response","100","533533","0.0-3.0-13.0-11.0-1.1","spark_pilot_2","7313","8","11","Female","","","","","","","null","<div style=""font-size:60px;"">+</div>","null","fixation","","","","","","","","","","","","","",""
"learning-instructions","101","538719","0.0-3.0-14.0-0.0","spark_pilot_2","7313","8","11","Female","","","","","","","613.7999999523163","<p> Before you start, we're going to ask you a few questions about how the game works. </p>","","instructions","","","","","","","","","","","","","",""
"comp-q","102","545457","0.0-3.0-15.0-0.0-0.0","spark_pilot_2","7313","8","11","Female","","","","","","","1148.7999999523163","<p> <b> True or False? </b> </p>
            <p> There can be 50 pieces of treasure in a given animal's chest. </p>","0","comp_question","","","","false","","","","","","","","","",""
"comp-q","103","553247","0.0-3.0-15.0-0.0-1.0","spark_pilot_2","7313","8","11","Female","","","","","","","1261.1999998092651","<p> <b>Incorrect.</b> The amount of treasure in each chest can range from 0 to 40 pieces. </p>","0","comp_answer","","","","","","","","","","","","","",""
"comp-q","104","559869","0.0-3.0-15.0-0.1-0.1","spark_pilot_2","7313","8","11","Female","","","","","","","1062.5","<p> <b> True or False? </b> </p>
            <p> There can be 50 pieces of treasure in a given animal's chest. </p>","1","comp_question","","","","true","","","","","","","","","",""
"comp-q","105","569235","0.0-3.0-15.0-0.1-1.1","spark_pilot_2","7313","8","11","Female","","","","","","","2709.7000000476837","<p> <b> That's right! </b> The amount of treasure in each chest can range from 0 to 40 pieces. </p>","0","comp_answer","","","","","","","","","","","","","",""
"comp-q","106","578751","0.0-3.0-15.0-0.2-0.2","spark_pilot_2","7313","8","11","Female","","","","","","","2405.4000000953674","<p> <b> True or False? </b> </p><p> In this game, all animals have the same amount of treasure in their left and right chests. </p>","1","comp_question","","","","true","","","","","","","","","",""
"comp-q","107","584949","0.0-3.0-15.0-0.2-1.2","spark_pilot_2","7313","8","11","Female","","","","","","","962.7999999523163","<p> <b> That's right! </b> Animals have different amounts of treasure in their treasure chests. </p>","0","comp_answer","","","","","","","","","","","","","",""
"comp-q","108","591474","0.0-3.0-15.0-0.3-0.3","spark_pilot_2","7313","8","11","Female","","","","","","","678","<p> <b> True or False? </b> </p><p> The same animal will always be there if you go up in the same place. </p>","0","comp_question","","","","true","","","","","","","","","",""
"comp-q","109","599137","0.0-3.0-15.0-0.3-1.3","spark_pilot_2","7313","8","11","Female","","","","","","","1208","<p> <b> That's right! </b> One animal lives in the upper part and one lives in the lower part of every place. </p>","0","comp_answer","","","","","","","","","","","","","",""
"comp-q","110","605693","0.0-3.0-15.0-0.4-0.4","spark_pilot_2","7313","8","11","Female","","","","","","","1004.5999999046326","<p> <b> True or False? </b> </p><p> If you see a different picture, it means you are in a new place. </p>","1","comp_question","","","","true","","","","","","","","","",""
"comp-q","111","618915","0.0-3.0-15.0-0.4-1.4","spark_pilot_2","7313","8","11","Female","","","","","","","1956.4000000953674","<p> <b> That's right! </b> Lots of different images may show the same place. For example,  you may see three different images that all remind you that you are in outer space. </p>","0","comp_answer","","","","","","","","","","","","","",""
"learning-instructions","112","630825","0.0-3.0-16.0-0.0","spark_pilot_2","7313","8","11","Female","","","","","","","1985.5999999046326","<p> Good job. Remember to do your best because the amount of treasure you earn will be converted into bonus money. </p>
            <p> It’s time to start the real game! </p>","","instructions","","","","","","","","","","","","","",""
"learning-instructions","113","634925","0.0-4.0-0.0-0.0","spark_pilot_2","7313","8","11","Female","","","","","","","1316.5","<p> This time you are searching for treasure in the <b>canyon</b>.</p>","","instructions","","","","","","","","","","","","","",""
"learning-instructions","114","655108","0.0-4.0-0.0-0.1","spark_pilot_2","7313","8","11","Female","","","","","","","2829.2999999523163","<p><b>New</b> animals with <b>new</b> treasure chests live here. You need to explore to discover where the animal with the best treasure chest is.</p>
                    <p> Like before, once you figure out which animal has the chest with the most treasure, you should try to get to that animal and select that chest! </p>","","instructions","","","","","","","","","","","","","",""
"learning-instructions","115","670708","0.0-4.0-1.0-0.0","spark_pilot_2","7313","8","11","Female","","","","","","","870.2000000476837","<p> Remember, when you see a picture of the place, use the up and down keys to <b>find an animal</b>.</p>
            <p> When you encounter an animal, you should use the left and right keys to <b>select a treasure chest</b>.</p>
            <p> Don't forget to look out for the robber! </p>","","instructions","","","","","","","","","","","","","",""
"revaluation","116","676741","0.0-4.0-2.0-0.0","spark_pilot_2","7313","8","11","Female","","false","","","","","[885.2999999523163,722.8999998569489]","./assets/img/canyon/memory/40.jpg","[""ArrowUp"",""ArrowRight""]","value training","canyon","10","{""ArrowUp,ArrowLeft"":26,""ArrowUp,ArrowRight"":10,""ArrowDown,ArrowLeft"":5,""ArrowDown,ArrowRight"":17}","false","ArrowUp,ArrowRight","false","","","revaluation","1","0","","",""
"html-keyboard-response","117","677256","0.0-4.0-2.0-1.0","spark_pilot_2","7313","8","11","Female","","","","","","","null","<div style=""font-size:60px;"">+</div>","null","fixation","","","","","","","","","","","1","","",""
"revaluation","118","683279","0.0-4.0-2.0-0.1","spark_pilot_2","7313","8","11","Female","","false","","","","","[511.7000000476837,521.7999999523163]","./assets/img/canyon/memory/34.jpg","[""ArrowUp"",""ArrowLeft""]","value training","canyon","26","{""ArrowUp,ArrowLeft"":26,""ArrowUp,ArrowRight"":10,""ArrowDown,ArrowLeft"":5,""ArrowDown,ArrowRight"":17}","true","ArrowUp,ArrowLeft","false","","","revaluation","1","2","","",""
"html-keyboard-response","119","683792","0.0-4.0-2.0-1.1","spark_pilot_2","7313","8","11","Female","","","","","","","null","<div style=""font-size:60px;"">+</div>","null","fixation","","","","","","","","","","","3","","",""
"revaluation","120","689831","0.0-4.0-2.0-0.2","spark_pilot_2","7313","8","11","Female","","false","","","","","[336.59999990463257,457]","./assets/img/canyon/memory/16.jpg","[""ArrowDown"",""ArrowLeft""]","value training","canyon","5","{""ArrowUp,ArrowLeft"":26,""ArrowUp,ArrowRight"":10,""ArrowDown,ArrowLeft"":5,""ArrowDown,ArrowRight"":17}","false","ArrowDown,ArrowLeft","false","","","revaluation","1","4","","",""
"html-keyboard-response","121","690347","0.0-4.0-2.0-1.2","spark_pilot_2","7313","8","11","Female","","","","","","","null","<div style=""font-size:60px;"">+</div>","null","fixation","","","","","","","","","","","5","","",""
"revaluation","122","694374","0.0-4.0-2.0-0.3","spark_pilot_2","7313","8","11","Female","","false","","","","","[281.09999990463257]","./assets/img/canyon/catch/0.jpg","[""ArrowDown""]","value training","canyon","-10","{""ArrowUp,ArrowLeft"":26,""ArrowUp,ArrowRight"":10,""ArrowDown,ArrowLeft"":5,""ArrowDown,ArrowRight"":17}","false","ArrowDown","true","","","revaluation","1","6","","",""
"html-keyboard-response","123","694888","0.0-4.0-2.0-1.3","spark_pilot_2","7313","8","11","Female","","","","","","","null","<div style=""font-size:60px;"">+</div>","null","fixation","","","","","","","","","","","7","","",""
"revaluation","124","700915","0.0-4.0-2.0-0.4","spark_pilot_2","7313","8","11","Female","","false","","","","","[1085.9000000953674,399.7000000476837]","./assets/img/canyon/memory/24.jpg","[""ArrowDown"",""ArrowRight""]","value training","canyon","17","{""ArrowUp,ArrowLeft"":26,""ArrowUp,ArrowRight"":10,""ArrowDown,ArrowLeft"":5,""ArrowDown,ArrowRight"":17}","false","ArrowDown,ArrowRight","false","","","revaluation","1","8","","",""
"html-keyboard-response","125","701416","0.0-4.0-2.0-1.4","spark_pilot_2","7313","8","11","Female","","","","","","","null","<div style=""font-size:60px;"">+</div>","null","fixation","","","","","","","","","","","9","","",""
"revaluation","126","707444","0.0-4.0-2.0-0.5","spark_pilot_2","7313","8","11","Female","","false","","","","","[446.59999990463257,471.7999999523163]","./assets/img/canyon/memory/8.jpg","[""ArrowUp"",""ArrowRight""]","value training","canyon","10","{""ArrowUp,ArrowLeft"":26,""ArrowUp,ArrowRight"":10,""ArrowDown,ArrowLeft"":5,""ArrowDown,ArrowRight"":17}","false","ArrowUp,ArrowRight","false","","","revaluation","1","10","","",""
"html-keyboard-response","127","707949","0.0-4.0-2.0-1.5","spark_pilot_2","7313","8","11","Female","","","","","","","null","<div style=""font-size:60px;"">+</div>","null","fixation","","","","","","","","","","","11","","",""
"revaluation","128","713959","0.0-4.0-2.0-0.6","spark_pilot_2","7313","8","11","Female","","false","","","","","[695.4000000953674,384.7000000476837]","./assets/img/canyon/memory/4.jpg","[""ArrowUp"",""ArrowLeft""]","value training","canyon","26","{""ArrowUp,ArrowLeft"":26,""ArrowUp,ArrowRight"":10,""ArrowDown,ArrowLeft"":5,""ArrowDown,ArrowRight"":17}","true","ArrowUp,ArrowLeft","false","","","revaluation","1","12","","",""
"html-keyboard-response","129","714462","0.0-4.0-2.0-1.6","spark_pilot_2","7313","8","11","Female","","","","","","","null","<div style=""font-size:60px;"">+</div>","null","fixation","","","","","","","","","","","13","","",""
"revaluation","130","720474","0.0-4.0-2.0-0.7","spark_pilot_2","7313","8","11","Female","","false","","","","","[442.30000019073486,501.2999999523163]","./assets/img/canyon/memory/7.jpg","[""ArrowUp"",""ArrowLeft""]","value training","canyon","26","{""ArrowUp,ArrowLeft"":26,""ArrowUp,ArrowRight"":10,""ArrowDown,ArrowLeft"":5,""ArrowDown,ArrowRight"":17}","true","ArrowUp,ArrowLeft","false","","","revaluation","1","14","","",""
"html-keyboard-response","131","720976","0.0-4.0-2.0-1.7","spark_pilot_2","7313","8","11","Female","","","","","","","null","<div style=""font-size:60px;"">+</div>","null","fixation","","","","","","","","","","","15","","",""
"revaluation","132","726986","0.0-4.0-2.0-0.8","spark_pilot_2","7313","8","11","Female","","false","","","","","[576.9000000953674,567.6000001430511]","./assets/img/canyon/memory/27.jpg","[""ArrowUp"",""ArrowLeft""]","value training","canyon","26","{""ArrowUp,ArrowLeft"":26,""ArrowUp,ArrowRight"":10,""ArrowDown,ArrowLeft"":5,""ArrowDown,ArrowRight"":17}","true","ArrowUp,ArrowLeft","false","","","revaluation","1","16","","",""
"html-keyboard-response","133","727490","0.0-4.0-2.0-1.8","spark_pilot_2","7313","8","11","Female","","","","","","","null","<div style=""font-size:60px;"">+</div>","null","fixation","","","","","","","","","","","17","","",""
"revaluation","134","731498","0.0-4.0-2.0-0.9","spark_pilot_2","7313","8","11","Female","","false","","","","","[892]","./assets/img/canyon/catch/2.jpg","[""spaceBar""]","value training","canyon","0","{""ArrowUp,ArrowLeft"":26,""ArrowUp,ArrowRight"":10,""ArrowDown,ArrowLeft"":5,""ArrowDown,ArrowRight"":17}","true","spaceBar","true","","","revaluation","1","18","","",""
"html-keyboard-response","135","732001","0.0-4.0-2.0-1.9","spark_pilot_2","7313","8","11","Female","","","","","","","null","<div style=""font-size:60px;"">+</div>","null","fixation","","","","","","","","","","","19","","",""
"revaluation","136","738014","0.0-4.0-2.0-0.10","spark_pilot_2","7313","8","11","Female","","false","","","","","[618.8999998569489,312.69999980926514]","./assets/img/canyon/memory/27.jpg","[""ArrowUp"",""ArrowLeft""]","value training","canyon","26","{""ArrowUp,ArrowLeft"":26,""ArrowUp,ArrowRight"":10,""ArrowDown,ArrowLeft"":5,""ArrowDown,ArrowRight"":17}","true","ArrowUp,ArrowLeft","false","","","revaluation","1","20","","",""
"html-keyboard-response","137","738516","0.0-4.0-2.0-1.10","spark_pilot_2","7313","8","11","Female","","","","","","","null","<div style=""font-size:60px;"">+</div>","null","fixation","","","","","","","","","","","21","","",""
"revaluation","138","744525","0.0-4.0-2.0-0.11","spark_pilot_2","7313","8","11","Female","","false","","","","","[490.59999990463257,370.19999980926514]","./assets/img/canyon/memory/23.jpg","[""ArrowUp"",""ArrowLeft""]","value training","canyon","26","{""ArrowUp,ArrowLeft"":26,""ArrowUp,ArrowRight"":10,""ArrowDown,ArrowLeft"":5,""ArrowDown,ArrowRight"":17}","true","ArrowUp,ArrowLeft","false","","","revaluation","1","22","","",""
"html-keyboard-response","139","745027","0.0-4.0-2.0-1.11","spark_pilot_2","7313","8","11","Female","","","","","","","null","<div style=""font-size:60px;"">+</div>","null","fixation","","","","","","","","","","","23","","",""
"revaluation","140","751037","0.0-4.0-2.0-0.12","spark_pilot_2","7313","8","11","Female","","false","","","","","[541.1999998092651,385.7999999523163]","./assets/img/canyon/memory/0.jpg","[""ArrowUp"",""ArrowLeft""]","value training","canyon","26","{""ArrowUp,ArrowLeft"":26,""ArrowUp,ArrowRight"":10,""ArrowDown,ArrowLeft"":5,""ArrowDown,ArrowRight"":17}","true","ArrowUp,ArrowLeft","false","","","revaluation","1","24","","",""
"html-keyboard-response","141","751539","0.0-4.0-2.0-1.12","spark_pilot_2","7313","8","11","Female","","","","","","","null","<div style=""font-size:60px;"">+</div>","null","fixation","","","","","","","","","","","25","","",""
"revaluation","142","755548","0.0-4.0-2.0-0.13","spark_pilot_2","7313","8","11","Female","","false","","","","","[447.2999999523163]","./assets/img/canyon/catch/7.jpg","[""ArrowUp""]","value training","canyon","-10","{""ArrowUp,ArrowLeft"":26,""ArrowUp,ArrowRight"":10,""ArrowDown,ArrowLeft"":5,""ArrowDown,ArrowRight"":17}","false","ArrowUp","true","","","revaluation","1","26","","",""
"html-keyboard-response","143","756051","0.0-4.0-2.0-1.13","spark_pilot_2","7313","8","11","Female","","","","","","","null","<div style=""font-size:60px;"">+</div>","null","fixation","","","","","","","","","","","27","","",""
"revaluation","144","762061","0.0-4.0-2.0-0.14","spark_pilot_2","7313","8","11","Female","","false","","","","","[1183.5,431.2999999523163]","./assets/img/canyon/memory/20.jpg","[""ArrowUp"",""ArrowLeft""]","value training","canyon","26","{""ArrowUp,ArrowLeft"":26,""ArrowUp,ArrowRight"":10,""ArrowDown,ArrowLeft"":5,""ArrowDown,ArrowRight"":17}","true","ArrowUp,ArrowLeft","false","","","revaluation","1","28","","",""
"html-keyboard-response","145","762564","0.0-4.0-2.0-1.14","spark_pilot_2","7313","8","11","Female","","","","","","","null","<div style=""font-size:60px;"">+</div>","null","fixation","","","","","","","","","","","29","","",""
"revaluation","146","768578","0.0-4.0-2.0-0.15","spark_pilot_2","7313","8","11","Female","","false","","","","","[641.2999999523163,780.0999999046326]","./assets/img/canyon/memory/19.jpg","[""ArrowUp"",""ArrowLeft""]","value training","canyon","26","{""ArrowUp,ArrowLeft"":26,""ArrowUp,ArrowRight"":10,""ArrowDown,ArrowLeft"":5,""ArrowDown,ArrowRight"":17}","true","ArrowUp,ArrowLeft","false","","","revaluation","1","30","","",""
"html-keyboard-response","147","769081","0.0-4.0-2.0-1.15","spark_pilot_2","7313","8","11","Female","","","","","","","null","<div style=""font-size:60px;"">+</div>","null","fixation","","","","","","","","","","","31","","",""
"revaluation","148","775092","0.0-4.0-2.0-0.16","spark_pilot_2","7313","8","11","Female","","false","","","","","[868.2999999523163,541.7000000476837]","./assets/img/canyon/memory/11.jpg","[""ArrowUp"",""ArrowLeft""]","value training","canyon","26","{""ArrowUp,ArrowLeft"":26,""ArrowUp,ArrowRight"":10,""ArrowDown,ArrowLeft"":5,""ArrowDown,ArrowRight"":17}","true","ArrowUp,ArrowLeft","false","","","revaluation","1","32","","",""
"html-keyboard-response","149","775594","0.0-4.0-2.0-1.16","spark_pilot_2","7313","8","11","Female","","","","","","","null","<div style=""font-size:60px;"">+</div>","null","fixation","","","","","","","","","","","33","","",""
"revaluation","150","781603","0.0-4.0-2.0-0.17","spark_pilot_2","7313","8","11","Female","","false","","","","","[820.2999999523163,512.7000000476837]","./assets/img/canyon/memory/37.jpg","[""ArrowUp"",""ArrowLeft""]","value training","canyon","26","{""ArrowUp,ArrowLeft"":26,""ArrowUp,ArrowRight"":10,""ArrowDown,ArrowLeft"":5,""ArrowDown,ArrowRight"":17}","true","ArrowUp,ArrowLeft","false","","","revaluation","1","34","","",""
"html-keyboard-response","151","782106","0.0-4.0-2.0-1.17","spark_pilot_2","7313","8","11","Female","","","","","","","null","<div style=""font-size:60px;"">+</div>","null","fixation","","","","","","","","","","","35","","",""
"revaluation","152","788116","0.0-4.0-2.0-0.18","spark_pilot_2","7313","8","11","Female","","false","","","","","[991,479.09999990463257]","./assets/img/canyon/memory/7.jpg","[""ArrowUp"",""ArrowLeft""]","value training","canyon","26","{""ArrowUp,ArrowLeft"":26,""ArrowUp,ArrowRight"":10,""ArrowDown,ArrowLeft"":5,""ArrowDown,ArrowRight"":17}","true","ArrowUp,ArrowLeft","false","","","revaluation","1","36","","",""
"html-keyboard-response","153","788620","0.0-4.0-2.0-1.18","spark_pilot_2","7313","8","11","Female","","","","","","","null","<div style=""font-size:60px;"">+</div>","null","fixation","","","","","","","","","","","37","","",""
"revaluation","154","794631","0.0-4.0-2.0-0.19","spark_pilot_2","7313","8","11","Female","","false","","","","","[628.7999999523163,565.5]","./assets/img/canyon/memory/17.jpg","[""ArrowUp"",""ArrowLeft""]","value training","canyon","26","{""ArrowUp,ArrowLeft"":26,""ArrowUp,ArrowRight"":10,""ArrowDown,ArrowLeft"":5,""ArrowDown,ArrowRight"":17}","true","ArrowUp,ArrowLeft","false","","","revaluation","1","38","","",""
"html-keyboard-response","155","795134","0.0-4.0-2.0-1.19","spark_pilot_2","7313","8","11","Female","","","","","","","null","<div style=""font-size:60px;"">+</div>","null","fixation","","","","","","","","","","","39","","",""
"revaluation","156","801144","0.0-4.0-2.0-0.20","spark_pilot_2","7313","8","11","Female","","false","","","","","[571.7000000476837,960.7000000476837]","./assets/img/canyon/memory/11.jpg","[""ArrowUp"",""ArrowLeft""]","value training","canyon","26","{""ArrowUp,ArrowLeft"":26,""ArrowUp,ArrowRight"":10,""ArrowDown,ArrowLeft"":5,""ArrowDown,ArrowRight"":17}","true","ArrowUp,ArrowLeft","false","","","revaluation","1","40","","",""
"html-keyboard-response","157","801646","0.0-4.0-2.0-1.20","spark_pilot_2","7313","8","11","Female","","","","","","","null","<div style=""font-size:60px;"">+</div>","null","fixation","","","","","","","","","","","41","","",""
"revaluation","158","807654","0.0-4.0-2.0-0.21","spark_pilot_2","7313","8","11","Female","","false","","","","","[917.9000000953674,440.10000014305115]","./assets/img/canyon/memory/1.jpg","[""ArrowUp"",""ArrowLeft""]","value training","canyon","26","{""ArrowUp,ArrowLeft"":26,""ArrowUp,ArrowRight"":10,""ArrowDown,ArrowLeft"":5,""ArrowDown,ArrowRight"":17}","true","ArrowUp,ArrowLeft","false","","","revaluation","1","42","","",""
"html-keyboard-response","159","808156","0.0-4.0-2.0-1.21","spark_pilot_2","7313","8","11","Female","","","","","","","null","<div style=""font-size:60px;"">+</div>","null","fixation","","","","","","","","","","","43","","",""
"revaluation","160","814176","0.0-4.0-2.0-0.22","spark_pilot_2","7313","8","11","Female","","false","","","","","[499.7999999523163,471.2999999523163]","./assets/img/canyon/memory/38.jpg","[""ArrowUp"",""ArrowLeft""]","value training","canyon","26","{""ArrowUp,ArrowLeft"":26,""ArrowUp,ArrowRight"":10,""ArrowDown,ArrowLeft"":5,""ArrowDown,ArrowRight"":17}","true","ArrowUp,ArrowLeft","false","","","revaluation","1","44","","",""
"html-keyboard-response","161","814679","0.0-4.0-2.0-1.22","spark_pilot_2","7313","8","11","Female","","","","","","","null","<div style=""font-size:60px;"">+</div>","null","fixation","","","","","","","","","","","45","","",""
"revaluation","162","820688","0.0-4.0-2.0-0.23","spark_pilot_2","7313","8","11","Female","","false","","","","","[671,314]","./assets/img/canyon/memory/8.jpg","[""ArrowUp"",""ArrowLeft""]","value training","canyon","26","{""ArrowUp,ArrowLeft"":26,""ArrowUp,ArrowRight"":10,""ArrowDown,ArrowLeft"":5,""ArrowDown,ArrowRight"":17}","true","ArrowUp,ArrowLeft","false","","","revaluation","1","46","","",""
"html-keyboard-response","163","821191","0.0-4.0-2.0-1.23","spark_pilot_2","7313","8","11","Female","","","","","","","null","<div style=""font-size:60px;"">+</div>","null","fixation","","","","","","","","","","","47","","",""
"revaluation","164","827200","0.0-4.0-2.0-0.24","spark_pilot_2","7313","8","11","Female","","false","","","","","[484.7999999523163,373.2000000476837]","./assets/img/canyon/memory/17.jpg","[""ArrowUp"",""ArrowLeft""]","value training","canyon","26","{""ArrowUp,ArrowLeft"":26,""ArrowUp,ArrowRight"":10,""ArrowDown,ArrowLeft"":5,""ArrowDown,ArrowRight"":17}","true","ArrowUp,ArrowLeft","false","","","revaluation","1","48","","",""
"html-keyboard-response","165","827702","0.0-4.0-2.0-1.24","spark_pilot_2","7313","8","11","Female","","","","","","","null","<div style=""font-size:60px;"">+</div>","null","fixation","","","","","","","","","","","49","","",""
"revaluation","166","833710","0.0-4.0-2.0-0.25","spark_pilot_2","7313","8","11","Female","","false","","","","","[694.4000000953674,472.10000014305115]","./assets/img/canyon/memory/37.jpg","[""ArrowUp"",""ArrowLeft""]","value training","canyon","26","{""ArrowUp,ArrowLeft"":26,""ArrowUp,ArrowRight"":10,""ArrowDown,ArrowLeft"":5,""ArrowDown,ArrowRight"":17}","true","ArrowUp,ArrowLeft","false","","","revaluation","1","50","","",""
"html-keyboard-response","167","834213","0.0-4.0-2.0-1.25","spark_pilot_2","7313","8","11","Female","","","","","","","null","<div style=""font-size:60px;"">+</div>","null","fixation","","","","","","","","","","","51","","",""
"revaluation","168","838225","0.0-4.0-2.0-0.26","spark_pilot_2","7313","8","11","Female","","false","","","","","[655.4000000953674]","./assets/img/canyon/catch/4.jpg","[""spaceBar""]","value training","canyon","0","{""ArrowUp,ArrowLeft"":26,""ArrowUp,ArrowRight"":10,""ArrowDown,ArrowLeft"":5,""ArrowDown,ArrowRight"":17}","true","spaceBar","true","","","revaluation","1","52","","",""
"html-keyboard-response","169","838729","0.0-4.0-2.0-1.26","spark_pilot_2","7313","8","11","Female","","","","","","","null","<div style=""font-size:60px;"">+</div>","null","fixation","","","","","","","","","","","53","","",""
"revaluation","170","844740","0.0-4.0-2.0-0.27","spark_pilot_2","7313","8","11","Female","","false","","","","","[539.8000001907349,470]","./assets/img/canyon/memory/31.jpg","[""ArrowUp"",""ArrowLeft""]","value training","canyon","26","{""ArrowUp,ArrowLeft"":26,""ArrowUp,ArrowRight"":10,""ArrowDown,ArrowLeft"":5,""ArrowDown,ArrowRight"":17}","true","ArrowUp,ArrowLeft","false","","","revaluation","1","54","","",""
"html-keyboard-response","171","845242","0.0-4.0-2.0-1.27","spark_pilot_2","7313","8","11","Female","","","","","","","null","<div style=""font-size:60px;"">+</div>","null","fixation","","","","","","","","","","","55","","",""
"revaluation","172","851254","0.0-4.0-2.0-0.28","spark_pilot_2","7313","8","11","Female","","false","","","","","[480.5,638.4000000953674]","./assets/img/canyon/memory/16.jpg","[""ArrowUp"",""ArrowLeft""]","value training","canyon","26","{""ArrowUp,ArrowLeft"":26,""ArrowUp,ArrowRight"":10,""ArrowDown,ArrowLeft"":5,""ArrowDown,ArrowRight"":17}","true","ArrowUp,ArrowLeft","false","","","revaluation","1","56","","",""
"html-keyboard-response","173","851756","0.0-4.0-2.0-1.28","spark_pilot_2","7313","8","11","Female","","","","","","","null","<div style=""font-size:60px;"">+</div>","null","fixation","","","","","","","","","","","57","","",""
"revaluation","174","857765","0.0-4.0-2.0-0.29","spark_pilot_2","7313","8","11","Female","","false","","","","","[468,367.09999990463257]","./assets/img/canyon/memory/38.jpg","[""ArrowUp"",""ArrowLeft""]","value training","canyon","26","{""ArrowUp,ArrowLeft"":26,""ArrowUp,ArrowRight"":10,""ArrowDown,ArrowLeft"":5,""ArrowDown,ArrowRight"":17}","true","ArrowUp,ArrowLeft","false","","","revaluation","1","58","","",""
"html-keyboard-response","175","858268","0.0-4.0-2.0-1.29","spark_pilot_2","7313","8","11","Female","","","","","","","null","<div style=""font-size:60px;"">+</div>","null","fixation","","","","","","","","","","","59","","",""
"revaluation","176","864278","0.0-4.0-2.0-0.30","spark_pilot_2","7313","8","11","Female","","false","","","","","[543.2000000476837,507.40000009536743]","./assets/img/canyon/memory/20.jpg","[""ArrowUp"",""ArrowLeft""]","value training","canyon","26","{""ArrowUp,ArrowLeft"":26,""ArrowUp,ArrowRight"":10,""ArrowDown,ArrowLeft"":5,""ArrowDown,ArrowRight"":17}","true","ArrowUp,ArrowLeft","false","","","revaluation","1","60","","",""
"html-keyboard-response","177","864782","0.0-4.0-2.0-1.30","spark_pilot_2","7313","8","11","Female","","","","","","","null","<div style=""font-size:60px;"">+</div>","null","fixation","","","","","","","","","","","61","","",""
"revaluation","178","868790","0.0-4.0-2.0-0.31","spark_pilot_2","7313","8","11","Female","","false","","","","","[974.4000000953674]","./assets/img/canyon/catch/5.jpg","[""spaceBar""]","value training","canyon","0","{""ArrowUp,ArrowLeft"":26,""ArrowUp,ArrowRight"":10,""ArrowDown,ArrowLeft"":5,""ArrowDown,ArrowRight"":17}","true","spaceBar","true","","","revaluation","1","62","","",""
"html-keyboard-response","179","869293","0.0-4.0-2.0-1.31","spark_pilot_2","7313","8","11","Female","","","","","","","null","<div style=""font-size:60px;"">+</div>","null","fixation","","","","","","","","","","","63","","",""
"revaluation","180","875317","0.0-4.0-2.0-0.32","spark_pilot_2","7313","8","11","Female","","false","","","","","[699.6999998092651,784.7999999523163]","./assets/img/canyon/memory/6.jpg","[""ArrowUp"",""ArrowLeft""]","value training","canyon","26","{""ArrowUp,ArrowLeft"":26,""ArrowUp,ArrowRight"":10,""ArrowDown,ArrowLeft"":5,""ArrowDown,ArrowRight"":17}","true","ArrowUp,ArrowLeft","false","","","revaluation","1","64","","",""
"html-keyboard-response","181","875821","0.0-4.0-2.0-1.32","spark_pilot_2","7313","8","11","Female","","","","","","","null","<div style=""font-size:60px;"">+</div>","null","fixation","","","","","","","","","","","65","","",""
"revaluation","182","881829","0.0-4.0-2.0-0.33","spark_pilot_2","7313","8","11","Female","","false","","","","","[845.2000000476837,572.2000000476837]","./assets/img/canyon/memory/19.jpg","[""ArrowUp"",""ArrowLeft""]","value training","canyon","26","{""ArrowUp,ArrowLeft"":26,""ArrowUp,ArrowRight"":10,""ArrowDown,ArrowLeft"":5,""ArrowDown,ArrowRight"":17}","true","ArrowUp,ArrowLeft","false","","","revaluation","1","66","","",""
"html-keyboard-response","183","882336","0.0-4.0-2.0-1.33","spark_pilot_2","7313","8","11","Female","","","","","","","null","<div style=""font-size:60px;"">+</div>","null","fixation","","","","","","","","","","","67","","",""
"revaluation","184","888344","0.0-4.0-2.0-0.34","spark_pilot_2","7313","8","11","Female","","false","","","","","[637.1999998092651,625.2000000476837]","./assets/img/canyon/memory/1.jpg","[""ArrowUp"",""ArrowLeft""]","value training","canyon","26","{""ArrowUp,ArrowLeft"":26,""ArrowUp,ArrowRight"":10,""ArrowDown,ArrowLeft"":5,""ArrowDown,ArrowRight"":17}","true","ArrowUp,ArrowLeft","false","","","revaluation","1","68","","",""
"html-keyboard-response","185","888847","0.0-4.0-2.0-1.34","spark_pilot_2","7313","8","11","Female","","","","","","","null","<div style=""font-size:60px;"">+</div>","null","fixation","","","","","","","","","","","69","","",""
"revaluation","186","894855","0.0-4.0-2.0-0.35","spark_pilot_2","7313","8","11","Female","","false","","","","","[456.7000000476837,426.89999985694885]","./assets/img/canyon/memory/40.jpg","[""ArrowUp"",""ArrowLeft""]","value training","canyon","26","{""ArrowUp,ArrowLeft"":26,""ArrowUp,ArrowRight"":10,""ArrowDown,ArrowLeft"":5,""ArrowDown,ArrowRight"":17}","true","ArrowUp,ArrowLeft","false","","","revaluation","1","70","","",""
"html-keyboard-response","187","895360","0.0-4.0-2.0-1.35","spark_pilot_2","7313","8","11","Female","","","","","","","null","<div style=""font-size:60px;"">+</div>","null","fixation","","","","","","","","","","","71","","",""
"revaluation","188","901374","0.0-4.0-2.0-0.36","spark_pilot_2","7313","8","11","Female","","false","","","","","[1046.7000000476837,1063.5999999046326]","./assets/img/canyon/memory/23.jpg","[""ArrowUp"",""ArrowLeft""]","value training","canyon","26","{""ArrowUp,ArrowLeft"":26,""ArrowUp,ArrowRight"":10,""ArrowDown,ArrowLeft"":5,""ArrowDown,ArrowRight"":17}","true","ArrowUp,ArrowLeft","false","","","revaluation","1","72","","",""
"html-keyboard-response","189","901877","0.0-4.0-2.0-1.36","spark_pilot_2","7313","8","11","Female","","","","","","","null","<div style=""font-size:60px;"">+</div>","null","fixation","","","","","","","","","","","73","","",""
"revaluation","190","907887","0.0-4.0-2.0-0.37","spark_pilot_2","7313","8","11","Female","","false","","","","","[585.2999999523163,1240.5]","./assets/img/canyon/memory/39.jpg","[""ArrowUp"",""ArrowLeft""]","value training","canyon","26","{""ArrowUp,ArrowLeft"":26,""ArrowUp,ArrowRight"":10,""ArrowDown,ArrowLeft"":5,""ArrowDown,ArrowRight"":17}","true","ArrowUp,ArrowLeft","false","","","revaluation","1","74","","",""
"html-keyboard-response","191","908390","0.0-4.0-2.0-1.37","spark_pilot_2","7313","8","11","Female","","","","","","","null","<div style=""font-size:60px;"">+</div>","null","fixation","","","","","","","","","","","75","","",""
"revaluation","192","912398","0.0-4.0-2.0-0.38","spark_pilot_2","7313","8","11","Female","","false","","","","","[901.6000001430511]","./assets/img/canyon/catch/6.jpg","[""spaceBar""]","value training","canyon","0","{""ArrowUp,ArrowLeft"":26,""ArrowUp,ArrowRight"":10,""ArrowDown,ArrowLeft"":5,""ArrowDown,ArrowRight"":17}","true","spaceBar","true","","","revaluation","1","76","","",""
"html-keyboard-response","193","912900","0.0-4.0-2.0-1.38","spark_pilot_2","7313","8","11","Female","","","","","","","null","<div style=""font-size:60px;"">+</div>","null","fixation","","","","","","","","","","","77","","",""
"revaluation","194","918911","0.0-4.0-2.0-0.39","spark_pilot_2","7313","8","11","Female","","false","","","","","[677.5999999046326,1017.2999999523163]","./assets/img/canyon/memory/4.jpg","[""ArrowUp"",""ArrowLeft""]","value training","canyon","26","{""ArrowUp,ArrowLeft"":26,""ArrowUp,ArrowRight"":10,""ArrowDown,ArrowLeft"":5,""ArrowDown,ArrowRight"":17}","true","ArrowUp,ArrowLeft","false","","","revaluation","1","78","","",""
"html-keyboard-response","195","919414","0.0-4.0-2.0-1.39","spark_pilot_2","7313","8","11","Female","","","","","","","null","<div style=""font-size:60px;"">+</div>","null","fixation","","","","","","","","","","","79","","",""
"revaluation","196","925425","0.0-4.0-2.0-0.40","spark_pilot_2","7313","8","11","Female","","false","","","","","[971.3999998569489,680.7999999523163]","./assets/img/canyon/memory/34.jpg","[""ArrowUp"",""ArrowLeft""]","value training","canyon","26","{""ArrowUp,ArrowLeft"":26,""ArrowUp,ArrowRight"":10,""ArrowDown,ArrowLeft"":5,""ArrowDown,ArrowRight"":17}","true","ArrowUp,ArrowLeft","false","","","revaluation","1","80","","",""
"html-keyboard-response","197","925927","0.0-4.0-2.0-1.40","spark_pilot_2","7313","8","11","Female","","","","","","","null","<div style=""font-size:60px;"">+</div>","null","fixation","","","","","","","","","","","81","","",""
"revaluation","198","931936","0.0-4.0-2.0-0.41","spark_pilot_2","7313","8","11","Female","","false","","","","","[752,546.2000000476837]","./assets/img/canyon/memory/24.jpg","[""ArrowUp"",""ArrowLeft""]","value training","canyon","26","{""ArrowUp,ArrowLeft"":26,""ArrowUp,ArrowRight"":10,""ArrowDown,ArrowLeft"":5,""ArrowDown,ArrowRight"":17}","true","ArrowUp,ArrowLeft","false","","","revaluation","1","82","","",""
"html-keyboard-response","199","932438","0.0-4.0-2.0-1.41","spark_pilot_2","7313","8","11","Female","","","","","","","null","<div style=""font-size:60px;"">+</div>","null","fixation","","","","","","","","","","","83","","",""
"revaluation","200","936446","0.0-4.0-2.0-0.42","spark_pilot_2","7313","8","11","Female","","false","","","","","[929.7000000476837]","./assets/img/canyon/catch/3.jpg","[""spaceBar""]","value training","canyon","0","{""ArrowUp,ArrowLeft"":26,""ArrowUp,ArrowRight"":10,""ArrowDown,ArrowLeft"":5,""ArrowDown,ArrowRight"":17}","true","spaceBar","true","","","revaluation","1","84","","",""
"html-keyboard-response","201","936948","0.0-4.0-2.0-1.42","spark_pilot_2","7313","8","11","Female","","","","","","","null","<div style=""font-size:60px;"">+</div>","null","fixation","","","","","","","","","","","85","","",""
"revaluation","202","942954","0.0-4.0-2.0-0.43","spark_pilot_2","7313","8","11","Female","","false","","","","","[587.6999998092651,368.7999999523163]","./assets/img/canyon/memory/31.jpg","[""ArrowUp"",""ArrowLeft""]","value training","canyon","26","{""ArrowUp,ArrowLeft"":26,""ArrowUp,ArrowRight"":10,""ArrowDown,ArrowLeft"":5,""ArrowDown,ArrowRight"":17}","true","ArrowUp,ArrowLeft","false","","","revaluation","1","86","","",""
"html-keyboard-response","203","943457","0.0-4.0-2.0-1.43","spark_pilot_2","7313","8","11","Female","","","","","","","null","<div style=""font-size:60px;"">+</div>","null","fixation","","","","","","","","","","","87","","",""
"revaluation","204","949477","0.0-4.0-2.0-0.44","spark_pilot_2","7313","8","11","Female","","false","","","","","[418.39999985694885,486.89999985694885]","./assets/img/canyon/memory/29.jpg","[""ArrowUp"",""ArrowLeft""]","value training","canyon","26","{""ArrowUp,ArrowLeft"":26,""ArrowUp,ArrowRight"":10,""ArrowDown,ArrowLeft"":5,""ArrowDown,ArrowRight"":17}","true","ArrowUp,ArrowLeft","false","","","revaluation","1","88","","",""
"html-keyboard-response","205","949979","0.0-4.0-2.0-1.44","spark_pilot_2","7313","8","11","Female","","","","","","","null","<div style=""font-size:60px;"">+</div>","null","fixation","","","","","","","","","","","89","","",""
"revaluation","206","955989","0.0-4.0-2.0-0.45","spark_pilot_2","7313","8","11","Female","","false","","","","","[546.2000000476837,890.2000000476837]","./assets/img/canyon/memory/29.jpg","[""ArrowUp"",""ArrowLeft""]","value training","canyon","26","{""ArrowUp,ArrowLeft"":26,""ArrowUp,ArrowRight"":10,""ArrowDown,ArrowLeft"":5,""ArrowDown,ArrowRight"":17}","true","ArrowUp,ArrowLeft","false","","","revaluation","1","90","","",""
"html-keyboard-response","207","956491","0.0-4.0-2.0-1.45","spark_pilot_2","7313","8","11","Female","","","","","","","null","<div style=""font-size:60px;"">+</div>","null","fixation","","","","","","","","","","","91","","",""
"revaluation","208","962502","0.0-4.0-2.0-0.46","spark_pilot_2","7313","8","11","Female","","false","","","","","[874.1000001430511,489.89999985694885]","./assets/img/canyon/memory/6.jpg","[""ArrowUp"",""ArrowLeft""]","value training","canyon","26","{""ArrowUp,ArrowLeft"":26,""ArrowUp,ArrowRight"":10,""ArrowDown,ArrowLeft"":5,""ArrowDown,ArrowRight"":17}","true","ArrowUp,ArrowLeft","false","","","revaluation","1","92","","",""
"html-keyboard-response","209","963004","0.0-4.0-2.0-1.46","spark_pilot_2","7313","8","11","Female","","","","","","","null","<div style=""font-size:60px;"">+</div>","null","fixation","","","","","","","","","","","93","","",""
"revaluation","210","969014","0.0-4.0-2.0-0.47","spark_pilot_2","7313","8","11","Female","","false","","","","","[539.5999999046326,414.59999990463257]","./assets/img/canyon/memory/0.jpg","[""ArrowUp"",""ArrowLeft""]","value training","canyon","26","{""ArrowUp,ArrowLeft"":26,""ArrowUp,ArrowRight"":10,""ArrowDown,ArrowLeft"":5,""ArrowDown,ArrowRight"":17}","true","ArrowUp,ArrowLeft","false","","","revaluation","1","94","","",""
"html-keyboard-response","211","969517","0.0-4.0-2.0-1.47","spark_pilot_2","7313","8","11","Female","","","","","","","null","<div style=""font-size:60px;"">+</div>","null","fixation","","","","","","","","","","","95","","",""
"revaluation","212","973527","0.0-4.0-2.0-0.48","spark_pilot_2","7313","8","11","Female","","false","","","","","[570.2000000476837]","./assets/img/canyon/catch/1.jpg","[""spaceBar""]","value training","canyon","0","{""ArrowUp,ArrowLeft"":26,""ArrowUp,ArrowRight"":10,""ArrowDown,ArrowLeft"":5,""ArrowDown,ArrowRight"":17}","true","spaceBar","true","","","revaluation","1","96","","",""
"html-keyboard-response","213","974029","0.0-4.0-2.0-1.48","spark_pilot_2","7313","8","11","Female","","","","","","","null","<div style=""font-size:60px;"">+</div>","null","fixation","","","","","","","","","","","97","","",""
"revaluation","214","980039","0.0-4.0-2.0-0.49","spark_pilot_2","7313","8","11","Female","","false","","","","","[460.7999999523163,485.2000000476837]","./assets/img/canyon/memory/39.jpg","[""ArrowUp"",""ArrowLeft""]","value training","canyon","26","{""ArrowUp,ArrowLeft"":26,""ArrowUp,ArrowRight"":10,""ArrowDown,ArrowLeft"":5,""ArrowDown,ArrowRight"":17}","true","ArrowUp,ArrowLeft","false","","","revaluation","1","98","","",""
"html-keyboard-response","215","980541","0.0-4.0-2.0-1.49","spark_pilot_2","7313","8","11","Female","","","","","","","null","<div style=""font-size:60px;"">+</div>","null","fixation","","","","","","","","","","","99","","",""
"learning-instructions","216","1006396","0.0-4.0-3.0-0.0","spark_pilot_2","7313","8","11","Female","","","","","","","11301.599999904633","<p> Now, you will travel with a friend who will choose whether you go up or down first. </p>
            <p> On these turns, you will just see the animal that they found. You will still get to choose which chest to search for treasure.</p>","","instructions","","","","","","","","","","","","","",""
"revaluation","217","1010428","0.0-4.0-4.0-0.0","spark_pilot_2","7313","8","11","Female","","false","","","","","[974.2000000476837]","./assets/img/canyon/animals/lion.jpg","[""ArrowLeft""]","revaluation","canyon","8","{""ArrowUp,ArrowLeft"":2,""ArrowUp,ArrowRight"":11,""ArrowDown,ArrowLeft"":8,""ArrowDown,ArrowRight"":27}","false","ArrowDown,ArrowLeft","","","","revaluation","1","0","","",""
"html-keyboard-response","218","1010943","0.0-4.0-4.0-1.0","spark_pilot_2","7313","8","11","Female","","","","","","","null","<div style=""font-size:60px;"">+</div>","null","fixation","","","","","","","","","","","1","","",""
"revaluation","219","1014968","0.0-4.0-4.0-0.1","spark_pilot_2","7313","8","11","Female","","false","","","","","[389.30000019073486]","./assets/img/canyon/animals/giraffe.jpg","[""ArrowLeft""]","revaluation","canyon","2","{""ArrowUp,ArrowLeft"":2,""ArrowUp,ArrowRight"":11,""ArrowDown,ArrowLeft"":8,""ArrowDown,ArrowRight"":27}","false","ArrowUp,ArrowLeft","","","","revaluation","1","2","","",""
"html-keyboard-response","220","1015480","0.0-4.0-4.0-1.1","spark_pilot_2","7313","8","11","Female","","","","","","","null","<div style=""font-size:60px;"">+</div>","null","fixation","","","","","","","","","","","3","","",""
"revaluation","221","1019499","0.0-4.0-4.0-0.2","spark_pilot_2","7313","8","11","Female","","false","","","","","[809.9000000953674]","./assets/img/canyon/animals/giraffe.jpg","[""ArrowRight""]","revaluation","canyon","11","{""ArrowUp,ArrowLeft"":2,""ArrowUp,ArrowRight"":11,""ArrowDown,ArrowLeft"":8,""ArrowDown,ArrowRight"":27}","true","ArrowUp,ArrowRight","","","","revaluation","1","4","","",""
"html-keyboard-response","222","1020014","0.0-4.0-4.0-1.2","spark_pilot_2","7313","8","11","Female","","","","","","","null","<div style=""font-size:60px;"">+</div>","null","fixation","","","","","","","","","","","5","","",""
"revaluation","223","1024035","0.0-4.0-4.0-0.3","spark_pilot_2","7313","8","11","Female","","false","","","","","[477.7000000476837]","./assets/img/canyon/animals/lion.jpg","[""ArrowRight""]","revaluation","canyon","27","{""ArrowUp,ArrowLeft"":2,""ArrowUp,ArrowRight"":11,""ArrowDown,ArrowLeft"":8,""ArrowDown,ArrowRight"":27}","true","ArrowDown,ArrowRight","","","","revaluation","1","6","","",""
"html-keyboard-response","224","1024548","0.0-4.0-4.0-1.3","spark_pilot_2","7313","8","11","Female","","","","","","","null","<div style=""font-size:60px;"">+</div>","null","fixation","","","","","","","","","","","7","","",""
"revaluation","225","1028555","0.0-4.0-4.0-0.4","spark_pilot_2","7313","8","11","Female","","false","","","","","[584.2000000476837]","./assets/img/canyon/animals/giraffe.jpg","[""ArrowRight""]","revaluation","canyon","11","{""ArrowUp,ArrowLeft"":2,""ArrowUp,ArrowRight"":11,""ArrowDown,ArrowLeft"":8,""ArrowDown,ArrowRight"":27}","true","ArrowUp,ArrowRight","","","","revaluation","1","8","","",""
"html-keyboard-response","226","1029059","0.0-4.0-4.0-1.4","spark_pilot_2","7313","8","11","Female","","","","","","","null","<div style=""font-size:60px;"">+</div>","null","fixation","","","","","","","","","","","9","","",""
"revaluation","227","1033073","0.0-4.0-4.0-0.5","spark_pilot_2","7313","8","11","Female","","false","","","","","[434.2000000476837]","./assets/img/canyon/animals/lion.jpg","[""ArrowRight""]","revaluation","canyon","27","{""ArrowUp,ArrowLeft"":2,""ArrowUp,ArrowRight"":11,""ArrowDown,ArrowLeft"":8,""ArrowDown,ArrowRight"":27}","true","ArrowDown,ArrowRight","","","","revaluation","1","10","","",""
"html-keyboard-response","228","1033578","0.0-4.0-4.0-1.5","spark_pilot_2","7313","8","11","Female","","","","","","","null","<div style=""font-size:60px;"">+</div>","null","fixation","","","","","","","","","","","11","","",""
"revaluation","229","1037590","0.0-4.0-4.0-0.6","spark_pilot_2","7313","8","11","Female","","false","","","","","[681.6999998092651]","./assets/img/canyon/animals/giraffe.jpg","[""ArrowRight""]","revaluation","canyon","11","{""ArrowUp,ArrowLeft"":2,""ArrowUp,ArrowRight"":11,""ArrowDown,ArrowLeft"":8,""ArrowDown,ArrowRight"":27}","true","ArrowUp,ArrowRight","","","","revaluation","1","12","","",""
"html-keyboard-response","230","1038093","0.0-4.0-4.0-1.6","spark_pilot_2","7313","8","11","Female","","","","","","","null","<div style=""font-size:60px;"">+</div>","null","fixation","","","","","","","","","","","13","","",""
"revaluation","231","1042104","0.0-4.0-4.0-0.7","spark_pilot_2","7313","8","11","Female","","false","","","","","[441.90000009536743]","./assets/img/canyon/animals/lion.jpg","[""ArrowRight""]","revaluation","canyon","27","{""ArrowUp,ArrowLeft"":2,""ArrowUp,ArrowRight"":11,""ArrowDown,ArrowLeft"":8,""ArrowDown,ArrowRight"":27}","true","ArrowDown,ArrowRight","","","","revaluation","1","14","","",""
"html-keyboard-response","232","1042608","0.0-4.0-4.0-1.7","spark_pilot_2","7313","8","11","Female","","","","","","","null","<div style=""font-size:60px;"">+</div>","null","fixation","","","","","","","","","","","15","","",""
"revaluation","233","1046619","0.0-4.0-4.0-0.8","spark_pilot_2","7313","8","11","Female","","false","","","","","[719.5999999046326]","./assets/img/canyon/animals/giraffe.jpg","[""ArrowRight""]","revaluation","canyon","11","{""ArrowUp,ArrowLeft"":2,""ArrowUp,ArrowRight"":11,""ArrowDown,ArrowLeft"":8,""ArrowDown,ArrowRight"":27}","true","ArrowUp,ArrowRight","","","","revaluation","1","16","","",""
"html-keyboard-response","234","1047122","0.0-4.0-4.0-1.8","spark_pilot_2","7313","8","11","Female","","","","","","","null","<div style=""font-size:60px;"">+</div>","null","fixation","","","","","","","","","","","17","","",""
"revaluation","235","1051131","0.0-4.0-4.0-0.9","spark_pilot_2","7313","8","11","Female","","false","","","","","[416.90000009536743]","./assets/img/canyon/animals/giraffe.jpg","[""ArrowRight""]","revaluation","canyon","11","{""ArrowUp,ArrowLeft"":2,""ArrowUp,ArrowRight"":11,""ArrowDown,ArrowLeft"":8,""ArrowDown,ArrowRight"":27}","true","ArrowUp,ArrowRight","","","","revaluation","1","18","","",""
"html-keyboard-response","236","1051635","0.0-4.0-4.0-1.9","spark_pilot_2","7313","8","11","Female","","","","","","","null","<div style=""font-size:60px;"">+</div>","null","fixation","","","","","","","","","","","19","","",""
"revaluation","237","1055647","0.0-4.0-4.0-0.10","spark_pilot_2","7313","8","11","Female","","false","","","","","[530.3999998569489]","./assets/img/canyon/animals/lion.jpg","[""ArrowRight""]","revaluation","canyon","27","{""ArrowUp,ArrowLeft"":2,""ArrowUp,ArrowRight"":11,""ArrowDown,ArrowLeft"":8,""ArrowDown,ArrowRight"":27}","true","ArrowDown,ArrowRight","","","","revaluation","1","20","","",""
"html-keyboard-response","238","1056149","0.0-4.0-4.0-1.10","spark_pilot_2","7313","8","11","Female","","","","","","","null","<div style=""font-size:60px;"">+</div>","null","fixation","","","","","","","","","","","21","","",""
"revaluation","239","1060158","0.0-4.0-4.0-0.11","spark_pilot_2","7313","8","11","Female","","false","","","","","[499.7999999523163]","./assets/img/canyon/animals/lion.jpg","[""ArrowRight""]","revaluation","canyon","27","{""ArrowUp,ArrowLeft"":2,""ArrowUp,ArrowRight"":11,""ArrowDown,ArrowLeft"":8,""ArrowDown,ArrowRight"":27}","true","ArrowDown,ArrowRight","","","","revaluation","1","22","","",""
"html-keyboard-response","240","1060661","0.0-4.0-4.0-1.11","spark_pilot_2","7313","8","11","Female","","","","","","","null","<div style=""font-size:60px;"">+</div>","null","fixation","","","","","","","","","","","23","","",""
"revaluation","241","1064672","0.0-4.0-4.0-0.12","spark_pilot_2","7313","8","11","Female","","false","","","","","[415.7999999523163]","./assets/img/canyon/animals/lion.jpg","[""ArrowRight""]","revaluation","canyon","27","{""ArrowUp,ArrowLeft"":2,""ArrowUp,ArrowRight"":11,""ArrowDown,ArrowLeft"":8,""ArrowDown,ArrowRight"":27}","true","ArrowDown,ArrowRight","","","","revaluation","1","24","","",""
"html-keyboard-response","242","1065175","0.0-4.0-4.0-1.12","spark_pilot_2","7313","8","11","Female","","","","","","","null","<div style=""font-size:60px;"">+</div>","null","fixation","","","","","","","","","","","25","","",""
"revaluation","243","1069182","0.0-4.0-4.0-0.13","spark_pilot_2","7313","8","11","Female","","false","","","","","[479.5]","./assets/img/canyon/animals/giraffe.jpg","[""ArrowRight""]","revaluation","canyon","11","{""ArrowUp,ArrowLeft"":2,""ArrowUp,ArrowRight"":11,""ArrowDown,ArrowLeft"":8,""ArrowDown,ArrowRight"":27}","true","ArrowUp,ArrowRight","","","","revaluation","1","26","","",""
"html-keyboard-response","244","1069685","0.0-4.0-4.0-1.13","spark_pilot_2","7313","8","11","Female","","","","","","","null","<div style=""font-size:60px;"">+</div>","null","fixation","","","","","","","","","","","27","","",""
"revaluation","245","1073693","0.0-4.0-4.0-0.14","spark_pilot_2","7313","8","11","Female","","false","","","","","[476.89999985694885]","./assets/img/canyon/animals/giraffe.jpg","[""ArrowRight""]","revaluation","canyon","11","{""ArrowUp,ArrowLeft"":2,""ArrowUp,ArrowRight"":11,""ArrowDown,ArrowLeft"":8,""ArrowDown,ArrowRight"":27}","true","ArrowUp,ArrowRight","","","","revaluation","1","28","","",""
"html-keyboard-response","246","1074196","0.0-4.0-4.0-1.14","spark_pilot_2","7313","8","11","Female","","","","","","","null","<div style=""font-size:60px;"">+</div>","null","fixation","","","","","","","","","","","29","","",""
"revaluation","247","1078210","0.0-4.0-4.0-0.15","spark_pilot_2","7313","8","11","Female","","false","","","","","[589.8000001907349]","./assets/img/canyon/animals/lion.jpg","[""ArrowRight""]","revaluation","canyon","27","{""ArrowUp,ArrowLeft"":2,""ArrowUp,ArrowRight"":11,""ArrowDown,ArrowLeft"":8,""ArrowDown,ArrowRight"":27}","true","ArrowDown,ArrowRight","","","","revaluation","1","30","","",""
"html-keyboard-response","248","1078713","0.0-4.0-4.0-1.15","spark_pilot_2","7313","8","11","Female","","","","","","","null","<div style=""font-size:60px;"">+</div>","null","fixation","","","","","","","","","","","31","","",""
"revaluation","249","1082722","0.0-4.0-4.0-0.16","spark_pilot_2","7313","8","11","Female","","false","","","","","[768.6000001430511]","./assets/img/canyon/animals/lion.jpg","[""ArrowRight""]","revaluation","canyon","27","{""ArrowUp,ArrowLeft"":2,""ArrowUp,ArrowRight"":11,""ArrowDown,ArrowLeft"":8,""ArrowDown,ArrowRight"":27}","true","ArrowDown,ArrowRight","","","","revaluation","1","32","","",""
"html-keyboard-response","250","1083224","0.0-4.0-4.0-1.16","spark_pilot_2","7313","8","11","Female","","","","","","","null","<div style=""font-size:60px;"">+</div>","null","fixation","","","","","","","","","","","33","","",""
"revaluation","251","1087233","0.0-4.0-4.0-0.17","spark_pilot_2","7313","8","11","Female","","false","","","","","[467.2999999523163]","./assets/img/canyon/animals/giraffe.jpg","[""ArrowRight""]","revaluation","canyon","11","{""ArrowUp,ArrowLeft"":2,""ArrowUp,ArrowRight"":11,""ArrowDown,ArrowLeft"":8,""ArrowDown,ArrowRight"":27}","true","ArrowUp,ArrowRight","","","","revaluation","1","34","","",""
"html-keyboard-response","252","1087735","0.0-4.0-4.0-1.17","spark_pilot_2","7313","8","11","Female","","","","","","","null","<div style=""font-size:60px;"">+</div>","null","fixation","","","","","","","","","","","35","","",""
"learning-instructions","253","1103360","0.0-4.0-5.0-0.0","spark_pilot_2","7313","8","11","Female","","","","","","","2455","<p> Time to play the dot game! </p>
            <p> For one minute, click the red dots on the following screen as they appear. </p>
            <p><b> Don't look away, as you will earn bonus for clicking dots</b>. </p>","","instructions","","","","","","","","","","","","","",""
"revaluation","254","1163364","0.0-4.0-6.0-0.0","spark_pilot_2","7313","8","11","Female","","","","","","","[99,87,96,120,120,76]","","","rest","","60","","","","","0","60000","","","","","",""
"learning-instructions","255","1172628","0.0-4.0-7.0-0.0","spark_pilot_2","7313","8","11","Female","","","","","","","1466.0999999046326","<p> You have almost finished this part of the game! </p>
            <p> We are going to ask you to make a few more choices. </p>","","instructions","","","","","","","","","","","","","",""
"learning-instructions","256","1189080","0.0-4.0-7.0-0.1","spark_pilot_2","7313","8","11","Female","","","","","","","2486.5","<p> First, you need to decide whether to go up or down. When you see each picture, use the arrow keys to make your choice. </p>
            <p><b>You will not see which animal you found, but try to get to the one that will give you the most treasure.</b></p>","","instructions","","","","","","","","","","","","","",""
"revaluation","257","1189906","0.0-4.0-8.0-0.0","spark_pilot_2","7313","8","11","Female","","false","","","","","[823]","./assets/img/canyon/test/2.jpg","[""ArrowUp""]","first stage test","canyon","0","{""ArrowUp,ArrowLeft"":2,""ArrowUp,ArrowRight"":11,""ArrowDown,ArrowLeft"":8,""ArrowDown,ArrowRight"":27}","false","ArrowUp","false","","","revaluation","1","","","",""
"html-keyboard-response","258","1190408","0.0-4.0-8.0-1.0","spark_pilot_2","7313","8","11","Female","","","","","","","null","<div style=""font-size:60px;"">+</div>","null","fixation","","","","","","","","","","","","","",""
"revaluation","259","1191428","0.0-4.0-8.0-0.1","spark_pilot_2","7313","8","11","Female","","false","","","","","[1014.1999998092651]","./assets/img/canyon/test/3.jpg","[""ArrowDown""]","first stage test","canyon","0","{""ArrowUp,ArrowLeft"":2,""ArrowUp,ArrowRight"":11,""ArrowDown,ArrowLeft"":8,""ArrowDown,ArrowRight"":27}","true","ArrowDown","false","","","revaluation","1","","","",""
"html-keyboard-response","260","1191935","0.0-4.0-8.0-1.1","spark_pilot_2","7313","8","11","Female","","","","","","","null","<div style=""font-size:60px;"">+</div>","null","fixation","","","","","","","","","","","","","",""
"revaluation","261","1193320","0.0-4.0-8.0-0.2","spark_pilot_2","7313","8","11","Female","","false","","","","","[1380]","./assets/img/canyon/test/1.jpg","[""ArrowUp""]","first stage test","canyon","0","{""ArrowUp,ArrowLeft"":2,""ArrowUp,ArrowRight"":11,""ArrowDown,ArrowLeft"":8,""ArrowDown,ArrowRight"":27}","false","ArrowUp","false","","","revaluation","1","","","",""
"html-keyboard-response","262","1193837","0.0-4.0-8.0-1.2","spark_pilot_2","7313","8","11","Female","","","","","","","null","<div style=""font-size:60px;"">+</div>","null","fixation","","","","","","","","","","","","","",""
"revaluation","263","1194163","0.0-4.0-8.0-0.3","spark_pilot_2","7313","8","11","Female","","false","","","","","[319.40000009536743]","./assets/img/canyon/test/0.jpg","[""ArrowDown""]","first stage test","canyon","0","{""ArrowUp,ArrowLeft"":2,""ArrowUp,ArrowRight"":11,""ArrowDown,ArrowLeft"":8,""ArrowDown,ArrowRight"":27}","true","ArrowDown","false","","","revaluation","1","","","",""
"html-keyboard-response","264","1194681","0.0-4.0-8.0-1.3","spark_pilot_2","7313","8","11","Female","","","","","","","null","<div style=""font-size:60px;"">+</div>","null","fixation","","","","","","","","","","","","","",""
"learning-instructions","265","1206755","0.0-4.0-9.0-0.0","spark_pilot_2","7313","8","11","Female","","","","","","","731.8999998569489","<p> Now you will see the animals again and can search their chests for treasure. </p>
            <p> This time, you will not see how much treasure you earned, but you will earn more bonus money for making better choices. </p>","","instructions","","","","","","","","","","","","","",""
"revaluation","266","1207438","0.0-4.0-10.0-0.0","spark_pilot_2","7313","8","11","Female","","false","","","","","[679.5999999046326]","./assets/img/canyon/animals/giraffe.jpg","[""ArrowRight""]","second stage test","canyon","0","{""ArrowUp,ArrowLeft"":2,""ArrowUp,ArrowRight"":11,""ArrowDown,ArrowLeft"":8,""ArrowDown,ArrowRight"":27}","true","ArrowUp,ArrowRight","","","","revaluation","1","","","",""
"html-keyboard-response","267","1207944","0.0-4.0-10.0-1.0","spark_pilot_2","7313","8","11","Female","","","","","","","null","<div style=""font-size:60px;"">+</div>","null","fixation","","","","","","","","","","","","","",""
"revaluation","268","1208468","0.0-4.0-10.0-0.1","spark_pilot_2","7313","8","11","Female","","false","","","","","[519.5999999046326]","./assets/img/canyon/animals/giraffe.jpg","[""ArrowRight""]","second stage test","canyon","0","{""ArrowUp,ArrowLeft"":2,""ArrowUp,ArrowRight"":11,""ArrowDown,ArrowLeft"":8,""ArrowDown,ArrowRight"":27}","true","ArrowUp,ArrowRight","","","","revaluation","1","","","",""
"html-keyboard-response","269","1208973","0.0-4.0-10.0-1.1","spark_pilot_2","7313","8","11","Female","","","","","","","null","<div style=""font-size:60px;"">+</div>","null","fixation","","","","","","","","","","","","","",""
"revaluation","270","1209328","0.0-4.0-10.0-0.2","spark_pilot_2","7313","8","11","Female","","false","","","","","[348.19999980926514]","./assets/img/canyon/animals/giraffe.jpg","[""ArrowRight""]","second stage test","canyon","0","{""ArrowUp,ArrowLeft"":2,""ArrowUp,ArrowRight"":11,""ArrowDown,ArrowLeft"":8,""ArrowDown,ArrowRight"":27}","true","ArrowUp,ArrowRight","","","","revaluation","1","","","",""
"html-keyboard-response","271","1209831","0.0-4.0-10.0-1.2","spark_pilot_2","7313","8","11","Female","","","","","","","null","<div style=""font-size:60px;"">+</div>","null","fixation","","","","","","","","","","","","","",""
"revaluation","272","1210189","0.0-4.0-10.0-0.3","spark_pilot_2","7313","8","11","Female","","false","","","","","[352.7999999523163]","./assets/img/canyon/animals/giraffe.jpg","[""ArrowRight""]","second stage test","canyon","0","{""ArrowUp,ArrowLeft"":2,""ArrowUp,ArrowRight"":11,""ArrowDown,ArrowLeft"":8,""ArrowDown,ArrowRight"":27}","true","ArrowUp,ArrowRight","","","","revaluation","1","","","",""
"html-keyboard-response","273","1210703","0.0-4.0-10.0-1.3","spark_pilot_2","7313","8","11","Female","","","","","","","null","<div style=""font-size:60px;"">+</div>","null","fixation","","","","","","","","","","","","","",""
"revaluation","274","1211137","0.0-4.0-10.0-0.4","spark_pilot_2","7313","8","11","Female","","false","","","","","[428.19999980926514]","./assets/img/canyon/animals/lion.jpg","[""ArrowRight""]","second stage test","canyon","0","{""ArrowUp,ArrowLeft"":2,""ArrowUp,ArrowRight"":11,""ArrowDown,ArrowLeft"":8,""ArrowDown,ArrowRight"":27}","true","ArrowDown,ArrowRight","","","","revaluation","1","","","",""
"html-keyboard-response","275","1211651","0.0-4.0-10.0-1.4","spark_pilot_2","7313","8","11","Female","","","","","","","null","<div style=""font-size:60px;"">+</div>","null","fixation","","","","","","","","","","","","","",""
"revaluation","276","1211943","0.0-4.0-10.0-0.5","spark_pilot_2","7313","8","11","Female","","false","","","","","[288.89999985694885]","./assets/img/canyon/animals/lion.jpg","[""ArrowRight""]","second stage test","canyon","0","{""ArrowUp,ArrowLeft"":2,""ArrowUp,ArrowRight"":11,""ArrowDown,ArrowLeft"":8,""ArrowDown,ArrowRight"":27}","true","ArrowDown,ArrowRight","","","","revaluation","1","","","",""
"html-keyboard-response","277","1212458","0.0-4.0-10.0-1.5","spark_pilot_2","7313","8","11","Female","","","","","","","null","<div style=""font-size:60px;"">+</div>","null","fixation","","","","","","","","","","","","","",""
"revaluation","278","1212764","0.0-4.0-10.0-0.6","spark_pilot_2","7313","8","11","Female","","false","","","","","[303]","./assets/img/canyon/animals/lion.jpg","[""ArrowRight""]","second stage test","canyon","0","{""ArrowUp,ArrowLeft"":2,""ArrowUp,ArrowRight"":11,""ArrowDown,ArrowLeft"":8,""ArrowDown,ArrowRight"":27}","true","ArrowDown,ArrowRight","","","","revaluation","1","","","",""
"html-keyboard-response","279","1213268","0.0-4.0-10.0-1.6","spark_pilot_2","7313","8","11","Female","","","","","","","null","<div style=""font-size:60px;"">+</div>","null","fixation","","","","","","","","","","","","","",""
"revaluation","280","1213553","0.0-4.0-10.0-0.7","spark_pilot_2","7313","8","11","Female","","false","","","","","[276.90000009536743]","./assets/img/canyon/animals/lion.jpg","[""ArrowRight""]","second stage test","canyon","0","{""ArrowUp,ArrowLeft"":2,""ArrowUp,ArrowRight"":11,""ArrowDown,ArrowLeft"":8,""ArrowDown,ArrowRight"":27}","true","ArrowDown,ArrowRight","","","","revaluation","1","","","",""
"html-keyboard-response","281","1214063","0.0-4.0-10.0-1.7","spark_pilot_2","7313","8","11","Female","","","","","","","null","<div style=""font-size:60px;"">+</div>","null","fixation","","","","","","","","","","","","","",""
"learning-instructions","282","1218318","0.0-4.0-0.1-0.2","spark_pilot_2","7313","8","11","Female","","","","","","","1523.7999999523163","<p> This time you are searching for treasure in the <b>ocean</b>.</p>","","instructions","","","","","","","","","","","","","",""
"learning-instructions","283","1237011","0.0-4.0-0.1-0.3","spark_pilot_2","7313","8","11","Female","","","","","","","1446.6000001430511","<p><b>New</b> animals with <b>new</b> treasure chests live here. You need to explore to discover where the animal with the best treasure chest is.</p>
                    <p> Like before, once you figure out which animal has the chest with the most treasure, you should try to get to that animal and select that chest! </p>","","instructions","","","","","","","","","","","","","",""
"learning-instructions","284","1253159","0.0-4.0-1.1-0.1","spark_pilot_2","7313","8","11","Female","","","","","","","1414.2000000476837","<p> Remember, when you see a picture of the place, use the up and down keys to <b>find an animal</b>.</p>
            <p> When you encounter an animal, you should use the left and right keys to <b>select a treasure chest</b>.</p>
            <p> Don't forget to look out for the robber! </p>","","instructions","","","","","","","","","","","","","",""
"revaluation","285","1259184","0.0-4.0-2.1-0.50","spark_pilot_2","7313","8","11","Female","","false","","","","","[554,1086]","./assets/img/ocean/memory/31.jpg","[""ArrowUp"",""ArrowRight""]","value training","ocean","10","{""ArrowUp,ArrowLeft"":23,""ArrowUp,ArrowRight"":10,""ArrowDown,ArrowLeft"":8,""ArrowDown,ArrowRight"":30}","false","ArrowUp,ArrowRight","false","","","original","2","0","","",""
"html-keyboard-response","286","1259699","0.0-4.0-2.1-1.50","spark_pilot_2","7313","8","11","Female","","","","","","","null","<div style=""font-size:60px;"">+</div>","null","fixation","","","","","","","","","","","1","","",""
"revaluation","287","1265724","0.0-4.0-2.1-0.51","spark_pilot_2","7313","8","11","Female","","false","","","","","[883.7000000476837,320.10000014305115]","./assets/img/ocean/memory/20.jpg","[""ArrowUp"",""ArrowLeft""]","value training","ocean","23","{""ArrowUp,ArrowLeft"":23,""ArrowUp,ArrowRight"":10,""ArrowDown,ArrowLeft"":8,""ArrowDown,ArrowRight"":30}","false","ArrowUp,ArrowLeft","false","","","original","2","2","","",""
"html-keyboard-response","288","1266235","0.0-4.0-2.1-1.51","spark_pilot_2","7313","8","11","Female","","","","","","","null","<div style=""font-size:60px;"">+</div>","null","fixation","","","","","","","","","","","3","","",""
"revaluation","289","1272268","0.0-4.0-2.1-0.52","spark_pilot_2","7313","8","11","Female","","false","","","","","[622.6000001430511,960]","./assets/img/ocean/memory/8.jpg","[""ArrowDown"",""ArrowLeft""]","value training","ocean","8","{""ArrowUp,ArrowLeft"":23,""ArrowUp,ArrowRight"":10,""ArrowDown,ArrowLeft"":8,""ArrowDown,ArrowRight"":30}","false","ArrowDown,ArrowLeft","false","","","original","2","4","","",""
"html-keyboard-response","290","1272783","0.0-4.0-2.1-1.52","spark_pilot_2","7313","8","11","Female","","","","","","","null","<div style=""font-size:60px;"">+</div>","null","fixation","","","","","","","","","","","5","","",""
"revaluation","291","1278819","0.0-4.0-2.1-0.53","spark_pilot_2","7313","8","11","Female","","false","","","","","[755.7999999523163,348.7000000476837]","./assets/img/ocean/memory/29.jpg","[""ArrowDown"",""ArrowRight""]","value training","ocean","30","{""ArrowUp,ArrowLeft"":23,""ArrowUp,ArrowRight"":10,""ArrowDown,ArrowLeft"":8,""ArrowDown,ArrowRight"":30}","true","ArrowDown,ArrowRight","false","","","original","2","6","","",""
"html-keyboard-response","292","1279334","0.0-4.0-2.1-1.53","spark_pilot_2","7313","8","11","Female","","","","","","","null","<div style=""font-size:60px;"">+</div>","null","fixation","","","","","","","","","","","7","","",""
"revaluation","293","1285345","0.0-4.0-2.1-0.54","spark_pilot_2","7313","8","11","Female","","false","","","","","[681.4000000953674,402.5]","./assets/img/ocean/memory/23.jpg","[""ArrowDown"",""ArrowRight""]","value training","ocean","30","{""ArrowUp,ArrowLeft"":23,""ArrowUp,ArrowRight"":10,""ArrowDown,ArrowLeft"":8,""ArrowDown,ArrowRight"":30}","true","ArrowDown,ArrowRight","false","","","original","2","8","","",""
"html-keyboard-response","294","1285848","0.0-4.0-2.1-1.54","spark_pilot_2","7313","8","11","Female","","","","","","","null","<div style=""font-size:60px;"">+</div>","null","fixation","","","","","","","","","","","9","","",""
"revaluation","295","1291856","0.0-4.0-2.1-0.55","spark_pilot_2","7313","8","11","Female","","false","","","","","[482.90000009536743,698.4000000953674]","./assets/img/ocean/memory/17.jpg","[""ArrowDown"",""ArrowRight""]","value training","ocean","30","{""ArrowUp,ArrowLeft"":23,""ArrowUp,ArrowRight"":10,""ArrowDown,ArrowLeft"":8,""ArrowDown,ArrowRight"":30}","true","ArrowDown,ArrowRight","false","","","original","2","10","","",""
"html-keyboard-response","296","1292362","0.0-4.0-2.1-1.55","spark_pilot_2","7313","8","11","Female","","","","","","","null","<div style=""font-size:60px;"">+</div>","null","fixation","","","","","","","","","","","11","","",""
"revaluation","297","1296370","0.0-4.0-2.1-0.56","spark_pilot_2","7313","8","11","Female","","false","","","","","[471.90000009536743]","./assets/img/ocean/catch/0.jpg","[""spaceBar""]","value training","ocean","0","{""ArrowUp,ArrowLeft"":23,""ArrowUp,ArrowRight"":10,""ArrowDown,ArrowLeft"":8,""ArrowDown,ArrowRight"":30}","true","spaceBar","true","","","original","2","12","","",""
"html-keyboard-response","298","1296873","0.0-4.0-2.1-1.56","spark_pilot_2","7313","8","11","Female","","","","","","","null","<div style=""font-size:60px;"">+</div>","null","fixation","","","","","","","","","","","13","","",""
"revaluation","299","1302883","0.0-4.0-2.1-0.57","spark_pilot_2","7313","8","11","Female","","false","","","","","[484.89999985694885,471.90000009536743]","./assets/img/ocean/memory/8.jpg","[""ArrowDown"",""ArrowRight""]","value training","ocean","30","{""ArrowUp,ArrowLeft"":23,""ArrowUp,ArrowRight"":10,""ArrowDown,ArrowLeft"":8,""ArrowDown,ArrowRight"":30}","true","ArrowDown,ArrowRight","false","","","original","2","14","","",""
"html-keyboard-response","300","1303400","0.0-4.0-2.1-1.57","spark_pilot_2","7313","8","11","Female","","","","","","","null","<div style=""font-size:60px;"">+</div>","null","fixation","","","","","","","","","","","15","","",""
"revaluation","301","1309413","0.0-4.0-2.1-0.58","spark_pilot_2","7313","8","11","Female","","false","","","","","[490.39999985694885,346.39999985694885]","./assets/img/ocean/memory/4.jpg","[""ArrowDown"",""ArrowRight""]","value training","ocean","30","{""ArrowUp,ArrowLeft"":23,""ArrowUp,ArrowRight"":10,""ArrowDown,ArrowLeft"":8,""ArrowDown,ArrowRight"":30}","true","ArrowDown,ArrowRight","false","","","original","2","16","","",""
"html-keyboard-response","302","1309915","0.0-4.0-2.1-1.58","spark_pilot_2","7313","8","11","Female","","","","","","","null","<div style=""font-size:60px;"">+</div>","null","fixation","","","","","","","","","","","17","","",""
"revaluation","303","1315923","0.0-4.0-2.1-0.59","spark_pilot_2","7313","8","11","Female","","false","","","","","[514.5,503.40000009536743]","./assets/img/ocean/memory/37.jpg","[""ArrowDown"",""ArrowRight""]","value training","ocean","30","{""ArrowUp,ArrowLeft"":23,""ArrowUp,ArrowRight"":10,""ArrowDown,ArrowLeft"":8,""ArrowDown,ArrowRight"":30}","true","ArrowDown,ArrowRight","false","","","original","2","18","","",""
"html-keyboard-response","304","1316425","0.0-4.0-2.1-1.59","spark_pilot_2","7313","8","11","Female","","","","","","","null","<div style=""font-size:60px;"">+</div>","null","fixation","","","","","","","","","","","19","","",""
"revaluation","305","1320433","0.0-4.0-2.1-0.60","spark_pilot_2","7313","8","11","Female","","false","","","","","[741.1000001430511]","./assets/img/ocean/catch/1.jpg","[""spaceBar""]","value training","ocean","0","{""ArrowUp,ArrowLeft"":23,""ArrowUp,ArrowRight"":10,""ArrowDown,ArrowLeft"":8,""ArrowDown,ArrowRight"":30}","true","spaceBar","true","","","original","2","20","","",""
