"trial_type","trial_index","time_elapsed","internal_node_id","task_version","subject_id","assigned_condition","age","gender","success","timeout","failed_images","failed_audio","failed_video","browser_interaction","rt","stimulus","response","task_part","environment","score","rewardMap","correct","fullState","isCatch","numberMissed","duration","condition","order","trial_num","key_press","ground_truth","bonus"
"pavlovia","0","1051","0.0-0.0","spark_pilot_2","7970","8","14","Female","","","","","","","","","","","","","","","","","","","","","","","",""
"preload","1","7623","0.0-1.0","spark_pilot_2","7970","8","14","Female","true","false","[]","[]","[]","[{""event"":""blur"",""trial"":0,""time"":750},{""event"":""focus"",""trial"":2,""time"":10621},{""event"":""fullscreenenter"",""trial"":2,""time"":11473}]","","","","","","","","","","","","","","","","","",""
"fullscreen","2","11704","0.0-2.0","spark_pilot_2","7970","8","14","Female","true","","","","","","","","","","","","","","","","","","","","","","",""
"audio-button-response","3","15494","0.0-3.0-0.0-0.0","spark_pilot_2","7970","8","14","Female","","","","","","","3731","./assets/audio/audiotest/turtle.mp3","2","audio_test","","","","","","","","","","","","","",""
"learning-instructions","4","26703","0.0-3.0-1.0-0.0","spark_pilot_2","7970","8","14","Female","","","","","","","4133","<p> Welcome! Please remember to stay in fullscreen mode and don't click away from the experiment. </p>","","instructions","","","","","","","","","","","","","",""
"learning-instructions","5","41134","0.0-3.0-1.0-0.1","spark_pilot_2","7970","8","14","Female","","","","","","","5955","<p> Today you will be playing a game to earn treasure. </p>
            <p> At the end of the experiment, you will earn a bonus based on how much treasure you find. </p>
            <img src='./assets/img/instructions/treasure.jpg' class='instructions-image'>","","instructions","","","","","","","","","","","","","",""
"learning-instructions","6","52574","0.0-3.0-1.0-0.2","spark_pilot_2","7970","8","14","Female","","","","","","","3115","<p> Animals have hidden treasure in treasure chests. </p>
            <p> You need to first find an animal and then choose which of their treasure chests to search. </p>
            <img src='./assets/img/space/animals/cat.jpg' class='instructions-image'>","","instructions","","","","","","","","","","","","","",""
"learning-instructions","7","71687","0.0-3.0-1.0-0.3","spark_pilot_2","7970","8","14","Female","","","","","","","5868","<p> In each round, you will search for treasure in a different place. In the real game, there will be two rounds. </p>
            <p> You will begin with a separate, practice round where you will search for treasure in outer space. </p>
            <img src='./assets/img/space/0.jpg' class='instructions-image'>","","instructions","","","","","","","","","","","","","",""
"learning-instructions","8","86431","0.0-3.0-1.0-0.4","spark_pilot_2","7970","8","14","Female","","","","","","","3250","<p> On every turn, you will see a picture of the place that you are in, but the specific image may be different each time. </p>
            <p> For example, both of these images mean you are in outer space. </p>
            <img src='./assets/img/instructions/outerspace.jpg' class='instructions-image'>","","instructions","","","","","","","","","","","","","",""
"learning-instructions","9","96375","0.0-3.0-1.0-0.5","spark_pilot_2","7970","8","14","Female","","","","","","","2064","<p> You need to decide which direction to travel in. </p>
            <p> You can choose between going <b>up or down</b> by using the arrow keys. </p>
            <img src='./assets/img/instructions/updown.jpg' class='instructions-image'>","","instructions","","","","","","","","","","","","","",""
"learning-instructions","10","106175","0.0-3.0-1.0-0.6","spark_pilot_2","7970","8","14","Female","","","","","","","925","<p> You will have <b>2 seconds</b> to make your choice. </p>
            <p> If you do not make a choice within 2 seconds, you will not find an animal or earn treasure. </p>
            <img src='./assets/img/instructions/2seconds.jpg' class='instructions-image'>","","instructions","","","","","","","","","","","","","",""
"learning-instructions","11","113991","0.0-3.0-1.0-0.7","spark_pilot_2","7970","8","14","Female","","","","","","","732","<p> Let’s try practicing that now! </p>
            <p> When you see a picture of the place you are in, press the <b>up</b> key to travel up. </p>
            <img src='./assets/img/instructions/pressUp.jpg' class='instructions-image'>","","instructions","","","","","","","","","","","","","",""
"revaluation","12","118013","0.0-3.0-2.0-0.0","spark_pilot_2","7970","8","14","Female","","true","","","","","[]","./assets/img/space/0.jpg","[]","first stage practice","space","-5","null","null","","false","","","","","","","",""
"html-keyboard-response","13","118523","0.0-3.0-2.0-1.0","spark_pilot_2","7970","8","14","Female","","","","","","","null","<div style=""font-size:60px;"">+</div>","null","fixation","","","","","","","","","","","","","",""
"revaluation","14","122541","0.0-3.0-2.0-0.1","spark_pilot_2","7970","8","14","Female","","false","","","","","[788]","./assets/img/space/1.jpg","[""ArrowUp""]","first stage practice","space","0","null","null","ArrowUp","false","","","","","","","",""
"html-keyboard-response","15","123056","0.0-3.0-2.0-1.1","spark_pilot_2","7970","8","14","Female","","","","","","","null","<div style=""font-size:60px;"">+</div>","null","fixation","","","","","","","","","","","","","",""
"revaluation","16","127071","0.0-3.0-2.0-0.2","spark_pilot_2","7970","8","14","Female","","false","","","","","[1724]","./assets/img/space/2.jpg","[""ArrowUp""]","first stage practice","space","0","null","null","ArrowUp","false","","","","","","","",""
"html-keyboard-response","17","127587","0.0-3.0-2.0-1.2","spark_pilot_2","7970","8","14","Female","","","","","","","null","<div style=""font-size:60px;"">+</div>","null","fixation","","","","","","","","","","","","","",""
"learning-instructions","18","134238","0.0-3.0-3.0-0.0","spark_pilot_2","7970","8","14","Female","","","","","","","1908","<p> Great job! Now try pressing the <b>down</b> key to travel down. </p>
            <img src='./assets/img/instructions/pressDown.jpg' class='instructions-image'>","","instructions","","","","","","","","","","","","","",""
"revaluation","19","138264","0.0-3.0-4.0-0.0","spark_pilot_2","7970","8","14","Female","","false","","","","","[1127]","./assets/img/space/3.jpg","[""ArrowDown""]","first stage practice","space","0","null","null","ArrowDown","false","","","","","","","",""
"html-keyboard-response","20","138777","0.0-3.0-4.0-1.0","spark_pilot_2","7970","8","14","Female","","","","","","","null","<div style=""font-size:60px;"">+</div>","null","fixation","","","","","","","","","","","","","",""
"revaluation","21","142800","0.0-3.0-4.0-0.1","spark_pilot_2","7970","8","14","Female","","false","","","","","[572]","./assets/img/space/4.jpg","[""ArrowDown""]","first stage practice","space","0","null","null","ArrowDown","false","","","","","","","",""
"html-keyboard-response","22","143317","0.0-3.0-4.0-1.1","spark_pilot_2","7970","8","14","Female","","","","","","","null","<div style=""font-size:60px;"">+</div>","null","fixation","","","","","","","","","","","","","",""
"revaluation","23","147338","0.0-3.0-4.0-0.2","spark_pilot_2","7970","8","14","Female","","false","","","","","[398]","./assets/img/space/5.jpg","[""ArrowDown""]","first stage practice","space","0","null","null","ArrowDown","false","","","","","","","",""
"html-keyboard-response","24","147853","0.0-3.0-4.0-1.2","spark_pilot_2","7970","8","14","Female","","","","","","","null","<div style=""font-size:60px;"">+</div>","null","fixation","","","","","","","","","","","","","",""
"learning-instructions","25","160095","0.0-3.0-5.0-0.0","spark_pilot_2","7970","8","14","Female","","","","","","","2285","<p> The animals don’t move, so the animal in the upper part of a place will stay in the upper part of a place, and the animal in the lower part of a place will stay in the lower part of a place. </p>","","instructions","","","","","","","","","","","","","",""
"learning-instructions","26","170695","0.0-3.0-5.0-0.1","spark_pilot_2","7970","8","14","Female","","","","","","","1395","<p> Each animal has two treasure chests for you to choose from. </p>
            <p> The amount of treasure in each chest can range from <b> 0 to 40 pieces.</b></p>","","instructions","","","","","","","","","","","","","",""
"learning-instructions","27","183775","0.0-3.0-5.0-0.2","spark_pilot_2","7970","8","14","Female","","","","","","","1805","<p> You should decide which chest to search for treasure by using the <b>left</b> and <b>right</b> arrow keys. </p>
            <p><b> Pay attention to which animal is on the screen, as the animals have different treasure chests. </b></p>
            <img src='./assets/img/instructions/leftright.jpg' class='instructions-image'>","","instructions","","","","","","","","","","","","","",""
"learning-instructions","28","190638","0.0-3.0-5.0-0.3","spark_pilot_2","7970","8","14","Female","","","","","","","460","<p> Let’s try practicing that now. </p>
            <p> When you see an animal, choose which chest to search for treasure. </p>
            <img src='./assets/img/instructions/chooseChest.jpg' class='instructions-image'>","","instructions","","","","","","","","","","","","","",""
"revaluation","29","194650","0.0-3.0-6.0-0.0","spark_pilot_2","7970","8","14","Female","","false","","","","","[1262]","./assets/img/space/animals/cat.jpg","[""ArrowRight""]","second stage practice","space","36","{""ArrowUp,ArrowLeft"":3,""ArrowUp,ArrowRight"":36,""ArrowDown,ArrowLeft"":15,""ArrowDown,ArrowRight"":23}","true","ArrowUp,ArrowRight","","","","","","","","",""
"html-keyboard-response","30","195164","0.0-3.0-6.0-1.0","spark_pilot_2","7970","8","14","Female","","","","","","","null","<div style=""font-size:60px;"">+</div>","null","fixation","","","","","","","","","","","","","",""
"revaluation","31","199185","0.0-3.0-6.0-0.1","spark_pilot_2","7970","8","14","Female","","false","","","","","[830]","./assets/img/space/animals/cat.jpg","[""ArrowLeft""]","second stage practice","space","3","{""ArrowUp,ArrowLeft"":3,""ArrowUp,ArrowRight"":36,""ArrowDown,ArrowLeft"":15,""ArrowDown,ArrowRight"":23}","false","ArrowUp,ArrowLeft","","","","","","","","",""
"html-keyboard-response","32","199701","0.0-3.0-6.0-1.1","spark_pilot_2","7970","8","14","Female","","","","","","","null","<div style=""font-size:60px;"">+</div>","null","fixation","","","","","","","","","","","","","",""
"revaluation","33","203723","0.0-3.0-6.0-0.2","spark_pilot_2","7970","8","14","Female","","false","","","","","[599]","./assets/img/space/animals/rabbit.jpg","[""ArrowRight""]","second stage practice","space","23","{""ArrowUp,ArrowLeft"":3,""ArrowUp,ArrowRight"":36,""ArrowDown,ArrowLeft"":15,""ArrowDown,ArrowRight"":23}","true","ArrowDown,ArrowRight","","","","","","","","",""
"html-keyboard-response","34","204237","0.0-3.0-6.0-1.2","spark_pilot_2","7970","8","14","Female","","","","","","","null","<div style=""font-size:60px;"">+</div>","null","fixation","","","","","","","","","","","","","",""
"revaluation","35","208260","0.0-3.0-6.0-0.3","spark_pilot_2","7970","8","14","Female","","false","","","","","[775]","./assets/img/space/animals/rabbit.jpg","[""ArrowRight""]","second stage practice","space","23","{""ArrowUp,ArrowLeft"":3,""ArrowUp,ArrowRight"":36,""ArrowDown,ArrowLeft"":15,""ArrowDown,ArrowRight"":23}","true","ArrowDown,ArrowRight","","","","","","","","",""
"html-keyboard-response","36","208774","0.0-3.0-6.0-1.3","spark_pilot_2","7970","8","14","Female","","","","","","","null","<div style=""font-size:60px;"">+</div>","null","fixation","","","","","","","","","","","","","",""
"learning-instructions","37","228584","0.0-3.0-7.0-0.0","spark_pilot_2","7970","8","14","Female","","","","","","","2855","<p> Great job. Now let’s try putting it together. </p>
            <p> On each turn, you will first see a picture to remind you of the place you are in, and you need to choose whether to go up or down. </p>
            <p> Then you will see an animal and choose which of its chests to search for treasure. </p>","","instructions","","","","","","","","","","","","","",""
"learning-instructions","38","237327","0.0-3.0-7.0-0.1","spark_pilot_2","7970","8","14","Female","","","","","","","419","<p> When you choose whether to go up or down, try to go to the animal with the chest with the most treasure. </p>
            <p> Try practicing that now! </p>","","instructions","","","","","","","","","","","","","",""
"revaluation","39","243359","0.0-3.0-8.0-0.0","spark_pilot_2","7970","8","14","Female","","false","","","","","[1471,1451]","./assets/img/space/6.jpg","[""ArrowDown"",""ArrowRight""]","full practice","space","23","{""ArrowUp,ArrowLeft"":3,""ArrowUp,ArrowRight"":36,""ArrowDown,ArrowLeft"":15,""ArrowDown,ArrowRight"":23}","false","ArrowDown,ArrowRight","false","","","","","","","",""
"html-keyboard-response","40","243872","0.0-3.0-8.0-1.0","spark_pilot_2","7970","8","14","Female","","","","","","","null","<div style=""font-size:60px;"">+</div>","null","fixation","","","","","","","","","","","","","",""
"revaluation","41","249908","0.0-3.0-8.0-0.1","spark_pilot_2","7970","8","14","Female","","false","","","","","[586,508]","./assets/img/space/7.jpg","[""ArrowUp"",""ArrowLeft""]","full practice","space","3","{""ArrowUp,ArrowLeft"":3,""ArrowUp,ArrowRight"":36,""ArrowDown,ArrowLeft"":15,""ArrowDown,ArrowRight"":23}","false","ArrowUp,ArrowLeft","false","","","","","","","",""
"html-keyboard-response","42","250410","0.0-3.0-8.0-1.1","spark_pilot_2","7970","8","14","Female","","","","","","","null","<div style=""font-size:60px;"">+</div>","null","fixation","","","","","","","","","","","","","",""
"revaluation","43","256448","0.0-3.0-8.0-0.2","spark_pilot_2","7970","8","14","Female","","false","","","","","[521,369]","./assets/img/space/8.jpg","[""ArrowDown"",""ArrowRight""]","full practice","space","23","{""ArrowUp,ArrowLeft"":3,""ArrowUp,ArrowRight"":36,""ArrowDown,ArrowLeft"":15,""ArrowDown,ArrowRight"":23}","false","ArrowDown,ArrowRight","false","","","","","","","",""
"html-keyboard-response","44","256961","0.0-3.0-8.0-1.2","spark_pilot_2","7970","8","14","Female","","","","","","","null","<div style=""font-size:60px;"">+</div>","null","fixation","","","","","","","","","","","","","",""
"revaluation","45","262999","0.0-3.0-8.0-0.3","spark_pilot_2","7970","8","14","Female","","false","","","","","[639,356]","./assets/img/space/9.jpg","[""ArrowUp"",""ArrowRight""]","full practice","space","36","{""ArrowUp,ArrowLeft"":3,""ArrowUp,ArrowRight"":36,""ArrowDown,ArrowLeft"":15,""ArrowDown,ArrowRight"":23}","true","ArrowUp,ArrowRight","false","","","","","","","",""
"html-keyboard-response","46","263512","0.0-3.0-8.0-1.3","spark_pilot_2","7970","8","14","Female","","","","","","","null","<div style=""font-size:60px;"">+</div>","null","fixation","","","","","","","","","","","","","",""
"revaluation","47","269543","0.0-3.0-8.0-0.4","spark_pilot_2","7970","8","14","Female","","false","","","","","[501,243]","./assets/img/space/10.jpg","[""ArrowUp"",""ArrowRight""]","full practice","space","36","{""ArrowUp,ArrowLeft"":3,""ArrowUp,ArrowRight"":36,""ArrowDown,ArrowLeft"":15,""ArrowDown,ArrowRight"":23}","true","ArrowUp,ArrowRight","false","","","","","","","",""
"html-keyboard-response","48","270056","0.0-3.0-8.0-1.4","spark_pilot_2","7970","8","14","Female","","","","","","","null","<div style=""font-size:60px;"">+</div>","null","fixation","","","","","","","","","","","","","",""
"learning-instructions","49","282614","0.0-3.0-9.0-0.0","spark_pilot_2","7970","8","14","Female","","","","","","","2156","<p> One last thing: sometimes, you will see a robber. The robber can be anywhere in the picture. </p>
            <p> If you do not stop them, you will lose treasure. </p>
            <img src='./assets/img/instructions/robber.jpg' class='instructions-image'>","","instructions","","","","","","","","","","","","","",""
"learning-instructions","50","291359","0.0-3.0-9.0-0.1","spark_pilot_2","7970","8","14","Female","","","","","","","1530","<p> If you see the robber, you should <b>press the space bar</b> rather than using the arrow keys. </p>
            <p> Try practicing that now! </p>","","instructions","","","","","","","","","","","","","",""
"revaluation","51","295382","0.0-3.0-10.0-0.0","spark_pilot_2","7970","8","14","Female","","false","","","","","[1982]","./assets/img/space/catch/0.jpg","[""ArrowUp""]","catch practice","space","-10","{""ArrowUp,ArrowLeft"":3,""ArrowUp,ArrowRight"":36,""ArrowDown,ArrowLeft"":15,""ArrowDown,ArrowRight"":23}","false","ArrowUp","true","","","","","","","",""
"html-keyboard-response","52","295898","0.0-3.0-10.0-1.0","spark_pilot_2","7970","8","14","Female","","","","","","","null","<div style=""font-size:60px;"">+</div>","null","fixation","","","","","","","","","","","","","",""
"revaluation","53","299921","0.0-3.0-10.0-0.1","spark_pilot_2","7970","8","14","Female","","false","","","","","[762]","./assets/img/space/catch/1.jpg","[""spaceBar""]","catch practice","space","0","{""ArrowUp,ArrowLeft"":3,""ArrowUp,ArrowRight"":36,""ArrowDown,ArrowLeft"":15,""ArrowDown,ArrowRight"":23}","true","spaceBar","true","","","","","","","",""
"html-keyboard-response","54","300435","0.0-3.0-10.0-1.1","spark_pilot_2","7970","8","14","Female","","","","","","","null","<div style=""font-size:60px;"">+</div>","null","fixation","","","","","","","","","","","","","",""
"revaluation","55","304459","0.0-3.0-10.0-0.2","spark_pilot_2","7970","8","14","Female","","false","","","","","[589]","./assets/img/space/catch/2.jpg","[""spaceBar""]","catch practice","space","0","{""ArrowUp,ArrowLeft"":3,""ArrowUp,ArrowRight"":36,""ArrowDown,ArrowLeft"":15,""ArrowDown,ArrowRight"":23}","true","spaceBar","true","","","","","","","",""
"html-keyboard-response","56","304971","0.0-3.0-10.0-1.2","spark_pilot_2","7970","8","14","Female","","","","","","","null","<div style=""font-size:60px;"">+</div>","null","fixation","","","","","","","","","","","","","",""
"learning-instructions","57","319951","0.0-3.0-11.0-0.0","spark_pilot_2","7970","8","14","Female","","","","","","","1161","<p> After you explore a place to find treasure, it will be time to play a different game. </p>
            <p> During this game, red dots will appear on the screen and fall down slowly. </p>
            <p><b> You must click on them before they reach the bottom. </b></p>
            <img src='./assets/img/instructions/dotGame.jpg' class='instructions-image'>","","instructions","","","","","","","","","","","","","",""
"learning-instructions","58","326351","0.0-3.0-11.0-0.1","spark_pilot_2","7970","8","14","Female","","","","","","","691","<p> For every dot you click, you will earn additional treasure. </p>
            <p> Let’s try practicing that now. </p>","","instructions","","","","","","","","","","","","","",""
"revaluation","59","341364","0.0-3.0-12.0-0.0","spark_pilot_2","7970","8","14","Female","","","","","","","[79]","","","rest practice","","10","","","","","0","15000","","","","","",""
"learning-instructions","60","347871","0.0-3.0-13.0-0.0-0.0","spark_pilot_2","7970","8","14","Female","","","","","","","1211","<p> Now, you will practice a shortened version of the game to get a sense of how it all fits together. </p>","","instructions","","","","","","","","","","","","","",""
"learning-instructions","61","351640","0.0-3.0-13.0-0.0-0.1","spark_pilot_2","7970","8","14","Female","","","","","","","551","<p>This time you are searching for treasure in outer space.</p>","","instructions","","","","","","","","","","","","","",""
"learning-instructions","62","367551","0.0-3.0-13.0-1.0-0.0","spark_pilot_2","7970","8","14","Female","","","","","","","1051","<p> Remember, when you see a picture of the place, use the up and down keys to <b>find an animal</b>.</p>
            <p> When you encounter an animal, you should use the left and right keys to <b>select a treasure chest</b>.</p>
            <p> Don't forget to look out for the robber! </p>","","instructions","","","","","","","","","","","","","",""
"revaluation","63","373574","0.0-3.0-13.0-2.0-0.0","spark_pilot_2","7970","8","14","Female","","false","","","","","[1184,970]","./assets/img/space/11.jpg","[""ArrowUp"",""ArrowRight""]","practice block","space","36","{""ArrowUp,ArrowLeft"":3,""ArrowUp,ArrowRight"":36,""ArrowDown,ArrowLeft"":15,""ArrowDown,ArrowRight"":23}","true","ArrowUp,ArrowRight","false","","","","","","","",""
"html-keyboard-response","64","374091","0.0-3.0-13.0-2.0-1.0","spark_pilot_2","7970","8","14","Female","","","","","","","null","<div style=""font-size:60px;"">+</div>","null","fixation","","","","","","","","","","","","","",""
"revaluation","65","380123","0.0-3.0-13.0-2.0-0.1","spark_pilot_2","7970","8","14","Female","","false","","","","","[931,498]","./assets/img/space/12.jpg","[""ArrowUp"",""ArrowRight""]","practice block","space","36","{""ArrowUp,ArrowLeft"":3,""ArrowUp,ArrowRight"":36,""ArrowDown,ArrowLeft"":15,""ArrowDown,ArrowRight"":23}","true","ArrowUp,ArrowRight","false","","","","","","","",""
"html-keyboard-response","66","380634","0.0-3.0-13.0-2.0-1.1","spark_pilot_2","7970","8","14","Female","","","","","","","null","<div style=""font-size:60px;"">+</div>","null","fixation","","","","","","","","","","","","","",""
"revaluation","67","386671","0.0-3.0-13.0-2.0-0.2","spark_pilot_2","7970","8","14","Female","","false","","","","","[773,455]","./assets/img/space/13.jpg","[""ArrowDown"",""ArrowRight""]","practice block","space","23","{""ArrowUp,ArrowLeft"":3,""ArrowUp,ArrowRight"":36,""ArrowDown,ArrowLeft"":15,""ArrowDown,ArrowRight"":23}","false","ArrowDown,ArrowRight","false","","","","","","","",""
"html-keyboard-response","68","387187","0.0-3.0-13.0-2.0-1.2","spark_pilot_2","7970","8","14","Female","","","","","","","null","<div style=""font-size:60px;"">+</div>","null","fixation","","","","","","","","","","","","","",""
"revaluation","69","393221","0.0-3.0-13.0-2.0-0.3","spark_pilot_2","7970","8","14","Female","","false","","","","","[674,557]","./assets/img/space/14.jpg","[""ArrowUp"",""ArrowRight""]","practice block","space","36","{""ArrowUp,ArrowLeft"":3,""ArrowUp,ArrowRight"":36,""ArrowDown,ArrowLeft"":15,""ArrowDown,ArrowRight"":23}","true","ArrowUp,ArrowRight","false","","","","","","","",""
"html-keyboard-response","70","393736","0.0-3.0-13.0-2.0-1.3","spark_pilot_2","7970","8","14","Female","","","","","","","null","<div style=""font-size:60px;"">+</div>","null","fixation","","","","","","","","","","","","","",""
"revaluation","71","399774","0.0-3.0-13.0-2.0-0.4","spark_pilot_2","7970","8","14","Female","","false","","","","","[676,313]","./assets/img/space/11.jpg","[""ArrowUp"",""ArrowRight""]","practice block","space","36","{""ArrowUp,ArrowLeft"":3,""ArrowUp,ArrowRight"":36,""ArrowDown,ArrowLeft"":15,""ArrowDown,ArrowRight"":23}","true","ArrowUp,ArrowRight","false","","","","","","","",""
"html-keyboard-response","72","400287","0.0-3.0-13.0-2.0-1.4","spark_pilot_2","7970","8","14","Female","","","","","","","null","<div style=""font-size:60px;"">+</div>","null","fixation","","","","","","","","","","","","","",""
"revaluation","73","406327","0.0-3.0-13.0-2.0-0.5","spark_pilot_2","7970","8","14","Female","","false","","","","","[459,378]","./assets/img/space/12.jpg","[""ArrowUp"",""ArrowRight""]","practice block","space","36","{""ArrowUp,ArrowLeft"":3,""ArrowUp,ArrowRight"":36,""ArrowDown,ArrowLeft"":15,""ArrowDown,ArrowRight"":23}","true","ArrowUp,ArrowRight","false","","","","","","","",""
"html-keyboard-response","74","406829","0.0-3.0-13.0-2.0-1.5","spark_pilot_2","7970","8","14","Female","","","","","","","null","<div style=""font-size:60px;"">+</div>","null","fixation","","","","","","","","","","","","","",""
"revaluation","75","412877","0.0-3.0-13.0-2.0-0.6","spark_pilot_2","7970","8","14","Female","","false","","","","","[609,520]","./assets/img/space/13.jpg","[""ArrowUp"",""ArrowRight""]","practice block","space","36","{""ArrowUp,ArrowLeft"":3,""ArrowUp,ArrowRight"":36,""ArrowDown,ArrowLeft"":15,""ArrowDown,ArrowRight"":23}","true","ArrowUp,ArrowRight","false","","","","","","","",""
"html-keyboard-response","76","413392","0.0-3.0-13.0-2.0-1.6","spark_pilot_2","7970","8","14","Female","","","","","","","null","<div style=""font-size:60px;"">+</div>","null","fixation","","","","","","","","","","","","","",""
"revaluation","77","419423","0.0-3.0-13.0-2.0-0.7","spark_pilot_2","7970","8","14","Female","","false","","","","","[475,335]","./assets/img/space/14.jpg","[""ArrowUp"",""ArrowRight""]","practice block","space","36","{""ArrowUp,ArrowLeft"":3,""ArrowUp,ArrowRight"":36,""ArrowDown,ArrowLeft"":15,""ArrowDown,ArrowRight"":23}","true","ArrowUp,ArrowRight","false","","","","","","","",""
"html-keyboard-response","78","419935","0.0-3.0-13.0-2.0-1.7","spark_pilot_2","7970","8","14","Female","","","","","","","null","<div style=""font-size:60px;"">+</div>","null","fixation","","","","","","","","","","","","","",""
"revaluation","79","423958","0.0-3.0-13.0-2.0-0.8","spark_pilot_2","7970","8","14","Female","","false","","","","","[709]","./assets/img/space/catch/3.jpg","[""ArrowUp""]","practice block","space","-10","{""ArrowUp,ArrowLeft"":3,""ArrowUp,ArrowRight"":36,""ArrowDown,ArrowLeft"":15,""ArrowDown,ArrowRight"":23}","false","ArrowUp","true","","","","","","","",""
"html-keyboard-response","80","424474","0.0-3.0-13.0-2.0-1.8","spark_pilot_2","7970","8","14","Female","","","","","","","null","<div style=""font-size:60px;"">+</div>","null","fixation","","","","","","","","","","","","","",""
"learning-instructions","81","439631","0.0-3.0-13.0-3.0-0.0","spark_pilot_2","7970","8","14","Female","","","","","","","2161","<p> Now, you will travel with a friend who will choose whether you go up or down first. </p>
            <p> On these turns, you will just see the animal that they found. You will still get to choose which chest to search for treasure.</p>","","instructions","","","","","","","","","","","","","",""
"revaluation","82","443654","0.0-3.0-13.0-4.0-0.0","spark_pilot_2","7970","8","14","Female","","true","","","","","[]","./assets/img/space/animals/cat.jpg","[]","practice block","space","-5","{""ArrowUp,ArrowLeft"":3,""ArrowUp,ArrowRight"":36,""ArrowDown,ArrowLeft"":15,""ArrowDown,ArrowRight"":23}","false","ArrowUp","","","","","","","","",""
"html-keyboard-response","83","444169","0.0-3.0-13.0-4.0-1.0","spark_pilot_2","7970","8","14","Female","","","","","","","null","<div style=""font-size:60px;"">+</div>","null","fixation","","","","","","","","","","","","","",""
"revaluation","84","448199","0.0-3.0-13.0-4.0-0.1","spark_pilot_2","7970","8","14","Female","","false","","","","","[806]","./assets/img/space/animals/rabbit.jpg","[""ArrowRight""]","practice block","space","23","{""ArrowUp,ArrowLeft"":3,""ArrowUp,ArrowRight"":36,""ArrowDown,ArrowLeft"":15,""ArrowDown,ArrowRight"":23}","true","ArrowDown,ArrowRight","","","","","","","","",""
"html-keyboard-response","85","448711","0.0-3.0-13.0-4.0-1.1","spark_pilot_2","7970","8","14","Female","","","","","","","null","<div style=""font-size:60px;"">+</div>","null","fixation","","","","","","","","","","","","","",""
"revaluation","86","452727","0.0-3.0-13.0-4.0-0.2","spark_pilot_2","7970","8","14","Female","","false","","","","","[357]","./assets/img/space/animals/rabbit.jpg","[""ArrowRight""]","practice block","space","23","{""ArrowUp,ArrowLeft"":3,""ArrowUp,ArrowRight"":36,""ArrowDown,ArrowLeft"":15,""ArrowDown,ArrowRight"":23}","true","ArrowDown,ArrowRight","","","","","","","","",""
"html-keyboard-response","87","453229","0.0-3.0-13.0-4.0-1.2","spark_pilot_2","7970","8","14","Female","","","","","","","null","<div style=""font-size:60px;"">+</div>","null","fixation","","","","","","","","","","","","","",""
"revaluation","88","457247","0.0-3.0-13.0-4.0-0.3","spark_pilot_2","7970","8","14","Female","","false","","","","","[350]","./assets/img/space/animals/cat.jpg","[""ArrowLeft""]","practice block","space","3","{""ArrowUp,ArrowLeft"":3,""ArrowUp,ArrowRight"":36,""ArrowDown,ArrowLeft"":15,""ArrowDown,ArrowRight"":23}","false","ArrowUp,ArrowLeft","","","","","","","","",""
"html-keyboard-response","89","457763","0.0-3.0-13.0-4.0-1.3","spark_pilot_2","7970","8","14","Female","","","","","","","null","<div style=""font-size:60px;"">+</div>","null","fixation","","","","","","","","","","","","","",""
"learning-instructions","90","465712","0.0-3.0-13.0-5.0-0.0","spark_pilot_2","7970","8","14","Female","","","","","","","532","<p> Time to play the dot game! </p>
            <p> For 15 seconds, click the red dots on the following screen as they appear. </p>","","instructions","","","","","","","","","","","","","",""
"revaluation","91","480723","0.0-3.0-13.0-6.0-0.0","spark_pilot_2","7970","8","14","Female","","","","","","","[73]","","","rest practice","","10","","","","","0","15000","","","","","",""
"learning-instructions","92","487664","0.0-3.0-13.0-7.0-0.0","spark_pilot_2","7970","8","14","Female","","","","","","","774","<p> You have almost finished this part of the game! </p>
            <p> We are going to ask you to make a few more choices. </p>","","instructions","","","","","","","","","","","","","",""
"learning-instructions","93","502296","0.0-3.0-13.0-7.0-0.1","spark_pilot_2","7970","8","14","Female","","","","","","","525","<p> First, you need to decide whether to go up or down. When you see each picture, use the arrow keys to make your choice. </p>
            <p><b>You will not see which animal you found, but try to get to the one that will give you the most treasure.</b></p>","","instructions","","","","","","","","","","","","","",""
"revaluation","94","503712","0.0-3.0-13.0-8.0","spark_pilot_2","7970","8","14","Female","","false","","","","","[1415]","./assets/img/space/15.jpg","[""ArrowUp""]","practice block","space","0","{""ArrowUp,ArrowLeft"":3,""ArrowUp,ArrowRight"":36,""ArrowDown,ArrowLeft"":15,""ArrowDown,ArrowRight"":23}","true","ArrowUp","false","","","","","","","",""
"html-keyboard-response","95","504227","0.0-3.0-13.0-9.0","spark_pilot_2","7970","8","14","Female","","","","","","","null","<div style=""font-size:60px;"">+</div>","null","fixation","","","","","","","","","","","","","",""
"learning-instructions","96","517672","0.0-3.0-13.0-10.0-0.0","spark_pilot_2","7970","8","14","Female","","","","","","","1942","<p> Now you will see the animals again and can search their chests for treasure. </p>
            <p> This time, you will not see how much treasure you earned, but you will earn more bonus money for making better choices. </p>","","instructions","","","","","","","","","","","","","",""
"revaluation","97","518787","0.0-3.0-13.0-11.0-0.0","spark_pilot_2","7970","8","14","Female","","false","","","","","[1113]","./assets/img/space/animals/cat.jpg","[""ArrowRight""]","practice block","space","0","{""ArrowUp,ArrowLeft"":3,""ArrowUp,ArrowRight"":36,""ArrowDown,ArrowLeft"":15,""ArrowDown,ArrowRight"":23}","true","ArrowUp,ArrowRight","","","","","","","","",""
"html-keyboard-response","98","519298","0.0-3.0-13.0-11.0-1.0","spark_pilot_2","7970","8","14","Female","","","","","","","null","<div style=""font-size:60px;"">+</div>","null","fixation","","","","","","","","","","","","","",""
"revaluation","99","520022","0.0-3.0-13.0-11.0-0.1","spark_pilot_2","7970","8","14","Female","","false","","","","","[720]","./assets/img/space/animals/rabbit.jpg","[""ArrowRight""]","practice block","space","0","{""ArrowUp,ArrowLeft"":3,""ArrowUp,ArrowRight"":36,""ArrowDown,ArrowLeft"":15,""ArrowDown,ArrowRight"":23}","true","ArrowDown,ArrowRight","","","","","","","","",""
"html-keyboard-response","100","520527","0.0-3.0-13.0-11.0-1.1","spark_pilot_2","7970","8","14","Female","","","","","","","null","<div style=""font-size:60px;"">+</div>","null","fixation","","","","","","","","","","","","","",""
"learning-instructions","101","526703","0.0-3.0-14.0-0.0","spark_pilot_2","7970","8","14","Female","","","","","","","1523","<p> Before you start, we're going to ask you a few questions about how the game works. </p>","","instructions","","","","","","","","","","","","","",""
"comp-q","102","534087","0.0-3.0-15.0-0.0-0.0","spark_pilot_2","7970","8","14","Female","","","","","","","1756","<p> <b> True or False? </b> </p>
            <p> There can be 50 pieces of treasure in a given animal's chest. </p>","0","comp_question","","","","false","","","","","","","","","",""
"comp-q","103","542190","0.0-3.0-15.0-0.0-1.0","spark_pilot_2","7970","8","14","Female","","","","","","","1529","<p> <b>Incorrect.</b> The amount of treasure in each chest can range from 0 to 40 pieces. </p>","0","comp_answer","","","","","","","","","","","","","",""
"comp-q","104","548383","0.0-3.0-15.0-0.1-0.1","spark_pilot_2","7970","8","14","Female","","","","","","","622","<p> <b> True or False? </b> </p>
            <p> There can be 50 pieces of treasure in a given animal's chest. </p>","1","comp_question","","","","true","","","","","","","","","",""
"comp-q","105","557151","0.0-3.0-15.0-0.1-1.1","spark_pilot_2","7970","8","14","Female","","","","","","","2061","<p> <b> That's right! </b> The amount of treasure in each chest can range from 0 to 40 pieces. </p>","0","comp_answer","","","","","","","","","","","","","",""
"comp-q","106","565119","0.0-3.0-15.0-0.2-0.2","spark_pilot_2","7970","8","14","Female","","","","","","","788","<p> <b> True or False? </b> </p><p> In this game, all animals have the same amount of treasure in their left and right chests. </p>","1","comp_question","","","","true","","","","","","","","","",""
"comp-q","107","575519","0.0-3.0-15.0-0.2-1.2","spark_pilot_2","7970","8","14","Female","","","","","","","5129","<p> <b> That's right! </b> Animals have different amounts of treasure in their treasure chests. </p>","0","comp_answer","","","","","","","","","","","","","",""
"comp-q","108","583527","0.0-3.0-15.0-0.3-0.3","spark_pilot_2","7970","8","14","Female","","","","","","","2108","<p> <b> True or False? </b> </p><p> The same animal will always be there if you go up in the same place. </p>","1","comp_question","","","","false","","","","","","","","","",""
"comp-q","109","592199","0.0-3.0-15.0-0.3-1.3","spark_pilot_2","7970","8","14","Female","","","","","","","2320","<p> <b>Incorrect.</b> One animal lives in the upper part and one lives in the lower part of every place. </p>","0","comp_answer","","","","","","","","","","","","","",""
"comp-q","110","598575","0.0-3.0-15.0-0.4-0.4","spark_pilot_2","7970","8","14","Female","","","","","","","546","<p> <b> True or False? </b> </p><p> The same animal will always be there if you go up in the same place. </p>","0","comp_question","","","","true","","","","","","","","","",""
"comp-q","111","612423","0.0-3.0-15.0-0.4-1.4","spark_pilot_2","7970","8","14","Female","","","","","","","7355","<p> <b> That's right! </b> One animal lives in the upper part and one lives in the lower part of every place. </p>","0","comp_answer","","","","","","","","","","","","","",""
"comp-q","112","620838","0.0-3.0-15.0-0.5-0.5","spark_pilot_2","7970","8","14","Female","","","","","","","2750","<p> <b> True or False? </b> </p><p> If you see a different picture, it means you are in a new place. </p>","0","comp_question","","","","false","","","","","","","","","",""
"comp-q","113","632894","0.0-3.0-15.0-0.5-1.5","spark_pilot_2","7970","8","14","Female","","","","","","","876","<p> <b>Incorrect.</b> Lots of different images may show the same place. For example,  you may see three different images that all remind you that you are in outer space. </p>","0","comp_answer","","","","","","","","","","","","","",""
"comp-q","114","638991","0.0-3.0-15.0-0.6-0.6","spark_pilot_2","7970","8","14","Female","","","","","","","582","<p> <b> True or False? </b> </p><p> If you see a different picture, it means you are in a new place. </p>","0","comp_question","","","","false","","","","","","","","","",""
"comp-q","115","653263","0.0-3.0-15.0-0.6-1.6","spark_pilot_2","7970","8","14","Female","","","","","","","3203","<p> <b>Incorrect.</b> Lots of different images may show the same place. For example,  you may see three different images that all remind you that you are in outer space. </p>","0","comp_answer","","","","","","","","","","","","","",""
"comp-q","116","660694","0.0-3.0-15.0-0.7-0.7","spark_pilot_2","7970","8","14","Female","","","","","","","1915","<p> <b> True or False? </b> </p><p> If you see a different picture, it means you are in a new place. </p>","1","comp_question","","","","true","","","","","","","","","",""
"comp-q","117","676600","0.0-3.0-15.0-0.7-1.7","spark_pilot_2","7970","8","14","Female","","","","","","","4611","<p> <b> That's right! </b> Lots of different images may show the same place. For example,  you may see three different images that all remind you that you are in outer space. </p>","0","comp_answer","","","","","","","","","","","","","",""
"learning-instructions","118","688182","0.0-3.0-16.0-0.0","spark_pilot_2","7970","8","14","Female","","","","","","","1654","<p> Good job. Remember to do your best because the amount of treasure you earn will be converted into bonus money. </p>
            <p> It’s time to start the real game! </p>","","instructions","","","","","","","","","","","","","",""
"learning-instructions","119","692007","0.0-4.0-0.0-0.0","spark_pilot_2","7970","8","14","Female","","","","","","","1027","<p> This time you are searching for treasure in the <b>canyon</b>.</p>","","instructions","","","","","","","","","","","","","",""
"learning-instructions","120","712165","0.0-4.0-0.0-0.1","spark_pilot_2","7970","8","14","Female","","","","","","","2747","<p><b>New</b> animals with <b>new</b> treasure chests live here. You need to explore to discover where the animal with the best treasure chest is.</p>
                    <p> Like before, once you figure out which animal has the chest with the most treasure, you should try to get to that animal and select that chest! </p>","","instructions","","","","","","","","","","","","","",""
"learning-instructions","121","729071","0.0-4.0-1.0-0.0","spark_pilot_2","7970","8","14","Female","","","","","","","2170","<p> Remember, when you see a picture of the place, use the up and down keys to <b>find an animal</b>.</p>
            <p> When you encounter an animal, you should use the left and right keys to <b>select a treasure chest</b>.</p>
            <p> Don't forget to look out for the robber! </p>","","instructions","","","","","","","","","","","","","",""
"revaluation","122","733087","0.0-4.0-2.0-0.0","spark_pilot_2","7970","8","14","Female","","true","","","","","[]","./assets/img/canyon/memory/10.jpg","[]","value training","canyon","-5","{""ArrowUp,ArrowLeft"":26,""ArrowUp,ArrowRight"":10,""ArrowDown,ArrowLeft"":5,""ArrowDown,ArrowRight"":17}","false","","false","","","revaluation","1","0","","",""
"html-keyboard-response","123","733602","0.0-4.0-2.0-1.0","spark_pilot_2","7970","8","14","Female","","","","","","","null","<div style=""font-size:60px;"">+</div>","null","fixation","","","","","","","","","","","1","","",""
"revaluation","124","739632","0.0-4.0-2.0-0.1","spark_pilot_2","7970","8","14","Female","","false","","","","","[659,420]","./assets/img/canyon/memory/11.jpg","[""ArrowUp"",""ArrowRight""]","value training","canyon","10","{""ArrowUp,ArrowLeft"":26,""ArrowUp,ArrowRight"":10,""ArrowDown,ArrowLeft"":5,""ArrowDown,ArrowRight"":17}","false","ArrowUp,ArrowRight","false","","","revaluation","1","2","","",""
"html-keyboard-response","125","740146","0.0-4.0-2.0-1.1","spark_pilot_2","7970","8","14","Female","","","","","","","null","<div style=""font-size:60px;"">+</div>","null","fixation","","","","","","","","","","","3","","",""
"revaluation","126","746176","0.0-4.0-2.0-0.2","spark_pilot_2","7970","8","14","Female","","false","","","","","[394,293]","./assets/img/canyon/memory/27.jpg","[""ArrowUp"",""ArrowLeft""]","value training","canyon","26","{""ArrowUp,ArrowLeft"":26,""ArrowUp,ArrowRight"":10,""ArrowDown,ArrowLeft"":5,""ArrowDown,ArrowRight"":17}","true","ArrowUp,ArrowLeft","false","","","revaluation","1","4","","",""
"html-keyboard-response","127","746691","0.0-4.0-2.0-1.2","spark_pilot_2","7970","8","14","Female","","","","","","","null","<div style=""font-size:60px;"">+</div>","null","fixation","","","","","","","","","","","5","","",""
"revaluation","128","752722","0.0-4.0-2.0-0.3","spark_pilot_2","7970","8","14","Female","","false","","","","","[458,241]","./assets/img/canyon/memory/2.jpg","[""ArrowUp"",""ArrowLeft""]","value training","canyon","26","{""ArrowUp,ArrowLeft"":26,""ArrowUp,ArrowRight"":10,""ArrowDown,ArrowLeft"":5,""ArrowDown,ArrowRight"":17}","true","ArrowUp,ArrowLeft","false","","","revaluation","1","6","","",""
"html-keyboard-response","129","753234","0.0-4.0-2.0-1.3","spark_pilot_2","7970","8","14","Female","","","","","","","null","<div style=""font-size:60px;"">+</div>","null","fixation","","","","","","","","","","","7","","",""
"revaluation","130","757254","0.0-4.0-2.0-0.4","spark_pilot_2","7970","8","14","Female","","false","","","","","[403]","./assets/img/canyon/catch/2.jpg","[""ArrowUp""]","value training","canyon","-10","{""ArrowUp,ArrowLeft"":26,""ArrowUp,ArrowRight"":10,""ArrowDown,ArrowLeft"":5,""ArrowDown,ArrowRight"":17}","false","ArrowUp","true","","","revaluation","1","8","","",""
"html-keyboard-response","131","757768","0.0-4.0-2.0-1.4","spark_pilot_2","7970","8","14","Female","","","","","","","null","<div style=""font-size:60px;"">+</div>","null","fixation","","","","","","","","","","","9","","",""
"revaluation","132","763800","0.0-4.0-2.0-0.5","spark_pilot_2","7970","8","14","Female","","false","","","","","[812,502]","./assets/img/canyon/memory/0.jpg","[""ArrowUp"",""ArrowRight""]","value training","canyon","10","{""ArrowUp,ArrowLeft"":26,""ArrowUp,ArrowRight"":10,""ArrowDown,ArrowLeft"":5,""ArrowDown,ArrowRight"":17}","false","ArrowUp,ArrowRight","false","","","revaluation","1","10","","",""
"html-keyboard-response","133","764314","0.0-4.0-2.0-1.5","spark_pilot_2","7970","8","14","Female","","","","","","","null","<div style=""font-size:60px;"">+</div>","null","fixation","","","","","","","","","","","11","","",""
"revaluation","134","770348","0.0-4.0-2.0-0.6","spark_pilot_2","7970","8","14","Female","","false","","","","","[889,523]","./assets/img/canyon/memory/1.jpg","[""ArrowDown"",""ArrowLeft""]","value training","canyon","5","{""ArrowUp,ArrowLeft"":26,""ArrowUp,ArrowRight"":10,""ArrowDown,ArrowLeft"":5,""ArrowDown,ArrowRight"":17}","false","ArrowDown,ArrowLeft","false","","","revaluation","1","12","","",""
"html-keyboard-response","135","770858","0.0-4.0-2.0-1.6","spark_pilot_2","7970","8","14","Female","","","","","","","null","<div style=""font-size:60px;"">+</div>","null","fixation","","","","","","","","","","","13","","",""
"revaluation","136","776874","0.0-4.0-2.0-0.7","spark_pilot_2","7970","8","14","Female","","false","","","","","[771,366]","./assets/img/canyon/memory/23.jpg","[""ArrowUp"",""ArrowRight""]","value training","canyon","10","{""ArrowUp,ArrowLeft"":26,""ArrowUp,ArrowRight"":10,""ArrowDown,ArrowLeft"":5,""ArrowDown,ArrowRight"":17}","false","ArrowUp,ArrowRight","false","","","revaluation","1","14","","",""
"html-keyboard-response","137","777374","0.0-4.0-2.0-1.7","spark_pilot_2","7970","8","14","Female","","","","","","","null","<div style=""font-size:60px;"">+</div>","null","fixation","","","","","","","","","","","15","","",""
"revaluation","138","783416","0.0-4.0-2.0-0.8","spark_pilot_2","7970","8","14","Female","","false","","","","","[542,237]","./assets/img/canyon/memory/3.jpg","[""ArrowUp"",""ArrowLeft""]","value training","canyon","26","{""ArrowUp,ArrowLeft"":26,""ArrowUp,ArrowRight"":10,""ArrowDown,ArrowLeft"":5,""ArrowDown,ArrowRight"":17}","true","ArrowUp,ArrowLeft","false","","","revaluation","1","16","","",""
"html-keyboard-response","139","783931","0.0-4.0-2.0-1.8","spark_pilot_2","7970","8","14","Female","","","","","","","null","<div style=""font-size:60px;"">+</div>","null","fixation","","","","","","","","","","","17","","",""
"revaluation","140","789953","0.0-4.0-2.0-0.9","spark_pilot_2","7970","8","14","Female","","false","","","","","[650,451]","./assets/img/canyon/memory/20.jpg","[""ArrowUp"",""ArrowLeft""]","value training","canyon","26","{""ArrowUp,ArrowLeft"":26,""ArrowUp,ArrowRight"":10,""ArrowDown,ArrowLeft"":5,""ArrowDown,ArrowRight"":17}","true","ArrowUp,ArrowLeft","false","","","revaluation","1","18","","",""
"html-keyboard-response","141","790467","0.0-4.0-2.0-1.9","spark_pilot_2","7970","8","14","Female","","","","","","","null","<div style=""font-size:60px;"">+</div>","null","fixation","","","","","","","","","","","19","","",""
"revaluation","142","796499","0.0-4.0-2.0-0.10","spark_pilot_2","7970","8","14","Female","","false","","","","","[582,323]","./assets/img/canyon/memory/17.jpg","[""ArrowUp"",""ArrowLeft""]","value training","canyon","26","{""ArrowUp,ArrowLeft"":26,""ArrowUp,ArrowRight"":10,""ArrowDown,ArrowLeft"":5,""ArrowDown,ArrowRight"":17}","true","ArrowUp,ArrowLeft","false","","","revaluation","1","20","","",""
"html-keyboard-response","143","797013","0.0-4.0-2.0-1.10","spark_pilot_2","7970","8","14","Female","","","","","","","null","<div style=""font-size:60px;"">+</div>","null","fixation","","","","","","","","","","","21","","",""
"revaluation","144","803040","0.0-4.0-2.0-0.11","spark_pilot_2","7970","8","14","Female","","false","","","","","[583,325]","./assets/img/canyon/memory/6.jpg","[""ArrowUp"",""ArrowLeft""]","value training","canyon","26","{""ArrowUp,ArrowLeft"":26,""ArrowUp,ArrowRight"":10,""ArrowDown,ArrowLeft"":5,""ArrowDown,ArrowRight"":17}","true","ArrowUp,ArrowLeft","false","","","revaluation","1","22","","",""
"html-keyboard-response","145","803555","0.0-4.0-2.0-1.11","spark_pilot_2","7970","8","14","Female","","","","","","","null","<div style=""font-size:60px;"">+</div>","null","fixation","","","","","","","","","","","23","","",""
"revaluation","146","809585","0.0-4.0-2.0-0.12","spark_pilot_2","7970","8","14","Female","","false","","","","","[722,382]","./assets/img/canyon/memory/10.jpg","[""ArrowUp"",""ArrowLeft""]","value training","canyon","26","{""ArrowUp,ArrowLeft"":26,""ArrowUp,ArrowRight"":10,""ArrowDown,ArrowLeft"":5,""ArrowDown,ArrowRight"":17}","true","ArrowUp,ArrowLeft","false","","","revaluation","1","24","","",""
"html-keyboard-response","147","810098","0.0-4.0-2.0-1.12","spark_pilot_2","7970","8","14","Female","","","","","","","null","<div style=""font-size:60px;"">+</div>","null","fixation","","","","","","","","","","","25","","",""
"revaluation","148","816120","0.0-4.0-2.0-0.13","spark_pilot_2","7970","8","14","Female","","false","","","","","[483,433]","./assets/img/canyon/memory/8.jpg","[""ArrowUp"",""ArrowLeft""]","value training","canyon","26","{""ArrowUp,ArrowLeft"":26,""ArrowUp,ArrowRight"":10,""ArrowDown,ArrowLeft"":5,""ArrowDown,ArrowRight"":17}","true","ArrowUp,ArrowLeft","false","","","revaluation","1","26","","",""
"html-keyboard-response","149","816633","0.0-4.0-2.0-1.13","spark_pilot_2","7970","8","14","Female","","","","","","","null","<div style=""font-size:60px;"">+</div>","null","fixation","","","","","","","","","","","27","","",""
"revaluation","150","822652","0.0-4.0-2.0-0.14","spark_pilot_2","7970","8","14","Female","","false","","","","","[1028,485]","./assets/img/canyon/memory/22.jpg","[""ArrowUp"",""ArrowLeft""]","value training","canyon","26","{""ArrowUp,ArrowLeft"":26,""ArrowUp,ArrowRight"":10,""ArrowDown,ArrowLeft"":5,""ArrowDown,ArrowRight"":17}","true","ArrowUp,ArrowLeft","false","","","revaluation","1","28","","",""
"html-keyboard-response","151","823166","0.0-4.0-2.0-1.14","spark_pilot_2","7970","8","14","Female","","","","","","","null","<div style=""font-size:60px;"">+</div>","null","fixation","","","","","","","","","","","29","","",""
"revaluation","152","829199","0.0-4.0-2.0-0.15","spark_pilot_2","7970","8","14","Female","","false","","","","","[629,515]","./assets/img/canyon/memory/25.jpg","[""ArrowUp"",""ArrowLeft""]","value training","canyon","26","{""ArrowUp,ArrowLeft"":26,""ArrowUp,ArrowRight"":10,""ArrowDown,ArrowLeft"":5,""ArrowDown,ArrowRight"":17}","true","ArrowUp,ArrowLeft","false","","","revaluation","1","30","","",""
"html-keyboard-response","153","829712","0.0-4.0-2.0-1.15","spark_pilot_2","7970","8","14","Female","","","","","","","null","<div style=""font-size:60px;"">+</div>","null","fixation","","","","","","","","","","","31","","",""
"revaluation","154","835749","0.0-4.0-2.0-0.16","spark_pilot_2","7970","8","14","Female","","false","","","","","[758,399]","./assets/img/canyon/memory/21.jpg","[""ArrowUp"",""ArrowLeft""]","value training","canyon","26","{""ArrowUp,ArrowLeft"":26,""ArrowUp,ArrowRight"":10,""ArrowDown,ArrowLeft"":5,""ArrowDown,ArrowRight"":17}","true","ArrowUp,ArrowLeft","false","","","revaluation","1","32","","",""
"html-keyboard-response","155","836262","0.0-4.0-2.0-1.16","spark_pilot_2","7970","8","14","Female","","","","","","","null","<div style=""font-size:60px;"">+</div>","null","fixation","","","","","","","","","","","33","","",""
"revaluation","156","842286","0.0-4.0-2.0-0.17","spark_pilot_2","7970","8","14","Female","","false","","","","","[550,399]","./assets/img/canyon/memory/2.jpg","[""ArrowUp"",""ArrowLeft""]","value training","canyon","26","{""ArrowUp,ArrowLeft"":26,""ArrowUp,ArrowRight"":10,""ArrowDown,ArrowLeft"":5,""ArrowDown,ArrowRight"":17}","true","ArrowUp,ArrowLeft","false","","","revaluation","1","34","","",""
"html-keyboard-response","157","842801","0.0-4.0-2.0-1.17","spark_pilot_2","7970","8","14","Female","","","","","","","null","<div style=""font-size:60px;"">+</div>","null","fixation","","","","","","","","","","","35","","",""
"revaluation","158","848830","0.0-4.0-2.0-0.18","spark_pilot_2","7970","8","14","Female","","false","","","","","[1035,465]","./assets/img/canyon/memory/0.jpg","[""ArrowUp"",""ArrowLeft""]","value training","canyon","26","{""ArrowUp,ArrowLeft"":26,""ArrowUp,ArrowRight"":10,""ArrowDown,ArrowLeft"":5,""ArrowDown,ArrowRight"":17}","true","ArrowUp,ArrowLeft","false","","","revaluation","1","36","","",""
"html-keyboard-response","159","849331","0.0-4.0-2.0-1.18","spark_pilot_2","7970","8","14","Female","","","","","","","null","<div style=""font-size:60px;"">+</div>","null","fixation","","","","","","","","","","","37","","",""
"revaluation","160","855360","0.0-4.0-2.0-0.19","spark_pilot_2","7970","8","14","Female","","false","","","","","[881,457]","./assets/img/canyon/memory/13.jpg","[""ArrowUp"",""ArrowLeft""]","value training","canyon","26","{""ArrowUp,ArrowLeft"":26,""ArrowUp,ArrowRight"":10,""ArrowDown,ArrowLeft"":5,""ArrowDown,ArrowRight"":17}","true","ArrowUp,ArrowLeft","false","","","revaluation","1","38","","",""
"html-keyboard-response","161","855862","0.0-4.0-2.0-1.19","spark_pilot_2","7970","8","14","Female","","","","","","","null","<div style=""font-size:60px;"">+</div>","null","fixation","","","","","","","","","","","39","","",""
"revaluation","162","861900","0.0-4.0-2.0-0.20","spark_pilot_2","7970","8","14","Female","","false","","","","","[761,333]","./assets/img/canyon/memory/9.jpg","[""ArrowUp"",""ArrowLeft""]","value training","canyon","26","{""ArrowUp,ArrowLeft"":26,""ArrowUp,ArrowRight"":10,""ArrowDown,ArrowLeft"":5,""ArrowDown,ArrowRight"":17}","true","ArrowUp,ArrowLeft","false","","","revaluation","1","40","","",""
"html-keyboard-response","163","862402","0.0-4.0-2.0-1.20","spark_pilot_2","7970","8","14","Female","","","","","","","null","<div style=""font-size:60px;"">+</div>","null","fixation","","","","","","","","","","","41","","",""
"revaluation","164","868437","0.0-4.0-2.0-0.21","spark_pilot_2","7970","8","14","Female","","false","","","","","[835,275]","./assets/img/canyon/memory/8.jpg","[""ArrowUp"",""ArrowLeft""]","value training","canyon","26","{""ArrowUp,ArrowLeft"":26,""ArrowUp,ArrowRight"":10,""ArrowDown,ArrowLeft"":5,""ArrowDown,ArrowRight"":17}","true","ArrowUp,ArrowLeft","false","","","revaluation","1","42","","",""
"html-keyboard-response","165","868939","0.0-4.0-2.0-1.21","spark_pilot_2","7970","8","14","Female","","","","","","","null","<div style=""font-size:60px;"">+</div>","null","fixation","","","","","","","","","","","43","","",""
"revaluation","166","872957","0.0-4.0-2.0-0.22","spark_pilot_2","7970","8","14","Female","","false","","","","","[739]","./assets/img/canyon/catch/6.jpg","[""spaceBar""]","value training","canyon","0","{""ArrowUp,ArrowLeft"":26,""ArrowUp,ArrowRight"":10,""ArrowDown,ArrowLeft"":5,""ArrowDown,ArrowRight"":17}","true","spaceBar","true","","","revaluation","1","44","","",""
"html-keyboard-response","167","873472","0.0-4.0-2.0-1.22","spark_pilot_2","7970","8","14","Female","","","","","","","null","<div style=""font-size:60px;"">+</div>","null","fixation","","","","","","","","","","","45","","",""
"revaluation","168","877500","0.0-4.0-2.0-0.23","spark_pilot_2","7970","8","14","Female","","false","","","","","[885]","./assets/img/canyon/catch/5.jpg","[""spaceBar""]","value training","canyon","0","{""ArrowUp,ArrowLeft"":26,""ArrowUp,ArrowRight"":10,""ArrowDown,ArrowLeft"":5,""ArrowDown,ArrowRight"":17}","true","spaceBar","true","","","revaluation","1","46","","",""
"html-keyboard-response","169","878013","0.0-4.0-2.0-1.23","spark_pilot_2","7970","8","14","Female","","","","","","","null","<div style=""font-size:60px;"">+</div>","null","fixation","","","","","","","","","","","47","","",""
"revaluation","170","884043","0.0-4.0-2.0-0.24","spark_pilot_2","7970","8","14","Female","","false","","","","","[1007,722]","./assets/img/canyon/memory/20.jpg","[""ArrowUp"",""ArrowLeft""]","value training","canyon","26","{""ArrowUp,ArrowLeft"":26,""ArrowUp,ArrowRight"":10,""ArrowDown,ArrowLeft"":5,""ArrowDown,ArrowRight"":17}","true","ArrowUp,ArrowLeft","false","","","revaluation","1","48","","",""
"html-keyboard-response","171","884545","0.0-4.0-2.0-1.24","spark_pilot_2","7970","8","14","Female","","","","","","","null","<div style=""font-size:60px;"">+</div>","null","fixation","","","","","","","","","","","49","","",""
"revaluation","172","890571","0.0-4.0-2.0-0.25","spark_pilot_2","7970","8","14","Female","","false","","","","","[820,364]","./assets/img/canyon/memory/23.jpg","[""ArrowUp"",""ArrowLeft""]","value training","canyon","26","{""ArrowUp,ArrowLeft"":26,""ArrowUp,ArrowRight"":10,""ArrowDown,ArrowLeft"":5,""ArrowDown,ArrowRight"":17}","true","ArrowUp,ArrowLeft","false","","","revaluation","1","50","","",""
"html-keyboard-response","173","891072","0.0-4.0-2.0-1.25","spark_pilot_2","7970","8","14","Female","","","","","","","null","<div style=""font-size:60px;"">+</div>","null","fixation","","","","","","","","","","","51","","",""
"revaluation","174","895104","0.0-4.0-2.0-0.26","spark_pilot_2","7970","8","14","Female","","false","","","","","[693]","./assets/img/canyon/catch/1.jpg","[""spaceBar""]","value training","canyon","0","{""ArrowUp,ArrowLeft"":26,""ArrowUp,ArrowRight"":10,""ArrowDown,ArrowLeft"":5,""ArrowDown,ArrowRight"":17}","true","spaceBar","true","","","revaluation","1","52","","",""
"html-keyboard-response","175","895615","0.0-4.0-2.0-1.26","spark_pilot_2","7970","8","14","Female","","","","","","","null","<div style=""font-size:60px;"">+</div>","null","fixation","","","","","","","","","","","53","","",""
"revaluation","176","901641","0.0-4.0-2.0-0.27","spark_pilot_2","7970","8","14","Female","","false","","","","","[851,423]","./assets/img/canyon/memory/9.jpg","[""ArrowUp"",""ArrowLeft""]","value training","canyon","26","{""ArrowUp,ArrowLeft"":26,""ArrowUp,ArrowRight"":10,""ArrowDown,ArrowLeft"":5,""ArrowDown,ArrowRight"":17}","true","ArrowUp,ArrowLeft","false","","","revaluation","1","54","","",""
"html-keyboard-response","177","902153","0.0-4.0-2.0-1.27","spark_pilot_2","7970","8","14","Female","","","","","","","null","<div style=""font-size:60px;"">+</div>","null","fixation","","","","","","","","","","","55","","",""
"revaluation","178","906178","0.0-4.0-2.0-0.28","spark_pilot_2","7970","8","14","Female","","false","","","","","[628]","./assets/img/canyon/catch/7.jpg","[""spaceBar""]","value training","canyon","0","{""ArrowUp,ArrowLeft"":26,""ArrowUp,ArrowRight"":10,""ArrowDown,ArrowLeft"":5,""ArrowDown,ArrowRight"":17}","true","spaceBar","true","","","revaluation","1","56","","",""
"html-keyboard-response","179","906691","0.0-4.0-2.0-1.28","spark_pilot_2","7970","8","14","Female","","","","","","","null","<div style=""font-size:60px;"">+</div>","null","fixation","","","","","","","","","","","57","","",""
"revaluation","180","912729","0.0-4.0-2.0-0.29","spark_pilot_2","7970","8","14","Female","","false","","","","","[971,398]","./assets/img/canyon/memory/27.jpg","[""ArrowUp"",""ArrowLeft""]","value training","canyon","26","{""ArrowUp,ArrowLeft"":26,""ArrowUp,ArrowRight"":10,""ArrowDown,ArrowLeft"":5,""ArrowDown,ArrowRight"":17}","true","ArrowUp,ArrowLeft","false","","","revaluation","1","58","","",""
"html-keyboard-response","181","913245","0.0-4.0-2.0-1.29","spark_pilot_2","7970","8","14","Female","","","","","","","null","<div style=""font-size:60px;"">+</div>","null","fixation","","","","","","","","","","","59","","",""
"revaluation","182","919272","0.0-4.0-2.0-0.30","spark_pilot_2","7970","8","14","Female","","false","","","","","[624,243]","./assets/img/canyon/memory/16.jpg","[""ArrowUp"",""ArrowLeft""]","value training","canyon","26","{""ArrowUp,ArrowLeft"":26,""ArrowUp,ArrowRight"":10,""ArrowDown,ArrowLeft"":5,""ArrowDown,ArrowRight"":17}","true","ArrowUp,ArrowLeft","false","","","revaluation","1","60","","",""
"html-keyboard-response","183","919784","0.0-4.0-2.0-1.30","spark_pilot_2","7970","8","14","Female","","","","","","","null","<div style=""font-size:60px;"">+</div>","null","fixation","","","","","","","","","","","61","","",""
"revaluation","184","925821","0.0-4.0-2.0-0.31","spark_pilot_2","7970","8","14","Female","","false","","","","","[398,355]","./assets/img/canyon/memory/25.jpg","[""ArrowUp"",""ArrowLeft""]","value training","canyon","26","{""ArrowUp,ArrowLeft"":26,""ArrowUp,ArrowRight"":10,""ArrowDown,ArrowLeft"":5,""ArrowDown,ArrowRight"":17}","true","ArrowUp,ArrowLeft","false","","","revaluation","1","62","","",""
"html-keyboard-response","185","926332","0.0-4.0-2.0-1.31","spark_pilot_2","7970","8","14","Female","","","","","","","null","<div style=""font-size:60px;"">+</div>","null","fixation","","","","","","","","","","","63","","",""
"revaluation","186","930350","0.0-4.0-2.0-0.32","spark_pilot_2","7970","8","14","Female","","false","","","","","[673]","./assets/img/canyon/catch/0.jpg","[""spaceBar""]","value training","canyon","0","{""ArrowUp,ArrowLeft"":26,""ArrowUp,ArrowRight"":10,""ArrowDown,ArrowLeft"":5,""ArrowDown,ArrowRight"":17}","true","spaceBar","true","","","revaluation","1","64","","",""
"html-keyboard-response","187","930863","0.0-4.0-2.0-1.32","spark_pilot_2","7970","8","14","Female","","","","","","","null","<div style=""font-size:60px;"">+</div>","null","fixation","","","","","","","","","","","65","","",""
"revaluation","188","936894","0.0-4.0-2.0-0.33","spark_pilot_2","7970","8","14","Female","","false","","","","","[668,515]","./assets/img/canyon/memory/18.jpg","[""ArrowUp"",""ArrowLeft""]","value training","canyon","26","{""ArrowUp,ArrowLeft"":26,""ArrowUp,ArrowRight"":10,""ArrowDown,ArrowLeft"":5,""ArrowDown,ArrowRight"":17}","true","ArrowUp,ArrowLeft","false","","","revaluation","1","66","","",""
"html-keyboard-response","189","937406","0.0-4.0-2.0-1.33","spark_pilot_2","7970","8","14","Female","","","","","","","null","<div style=""font-size:60px;"">+</div>","null","fixation","","","","","","","","","","","67","","",""
"revaluation","190","943433","0.0-4.0-2.0-0.34","spark_pilot_2","7970","8","14","Female","","false","","","","","[614,474]","./assets/img/canyon/memory/15.jpg","[""ArrowUp"",""ArrowLeft""]","value training","canyon","26","{""ArrowUp,ArrowLeft"":26,""ArrowUp,ArrowRight"":10,""ArrowDown,ArrowLeft"":5,""ArrowDown,ArrowRight"":17}","true","ArrowUp,ArrowLeft","false","","","revaluation","1","68","","",""
"html-keyboard-response","191","943947","0.0-4.0-2.0-1.34","spark_pilot_2","7970","8","14","Female","","","","","","","null","<div style=""font-size:60px;"">+</div>","null","fixation","","","","","","","","","","","69","","",""
"revaluation","192","947967","0.0-4.0-2.0-0.35","spark_pilot_2","7970","8","14","Female","","false","","","","","[720]","./assets/img/canyon/catch/3.jpg","[""spaceBar""]","value training","canyon","0","{""ArrowUp,ArrowLeft"":26,""ArrowUp,ArrowRight"":10,""ArrowDown,ArrowLeft"":5,""ArrowDown,ArrowRight"":17}","true","spaceBar","true","","","revaluation","1","70","","",""
"html-keyboard-response","193","948480","0.0-4.0-2.0-1.35","spark_pilot_2","7970","8","14","Female","","","","","","","null","<div style=""font-size:60px;"">+</div>","null","fixation","","","","","","","","","","","71","","",""
"revaluation","194","954511","0.0-4.0-2.0-0.36","spark_pilot_2","7970","8","14","Female","","false","","","","","[1173,402]","./assets/img/canyon/memory/11.jpg","[""ArrowUp"",""ArrowLeft""]","value training","canyon","26","{""ArrowUp,ArrowLeft"":26,""ArrowUp,ArrowRight"":10,""ArrowDown,ArrowLeft"":5,""ArrowDown,ArrowRight"":17}","true","ArrowUp,ArrowLeft","false","","","revaluation","1","72","","",""
"html-keyboard-response","195","955027","0.0-4.0-2.0-1.36","spark_pilot_2","7970","8","14","Female","","","","","","","null","<div style=""font-size:60px;"">+</div>","null","fixation","","","","","","","","","","","73","","",""
"revaluation","196","961056","0.0-4.0-2.0-0.37","spark_pilot_2","7970","8","14","Female","","false","","","","","[916,257]","./assets/img/canyon/memory/13.jpg","[""ArrowUp"",""ArrowLeft""]","value training","canyon","26","{""ArrowUp,ArrowLeft"":26,""ArrowUp,ArrowRight"":10,""ArrowDown,ArrowLeft"":5,""ArrowDown,ArrowRight"":17}","true","ArrowUp,ArrowLeft","false","","","revaluation","1","74","","",""
"html-keyboard-response","197","961565","0.0-4.0-2.0-1.37","spark_pilot_2","7970","8","14","Female","","","","","","","null","<div style=""font-size:60px;"">+</div>","null","fixation","","","","","","","","","","","75","","",""
"revaluation","198","965580","0.0-4.0-2.0-0.38","spark_pilot_2","7970","8","14","Female","","false","","","","","[624]","./assets/img/canyon/catch/4.jpg","[""spaceBar""]","value training","canyon","0","{""ArrowUp,ArrowLeft"":26,""ArrowUp,ArrowRight"":10,""ArrowDown,ArrowLeft"":5,""ArrowDown,ArrowRight"":17}","true","spaceBar","true","","","revaluation","1","76","","",""
"html-keyboard-response","199","966081","0.0-4.0-2.0-1.38","spark_pilot_2","7970","8","14","Female","","","","","","","null","<div style=""font-size:60px;"">+</div>","null","fixation","","","","","","","","","","","77","","",""
"revaluation","200","972109","0.0-4.0-2.0-0.39","spark_pilot_2","7970","8","14","Female","","false","","","","","[924,419]","./assets/img/canyon/memory/18.jpg","[""ArrowUp"",""ArrowLeft""]","value training","canyon","26","{""ArrowUp,ArrowLeft"":26,""ArrowUp,ArrowRight"":10,""ArrowDown,ArrowLeft"":5,""ArrowDown,ArrowRight"":17}","true","ArrowUp,ArrowLeft","false","","","revaluation","1","78","","",""
"html-keyboard-response","201","972624","0.0-4.0-2.0-1.39","spark_pilot_2","7970","8","14","Female","","","","","","","null","<div style=""font-size:60px;"">+</div>","null","fixation","","","","","","","","","","","79","","",""
"revaluation","202","978648","0.0-4.0-2.0-0.40","spark_pilot_2","7970","8","14","Female","","false","","","","","[820,376]","./assets/img/canyon/memory/6.jpg","[""ArrowUp"",""ArrowLeft""]","value training","canyon","26","{""ArrowUp,ArrowLeft"":26,""ArrowUp,ArrowRight"":10,""ArrowDown,ArrowLeft"":5,""ArrowDown,ArrowRight"":17}","true","ArrowUp,ArrowLeft","false","","","revaluation","1","80","","",""
"html-keyboard-response","203","979163","0.0-4.0-2.0-1.40","spark_pilot_2","7970","8","14","Female","","","","","","","null","<div style=""font-size:60px;"">+</div>","null","fixation","","","","","","","","","","","81","","",""
"revaluation","204","985195","0.0-4.0-2.0-0.41","spark_pilot_2","7970","8","14","Female","","false","","","","","[817,372]","./assets/img/canyon/memory/19.jpg","[""ArrowUp"",""ArrowLeft""]","value training","canyon","26","{""ArrowUp,ArrowLeft"":26,""ArrowUp,ArrowRight"":10,""ArrowDown,ArrowLeft"":5,""ArrowDown,ArrowRight"":17}","true","ArrowUp,ArrowLeft","false","","","revaluation","1","82","","",""
"html-keyboard-response","205","985711","0.0-4.0-2.0-1.41","spark_pilot_2","7970","8","14","Female","","","","","","","null","<div style=""font-size:60px;"">+</div>","null","fixation","","","","","","","","","","","83","","",""
"revaluation","206","991746","0.0-4.0-2.0-0.42","spark_pilot_2","7970","8","14","Female","","false","","","","","[645,338]","./assets/img/canyon/memory/3.jpg","[""ArrowUp"",""ArrowLeft""]","value training","canyon","26","{""ArrowUp,ArrowLeft"":26,""ArrowUp,ArrowRight"":10,""ArrowDown,ArrowLeft"":5,""ArrowDown,ArrowRight"":17}","true","ArrowUp,ArrowLeft","false","","","revaluation","1","84","","",""
"html-keyboard-response","207","992261","0.0-4.0-2.0-1.42","spark_pilot_2","7970","8","14","Female","","","","","","","null","<div style=""font-size:60px;"">+</div>","null","fixation","","","","","","","","","","","85","","",""
"revaluation","208","998283","0.0-4.0-2.0-0.43","spark_pilot_2","7970","8","14","Female","","false","","","","","[839,261]","./assets/img/canyon/memory/17.jpg","[""ArrowUp"",""ArrowLeft""]","value training","canyon","26","{""ArrowUp,ArrowLeft"":26,""ArrowUp,ArrowRight"":10,""ArrowDown,ArrowLeft"":5,""ArrowDown,ArrowRight"":17}","true","ArrowUp,ArrowLeft","false","","","revaluation","1","86","","",""
"html-keyboard-response","209","998792","0.0-4.0-2.0-1.43","spark_pilot_2","7970","8","14","Female","","","","","","","null","<div style=""font-size:60px;"">+</div>","null","fixation","","","","","","","","","","","87","","",""
"revaluation","210","1004819","0.0-4.0-2.0-0.44","spark_pilot_2","7970","8","14","Female","","false","","","","","[831,487]","./assets/img/canyon/memory/15.jpg","[""ArrowUp"",""ArrowLeft""]","value training","canyon","26","{""ArrowUp,ArrowLeft"":26,""ArrowUp,ArrowRight"":10,""ArrowDown,ArrowLeft"":5,""ArrowDown,ArrowRight"":17}","true","ArrowUp,ArrowLeft","false","","","revaluation","1","88","","",""
"html-keyboard-response","211","1005334","0.0-4.0-2.0-1.44","spark_pilot_2","7970","8","14","Female","","","","","","","null","<div style=""font-size:60px;"">+</div>","null","fixation","","","","","","","","","","","89","","",""
"revaluation","212","1011368","0.0-4.0-2.0-0.45","spark_pilot_2","7970","8","14","Female","","false","","","","","[615,379]","./assets/img/canyon/memory/22.jpg","[""ArrowUp"",""ArrowLeft""]","value training","canyon","26","{""ArrowUp,ArrowLeft"":26,""ArrowUp,ArrowRight"":10,""ArrowDown,ArrowLeft"":5,""ArrowDown,ArrowRight"":17}","true","ArrowUp,ArrowLeft","false","","","revaluation","1","90","","",""
"html-keyboard-response","213","1011882","0.0-4.0-2.0-1.45","spark_pilot_2","7970","8","14","Female","","","","","","","null","<div style=""font-size:60px;"">+</div>","null","fixation","","","","","","","","","","","91","","",""
"revaluation","214","1017925","0.0-4.0-2.0-0.46","spark_pilot_2","7970","8","14","Female","","false","","","","","[666,444]","./assets/img/canyon/memory/16.jpg","[""ArrowUp"",""ArrowLeft""]","value training","canyon","26","{""ArrowUp,ArrowLeft"":26,""ArrowUp,ArrowRight"":10,""ArrowDown,ArrowLeft"":5,""ArrowDown,ArrowRight"":17}","true","ArrowUp,ArrowLeft","false","","","revaluation","1","92","","",""
"html-keyboard-response","215","1018441","0.0-4.0-2.0-1.46","spark_pilot_2","7970","8","14","Female","","","","","","","null","<div style=""font-size:60px;"">+</div>","null","fixation","","","","","","","","","","","93","","",""
"revaluation","216","1024478","0.0-4.0-2.0-0.47","spark_pilot_2","7970","8","14","Female","","false","","","","","[644,539]","./assets/img/canyon/memory/1.jpg","[""ArrowUp"",""ArrowLeft""]","value training","canyon","26","{""ArrowUp,ArrowLeft"":26,""ArrowUp,ArrowRight"":10,""ArrowDown,ArrowLeft"":5,""ArrowDown,ArrowRight"":17}","true","ArrowUp,ArrowLeft","false","","","revaluation","1","94","","",""
"html-keyboard-response","217","1024988","0.0-4.0-2.0-1.47","spark_pilot_2","7970","8","14","Female","","","","","","","null","<div style=""font-size:60px;"">+</div>","null","fixation","","","","","","","","","","","95","","",""
"revaluation","218","1031019","0.0-4.0-2.0-0.48","spark_pilot_2","7970","8","14","Female","","false","","","","","[673,292]","./assets/img/canyon/memory/21.jpg","[""ArrowUp"",""ArrowLeft""]","value training","canyon","26","{""ArrowUp,ArrowLeft"":26,""ArrowUp,ArrowRight"":10,""ArrowDown,ArrowLeft"":5,""ArrowDown,ArrowRight"":17}","true","ArrowUp,ArrowLeft","false","","","revaluation","1","96","","",""
"html-keyboard-response","219","1031531","0.0-4.0-2.0-1.48","spark_pilot_2","7970","8","14","Female","","","","","","","null","<div style=""font-size:60px;"">+</div>","null","fixation","","","","","","","","","","","97","","",""
"revaluation","220","1037563","0.0-4.0-2.0-0.49","spark_pilot_2","7970","8","14","Female","","false","","","","","[671,319]","./assets/img/canyon/memory/19.jpg","[""ArrowUp"",""ArrowLeft""]","value training","canyon","26","{""ArrowUp,ArrowLeft"":26,""ArrowUp,ArrowRight"":10,""ArrowDown,ArrowLeft"":5,""ArrowDown,ArrowRight"":17}","true","ArrowUp,ArrowLeft","false","","","revaluation","1","98","","",""
"html-keyboard-response","221","1038064","0.0-4.0-2.0-1.49","spark_pilot_2","7970","8","14","Female","","","","","","","null","<div style=""font-size:60px;"">+</div>","null","fixation","","","","","","","","","","","99","","",""
"learning-instructions","222","1052440","0.0-4.0-3.0-0.0","spark_pilot_2","7970","8","14","Female","","","","","","","1490","<p> Now, you will travel with a friend who will choose whether you go up or down first. </p>
            <p> On these turns, you will just see the animal that they found. You will still get to choose which chest to search for treasure.</p>","","instructions","","","","","","","","","","","","","",""
"revaluation","223","1056450","0.0-4.0-4.0-0.0","spark_pilot_2","7970","8","14","Female","","false","","","","","[966]","./assets/img/canyon/animals/giraffe.jpg","[""ArrowRight""]","revaluation","canyon","27","{""ArrowUp,ArrowLeft"":2,""ArrowUp,ArrowRight"":11,""ArrowDown,ArrowLeft"":8,""ArrowDown,ArrowRight"":27}","true","ArrowDown,ArrowRight","","","","revaluation","1","0","","",""
"html-keyboard-response","224","1056951","0.0-4.0-4.0-1.0","spark_pilot_2","7970","8","14","Female","","","","","","","null","<div style=""font-size:60px;"">+</div>","null","fixation","","","","","","","","","","","1","","",""
"revaluation","225","1060972","0.0-4.0-4.0-0.1","spark_pilot_2","7970","8","14","Female","","false","","","","","[588]","./assets/img/canyon/animals/lion.jpg","[""ArrowRight""]","revaluation","canyon","11","{""ArrowUp,ArrowLeft"":2,""ArrowUp,ArrowRight"":11,""ArrowDown,ArrowLeft"":8,""ArrowDown,ArrowRight"":27}","true","ArrowUp,ArrowRight","","","","revaluation","1","2","","",""
"html-keyboard-response","226","1061482","0.0-4.0-4.0-1.1","spark_pilot_2","7970","8","14","Female","","","","","","","null","<div style=""font-size:60px;"">+</div>","null","fixation","","","","","","","","","","","3","","",""
"revaluation","227","1065503","0.0-4.0-4.0-0.2","spark_pilot_2","7970","8","14","Female","","false","","","","","[611]","./assets/img/canyon/animals/giraffe.jpg","[""ArrowRight""]","revaluation","canyon","27","{""ArrowUp,ArrowLeft"":2,""ArrowUp,ArrowRight"":11,""ArrowDown,ArrowLeft"":8,""ArrowDown,ArrowRight"":27}","true","ArrowDown,ArrowRight","","","","revaluation","1","4","","",""
"html-keyboard-response","228","1066015","0.0-4.0-4.0-1.2","spark_pilot_2","7970","8","14","Female","","","","","","","null","<div style=""font-size:60px;"">+</div>","null","fixation","","","","","","","","","","","5","","",""
"revaluation","229","1070026","0.0-4.0-4.0-0.3","spark_pilot_2","7970","8","14","Female","","false","","","","","[424]","./assets/img/canyon/animals/lion.jpg","[""ArrowLeft""]","revaluation","canyon","2","{""ArrowUp,ArrowLeft"":2,""ArrowUp,ArrowRight"":11,""ArrowDown,ArrowLeft"":8,""ArrowDown,ArrowRight"":27}","false","ArrowUp,ArrowLeft","","","","revaluation","1","6","","",""
"html-keyboard-response","230","1070540","0.0-4.0-4.0-1.3","spark_pilot_2","7970","8","14","Female","","","","","","","null","<div style=""font-size:60px;"">+</div>","null","fixation","","","","","","","","","","","7","","",""
"revaluation","231","1074562","0.0-4.0-4.0-0.4","spark_pilot_2","7970","8","14","Female","","false","","","","","[482]","./assets/img/canyon/animals/lion.jpg","[""ArrowRight""]","revaluation","canyon","11","{""ArrowUp,ArrowLeft"":2,""ArrowUp,ArrowRight"":11,""ArrowDown,ArrowLeft"":8,""ArrowDown,ArrowRight"":27}","true","ArrowUp,ArrowRight","","","","revaluation","1","8","","",""
"html-keyboard-response","232","1075073","0.0-4.0-4.0-1.4","spark_pilot_2","7970","8","14","Female","","","","","","","null","<div style=""font-size:60px;"">+</div>","null","fixation","","","","","","","","","","","9","","",""
"revaluation","233","1079096","0.0-4.0-4.0-0.5","spark_pilot_2","7970","8","14","Female","","false","","","","","[92]","./assets/img/canyon/animals/lion.jpg","[""ArrowRight""]","revaluation","canyon","11","{""ArrowUp,ArrowLeft"":2,""ArrowUp,ArrowRight"":11,""ArrowDown,ArrowLeft"":8,""ArrowDown,ArrowRight"":27}","true","ArrowUp,ArrowRight","","","","revaluation","1","10","","",""
"html-keyboard-response","234","1079598","0.0-4.0-4.0-1.5","spark_pilot_2","7970","8","14","Female","","","","","","","null","<div style=""font-size:60px;"">+</div>","null","fixation","","","","","","","","","","","11","","",""
"revaluation","235","1083619","0.0-4.0-4.0-0.6","spark_pilot_2","7970","8","14","Female","","false","","","","","[544]","./assets/img/canyon/animals/lion.jpg","[""ArrowRight""]","revaluation","canyon","11","{""ArrowUp,ArrowLeft"":2,""ArrowUp,ArrowRight"":11,""ArrowDown,ArrowLeft"":8,""ArrowDown,ArrowRight"":27}","true","ArrowUp,ArrowRight","","","","revaluation","1","12","","",""
"html-keyboard-response","236","1084134","0.0-4.0-4.0-1.6","spark_pilot_2","7970","8","14","Female","","","","","","","null","<div style=""font-size:60px;"">+</div>","null","fixation","","","","","","","","","","","13","","",""
"revaluation","237","1088159","0.0-4.0-4.0-0.7","spark_pilot_2","7970","8","14","Female","","true","","","","","[]","./assets/img/canyon/animals/lion.jpg","[]","revaluation","canyon","-5","{""ArrowUp,ArrowLeft"":2,""ArrowUp,ArrowRight"":11,""ArrowDown,ArrowLeft"":8,""ArrowDown,ArrowRight"":27}","false","ArrowUp","","","","revaluation","1","14","","",""
"html-keyboard-response","238","1088672","0.0-4.0-4.0-1.7","spark_pilot_2","7970","8","14","Female","","","","","","","null","<div style=""font-size:60px;"">+</div>","null","fixation","","","","","","","","","","","15","","",""
"revaluation","239","1092698","0.0-4.0-4.0-0.8","spark_pilot_2","7970","8","14","Female","","true","","","","","[]","./assets/img/canyon/animals/lion.jpg","[]","revaluation","canyon","-5","{""ArrowUp,ArrowLeft"":2,""ArrowUp,ArrowRight"":11,""ArrowDown,ArrowLeft"":8,""ArrowDown,ArrowRight"":27}","false","ArrowUp","","","","revaluation","1","16","","",""
"html-keyboard-response","240","1093198","0.0-4.0-4.0-1.8","spark_pilot_2","7970","8","14","Female","","","","","","","null","<div style=""font-size:60px;"">+</div>","null","fixation","","","","","","","","","","","17","","",""
"revaluation","241","1097218","0.0-4.0-4.0-0.9","spark_pilot_2","7970","8","14","Female","","false","","","","","[374]","./assets/img/canyon/animals/giraffe.jpg","[""ArrowRight""]","revaluation","canyon","27","{""ArrowUp,ArrowLeft"":2,""ArrowUp,ArrowRight"":11,""ArrowDown,ArrowLeft"":8,""ArrowDown,ArrowRight"":27}","true","ArrowDown,ArrowRight","","","","revaluation","1","18","","",""
"html-keyboard-response","242","1097734","0.0-4.0-4.0-1.9","spark_pilot_2","7970","8","14","Female","","","","","","","null","<div style=""font-size:60px;"">+</div>","null","fixation","","","","","","","","","","","19","","",""
"revaluation","243","1101760","0.0-4.0-4.0-0.10","spark_pilot_2","7970","8","14","Female","","false","","","","","[739]","./assets/img/canyon/animals/giraffe.jpg","[""ArrowLeft""]","revaluation","canyon","8","{""ArrowUp,ArrowLeft"":2,""ArrowUp,ArrowRight"":11,""ArrowDown,ArrowLeft"":8,""ArrowDown,ArrowRight"":27}","false","ArrowDown,ArrowLeft","","","","revaluation","1","20","","",""
"html-keyboard-response","244","1102272","0.0-4.0-4.0-1.10","spark_pilot_2","7970","8","14","Female","","","","","","","null","<div style=""font-size:60px;"">+</div>","null","fixation","","","","","","","","","","","21","","",""
"revaluation","245","1106292","0.0-4.0-4.0-0.11","spark_pilot_2","7970","8","14","Female","","false","","","","","[436]","./assets/img/canyon/animals/giraffe.jpg","[""ArrowRight""]","revaluation","canyon","27","{""ArrowUp,ArrowLeft"":2,""ArrowUp,ArrowRight"":11,""ArrowDown,ArrowLeft"":8,""ArrowDown,ArrowRight"":27}","true","ArrowDown,ArrowRight","","","","revaluation","1","22","","",""
"html-keyboard-response","246","1106794","0.0-4.0-4.0-1.11","spark_pilot_2","7970","8","14","Female","","","","","","","null","<div style=""font-size:60px;"">+</div>","null","fixation","","","","","","","","","","","23","","",""
"revaluation","247","1110811","0.0-4.0-4.0-0.12","spark_pilot_2","7970","8","14","Female","","false","","","","","[412]","./assets/img/canyon/animals/giraffe.jpg","[""ArrowRight""]","revaluation","canyon","27","{""ArrowUp,ArrowLeft"":2,""ArrowUp,ArrowRight"":11,""ArrowDown,ArrowLeft"":8,""ArrowDown,ArrowRight"":27}","true","ArrowDown,ArrowRight","","","","revaluation","1","24","","",""
"html-keyboard-response","248","1111327","0.0-4.0-4.0-1.12","spark_pilot_2","7970","8","14","Female","","","","","","","null","<div style=""font-size:60px;"">+</div>","null","fixation","","","","","","","","","","","25","","",""
"revaluation","249","1115351","0.0-4.0-4.0-0.13","spark_pilot_2","7970","8","14","Female","","false","","","","","[548]","./assets/img/canyon/animals/lion.jpg","[""ArrowRight""]","revaluation","canyon","11","{""ArrowUp,ArrowLeft"":2,""ArrowUp,ArrowRight"":11,""ArrowDown,ArrowLeft"":8,""ArrowDown,ArrowRight"":27}","true","ArrowUp,ArrowRight","","","","revaluation","1","26","","",""
"html-keyboard-response","250","1115865","0.0-4.0-4.0-1.13","spark_pilot_2","7970","8","14","Female","","","","","","","null","<div style=""font-size:60px;"">+</div>","null","fixation","","","","","","","","","","","27","","",""
"revaluation","251","1119884","0.0-4.0-4.0-0.14","spark_pilot_2","7970","8","14","Female","","false","","","","","[422]","./assets/img/canyon/animals/lion.jpg","[""ArrowRight""]","revaluation","canyon","11","{""ArrowUp,ArrowLeft"":2,""ArrowUp,ArrowRight"":11,""ArrowDown,ArrowLeft"":8,""ArrowDown,ArrowRight"":27}","true","ArrowUp,ArrowRight","","","","revaluation","1","28","","",""
"html-keyboard-response","252","1120397","0.0-4.0-4.0-1.14","spark_pilot_2","7970","8","14","Female","","","","","","","null","<div style=""font-size:60px;"">+</div>","null","fixation","","","","","","","","","","","29","","",""
"revaluation","253","1124405","0.0-4.0-4.0-0.15","spark_pilot_2","7970","8","14","Female","","false","","","","","[880]","./assets/img/canyon/animals/giraffe.jpg","[""ArrowRight""]","revaluation","canyon","27","{""ArrowUp,ArrowLeft"":2,""ArrowUp,ArrowRight"":11,""ArrowDown,ArrowLeft"":8,""ArrowDown,ArrowRight"":27}","true","ArrowDown,ArrowRight","","","","revaluation","1","30","","",""
"html-keyboard-response","254","1124919","0.0-4.0-4.0-1.15","spark_pilot_2","7970","8","14","Female","","","","","","","null","<div style=""font-size:60px;"">+</div>","null","fixation","","","","","","","","","","","31","","",""
"revaluation","255","1128947","0.0-4.0-4.0-0.16","spark_pilot_2","7970","8","14","Female","","false","","","","","[379]","./assets/img/canyon/animals/giraffe.jpg","[""ArrowRight""]","revaluation","canyon","27","{""ArrowUp,ArrowLeft"":2,""ArrowUp,ArrowRight"":11,""ArrowDown,ArrowLeft"":8,""ArrowDown,ArrowRight"":27}","true","ArrowDown,ArrowRight","","","","revaluation","1","32","","",""
"html-keyboard-response","256","1129459","0.0-4.0-4.0-1.16","spark_pilot_2","7970","8","14","Female","","","","","","","null","<div style=""font-size:60px;"">+</div>","null","fixation","","","","","","","","","","","33","","",""
"revaluation","257","1133473","0.0-4.0-4.0-0.17","spark_pilot_2","7970","8","14","Female","","false","","","","","[721]","./assets/img/canyon/animals/giraffe.jpg","[""ArrowRight""]","revaluation","canyon","27","{""ArrowUp,ArrowLeft"":2,""ArrowUp,ArrowRight"":11,""ArrowDown,ArrowLeft"":8,""ArrowDown,ArrowRight"":27}","true","ArrowDown,ArrowRight","","","","revaluation","1","34","","",""
"html-keyboard-response","258","1133989","0.0-4.0-4.0-1.17","spark_pilot_2","7970","8","14","Female","","","","","","","null","<div style=""font-size:60px;"">+</div>","null","fixation","","","","","","","","","","","35","","",""
"learning-instructions","259","1147776","0.0-4.0-5.0-0.0","spark_pilot_2","7970","8","14","Female","","","","","","","2295","<p> Time to play the dot game! </p>
            <p> For one minute, click the red dots on the following screen as they appear. </p>
            <p><b> Don't look away, as you will earn bonus for clicking dots</b>. </p>","","instructions","","","","","","","","","","","","","",""
"revaluation","260","1207792","0.0-4.0-6.0-0.0","spark_pilot_2","7970","8","14","Female","","","","","","","[76,101,83,91,113,52]","","","rest","","60","","","","","0","60000","","","","","",""
"learning-instructions","261","1215096","0.0-4.0-7.0-0.0","spark_pilot_2","7970","8","14","Female","","","","","","","1196","<p> You have almost finished this part of the game! </p>
            <p> We are going to ask you to make a few more choices. </p>","","instructions","","","","","","","","","","","","","",""
"learning-instructions","262","1230576","0.0-4.0-7.0-0.1","spark_pilot_2","7970","8","14","Female","","","","","","","1506","<p> First, you need to decide whether to go up or down. When you see each picture, use the arrow keys to make your choice. </p>
            <p><b>You will not see which animal you found, but try to get to the one that will give you the most treasure.</b></p>","","instructions","","","","","","","","","","","","","",""
"revaluation","263","1231865","0.0-4.0-8.0-0.0","spark_pilot_2","7970","8","14","Female","","false","","","","","[1288]","./assets/img/canyon/test/3.jpg","[""ArrowUp""]","first stage test","canyon","0","{""ArrowUp,ArrowLeft"":2,""ArrowUp,ArrowRight"":11,""ArrowDown,ArrowLeft"":8,""ArrowDown,ArrowRight"":27}","false","ArrowUp","false","","","revaluation","1","","","",""
"html-keyboard-response","264","1232367","0.0-4.0-8.0-1.0","spark_pilot_2","7970","8","14","Female","","","","","","","null","<div style=""font-size:60px;"">+</div>","null","fixation","","","","","","","","","","","","","",""
"revaluation","265","1233168","0.0-4.0-8.0-0.1","spark_pilot_2","7970","8","14","Female","","false","","","","","[799]","./assets/img/canyon/test/0.jpg","[""ArrowUp""]","first stage test","canyon","0","{""ArrowUp,ArrowLeft"":2,""ArrowUp,ArrowRight"":11,""ArrowDown,ArrowLeft"":8,""ArrowDown,ArrowRight"":27}","false","ArrowUp","false","","","revaluation","1","","","",""
"html-keyboard-response","266","1233677","0.0-4.0-8.0-1.1","spark_pilot_2","7970","8","14","Female","","","","","","","null","<div style=""font-size:60px;"">+</div>","null","fixation","","","","","","","","","","","","","",""
"revaluation","267","1234313","0.0-4.0-8.0-0.2","spark_pilot_2","7970","8","14","Female","","false","","","","","[633]","./assets/img/canyon/test/2.jpg","[""ArrowDown""]","first stage test","canyon","0","{""ArrowUp,ArrowLeft"":2,""ArrowUp,ArrowRight"":11,""ArrowDown,ArrowLeft"":8,""ArrowDown,ArrowRight"":27}","true","ArrowDown","false","","","revaluation","1","","","",""
"html-keyboard-response","268","1234829","0.0-4.0-8.0-1.2","spark_pilot_2","7970","8","14","Female","","","","","","","null","<div style=""font-size:60px;"">+</div>","null","fixation","","","","","","","","","","","","","",""
"revaluation","269","1235409","0.0-4.0-8.0-0.3","spark_pilot_2","7970","8","14","Female","","false","","","","","[576]","./assets/img/canyon/test/1.jpg","[""ArrowUp""]","first stage test","canyon","0","{""ArrowUp,ArrowLeft"":2,""ArrowUp,ArrowRight"":11,""ArrowDown,ArrowLeft"":8,""ArrowDown,ArrowRight"":27}","false","ArrowUp","false","","","revaluation","1","","","",""
"html-keyboard-response","270","1235917","0.0-4.0-8.0-1.3","spark_pilot_2","7970","8","14","Female","","","","","","","null","<div style=""font-size:60px;"">+</div>","null","fixation","","","","","","","","","","","","","",""
"learning-instructions","271","1248305","0.0-4.0-9.0-0.0","spark_pilot_2","7970","8","14","Female","","","","","","","1043","<p> Now you will see the animals again and can search their chests for treasure. </p>
            <p> This time, you will not see how much treasure you earned, but you will earn more bonus money for making better choices. </p>","","instructions","","","","","","","","","","","","","",""
"revaluation","272","1249080","0.0-4.0-10.0-0.0","spark_pilot_2","7970","8","14","Female","","false","","","","","[774]","./assets/img/canyon/animals/lion.jpg","[""ArrowRight""]","second stage test","canyon","0","{""ArrowUp,ArrowLeft"":2,""ArrowUp,ArrowRight"":11,""ArrowDown,ArrowLeft"":8,""ArrowDown,ArrowRight"":27}","true","ArrowUp,ArrowRight","","","","revaluation","1","","","",""
"html-keyboard-response","273","1249588","0.0-4.0-10.0-1.0","spark_pilot_2","7970","8","14","Female","","","","","","","null","<div style=""font-size:60px;"">+</div>","null","fixation","","","","","","","","","","","","","",""
"revaluation","274","1250111","0.0-4.0-10.0-0.1","spark_pilot_2","7970","8","14","Female","","false","","","","","[521]","./assets/img/canyon/animals/lion.jpg","[""ArrowRight""]","second stage test","canyon","0","{""ArrowUp,ArrowLeft"":2,""ArrowUp,ArrowRight"":11,""ArrowDown,ArrowLeft"":8,""ArrowDown,ArrowRight"":27}","true","ArrowUp,ArrowRight","","","","revaluation","1","","","",""
"html-keyboard-response","275","1250617","0.0-4.0-10.0-1.1","spark_pilot_2","7970","8","14","Female","","","","","","","null","<div style=""font-size:60px;"">+</div>","null","fixation","","","","","","","","","","","","","",""
"revaluation","276","1251007","0.0-4.0-10.0-0.2","spark_pilot_2","7970","8","14","Female","","false","","","","","[388]","./assets/img/canyon/animals/lion.jpg","[""ArrowRight""]","second stage test","canyon","0","{""ArrowUp,ArrowLeft"":2,""ArrowUp,ArrowRight"":11,""ArrowDown,ArrowLeft"":8,""ArrowDown,ArrowRight"":27}","true","ArrowUp,ArrowRight","","","","revaluation","1","","","",""
"html-keyboard-response","277","1251508","0.0-4.0-10.0-1.2","spark_pilot_2","7970","8","14","Female","","","","","","","null","<div style=""font-size:60px;"">+</div>","null","fixation","","","","","","","","","","","","","",""
"revaluation","278","1251888","0.0-4.0-10.0-0.3","spark_pilot_2","7970","8","14","Female","","false","","","","","[378]","./assets/img/canyon/animals/lion.jpg","[""ArrowRight""]","second stage test","canyon","0","{""ArrowUp,ArrowLeft"":2,""ArrowUp,ArrowRight"":11,""ArrowDown,ArrowLeft"":8,""ArrowDown,ArrowRight"":27}","true","ArrowUp,ArrowRight","","","","revaluation","1","","","",""
"html-keyboard-response","279","1252401","0.0-4.0-10.0-1.3","spark_pilot_2","7970","8","14","Female","","","","","","","null","<div style=""font-size:60px;"">+</div>","null","fixation","","","","","","","","","","","","","",""
"revaluation","280","1252903","0.0-4.0-10.0-0.4","spark_pilot_2","7970","8","14","Female","","false","","","","","[500]","./assets/img/canyon/animals/giraffe.jpg","[""ArrowRight""]","second stage test","canyon","0","{""ArrowUp,ArrowLeft"":2,""ArrowUp,ArrowRight"":11,""ArrowDown,ArrowLeft"":8,""ArrowDown,ArrowRight"":27}","true","ArrowDown,ArrowRight","","","","revaluation","1","","","",""
"html-keyboard-response","281","1253416","0.0-4.0-10.0-1.4","spark_pilot_2","7970","8","14","Female","","","","","","","null","<div style=""font-size:60px;"">+</div>","null","fixation","","","","","","","","","","","","","",""
"revaluation","282","1253823","0.0-4.0-10.0-0.5","spark_pilot_2","7970","8","14","Female","","false","","","","","[405]","./assets/img/canyon/animals/giraffe.jpg","[""ArrowRight""]","second stage test","canyon","0","{""ArrowUp,ArrowLeft"":2,""ArrowUp,ArrowRight"":11,""ArrowDown,ArrowLeft"":8,""ArrowDown,ArrowRight"":27}","true","ArrowDown,ArrowRight","","","","revaluation","1","","","",""
"html-keyboard-response","283","1254335","0.0-4.0-10.0-1.5","spark_pilot_2","7970","8","14","Female","","","","","","","null","<div style=""font-size:60px;"">+</div>","null","fixation","","","","","","","","","","","","","",""
"revaluation","284","1254671","0.0-4.0-10.0-0.6","spark_pilot_2","7970","8","14","Female","","false","","","","","[332]","./assets/img/canyon/animals/giraffe.jpg","[""ArrowRight""]","second stage test","canyon","0","{""ArrowUp,ArrowLeft"":2,""ArrowUp,ArrowRight"":11,""ArrowDown,ArrowLeft"":8,""ArrowDown,ArrowRight"":27}","true","ArrowDown,ArrowRight","","","","revaluation","1","","","",""
"html-keyboard-response","285","1255177","0.0-4.0-10.0-1.6","spark_pilot_2","7970","8","14","Female","","","","","","","null","<div style=""font-size:60px;"">+</div>","null","fixation","","","","","","","","","","","","","",""
"revaluation","286","1255537","0.0-4.0-10.0-0.7","spark_pilot_2","7970","8","14","Female","","false","","","","","[355]","./assets/img/canyon/animals/giraffe.jpg","[""ArrowRight""]","second stage test","canyon","0","{""ArrowUp,ArrowLeft"":2,""ArrowUp,ArrowRight"":11,""ArrowDown,ArrowLeft"":8,""ArrowDown,ArrowRight"":27}","true","ArrowDown,ArrowRight","","","","revaluation","1","","","",""
"html-keyboard-response","287","1256053","0.0-4.0-10.0-1.7","spark_pilot_2","7970","8","14","Female","","","","","","","null","<div style=""font-size:60px;"">+</div>","null","fixation","","","","","","","","","","","","","",""
"learning-instructions","288","1261408","0.0-4.0-0.1-0.2","spark_pilot_2","7970","8","14","Female","","","","","","","2558","<p> This time you are searching for treasure in the <b>ocean</b>.</p>","","instructions","","","","","","","","","","","","","",""
"learning-instructions","289","1280518","0.0-4.0-0.1-0.3","spark_pilot_2","7970","8","14","Female","","","","","","","1850","<p><b>New</b> animals with <b>new</b> treasure chests live here. You need to explore to discover where the animal with the best treasure chest is.</p>
                    <p> Like before, once you figure out which animal has the chest with the most treasure, you should try to get to that animal and select that chest! </p>","","instructions","","","","","","","","","","","","","",""
"learning-instructions","290","1296049","0.0-4.0-1.1-0.1","spark_pilot_2","7970","8","14","Female","","","","","","","789","<p> Remember, when you see a picture of the place, use the up and down keys to <b>find an animal</b>.</p>
            <p> When you encounter an animal, you should use the left and right keys to <b>select a treasure chest</b>.</p>
            <p> Don't forget to look out for the robber! </p>","","instructions","","","","","","","","","","","","","",""
"revaluation","291","1302070","0.0-4.0-2.1-0.50","spark_pilot_2","7970","8","14","Female","","false","","","","","[924,565]","./assets/img/ocean/memory/11.jpg","[""ArrowUp"",""ArrowRight""]","value training","ocean","10","{""ArrowUp,ArrowLeft"":23,""ArrowUp,ArrowRight"":10,""ArrowDown,ArrowLeft"":8,""ArrowDown,ArrowRight"":30}","false","ArrowUp,ArrowRight","false","","","original","2","0","","",""
"html-keyboard-response","292","1302586","0.0-4.0-2.1-1.50","spark_pilot_2","7970","8","14","Female","","","","","","","null","<div style=""font-size:60px;"">+</div>","null","fixation","","","","","","","","","","","1","","",""
"revaluation","293","1308623","0.0-4.0-2.1-0.51","spark_pilot_2","7970","8","14","Female","","false","","","","","[459,352]","./assets/img/ocean/memory/23.jpg","[""ArrowUp"",""ArrowLeft""]","value training","ocean","23","{""ArrowUp,ArrowLeft"":23,""ArrowUp,ArrowRight"":10,""ArrowDown,ArrowLeft"":8,""ArrowDown,ArrowRight"":30}","false","ArrowUp,ArrowLeft","false","","","original","2","2","","",""
"html-keyboard-response","294","1309138","0.0-4.0-2.1-1.51","spark_pilot_2","7970","8","14","Female","","","","","","","null","<div style=""font-size:60px;"">+</div>","null","fixation","","","","","","","","","","","3","","",""
"revaluation","295","1313161","0.0-4.0-2.1-0.52","spark_pilot_2","7970","8","14","Female","","false","","","","","[723]","./assets/img/ocean/catch/7.jpg","[""spaceBar""]","value training","ocean","0","{""ArrowUp,ArrowLeft"":23,""ArrowUp,ArrowRight"":10,""ArrowDown,ArrowLeft"":8,""ArrowDown,ArrowRight"":30}","true","spaceBar","true","","","original","2","4","","",""
"html-keyboard-response","296","1313663","0.0-4.0-2.1-1.52","spark_pilot_2","7970","8","14","Female","","","","","","","null","<div style=""font-size:60px;"">+</div>","null","fixation","","","","","","","","","","","5","","",""
"revaluation","297","1319694","0.0-4.0-2.1-0.53","spark_pilot_2","7970","8","14","Female","","false","","","","","[725,371]","./assets/img/ocean/memory/22.jpg","[""ArrowUp"",""ArrowLeft""]","value training","ocean","23","{""ArrowUp,ArrowLeft"":23,""ArrowUp,ArrowRight"":10,""ArrowDown,ArrowLeft"":8,""ArrowDown,ArrowRight"":30}","false","ArrowUp,ArrowLeft","false","","","original","2","6","","",""
"html-keyboard-response","298","1320198","0.0-4.0-2.1-1.53","spark_pilot_2","7970","8","14","Female","","","","","","","null","<div style=""font-size:60px;"">+</div>","null","fixation","","","","","","","","","","","7","","",""
"revaluation","299","1324214","0.0-4.0-2.1-0.54","spark_pilot_2","7970","8","14","Female","","false","","","","","[637]","./assets/img/ocean/catch/1.jpg","[""spaceBar""]","value training","ocean","0","{""ArrowUp,ArrowLeft"":23,""ArrowUp,ArrowRight"":10,""ArrowDown,ArrowLeft"":8,""ArrowDown,ArrowRight"":30}","true","spaceBar","true","","","original","2","8","","",""
"html-keyboard-response","300","1324728","0.0-4.0-2.1-1.54","spark_pilot_2","7970","8","14","Female","","","","","","","null","<div style=""font-size:60px;"">+</div>","null","fixation","","","","","","","","","","","9","","",""
"revaluation","301","1330767","0.0-4.0-2.1-0.55","spark_pilot_2","7970","8","14","Female","","false","","","","","[913,790]","./assets/img/ocean/memory/15.jpg","[""ArrowUp"",""ArrowLeft""]","value training","ocean","23","{""ArrowUp,ArrowLeft"":23,""ArrowUp,ArrowRight"":10,""ArrowDown,ArrowLeft"":8,""ArrowDown,ArrowRight"":30}","false","ArrowUp,ArrowLeft","false","","","original","2","10","","",""
"html-keyboard-response","302","1331280","0.0-4.0-2.1-1.55","spark_pilot_2","7970","8","14","Female","","","","","","","null","<div style=""font-size:60px;"">+</div>","null","fixation","","","","","","","","","","","11","","",""
"revaluation","303","1337305","0.0-4.0-2.1-0.56","spark_pilot_2","7970","8","14","Female","","false","","","","","[780,534]","./assets/img/ocean/memory/18.jpg","[""ArrowUp"",""ArrowLeft""]","value training","ocean","23","{""ArrowUp,ArrowLeft"":23,""ArrowUp,ArrowRight"":10,""ArrowDown,ArrowLeft"":8,""ArrowDown,ArrowRight"":30}","false","ArrowUp,ArrowLeft","false","","","original","2","12","","",""
"html-keyboard-response","304","1337816","0.0-4.0-2.1-1.56","spark_pilot_2","7970","8","14","Female","","","","","","","null","<div style=""font-size:60px;"">+</div>","null","fixation","","","","","","","","","","","13","","",""
"revaluation","305","1343853","0.0-4.0-2.1-0.57","spark_pilot_2","7970","8","14","Female","","false","","","","","[926,1635]","./assets/img/ocean/memory/10.jpg","[""ArrowUp"",""ArrowLeft""]","value training","ocean","23","{""ArrowUp,ArrowLeft"":23,""ArrowUp,ArrowRight"":10,""ArrowDown,ArrowLeft"":8,""ArrowDown,ArrowRight"":30}","false","ArrowUp,ArrowLeft","false","","","original","2","14","","",""
"html-keyboard-response","306","1344354","0.0-4.0-2.1-1.57","spark_pilot_2","7970","8","14","Female","","","","","","","null","<div style=""font-size:60px;"">+</div>","null","fixation","","","","","","","","","","","15","","",""
"revaluation","307","1350375","0.0-4.0-2.1-0.58","spark_pilot_2","7970","8","14","Female","","true","","","","","[531]","./assets/img/ocean/memory/2.jpg","[""ArrowUp""]","value training","ocean","-5","{""ArrowUp,ArrowLeft"":23,""ArrowUp,ArrowRight"":10,""ArrowDown,ArrowLeft"":8,""ArrowDown,ArrowRight"":30}","false","ArrowUp","false","","","original","2","16","","",""
"html-keyboard-response","308","1350890","0.0-4.0-2.1-1.58","spark_pilot_2","7970","8","14","Female","","","","","","","null","<div style=""font-size:60px;"">+</div>","null","fixation","","","","","","","","","","","17","","",""
"revaluation","309","1356929","0.0-4.0-2.1-0.59","spark_pilot_2","7970","8","14","Female","","false","","","","","[698,443]","./assets/img/ocean/memory/16.jpg","[""ArrowUp"",""ArrowLeft""]","value training","ocean","23","{""ArrowUp,ArrowLeft"":23,""ArrowUp,ArrowRight"":10,""ArrowDown,ArrowLeft"":8,""ArrowDown,ArrowRight"":30}","false","ArrowUp,ArrowLeft","false","","","original","2","18","","",""
"html-keyboard-response","310","1357442","0.0-4.0-2.1-1.59","spark_pilot_2","7970","8","14","Female","","","","","","","null","<div style=""font-size:60px;"">+</div>","null","fixation","","","","","","","","","","","19","","",""
"revaluation","311","1363466","0.0-4.0-2.1-0.60","spark_pilot_2","7970","8","14","Female","","false","","","","","[450,414]","./assets/img/ocean/memory/20.jpg","[""ArrowUp"",""ArrowLeft""]","value training","ocean","23","{""ArrowUp,ArrowLeft"":23,""ArrowUp,ArrowRight"":10,""ArrowDown,ArrowLeft"":8,""ArrowDown,ArrowRight"":30}","false","ArrowUp,ArrowLeft","false","","","original","2","20","","",""
"html-keyboard-response","312","1363976","0.0-4.0-2.1-1.60","spark_pilot_2","7970","8","14","Female","","","","","","","null","<div style=""font-size:60px;"">+</div>","null","fixation","","","","","","","","","","","21","","",""
"revaluation","313","1370012","0.0-4.0-2.1-0.61","spark_pilot_2","7970","8","14","Female","","false","","","","","[445,447]","./assets/img/ocean/memory/3.jpg","[""ArrowUp"",""ArrowLeft""]","value training","ocean","23","{""ArrowUp,ArrowLeft"":23,""ArrowUp,ArrowRight"":10,""ArrowDown,ArrowLeft"":8,""ArrowDown,ArrowRight"":30}","false","ArrowUp,ArrowLeft","false","","","original","2","22","","",""
"html-keyboard-response","314","1370524","0.0-4.0-2.1-1.61","spark_pilot_2","7970","8","14","Female","","","","","","","null","<div style=""font-size:60px;"">+</div>","null","fixation","","","","","","","","","","","23","","",""
