"trial_type","trial_index","time_elapsed","internal_node_id","task_version","subject_id","assigned_condition","age","gender","browser_interaction","success","timeout","failed_images","failed_audio","failed_video","rt","stimulus","response","task_part","environment","score","rewardMap","correct","fullState","isCatch","numberMissed","duration","condition","order","trial_num","key_press","ground_truth","bonus"
"pavlovia","0","1704","0.0-0.0","spark_pilot_2","7530","3","23","Female","[{""event"":""blur"",""trial"":1,""time"":7913},{""event"":""focus"",""trial"":1,""time"":9350},{""event"":""blur"",""trial"":1,""time"":10192},{""event"":""focus"",""trial"":1,""time"":15656},{""event"":""fullscreenenter"",""trial"":2,""time"":27565}]","","","","","","","","","","","","","","","","","","","","","","",""
"preload","1","21609","0.0-1.0","spark_pilot_2","7530","3","23","Female","[{""event"":""blur"",""trial"":1,""time"":7913},{""event"":""focus"",""trial"":1,""time"":9350},{""event"":""blur"",""trial"":1,""time"":10192},{""event"":""focus"",""trial"":1,""time"":15656},{""event"":""fullscreenenter"",""trial"":2,""time"":27565}]","true","false","[]","[]","[]","","","","","","","","","","","","","","","","","",""
"fullscreen","2","28503","0.0-2.0","spark_pilot_2","7530","3","23","Female","","true","","","","","","","","","","","","","","","","","","","","","",""
"audio-button-response","3","30319","0.0-3.0-0.0-0.0","spark_pilot_2","7530","3","23","Female","","","","","","","1181","./assets/audio/audiotest/turtle.mp3","2","audio_test","","","","","","","","","","","","","",""
"learning-instructions","4","39255","0.0-3.0-1.0-0.0","spark_pilot_2","7530","3","23","Female","","","","","","","1202.1999999284744","<p> Welcome! Please remember to stay in fullscreen mode and don't click away from the experiment. </p>","","instructions","","","","","","","","","","","","","",""
"learning-instructions","5","51067","0.0-3.0-1.0-0.1","spark_pilot_2","7530","3","23","Female","","","","","","","1583.1999999284744","<p> Today you will be playing a game to earn treasure. </p>
            <p> At the end of the experiment, you will earn a bonus based on how much treasure you find. </p>
            <img src='./assets/img/instructions/treasure.jpg' class='instructions-image'>","","instructions","","","","","","","","","","","","","",""
"learning-instructions","6","62088","0.0-3.0-1.0-0.2","spark_pilot_2","7530","3","23","Female","","","","","","","806.6000000238419","<p> Animals have hidden treasure in treasure chests. </p>
            <p> You need to first find an animal and then choose which of their treasure chests to search. </p>
            <img src='./assets/img/space/animals/cat.jpg' class='instructions-image'>","","instructions","","","","","","","","","","","","","",""
"learning-instructions","7","77498","0.0-3.0-1.0-0.3","spark_pilot_2","7530","3","23","Female","","","","","","","927.0999999046326","<p> In each round, you will search for treasure in a different place. In the real game, there will be two rounds. </p>
            <p> You will begin with a separate, practice round where you will search for treasure in outer space. </p>
            <img src='./assets/img/space/0.jpg' class='instructions-image'>","","instructions","","","","","","","","","","","","","",""
"learning-instructions","8","91023","0.0-3.0-1.0-0.4","spark_pilot_2","7530","3","23","Female","","","","","","","702.6999999284744","<p> On every turn, you will see a picture of the place that you are in, but the specific image may be different each time. </p>
            <p> For example, both of these images mean you are in outer space. </p>
            <img src='./assets/img/instructions/outerspace.jpg' class='instructions-image'>","","instructions","","","","","","","","","","","","","",""
"learning-instructions","9","102249","0.0-3.0-1.0-0.5","spark_pilot_2","7530","3","23","Female","","","","","","","2068.2999999523163","<p> You need to decide which direction to travel in. </p>
            <p> You can choose between going <b>up or down</b> by using the arrow keys. </p>
            <img src='./assets/img/instructions/updown.jpg' class='instructions-image'>","","instructions","","","","","","","","","","","","","",""
"learning-instructions","10","113673","0.0-3.0-1.0-0.6","spark_pilot_2","7530","3","23","Female","","","","","","","792.9000000953674","<p> You will have <b>2 seconds</b> to make your choice. </p>
            <p> If you do not make a choice within 2 seconds, you will not find an animal or earn treasure. </p>
            <img src='./assets/img/instructions/2seconds.jpg' class='instructions-image'>","","instructions","","","","","","","","","","","","","",""
"learning-instructions","11","126565","0.0-3.0-1.0-0.7","spark_pilot_2","7530","3","23","Female","","","","","","","5016.899999976158","<p> Let’s try practicing that now! </p>
            <p> When you see a picture of the place you are in, press the <b>up</b> key to travel up. </p>
            <img src='./assets/img/instructions/pressUp.jpg' class='instructions-image'>","","instructions","","","","","","","","","","","","","",""
"revaluation","12","130619","0.0-3.0-2.0-0.0","spark_pilot_2","7530","3","23","Female","","","false","","","","[1703.2000000476837]","./assets/img/space/0.jpg","[""ArrowUp""]","first stage practice","space","0","null","null","ArrowUp","false","","","","","","","",""
"html-keyboard-response","13","131127","0.0-3.0-2.0-1.0","spark_pilot_2","7530","3","23","Female","","","","","","","null","<div style=""font-size:60px;"">+</div>","null","fixation","","","","","","","","","","","","","",""
"revaluation","14","135145","0.0-3.0-2.0-0.1","spark_pilot_2","7530","3","23","Female","","","false","","","","[865.5]","./assets/img/space/1.jpg","[""ArrowUp""]","first stage practice","space","0","null","null","ArrowUp","false","","","","","","","",""
"html-keyboard-response","15","135656","0.0-3.0-2.0-1.1","spark_pilot_2","7530","3","23","Female","","","","","","","null","<div style=""font-size:60px;"">+</div>","null","fixation","","","","","","","","","","","","","",""
"revaluation","16","139678","0.0-3.0-2.0-0.2","spark_pilot_2","7530","3","23","Female","","","false","","","","[926.5]","./assets/img/space/2.jpg","[""ArrowUp""]","first stage practice","space","0","null","null","ArrowUp","false","","","","","","","",""
"html-keyboard-response","17","140187","0.0-3.0-2.0-1.2","spark_pilot_2","7530","3","23","Female","","","","","","","null","<div style=""font-size:60px;"">+</div>","null","fixation","","","","","","","","","","","","","",""
"learning-instructions","18","148311","0.0-3.0-3.0-0.0","spark_pilot_2","7530","3","23","Female","","","","","","","2143.3000000715256","<p> Great job! Now try pressing the <b>down</b> key to travel down. </p>
            <img src='./assets/img/instructions/pressDown.jpg' class='instructions-image'>","","instructions","","","","","","","","","","","","","",""
"revaluation","19","152337","0.0-3.0-4.0-0.0","spark_pilot_2","7530","3","23","Female","","","false","","","","[413]","./assets/img/space/3.jpg","[""ArrowDown""]","first stage practice","space","0","null","null","ArrowDown","false","","","","","","","",""
"html-keyboard-response","20","152846","0.0-3.0-4.0-1.0","spark_pilot_2","7530","3","23","Female","","","","","","","null","<div style=""font-size:60px;"">+</div>","null","fixation","","","","","","","","","","","","","",""
"revaluation","21","156866","0.0-3.0-4.0-0.1","spark_pilot_2","7530","3","23","Female","","","false","","","","[617.0999999046326]","./assets/img/space/4.jpg","[""ArrowDown""]","first stage practice","space","0","null","null","ArrowDown","false","","","","","","","",""
"html-keyboard-response","22","157376","0.0-3.0-4.0-1.1","spark_pilot_2","7530","3","23","Female","","","","","","","null","<div style=""font-size:60px;"">+</div>","null","fixation","","","","","","","","","","","","","",""
"revaluation","23","161398","0.0-3.0-4.0-0.2","spark_pilot_2","7530","3","23","Female","","","false","","","","[318.5]","./assets/img/space/5.jpg","[""ArrowDown""]","first stage practice","space","0","null","null","ArrowDown","false","","","","","","","",""
"html-keyboard-response","24","161906","0.0-3.0-4.0-1.2","spark_pilot_2","7530","3","23","Female","","","","","","","null","<div style=""font-size:60px;"">+</div>","null","fixation","","","","","","","","","","","","","",""
"learning-instructions","25","173397","0.0-3.0-5.0-0.0","spark_pilot_2","7530","3","23","Female","","","","","","","679.6000000238419","<p> The animals don’t move, so the animal in the upper part of a place will stay in the upper part of a place, and the animal in the lower part of a place will stay in the lower part of a place. </p>","","instructions","","","","","","","","","","","","","",""
"learning-instructions","26","184987","0.0-3.0-5.0-0.1","spark_pilot_2","7530","3","23","Female","","","","","","","836.3999999761581","<p> Each animal has two treasure chests for you to choose from. </p>
            <p> The amount of treasure in each chest can range from <b> 0 to 40 pieces.</b></p>","","instructions","","","","","","","","","","","","","",""
"learning-instructions","27","198462","0.0-3.0-5.0-0.2","spark_pilot_2","7530","3","23","Female","","","","","","","711.1000000238419","<p> You should decide which chest to search for treasure by using the <b>left</b> and <b>right</b> arrow keys. </p>
            <p><b> Pay attention to which animal is on the screen, as the animals have different treasure chests. </b></p>
            <img src='./assets/img/instructions/leftright.jpg' class='instructions-image'>","","instructions","","","","","","","","","","","","","",""
"learning-instructions","28","207292","0.0-3.0-5.0-0.3","spark_pilot_2","7530","3","23","Female","","","","","","","1011.2000000476837","<p> Let’s try practicing that now. </p>
            <p> When you see an animal, choose which chest to search for treasure. </p>
            <img src='./assets/img/instructions/chooseChest.jpg' class='instructions-image'>","","instructions","","","","","","","","","","","","","",""
"revaluation","29","211310","0.0-3.0-6.0-0.0","spark_pilot_2","7530","3","23","Female","","","false","","","","[493.60000002384186]","./assets/img/space/animals/rabbit.jpg","[""ArrowLeft""]","second stage practice","space","15","{""ArrowUp,ArrowLeft"":3,""ArrowUp,ArrowRight"":36,""ArrowDown,ArrowLeft"":15,""ArrowDown,ArrowRight"":23}","false","ArrowDown,ArrowLeft","","","","","","","","",""
"html-keyboard-response","30","211820","0.0-3.0-6.0-1.0","spark_pilot_2","7530","3","23","Female","","","","","","","null","<div style=""font-size:60px;"">+</div>","null","fixation","","","","","","","","","","","","","",""
"revaluation","31","215840","0.0-3.0-6.0-0.1","spark_pilot_2","7530","3","23","Female","","","false","","","","[784]","./assets/img/space/animals/cat.jpg","[""ArrowLeft""]","second stage practice","space","3","{""ArrowUp,ArrowLeft"":3,""ArrowUp,ArrowRight"":36,""ArrowDown,ArrowLeft"":15,""ArrowDown,ArrowRight"":23}","false","ArrowUp,ArrowLeft","","","","","","","","",""
"html-keyboard-response","32","216348","0.0-3.0-6.0-1.1","spark_pilot_2","7530","3","23","Female","","","","","","","null","<div style=""font-size:60px;"">+</div>","null","fixation","","","","","","","","","","","","","",""
"revaluation","33","220370","0.0-3.0-6.0-0.2","spark_pilot_2","7530","3","23","Female","","","false","","","","[678.1000000238419]","./assets/img/space/animals/rabbit.jpg","[""ArrowLeft""]","second stage practice","space","15","{""ArrowUp,ArrowLeft"":3,""ArrowUp,ArrowRight"":36,""ArrowDown,ArrowLeft"":15,""ArrowDown,ArrowRight"":23}","false","ArrowDown,ArrowLeft","","","","","","","","",""
"html-keyboard-response","34","220879","0.0-3.0-6.0-1.2","spark_pilot_2","7530","3","23","Female","","","","","","","null","<div style=""font-size:60px;"">+</div>","null","fixation","","","","","","","","","","","","","",""
"revaluation","35","224899","0.0-3.0-6.0-0.3","spark_pilot_2","7530","3","23","Female","","","false","","","","[345.59999990463257]","./assets/img/space/animals/cat.jpg","[""ArrowRight""]","second stage practice","space","36","{""ArrowUp,ArrowLeft"":3,""ArrowUp,ArrowRight"":36,""ArrowDown,ArrowLeft"":15,""ArrowDown,ArrowRight"":23}","true","ArrowUp,ArrowRight","","","","","","","","",""
"html-keyboard-response","36","225409","0.0-3.0-6.0-1.3","spark_pilot_2","7530","3","23","Female","","","","","","","null","<div style=""font-size:60px;"">+</div>","null","fixation","","","","","","","","","","","","","",""
"learning-instructions","37","244883","0.0-3.0-7.0-0.0","spark_pilot_2","7530","3","23","Female","","","","","","","1001.3999999761581","<p> Great job. Now let’s try putting it together. </p>
            <p> On each turn, you will first see a picture to remind you of the place you are in, and you need to choose whether to go up or down. </p>
            <p> Then you will see an animal and choose which of its chests to search for treasure. </p>","","instructions","","","","","","","","","","","","","",""
"learning-instructions","38","255163","0.0-3.0-7.0-0.1","spark_pilot_2","7530","3","23","Female","","","","","","","921.2000000476837","<p> When you choose whether to go up or down, try to go to the animal with the chest with the most treasure. </p>
            <p> Try practicing that now! </p>","","instructions","","","","","","","","","","","","","",""
"revaluation","39","261210","0.0-3.0-8.0-0.0","spark_pilot_2","7530","3","23","Female","","","false","","","","[671.7999999523163,1163]","./assets/img/space/6.jpg","[""ArrowUp"",""ArrowRight""]","full practice","space","36","{""ArrowUp,ArrowLeft"":3,""ArrowUp,ArrowRight"":36,""ArrowDown,ArrowLeft"":15,""ArrowDown,ArrowRight"":23}","true","ArrowUp,ArrowRight","false","","","","","","","",""
"html-keyboard-response","40","261719","0.0-3.0-8.0-1.0","spark_pilot_2","7530","3","23","Female","","","","","","","null","<div style=""font-size:60px;"">+</div>","null","fixation","","","","","","","","","","","","","",""
"revaluation","41","267750","0.0-3.0-8.0-0.1","spark_pilot_2","7530","3","23","Female","","","false","","","","[768.0999999046326,651.2999999523163]","./assets/img/space/7.jpg","[""ArrowUp"",""ArrowRight""]","full practice","space","36","{""ArrowUp,ArrowLeft"":3,""ArrowUp,ArrowRight"":36,""ArrowDown,ArrowLeft"":15,""ArrowDown,ArrowRight"":23}","true","ArrowUp,ArrowRight","false","","","","","","","",""
"html-keyboard-response","42","268261","0.0-3.0-8.0-1.1","spark_pilot_2","7530","3","23","Female","","","","","","","null","<div style=""font-size:60px;"">+</div>","null","fixation","","","","","","","","","","","","","",""
"revaluation","43","274291","0.0-3.0-8.0-0.2","spark_pilot_2","7530","3","23","Female","","","false","","","","[576.3999999761581,561.2999999523163]","./assets/img/space/8.jpg","[""ArrowUp"",""ArrowRight""]","full practice","space","36","{""ArrowUp,ArrowLeft"":3,""ArrowUp,ArrowRight"":36,""ArrowDown,ArrowLeft"":15,""ArrowDown,ArrowRight"":23}","true","ArrowUp,ArrowRight","false","","","","","","","",""
"html-keyboard-response","44","274800","0.0-3.0-8.0-1.2","spark_pilot_2","7530","3","23","Female","","","","","","","null","<div style=""font-size:60px;"">+</div>","null","fixation","","","","","","","","","","","","","",""
"revaluation","45","280822","0.0-3.0-8.0-0.3","spark_pilot_2","7530","3","23","Female","","","false","","","","[526.2000000476837,510.8000000715256]","./assets/img/space/9.jpg","[""ArrowDown"",""ArrowLeft""]","full practice","space","15","{""ArrowUp,ArrowLeft"":3,""ArrowUp,ArrowRight"":36,""ArrowDown,ArrowLeft"":15,""ArrowDown,ArrowRight"":23}","false","ArrowDown,ArrowLeft","false","","","","","","","",""
"html-keyboard-response","46","281329","0.0-3.0-8.0-1.3","spark_pilot_2","7530","3","23","Female","","","","","","","null","<div style=""font-size:60px;"">+</div>","null","fixation","","","","","","","","","","","","","",""
"revaluation","47","287351","0.0-3.0-8.0-0.4","spark_pilot_2","7530","3","23","Female","","","false","","","","[746.8999999761581,492.10000002384186]","./assets/img/space/10.jpg","[""ArrowDown"",""ArrowLeft""]","full practice","space","15","{""ArrowUp,ArrowLeft"":3,""ArrowUp,ArrowRight"":36,""ArrowDown,ArrowLeft"":15,""ArrowDown,ArrowRight"":23}","false","ArrowDown,ArrowLeft","false","","","","","","","",""
"html-keyboard-response","48","287855","0.0-3.0-8.0-1.4","spark_pilot_2","7530","3","23","Female","","","","","","","null","<div style=""font-size:60px;"">+</div>","null","fixation","","","","","","","","","","","","","",""
"learning-instructions","49","301411","0.0-3.0-9.0-0.0","spark_pilot_2","7530","3","23","Female","","","","","","","1141.2999999523163","<p> One last thing: sometimes, you will see a robber. The robber can be anywhere in the picture. </p>
            <p> If you do not stop them, you will lose treasure. </p>
            <img src='./assets/img/instructions/robber.jpg' class='instructions-image'>","","instructions","","","","","","","","","","","","","",""
"learning-instructions","50","311240","0.0-3.0-9.0-0.1","spark_pilot_2","7530","3","23","Female","","","","","","","861.6000000238419","<p> If you see the robber, you should <b>press the space bar</b> rather than using the arrow keys. </p>
            <p> Try practicing that now! </p>","","instructions","","","","","","","","","","","","","",""
"revaluation","51","315259","0.0-3.0-10.0-0.0","spark_pilot_2","7530","3","23","Female","","","false","","","","[1096.2999999523163]","./assets/img/space/catch/0.jpg","[""spaceBar""]","catch practice","space","0","{""ArrowUp,ArrowLeft"":3,""ArrowUp,ArrowRight"":36,""ArrowDown,ArrowLeft"":15,""ArrowDown,ArrowRight"":23}","true","spaceBar","true","","","","","","","",""
"html-keyboard-response","52","315767","0.0-3.0-10.0-1.0","spark_pilot_2","7530","3","23","Female","","","","","","","null","<div style=""font-size:60px;"">+</div>","null","fixation","","","","","","","","","","","","","",""
"revaluation","53","319797","0.0-3.0-10.0-0.1","spark_pilot_2","7530","3","23","Female","","","false","","","","[746.8999999761581]","./assets/img/space/catch/1.jpg","[""spaceBar""]","catch practice","space","0","{""ArrowUp,ArrowLeft"":3,""ArrowUp,ArrowRight"":36,""ArrowDown,ArrowLeft"":15,""ArrowDown,ArrowRight"":23}","true","spaceBar","true","","","","","","","",""
"html-keyboard-response","54","320307","0.0-3.0-10.0-1.1","spark_pilot_2","7530","3","23","Female","","","","","","","null","<div style=""font-size:60px;"">+</div>","null","fixation","","","","","","","","","","","","","",""
"revaluation","55","324328","0.0-3.0-10.0-0.2","spark_pilot_2","7530","3","23","Female","","","false","","","","[506.2999999523163]","./assets/img/space/catch/2.jpg","[""spaceBar""]","catch practice","space","0","{""ArrowUp,ArrowLeft"":3,""ArrowUp,ArrowRight"":36,""ArrowDown,ArrowLeft"":15,""ArrowDown,ArrowRight"":23}","true","spaceBar","true","","","","","","","",""
"html-keyboard-response","56","324838","0.0-3.0-10.0-1.2","spark_pilot_2","7530","3","23","Female","","","","","","","null","<div style=""font-size:60px;"">+</div>","null","fixation","","","","","","","","","","","","","",""
"learning-instructions","57","346490","0.0-3.0-11.0-0.0","spark_pilot_2","7530","3","23","Female","","","","","","","6530.799999952316","<p> After you explore a place to find treasure, it will be time to play a different game. </p>
            <p> During this game, red dots will appear on the screen and fall down slowly. </p>
            <p><b> You must click on them before they reach the bottom. </b></p>
            <img src='./assets/img/instructions/dotGame.jpg' class='instructions-image'>","","instructions","","","","","","","","","","","","","",""
"learning-instructions","58","355160","0.0-3.0-11.0-0.1","spark_pilot_2","7530","3","23","Female","","","","","","","1180.3999999761581","<p> For every dot you click, you will earn additional treasure. </p>
            <p> Let’s try practicing that now. </p>","","instructions","","","","","","","","","","","","","",""
"revaluation","59","370182","0.0-3.0-12.0-0.0","spark_pilot_2","7530","3","23","Female","","","","","","","[92]","","","rest practice","","10","","","","","0","15000","","","","","",""
"learning-instructions","60","378397","0.0-3.0-13.0-0.0-0.0","spark_pilot_2","7530","3","23","Female","","","","","","","1238.1000000238419","<p> Now, you will practice a shortened version of the game to get a sense of how it all fits together. </p>","","instructions","","","","","","","","","","","","","",""
"learning-instructions","61","383841","0.0-3.0-13.0-0.0-0.1","spark_pilot_2","7530","3","23","Female","","","","","","","772","<p>This time you are searching for treasure in outer space.</p>","","instructions","","","","","","","","","","","","","",""
"learning-instructions","62","401460","0.0-3.0-13.0-1.0-0.0","spark_pilot_2","7530","3","23","Female","","","","","","","1201.2999999523163","<p> Remember, when you see a picture of the place, use the up and down keys to <b>find an animal</b>.</p>
            <p> When you encounter an animal, you should use the left and right keys to <b>select a treasure chest</b>.</p>
            <p> Don't forget to look out for the robber! </p>","","instructions","","","","","","","","","","","","","",""
"revaluation","63","407487","0.0-3.0-13.0-2.0-0.0","spark_pilot_2","7530","3","23","Female","","","false","","","","[1135,552.1999999284744]","./assets/img/space/11.jpg","[""ArrowUp"",""ArrowRight""]","practice block","space","36","{""ArrowUp,ArrowLeft"":3,""ArrowUp,ArrowRight"":36,""ArrowDown,ArrowLeft"":15,""ArrowDown,ArrowRight"":23}","true","ArrowUp,ArrowRight","false","","","","","","","",""
"html-keyboard-response","64","407998","0.0-3.0-13.0-2.0-1.0","spark_pilot_2","7530","3","23","Female","","","","","","","null","<div style=""font-size:60px;"">+</div>","null","fixation","","","","","","","","","","","","","",""
"revaluation","65","414018","0.0-3.0-13.0-2.0-0.1","spark_pilot_2","7530","3","23","Female","","","false","","","","[557.6999999284744,453.60000002384186]","./assets/img/space/12.jpg","[""ArrowUp"",""ArrowLeft""]","practice block","space","3","{""ArrowUp,ArrowLeft"":3,""ArrowUp,ArrowRight"":36,""ArrowDown,ArrowLeft"":15,""ArrowDown,ArrowRight"":23}","false","ArrowUp,ArrowLeft","false","","","","","","","",""
"html-keyboard-response","66","414528","0.0-3.0-13.0-2.0-1.1","spark_pilot_2","7530","3","23","Female","","","","","","","null","<div style=""font-size:60px;"">+</div>","null","fixation","","","","","","","","","","","","","",""
"revaluation","67","420557","0.0-3.0-13.0-2.0-0.2","spark_pilot_2","7530","3","23","Female","","","false","","","","[608.2000000476837,372]","./assets/img/space/13.jpg","[""ArrowDown"",""ArrowLeft""]","practice block","space","15","{""ArrowUp,ArrowLeft"":3,""ArrowUp,ArrowRight"":36,""ArrowDown,ArrowLeft"":15,""ArrowDown,ArrowRight"":23}","false","ArrowDown,ArrowLeft","false","","","","","","","",""
"html-keyboard-response","68","421067","0.0-3.0-13.0-2.0-1.2","spark_pilot_2","7530","3","23","Female","","","","","","","null","<div style=""font-size:60px;"">+</div>","null","fixation","","","","","","","","","","","","","",""
"revaluation","69","427097","0.0-3.0-13.0-2.0-0.3","spark_pilot_2","7530","3","23","Female","","","false","","","","[346.2000000476837,352.2999999523163]","./assets/img/space/14.jpg","[""ArrowDown"",""ArrowRight""]","practice block","space","23","{""ArrowUp,ArrowLeft"":3,""ArrowUp,ArrowRight"":36,""ArrowDown,ArrowLeft"":15,""ArrowDown,ArrowRight"":23}","false","ArrowDown,ArrowRight","false","","","","","","","",""
"html-keyboard-response","70","427608","0.0-3.0-13.0-2.0-1.3","spark_pilot_2","7530","3","23","Female","","","","","","","null","<div style=""font-size:60px;"">+</div>","null","fixation","","","","","","","","","","","","","",""
"revaluation","71","433625","0.0-3.0-13.0-2.0-0.4","spark_pilot_2","7530","3","23","Female","","","false","","","","[888.5,411.09999990463257]","./assets/img/space/11.jpg","[""ArrowUp"",""ArrowRight""]","practice block","space","36","{""ArrowUp,ArrowLeft"":3,""ArrowUp,ArrowRight"":36,""ArrowDown,ArrowLeft"":15,""ArrowDown,ArrowRight"":23}","true","ArrowUp,ArrowRight","false","","","","","","","",""
"html-keyboard-response","72","434137","0.0-3.0-13.0-2.0-1.4","spark_pilot_2","7530","3","23","Female","","","","","","","null","<div style=""font-size:60px;"">+</div>","null","fixation","","","","","","","","","","","","","",""
"revaluation","73","440154","0.0-3.0-13.0-2.0-0.5","spark_pilot_2","7530","3","23","Female","","","false","","","","[572.8999999761581,559.6000000238419]","./assets/img/space/12.jpg","[""ArrowUp"",""ArrowLeft""]","practice block","space","3","{""ArrowUp,ArrowLeft"":3,""ArrowUp,ArrowRight"":36,""ArrowDown,ArrowLeft"":15,""ArrowDown,ArrowRight"":23}","false","ArrowUp,ArrowLeft","false","","","","","","","",""
"html-keyboard-response","74","440664","0.0-3.0-13.0-2.0-1.5","spark_pilot_2","7530","3","23","Female","","","","","","","null","<div style=""font-size:60px;"">+</div>","null","fixation","","","","","","","","","","","","","",""
"revaluation","75","446687","0.0-3.0-13.0-2.0-0.6","spark_pilot_2","7530","3","23","Female","","","false","","","","[522.6000000238419,305.90000009536743]","./assets/img/space/13.jpg","[""ArrowDown"",""ArrowRight""]","practice block","space","23","{""ArrowUp,ArrowLeft"":3,""ArrowUp,ArrowRight"":36,""ArrowDown,ArrowLeft"":15,""ArrowDown,ArrowRight"":23}","false","ArrowDown,ArrowRight","false","","","","","","","",""
"html-keyboard-response","76","447195","0.0-3.0-13.0-2.0-1.6","spark_pilot_2","7530","3","23","Female","","","","","","","null","<div style=""font-size:60px;"">+</div>","null","fixation","","","","","","","","","","","","","",""
"revaluation","77","453214","0.0-3.0-13.0-2.0-0.7","spark_pilot_2","7530","3","23","Female","","","false","","","","[550.3000000715256,314.1999999284744]","./assets/img/space/14.jpg","[""ArrowDown"",""ArrowLeft""]","practice block","space","15","{""ArrowUp,ArrowLeft"":3,""ArrowUp,ArrowRight"":36,""ArrowDown,ArrowLeft"":15,""ArrowDown,ArrowRight"":23}","false","ArrowDown,ArrowLeft","false","","","","","","","",""
"html-keyboard-response","78","453718","0.0-3.0-13.0-2.0-1.7","spark_pilot_2","7530","3","23","Female","","","","","","","null","<div style=""font-size:60px;"">+</div>","null","fixation","","","","","","","","","","","","","",""
"revaluation","79","457738","0.0-3.0-13.0-2.0-0.8","spark_pilot_2","7530","3","23","Female","","","false","","","","[1011]","./assets/img/space/catch/3.jpg","[""spaceBar""]","practice block","space","0","{""ArrowUp,ArrowLeft"":3,""ArrowUp,ArrowRight"":36,""ArrowDown,ArrowLeft"":15,""ArrowDown,ArrowRight"":23}","true","spaceBar","true","","","","","","","",""
"html-keyboard-response","80","458245","0.0-3.0-13.0-2.0-1.8","spark_pilot_2","7530","3","23","Female","","","","","","","null","<div style=""font-size:60px;"">+</div>","null","fixation","","","","","","","","","","","","","",""
"learning-instructions","81","474415","0.0-3.0-13.0-3.0-0.0","spark_pilot_2","7530","3","23","Female","","","","","","","1591.2000000476837","<p> Now, you will travel with a friend who will choose whether you go up or down first. </p>
            <p> On these turns, you will just see the animal that they found. You will still get to choose which chest to search for treasure.</p>","","instructions","","","","","","","","","","","","","",""
"revaluation","82","478432","0.0-3.0-13.0-4.0-0.0","spark_pilot_2","7530","3","23","Female","","","false","","","","[1097.6000000238419]","./assets/img/space/animals/cat.jpg","[""ArrowRight""]","practice block","space","36","{""ArrowUp,ArrowLeft"":3,""ArrowUp,ArrowRight"":36,""ArrowDown,ArrowLeft"":15,""ArrowDown,ArrowRight"":23}","true","ArrowUp,ArrowRight","","","","","","","","",""
"html-keyboard-response","83","478942","0.0-3.0-13.0-4.0-1.0","spark_pilot_2","7530","3","23","Female","","","","","","","null","<div style=""font-size:60px;"">+</div>","null","fixation","","","","","","","","","","","","","",""
"revaluation","84","482963","0.0-3.0-13.0-4.0-0.1","spark_pilot_2","7530","3","23","Female","","","false","","","","[836.7000000476837]","./assets/img/space/animals/rabbit.jpg","[""ArrowRight""]","practice block","space","23","{""ArrowUp,ArrowLeft"":3,""ArrowUp,ArrowRight"":36,""ArrowDown,ArrowLeft"":15,""ArrowDown,ArrowRight"":23}","true","ArrowDown,ArrowRight","","","","","","","","",""
"html-keyboard-response","85","483471","0.0-3.0-13.0-4.0-1.1","spark_pilot_2","7530","3","23","Female","","","","","","","null","<div style=""font-size:60px;"">+</div>","null","fixation","","","","","","","","","","","","","",""
"revaluation","86","487492","0.0-3.0-13.0-4.0-0.2","spark_pilot_2","7530","3","23","Female","","","false","","","","[796.8999999761581]","./assets/img/space/animals/rabbit.jpg","[""ArrowRight""]","practice block","space","23","{""ArrowUp,ArrowLeft"":3,""ArrowUp,ArrowRight"":36,""ArrowDown,ArrowLeft"":15,""ArrowDown,ArrowRight"":23}","true","ArrowDown,ArrowRight","","","","","","","","",""
"html-keyboard-response","87","488001","0.0-3.0-13.0-4.0-1.2","spark_pilot_2","7530","3","23","Female","","","","","","","null","<div style=""font-size:60px;"">+</div>","null","fixation","","","","","","","","","","","","","",""
"revaluation","88","492023","0.0-3.0-13.0-4.0-0.3","spark_pilot_2","7530","3","23","Female","","","false","","","","[448.2999999523163]","./assets/img/space/animals/cat.jpg","[""ArrowRight""]","practice block","space","36","{""ArrowUp,ArrowLeft"":3,""ArrowUp,ArrowRight"":36,""ArrowDown,ArrowLeft"":15,""ArrowDown,ArrowRight"":23}","true","ArrowUp,ArrowRight","","","","","","","","",""
"html-keyboard-response","89","492532","0.0-3.0-13.0-4.0-1.3","spark_pilot_2","7530","3","23","Female","","","","","","","null","<div style=""font-size:60px;"">+</div>","null","fixation","","","","","","","","","","","","","",""
"learning-instructions","90","502785","0.0-3.0-13.0-5.0-0.0","spark_pilot_2","7530","3","23","Female","","","","","","","1141.7000000476837","<p> Time to play the dot game! </p>
            <p> For 15 seconds, click the red dots on the following screen as they appear. </p>","","instructions","","","","","","","","","","","","","",""
"revaluation","91","517789","0.0-3.0-13.0-6.0-0.0","spark_pilot_2","7530","3","23","Female","","","","","","","[111]","","","rest practice","","10","","","","","0","15000","","","","","",""
"learning-instructions","92","526929","0.0-3.0-13.0-7.0-0.0","spark_pilot_2","7530","3","23","Female","","","","","","","1074.6000000238419","<p> You have almost finished this part of the game! </p>
            <p> We are going to ask you to make a few more choices. </p>","","instructions","","","","","","","","","","","","","",""
"learning-instructions","93","543286","0.0-3.0-13.0-7.0-0.1","spark_pilot_2","7530","3","23","Female","","","","","","","1082","<p> First, you need to decide whether to go up or down. When you see each picture, use the arrow keys to make your choice. </p>
            <p><b>You will not see which animal you found, but try to get to the one that will give you the most treasure.</b></p>","","instructions","","","","","","","","","","","","","",""
"revaluation","94","544005","0.0-3.0-13.0-8.0","spark_pilot_2","7530","3","23","Female","","","false","","","","[715.0999999046326]","./assets/img/space/15.jpg","[""ArrowUp""]","practice block","space","0","{""ArrowUp,ArrowLeft"":3,""ArrowUp,ArrowRight"":36,""ArrowDown,ArrowLeft"":15,""ArrowDown,ArrowRight"":23}","true","ArrowUp","false","","","","","","","",""
"html-keyboard-response","95","544512","0.0-3.0-13.0-9.0","spark_pilot_2","7530","3","23","Female","","","","","","","null","<div style=""font-size:60px;"">+</div>","null","fixation","","","","","","","","","","","","","",""
"learning-instructions","96","558415","0.0-3.0-13.0-10.0-0.0","spark_pilot_2","7530","3","23","Female","","","","","","","1102.1999999284744","<p> Now you will see the animals again and can search their chests for treasure. </p>
            <p> This time, you will not see how much treasure you earned, but you will earn more bonus money for making better choices. </p>","","instructions","","","","","","","","","","","","","",""
"revaluation","97","558965","0.0-3.0-13.0-11.0-0.0","spark_pilot_2","7530","3","23","Female","","","false","","","","[544.1000000238419]","./assets/img/space/animals/cat.jpg","[""ArrowRight""]","practice block","space","0","{""ArrowUp,ArrowLeft"":3,""ArrowUp,ArrowRight"":36,""ArrowDown,ArrowLeft"":15,""ArrowDown,ArrowRight"":23}","true","ArrowUp,ArrowRight","","","","","","","","",""
"html-keyboard-response","98","559472","0.0-3.0-13.0-11.0-1.0","spark_pilot_2","7530","3","23","Female","","","","","","","null","<div style=""font-size:60px;"">+</div>","null","fixation","","","","","","","","","","","","","",""
"revaluation","99","560525","0.0-3.0-13.0-11.0-0.1","spark_pilot_2","7530","3","23","Female","","","false","","","","[1046.1999999284744]","./assets/img/space/animals/rabbit.jpg","[""ArrowRight""]","practice block","space","0","{""ArrowUp,ArrowLeft"":3,""ArrowUp,ArrowRight"":36,""ArrowDown,ArrowLeft"":15,""ArrowDown,ArrowRight"":23}","true","ArrowDown,ArrowRight","","","","","","","","",""
"html-keyboard-response","100","561043","0.0-3.0-13.0-11.0-1.1","spark_pilot_2","7530","3","23","Female","","","","","","","null","<div style=""font-size:60px;"">+</div>","null","fixation","","","","","","","","","","","","","",""
"learning-instructions","101","568835","0.0-3.0-14.0-0.0","spark_pilot_2","7530","3","23","Female","","","","","","","1851.5","<p> Before you start, we're going to ask you a few questions about how the game works. </p>","","instructions","","","","","","","","","","","","","",""
"comp-q","102","579312","0.0-3.0-15.0-0.0-0.0","spark_pilot_2","7530","3","23","Female","","","","","","","3341.600000023842","<p> <b> True or False? </b> </p>
            <p> There can be 50 pieces of treasure in a given animal's chest. </p>","0","comp_question","","","","false","","","","","","","","","",""
"comp-q","103","588885","0.0-3.0-15.0-0.0-1.0","spark_pilot_2","7530","3","23","Female","","","","","","","1161.6000000238419","<p> <b>Incorrect.</b> The amount of treasure in each chest can range from 0 to 40 pieces. </p>","0","comp_answer","","","","","","","","","","","","","",""
"comp-q","104","595395","0.0-3.0-15.0-0.1-0.1","spark_pilot_2","7530","3","23","Female","","","","","","","941.8999999761581","<p> <b> True or False? </b> </p>
            <p> There can be 50 pieces of treasure in a given animal's chest. </p>","1","comp_question","","","","true","","","","","","","","","",""
"comp-q","105","607766","0.0-3.0-15.0-0.1-1.1","spark_pilot_2","7530","3","23","Female","","","","","","","4562.899999976158","<p> <b> That's right! </b> The amount of treasure in each chest can range from 0 to 40 pieces. </p>","0","comp_answer","","","","","","","","","","","","","",""
"comp-q","106","617063","0.0-3.0-15.0-0.2-0.2","spark_pilot_2","7530","3","23","Female","","","","","","","1210.1999999284744","<p> <b> True or False? </b> </p><p> In this game, all animals have the same amount of treasure in their left and right chests. </p>","1","comp_question","","","","true","","","","","","","","","",""
"comp-q","107","625139","0.0-3.0-15.0-0.2-1.2","spark_pilot_2","7530","3","23","Female","","","","","","","1585.6999999284744","<p> <b> That's right! </b> Animals have different amounts of treasure in their treasure chests. </p>","0","comp_answer","","","","","","","","","","","","","",""
"comp-q","108","633298","0.0-3.0-15.0-0.3-0.3","spark_pilot_2","7530","3","23","Female","","","","","","","845.2999999523163","<p> <b> True or False? </b> </p><p> The same animal will always be there if you go up in the same place. </p>","0","comp_question","","","","true","","","","","","","","","",""
"comp-q","109","642745","0.0-3.0-15.0-0.3-1.3","spark_pilot_2","7530","3","23","Female","","","","","","","2062.100000023842","<p> <b> That's right! </b> One animal lives in the upper part and one lives in the lower part of every place. </p>","0","comp_answer","","","","","","","","","","","","","",""
"comp-q","110","651735","0.0-3.0-15.0-0.4-0.4","spark_pilot_2","7530","3","23","Female","","","","","","","2091.5","<p> <b> True or False? </b> </p><p> If you see a different picture, it means you are in a new place. </p>","1","comp_question","","","","true","","","","","","","","","",""
"comp-q","111","666867","0.0-3.0-15.0-0.4-1.4","spark_pilot_2","7530","3","23","Female","","","","","","","1753.2999999523163","<p> <b> That's right! </b> Lots of different images may show the same place. For example,  you may see three different images that all remind you that you are in outer space. </p>","0","comp_answer","","","","","","","","","","","","","",""
"learning-instructions","112","679896","0.0-3.0-16.0-0.0","spark_pilot_2","7530","3","23","Female","","","","","","","1782.0999999046326","<p> Good job. Remember to do your best because the amount of treasure you earn will be converted into bonus money. </p>
            <p> It’s time to start the real game! </p>","","instructions","","","","","","","","","","","","","",""
"learning-instructions","113","684966","0.0-4.0-0.0-0.0","spark_pilot_2","7530","3","23","Female","","","","","","","1522.6000000238419","<p> This time you are searching for treasure in the <b>ocean</b>.</p>","","instructions","","","","","","","","","","","","","",""
"learning-instructions","114","705819","0.0-4.0-0.0-0.1","spark_pilot_2","7530","3","23","Female","","","","","","","1665.8999999761581","<p><b>New</b> animals with <b>new</b> treasure chests live here. You need to explore to discover where the animal with the best treasure chest is.</p>
                    <p> Like before, once you figure out which animal has the chest with the most treasure, you should try to get to that animal and select that chest! </p>","","instructions","","","","","","","","","","","","","",""
"learning-instructions","115","724458","0.0-4.0-1.0-0.0","spark_pilot_2","7530","3","23","Female","","","","","","","3904","<p> Remember, when you see a picture of the place, use the up and down keys to <b>find an animal</b>.</p>
            <p> When you encounter an animal, you should use the left and right keys to <b>select a treasure chest</b>.</p>
            <p> Don't forget to look out for the robber! </p>","","instructions","","","","","","","","","","","","","",""
"revaluation","116","730484","0.0-4.0-2.0-0.0","spark_pilot_2","7530","3","23","Female","","","false","","","","[1450,1006.3999999761581]","./assets/img/ocean/memory/6.jpg","[""ArrowUp"",""ArrowLeft""]","value training","ocean","23","{""ArrowUp,ArrowLeft"":23,""ArrowUp,ArrowRight"":10,""ArrowDown,ArrowLeft"":8,""ArrowDown,ArrowRight"":30}","false","ArrowUp,ArrowLeft","false","","","original","1","0","","",""
"html-keyboard-response","117","731002","0.0-4.0-2.0-1.0","spark_pilot_2","7530","3","23","Female","","","","","","","null","<div style=""font-size:60px;"">+</div>","null","fixation","","","","","","","","","","","1","","",""
"revaluation","118","737033","0.0-4.0-2.0-0.1","spark_pilot_2","7530","3","23","Female","","","false","","","","[435.60000002384186,413.39999997615814]","./assets/img/ocean/memory/30.jpg","[""ArrowUp"",""ArrowRight""]","value training","ocean","10","{""ArrowUp,ArrowLeft"":23,""ArrowUp,ArrowRight"":10,""ArrowDown,ArrowLeft"":8,""ArrowDown,ArrowRight"":30}","false","ArrowUp,ArrowRight","false","","","original","1","2","","",""
"html-keyboard-response","119","737543","0.0-4.0-2.0-1.1","spark_pilot_2","7530","3","23","Female","","","","","","","null","<div style=""font-size:60px;"">+</div>","null","fixation","","","","","","","","","","","3","","",""
"revaluation","120","743573","0.0-4.0-2.0-0.2","spark_pilot_2","7530","3","23","Female","","","false","","","","[657.8000000715256,601.5]","./assets/img/ocean/memory/0.jpg","[""ArrowDown"",""ArrowLeft""]","value training","ocean","8","{""ArrowUp,ArrowLeft"":23,""ArrowUp,ArrowRight"":10,""ArrowDown,ArrowLeft"":8,""ArrowDown,ArrowRight"":30}","false","ArrowDown,ArrowLeft","false","","","original","1","4","","",""
"html-keyboard-response","121","744082","0.0-4.0-2.0-1.2","spark_pilot_2","7530","3","23","Female","","","","","","","null","<div style=""font-size:60px;"">+</div>","null","fixation","","","","","","","","","","","5","","",""
"revaluation","122","750113","0.0-4.0-2.0-0.3","spark_pilot_2","7530","3","23","Female","","","false","","","","[557.8000000715256,403.59999990463257]","./assets/img/ocean/memory/6.jpg","[""ArrowDown"",""ArrowRight""]","value training","ocean","30","{""ArrowUp,ArrowLeft"":23,""ArrowUp,ArrowRight"":10,""ArrowDown,ArrowLeft"":8,""ArrowDown,ArrowRight"":30}","true","ArrowDown,ArrowRight","false","","","original","1","6","","",""
"html-keyboard-response","123","750622","0.0-4.0-2.0-1.3","spark_pilot_2","7530","3","23","Female","","","","","","","null","<div style=""font-size:60px;"">+</div>","null","fixation","","","","","","","","","","","7","","",""
"revaluation","124","756634","0.0-4.0-2.0-0.4","spark_pilot_2","7530","3","23","Female","","","false","","","","[676,320.60000002384186]","./assets/img/ocean/memory/40.jpg","[""ArrowUp"",""ArrowLeft""]","value training","ocean","23","{""ArrowUp,ArrowLeft"":23,""ArrowUp,ArrowRight"":10,""ArrowDown,ArrowLeft"":8,""ArrowDown,ArrowRight"":30}","false","ArrowUp,ArrowLeft","false","","","original","1","8","","",""
"html-keyboard-response","125","757146","0.0-4.0-2.0-1.4","spark_pilot_2","7530","3","23","Female","","","","","","","null","<div style=""font-size:60px;"">+</div>","null","fixation","","","","","","","","","","","9","","",""
"revaluation","126","763178","0.0-4.0-2.0-0.5","spark_pilot_2","7530","3","23","Female","","","false","","","","[390.7000000476837,337.2000000476837]","./assets/img/ocean/memory/27.jpg","[""ArrowDown"",""ArrowRight""]","value training","ocean","30","{""ArrowUp,ArrowLeft"":23,""ArrowUp,ArrowRight"":10,""ArrowDown,ArrowLeft"":8,""ArrowDown,ArrowRight"":30}","true","ArrowDown,ArrowRight","false","","","original","1","10","","",""
"html-keyboard-response","127","763689","0.0-4.0-2.0-1.5","spark_pilot_2","7530","3","23","Female","","","","","","","null","<div style=""font-size:60px;"">+</div>","null","fixation","","","","","","","","","","","11","","",""
"revaluation","128","769711","0.0-4.0-2.0-0.6","spark_pilot_2","7530","3","23","Female","","","false","","","","[309.2999999523163,337.39999997615814]","./assets/img/ocean/memory/26.jpg","[""ArrowDown"",""ArrowRight""]","value training","ocean","30","{""ArrowUp,ArrowLeft"":23,""ArrowUp,ArrowRight"":10,""ArrowDown,ArrowLeft"":8,""ArrowDown,ArrowRight"":30}","true","ArrowDown,ArrowRight","false","","","original","1","12","","",""
"html-keyboard-response","129","770220","0.0-4.0-2.0-1.6","spark_pilot_2","7530","3","23","Female","","","","","","","null","<div style=""font-size:60px;"">+</div>","null","fixation","","","","","","","","","","","13","","",""
"revaluation","130","776250","0.0-4.0-2.0-0.7","spark_pilot_2","7530","3","23","Female","","","false","","","","[366.7999999523163,546.0999999046326]","./assets/img/ocean/memory/17.jpg","[""ArrowDown"",""ArrowRight""]","value training","ocean","30","{""ArrowUp,ArrowLeft"":23,""ArrowUp,ArrowRight"":10,""ArrowDown,ArrowLeft"":8,""ArrowDown,ArrowRight"":30}","true","ArrowDown,ArrowRight","false","","","original","1","14","","",""
"html-keyboard-response","131","776757","0.0-4.0-2.0-1.7","spark_pilot_2","7530","3","23","Female","","","","","","","null","<div style=""font-size:60px;"">+</div>","null","fixation","","","","","","","","","","","15","","",""
"revaluation","132","782774","0.0-4.0-2.0-0.8","spark_pilot_2","7530","3","23","Female","","","false","","","","[331.39999997615814,411.5]","./assets/img/ocean/memory/26.jpg","[""ArrowDown"",""ArrowRight""]","value training","ocean","30","{""ArrowUp,ArrowLeft"":23,""ArrowUp,ArrowRight"":10,""ArrowDown,ArrowLeft"":8,""ArrowDown,ArrowRight"":30}","true","ArrowDown,ArrowRight","false","","","original","1","16","","",""
"html-keyboard-response","133","783281","0.0-4.0-2.0-1.8","spark_pilot_2","7530","3","23","Female","","","","","","","null","<div style=""font-size:60px;"">+</div>","null","fixation","","","","","","","","","","","17","","",""
"revaluation","134","789294","0.0-4.0-2.0-0.9","spark_pilot_2","7530","3","23","Female","","","false","","","","[494.09999990463257,526.2000000476837]","./assets/img/ocean/memory/36.jpg","[""ArrowDown"",""ArrowRight""]","value training","ocean","30","{""ArrowUp,ArrowLeft"":23,""ArrowUp,ArrowRight"":10,""ArrowDown,ArrowLeft"":8,""ArrowDown,ArrowRight"":30}","true","ArrowDown,ArrowRight","false","","","original","1","18","","",""
"html-keyboard-response","135","789799","0.0-4.0-2.0-1.9","spark_pilot_2","7530","3","23","Female","","","","","","","null","<div style=""font-size:60px;"">+</div>","null","fixation","","","","","","","","","","","19","","",""
"revaluation","136","795819","0.0-4.0-2.0-0.10","spark_pilot_2","7530","3","23","Female","","","false","","","","[863.7000000476837,381.1999999284744]","./assets/img/ocean/memory/35.jpg","[""ArrowDown"",""ArrowRight""]","value training","ocean","30","{""ArrowUp,ArrowLeft"":23,""ArrowUp,ArrowRight"":10,""ArrowDown,ArrowLeft"":8,""ArrowDown,ArrowRight"":30}","true","ArrowDown,ArrowRight","false","","","original","1","20","","",""
"html-keyboard-response","137","796327","0.0-4.0-2.0-1.10","spark_pilot_2","7530","3","23","Female","","","","","","","null","<div style=""font-size:60px;"">+</div>","null","fixation","","","","","","","","","","","21","","",""
"revaluation","138","802351","0.0-4.0-2.0-0.11","spark_pilot_2","7530","3","23","Female","","","false","","","","[388.10000002384186,501.7000000476837]","./assets/img/ocean/memory/14.jpg","[""ArrowUp"",""ArrowLeft""]","value training","ocean","23","{""ArrowUp,ArrowLeft"":23,""ArrowUp,ArrowRight"":10,""ArrowDown,ArrowLeft"":8,""ArrowDown,ArrowRight"":30}","false","ArrowUp,ArrowLeft","false","","","original","1","22","","",""
"html-keyboard-response","139","802860","0.0-4.0-2.0-1.11","spark_pilot_2","7530","3","23","Female","","","","","","","null","<div style=""font-size:60px;"">+</div>","null","fixation","","","","","","","","","","","23","","",""
"revaluation","140","808883","0.0-4.0-2.0-0.12","spark_pilot_2","7530","3","23","Female","","","false","","","","[267.1999999284744,350.3000000715256]","./assets/img/ocean/memory/9.jpg","[""ArrowDown"",""ArrowRight""]","value training","ocean","30","{""ArrowUp,ArrowLeft"":23,""ArrowUp,ArrowRight"":10,""ArrowDown,ArrowLeft"":8,""ArrowDown,ArrowRight"":30}","true","ArrowDown,ArrowRight","false","","","original","1","24","","",""
"html-keyboard-response","141","809388","0.0-4.0-2.0-1.12","spark_pilot_2","7530","3","23","Female","","","","","","","null","<div style=""font-size:60px;"">+</div>","null","fixation","","","","","","","","","","","25","","",""
"revaluation","142","813409","0.0-4.0-2.0-0.13","spark_pilot_2","7530","3","23","Female","","","false","","","","[23.699999928474426]","./assets/img/ocean/catch/1.jpg","[""ArrowDown""]","value training","ocean","-10","{""ArrowUp,ArrowLeft"":23,""ArrowUp,ArrowRight"":10,""ArrowDown,ArrowLeft"":8,""ArrowDown,ArrowRight"":30}","false","ArrowDown","true","","","original","1","26","","",""
"html-keyboard-response","143","813912","0.0-4.0-2.0-1.13","spark_pilot_2","7530","3","23","Female","","","","","","","null","<div style=""font-size:60px;"">+</div>","null","fixation","","","","","","","","","","","27","","",""
"revaluation","144","819930","0.0-4.0-2.0-0.14","spark_pilot_2","7530","3","23","Female","","","false","","","","[368.59999990463257,568.1000000238419]","./assets/img/ocean/memory/30.jpg","[""ArrowDown"",""ArrowRight""]","value training","ocean","30","{""ArrowUp,ArrowLeft"":23,""ArrowUp,ArrowRight"":10,""ArrowDown,ArrowLeft"":8,""ArrowDown,ArrowRight"":30}","true","ArrowDown,ArrowRight","false","","","original","1","28","","",""
"html-keyboard-response","145","820434","0.0-4.0-2.0-1.14","spark_pilot_2","7530","3","23","Female","","","","","","","null","<div style=""font-size:60px;"">+</div>","null","fixation","","","","","","","","","","","29","","",""
"revaluation","146","826455","0.0-4.0-2.0-0.15","spark_pilot_2","7530","3","23","Female","","","false","","","","[387.1999999284744,426.3000000715256]","./assets/img/ocean/memory/1.jpg","[""ArrowDown"",""ArrowRight""]","value training","ocean","30","{""ArrowUp,ArrowLeft"":23,""ArrowUp,ArrowRight"":10,""ArrowDown,ArrowLeft"":8,""ArrowDown,ArrowRight"":30}","true","ArrowDown,ArrowRight","false","","","original","1","30","","",""
"html-keyboard-response","147","826965","0.0-4.0-2.0-1.15","spark_pilot_2","7530","3","23","Female","","","","","","","null","<div style=""font-size:60px;"">+</div>","null","fixation","","","","","","","","","","","31","","",""
"revaluation","148","830981","0.0-4.0-2.0-0.16","spark_pilot_2","7530","3","23","Female","","","false","","","","[1340.8999999761581]","./assets/img/ocean/catch/4.jpg","[""spaceBar""]","value training","ocean","0","{""ArrowUp,ArrowLeft"":23,""ArrowUp,ArrowRight"":10,""ArrowDown,ArrowLeft"":8,""ArrowDown,ArrowRight"":30}","true","spaceBar","true","","","original","1","32","","",""
"html-keyboard-response","149","831490","0.0-4.0-2.0-1.16","spark_pilot_2","7530","3","23","Female","","","","","","","null","<div style=""font-size:60px;"">+</div>","null","fixation","","","","","","","","","","","33","","",""
"revaluation","150","837518","0.0-4.0-2.0-0.17","spark_pilot_2","7530","3","23","Female","","","false","","","","[356.1999999284744,490.5]","./assets/img/ocean/memory/12.jpg","[""ArrowDown"",""ArrowRight""]","value training","ocean","30","{""ArrowUp,ArrowLeft"":23,""ArrowUp,ArrowRight"":10,""ArrowDown,ArrowLeft"":8,""ArrowDown,ArrowRight"":30}","true","ArrowDown,ArrowRight","false","","","original","1","34","","",""
"html-keyboard-response","151","838024","0.0-4.0-2.0-1.17","spark_pilot_2","7530","3","23","Female","","","","","","","null","<div style=""font-size:60px;"">+</div>","null","fixation","","","","","","","","","","","35","","",""
"revaluation","152","844046","0.0-4.0-2.0-0.18","spark_pilot_2","7530","3","23","Female","","","false","","","","[872,629.8999999761581]","./assets/img/ocean/memory/14.jpg","[""ArrowDown"",""ArrowRight""]","value training","ocean","30","{""ArrowUp,ArrowLeft"":23,""ArrowUp,ArrowRight"":10,""ArrowDown,ArrowLeft"":8,""ArrowDown,ArrowRight"":30}","true","ArrowDown,ArrowRight","false","","","original","1","36","","",""
"html-keyboard-response","153","844548","0.0-4.0-2.0-1.18","spark_pilot_2","7530","3","23","Female","","","","","","","null","<div style=""font-size:60px;"">+</div>","null","fixation","","","","","","","","","","","37","","",""
"revaluation","154","848571","0.0-4.0-2.0-0.19","spark_pilot_2","7530","3","23","Female","","","false","","","","[997.8999999761581]","./assets/img/ocean/catch/7.jpg","[""spaceBar""]","value training","ocean","0","{""ArrowUp,ArrowLeft"":23,""ArrowUp,ArrowRight"":10,""ArrowDown,ArrowLeft"":8,""ArrowDown,ArrowRight"":30}","true","spaceBar","true","","","original","1","38","","",""
"html-keyboard-response","155","849079","0.0-4.0-2.0-1.19","spark_pilot_2","7530","3","23","Female","","","","","","","null","<div style=""font-size:60px;"">+</div>","null","fixation","","","","","","","","","","","39","","",""
"revaluation","156","855092","0.0-4.0-2.0-0.20","spark_pilot_2","7530","3","23","Female","","","false","","","","[933.1999999284744,393.60000002384186]","./assets/img/ocean/memory/29.jpg","[""ArrowDown"",""ArrowRight""]","value training","ocean","30","{""ArrowUp,ArrowLeft"":23,""ArrowUp,ArrowRight"":10,""ArrowDown,ArrowLeft"":8,""ArrowDown,ArrowRight"":30}","true","ArrowDown,ArrowRight","false","","","original","1","40","","",""
"html-keyboard-response","157","855599","0.0-4.0-2.0-1.20","spark_pilot_2","7530","3","23","Female","","","","","","","null","<div style=""font-size:60px;"">+</div>","null","fixation","","","","","","","","","","","41","","",""
"revaluation","158","861627","0.0-4.0-2.0-0.21","spark_pilot_2","7530","3","23","Female","","","false","","","","[1002.8000000715256,409.40000009536743]","./assets/img/ocean/memory/32.jpg","[""ArrowDown"",""ArrowRight""]","value training","ocean","30","{""ArrowUp,ArrowLeft"":23,""ArrowUp,ArrowRight"":10,""ArrowDown,ArrowLeft"":8,""ArrowDown,ArrowRight"":30}","true","ArrowDown,ArrowRight","false","","","original","1","42","","",""
"html-keyboard-response","159","862129","0.0-4.0-2.0-1.21","spark_pilot_2","7530","3","23","Female","","","","","","","null","<div style=""font-size:60px;"">+</div>","null","fixation","","","","","","","","","","","43","","",""
"revaluation","160","868156","0.0-4.0-2.0-0.22","spark_pilot_2","7530","3","23","Female","","","false","","","","[1150.9000000953674,518.5]","./assets/img/ocean/memory/9.jpg","[""ArrowDown"",""ArrowRight""]","value training","ocean","30","{""ArrowUp,ArrowLeft"":23,""ArrowUp,ArrowRight"":10,""ArrowDown,ArrowLeft"":8,""ArrowDown,ArrowRight"":30}","true","ArrowDown,ArrowRight","false","","","original","1","44","","",""
"html-keyboard-response","161","868658","0.0-4.0-2.0-1.22","spark_pilot_2","7530","3","23","Female","","","","","","","null","<div style=""font-size:60px;"">+</div>","null","fixation","","","","","","","","","","","45","","",""
"revaluation","162","872667","0.0-4.0-2.0-0.23","spark_pilot_2","7530","3","23","Female","","","true","","","","[]","./assets/img/ocean/memory/20.jpg","[]","value training","ocean","-5","{""ArrowUp,ArrowLeft"":23,""ArrowUp,ArrowRight"":10,""ArrowDown,ArrowLeft"":8,""ArrowDown,ArrowRight"":30}","false","","false","","","original","1","46","","",""
"html-keyboard-response","163","873171","0.0-4.0-2.0-1.23","spark_pilot_2","7530","3","23","Female","","","","","","","null","<div style=""font-size:60px;"">+</div>","null","fixation","","","","","","","","","","","47","","",""
"revaluation","164","879192","0.0-4.0-2.0-0.24","spark_pilot_2","7530","3","23","Female","","","false","","","","[818,351]","./assets/img/ocean/memory/41.jpg","[""ArrowDown"",""ArrowRight""]","value training","ocean","30","{""ArrowUp,ArrowLeft"":23,""ArrowUp,ArrowRight"":10,""ArrowDown,ArrowLeft"":8,""ArrowDown,ArrowRight"":30}","true","ArrowDown,ArrowRight","false","","","original","1","48","","",""
"html-keyboard-response","165","879696","0.0-4.0-2.0-1.24","spark_pilot_2","7530","3","23","Female","","","","","","","null","<div style=""font-size:60px;"">+</div>","null","fixation","","","","","","","","","","","49","","",""
"revaluation","166","883721","0.0-4.0-2.0-0.25","spark_pilot_2","7530","3","23","Female","","","false","","","","[543.8999999761581]","./assets/img/ocean/catch/2.jpg","[""spaceBar""]","value training","ocean","0","{""ArrowUp,ArrowLeft"":23,""ArrowUp,ArrowRight"":10,""ArrowDown,ArrowLeft"":8,""ArrowDown,ArrowRight"":30}","true","spaceBar","true","","","original","1","50","","",""
"html-keyboard-response","167","884223","0.0-4.0-2.0-1.25","spark_pilot_2","7530","3","23","Female","","","","","","","null","<div style=""font-size:60px;"">+</div>","null","fixation","","","","","","","","","","","51","","",""
"revaluation","168","890245","0.0-4.0-2.0-0.26","spark_pilot_2","7530","3","23","Female","","","false","","","","[858.7999999523163,330.89999997615814]","./assets/img/ocean/memory/0.jpg","[""ArrowDown"",""ArrowRight""]","value training","ocean","30","{""ArrowUp,ArrowLeft"":23,""ArrowUp,ArrowRight"":10,""ArrowDown,ArrowLeft"":8,""ArrowDown,ArrowRight"":30}","true","ArrowDown,ArrowRight","false","","","original","1","52","","",""
"html-keyboard-response","169","890758","0.0-4.0-2.0-1.26","spark_pilot_2","7530","3","23","Female","","","","","","","null","<div style=""font-size:60px;"">+</div>","null","fixation","","","","","","","","","","","53","","",""
"revaluation","170","894784","0.0-4.0-2.0-0.27","spark_pilot_2","7530","3","23","Female","","","false","","","","[777.2000000476837]","./assets/img/ocean/catch/5.jpg","[""spaceBar""]","value training","ocean","0","{""ArrowUp,ArrowLeft"":23,""ArrowUp,ArrowRight"":10,""ArrowDown,ArrowLeft"":8,""ArrowDown,ArrowRight"":30}","true","spaceBar","true","","","original","1","54","","",""
"html-keyboard-response","171","895293","0.0-4.0-2.0-1.27","spark_pilot_2","7530","3","23","Female","","","","","","","null","<div style=""font-size:60px;"">+</div>","null","fixation","","","","","","","","","","","55","","",""
"revaluation","172","901306","0.0-4.0-2.0-0.28","spark_pilot_2","7530","3","23","Female","","","false","","","","[611.7999999523163,332.8000000715256]","./assets/img/ocean/memory/17.jpg","[""ArrowDown"",""ArrowRight""]","value training","ocean","30","{""ArrowUp,ArrowLeft"":23,""ArrowUp,ArrowRight"":10,""ArrowDown,ArrowLeft"":8,""ArrowDown,ArrowRight"":30}","true","ArrowDown,ArrowRight","false","","","original","1","56","","",""
"html-keyboard-response","173","901814","0.0-4.0-2.0-1.28","spark_pilot_2","7530","3","23","Female","","","","","","","null","<div style=""font-size:60px;"">+</div>","null","fixation","","","","","","","","","","","57","","",""
"revaluation","174","905836","0.0-4.0-2.0-0.29","spark_pilot_2","7530","3","23","Female","","","false","","","","[590.0999999046326]","./assets/img/ocean/catch/3.jpg","[""spaceBar""]","value training","ocean","0","{""ArrowUp,ArrowLeft"":23,""ArrowUp,ArrowRight"":10,""ArrowDown,ArrowLeft"":8,""ArrowDown,ArrowRight"":30}","true","spaceBar","true","","","original","1","58","","",""
"html-keyboard-response","175","906341","0.0-4.0-2.0-1.29","spark_pilot_2","7530","3","23","Female","","","","","","","null","<div style=""font-size:60px;"">+</div>","null","fixation","","","","","","","","","","","59","","",""
"revaluation","176","912369","0.0-4.0-2.0-0.30","spark_pilot_2","7530","3","23","Female","","","false","","","","[786.1000000238419,402.60000002384186]","./assets/img/ocean/memory/1.jpg","[""ArrowDown"",""ArrowRight""]","value training","ocean","30","{""ArrowUp,ArrowLeft"":23,""ArrowUp,ArrowRight"":10,""ArrowDown,ArrowLeft"":8,""ArrowDown,ArrowRight"":30}","true","ArrowDown,ArrowRight","false","","","original","1","60","","",""
"html-keyboard-response","177","912872","0.0-4.0-2.0-1.30","spark_pilot_2","7530","3","23","Female","","","","","","","null","<div style=""font-size:60px;"">+</div>","null","fixation","","","","","","","","","","","61","","",""
"revaluation","178","918896","0.0-4.0-2.0-0.31","spark_pilot_2","7530","3","23","Female","","","false","","","","[649.6000000238419,399.39999997615814]","./assets/img/ocean/memory/31.jpg","[""ArrowDown"",""ArrowRight""]","value training","ocean","30","{""ArrowUp,ArrowLeft"":23,""ArrowUp,ArrowRight"":10,""ArrowDown,ArrowLeft"":8,""ArrowDown,ArrowRight"":30}","true","ArrowDown,ArrowRight","false","","","original","1","62","","",""
"html-keyboard-response","179","919402","0.0-4.0-2.0-1.31","spark_pilot_2","7530","3","23","Female","","","","","","","null","<div style=""font-size:60px;"">+</div>","null","fixation","","","","","","","","","","","63","","",""
"revaluation","180","925425","0.0-4.0-2.0-0.32","spark_pilot_2","7530","3","23","Female","","","false","","","","[670.0999999046326,569.1000000238419]","./assets/img/ocean/memory/12.jpg","[""ArrowDown"",""ArrowRight""]","value training","ocean","30","{""ArrowUp,ArrowLeft"":23,""ArrowUp,ArrowRight"":10,""ArrowDown,ArrowLeft"":8,""ArrowDown,ArrowRight"":30}","true","ArrowDown,ArrowRight","false","","","original","1","64","","",""
"html-keyboard-response","181","925936","0.0-4.0-2.0-1.32","spark_pilot_2","7530","3","23","Female","","","","","","","null","<div style=""font-size:60px;"">+</div>","null","fixation","","","","","","","","","","","65","","",""
"revaluation","182","931957","0.0-4.0-2.0-0.33","spark_pilot_2","7530","3","23","Female","","","false","","","","[571.2999999523163,440]","./assets/img/ocean/memory/32.jpg","[""ArrowDown"",""ArrowRight""]","value training","ocean","30","{""ArrowUp,ArrowLeft"":23,""ArrowUp,ArrowRight"":10,""ArrowDown,ArrowLeft"":8,""ArrowDown,ArrowRight"":30}","true","ArrowDown,ArrowRight","false","","","original","1","66","","",""
"html-keyboard-response","183","932463","0.0-4.0-2.0-1.33","spark_pilot_2","7530","3","23","Female","","","","","","","null","<div style=""font-size:60px;"">+</div>","null","fixation","","","","","","","","","","","67","","",""
"revaluation","184","938483","0.0-4.0-2.0-0.34","spark_pilot_2","7530","3","23","Female","","","false","","","","[692.5,417.7000000476837]","./assets/img/ocean/memory/41.jpg","[""ArrowDown"",""ArrowRight""]","value training","ocean","30","{""ArrowUp,ArrowLeft"":23,""ArrowUp,ArrowRight"":10,""ArrowDown,ArrowLeft"":8,""ArrowDown,ArrowRight"":30}","true","ArrowDown,ArrowRight","false","","","original","1","68","","",""
"html-keyboard-response","185","938988","0.0-4.0-2.0-1.34","spark_pilot_2","7530","3","23","Female","","","","","","","null","<div style=""font-size:60px;"">+</div>","null","fixation","","","","","","","","","","","69","","",""
"revaluation","186","945002","0.0-4.0-2.0-0.35","spark_pilot_2","7530","3","23","Female","","","false","","","","[606.8999999761581,403.10000002384186]","./assets/img/ocean/memory/27.jpg","[""ArrowDown"",""ArrowRight""]","value training","ocean","30","{""ArrowUp,ArrowLeft"":23,""ArrowUp,ArrowRight"":10,""ArrowDown,ArrowLeft"":8,""ArrowDown,ArrowRight"":30}","true","ArrowDown,ArrowRight","false","","","original","1","70","","",""
"html-keyboard-response","187","945507","0.0-4.0-2.0-1.35","spark_pilot_2","7530","3","23","Female","","","","","","","null","<div style=""font-size:60px;"">+</div>","null","fixation","","","","","","","","","","","71","","",""
"revaluation","188","949523","0.0-4.0-2.0-0.36","spark_pilot_2","7530","3","23","Female","","","false","","","","[593.6000000238419]","./assets/img/ocean/catch/6.jpg","[""spaceBar""]","value training","ocean","0","{""ArrowUp,ArrowLeft"":23,""ArrowUp,ArrowRight"":10,""ArrowDown,ArrowLeft"":8,""ArrowDown,ArrowRight"":30}","true","spaceBar","true","","","original","1","72","","",""
"html-keyboard-response","189","950026","0.0-4.0-2.0-1.36","spark_pilot_2","7530","3","23","Female","","","","","","","null","<div style=""font-size:60px;"">+</div>","null","fixation","","","","","","","","","","","73","","",""
"revaluation","190","956056","0.0-4.0-2.0-0.37","spark_pilot_2","7530","3","23","Female","","","false","","","","[577.0999999046326,375]","./assets/img/ocean/memory/34.jpg","[""ArrowDown"",""ArrowRight""]","value training","ocean","30","{""ArrowUp,ArrowLeft"":23,""ArrowUp,ArrowRight"":10,""ArrowDown,ArrowLeft"":8,""ArrowDown,ArrowRight"":30}","true","ArrowDown,ArrowRight","false","","","original","1","74","","",""
"html-keyboard-response","191","956570","0.0-4.0-2.0-1.37","spark_pilot_2","7530","3","23","Female","","","","","","","null","<div style=""font-size:60px;"">+</div>","null","fixation","","","","","","","","","","","75","","",""
"revaluation","192","962590","0.0-4.0-2.0-0.38","spark_pilot_2","7530","3","23","Female","","","false","","","","[595.7999999523163,366.2000000476837]","./assets/img/ocean/memory/15.jpg","[""ArrowDown"",""ArrowRight""]","value training","ocean","30","{""ArrowUp,ArrowLeft"":23,""ArrowUp,ArrowRight"":10,""ArrowDown,ArrowLeft"":8,""ArrowDown,ArrowRight"":30}","true","ArrowDown,ArrowRight","false","","","original","1","76","","",""
"html-keyboard-response","193","963098","0.0-4.0-2.0-1.38","spark_pilot_2","7530","3","23","Female","","","","","","","null","<div style=""font-size:60px;"">+</div>","null","fixation","","","","","","","","","","","77","","",""
"revaluation","194","969120","0.0-4.0-2.0-0.39","spark_pilot_2","7530","3","23","Female","","","false","","","","[623.3999999761581,445.10000002384186]","./assets/img/ocean/memory/34.jpg","[""ArrowDown"",""ArrowRight""]","value training","ocean","30","{""ArrowUp,ArrowLeft"":23,""ArrowUp,ArrowRight"":10,""ArrowDown,ArrowLeft"":8,""ArrowDown,ArrowRight"":30}","true","ArrowDown,ArrowRight","false","","","original","1","78","","",""
"html-keyboard-response","195","969627","0.0-4.0-2.0-1.39","spark_pilot_2","7530","3","23","Female","","","","","","","null","<div style=""font-size:60px;"">+</div>","null","fixation","","","","","","","","","","","79","","",""
"revaluation","196","975654","0.0-4.0-2.0-0.40","spark_pilot_2","7530","3","23","Female","","","false","","","","[642.7999999523163,419.2999999523163]","./assets/img/ocean/memory/38.jpg","[""ArrowDown"",""ArrowRight""]","value training","ocean","30","{""ArrowUp,ArrowLeft"":23,""ArrowUp,ArrowRight"":10,""ArrowDown,ArrowLeft"":8,""ArrowDown,ArrowRight"":30}","true","ArrowDown,ArrowRight","false","","","original","1","80","","",""
"html-keyboard-response","197","976170","0.0-4.0-2.0-1.40","spark_pilot_2","7530","3","23","Female","","","","","","","null","<div style=""font-size:60px;"">+</div>","null","fixation","","","","","","","","","","","81","","",""
"revaluation","198","982192","0.0-4.0-2.0-0.41","spark_pilot_2","7530","3","23","Female","","","false","","","","[621,340]","./assets/img/ocean/memory/35.jpg","[""ArrowDown"",""ArrowRight""]","value training","ocean","30","{""ArrowUp,ArrowLeft"":23,""ArrowUp,ArrowRight"":10,""ArrowDown,ArrowLeft"":8,""ArrowDown,ArrowRight"":30}","true","ArrowDown,ArrowRight","false","","","original","1","82","","",""
"html-keyboard-response","199","982699","0.0-4.0-2.0-1.41","spark_pilot_2","7530","3","23","Female","","","","","","","null","<div style=""font-size:60px;"">+</div>","null","fixation","","","","","","","","","","","83","","",""
"revaluation","200","988722","0.0-4.0-2.0-0.42","spark_pilot_2","7530","3","23","Female","","","false","","","","[730,367]","./assets/img/ocean/memory/29.jpg","[""ArrowDown"",""ArrowRight""]","value training","ocean","30","{""ArrowUp,ArrowLeft"":23,""ArrowUp,ArrowRight"":10,""ArrowDown,ArrowLeft"":8,""ArrowDown,ArrowRight"":30}","true","ArrowDown,ArrowRight","false","","","original","1","84","","",""
"html-keyboard-response","201","989232","0.0-4.0-2.0-1.42","spark_pilot_2","7530","3","23","Female","","","","","","","null","<div style=""font-size:60px;"">+</div>","null","fixation","","","","","","","","","","","85","","",""
"revaluation","202","995253","0.0-4.0-2.0-0.43","spark_pilot_2","7530","3","23","Female","","","false","","","","[868.6000000238419,409.89999997615814]","./assets/img/ocean/memory/20.jpg","[""ArrowDown"",""ArrowRight""]","value training","ocean","30","{""ArrowUp,ArrowLeft"":23,""ArrowUp,ArrowRight"":10,""ArrowDown,ArrowLeft"":8,""ArrowDown,ArrowRight"":30}","true","ArrowDown,ArrowRight","false","","","original","1","86","","",""
"html-keyboard-response","203","995759","0.0-4.0-2.0-1.43","spark_pilot_2","7530","3","23","Female","","","","","","","null","<div style=""font-size:60px;"">+</div>","null","fixation","","","","","","","","","","","87","","",""
"revaluation","204","1001790","0.0-4.0-2.0-0.44","spark_pilot_2","7530","3","23","Female","","","false","","","","[677.2000000476837,433.10000002384186]","./assets/img/ocean/memory/15.jpg","[""ArrowDown"",""ArrowRight""]","value training","ocean","30","{""ArrowUp,ArrowLeft"":23,""ArrowUp,ArrowRight"":10,""ArrowDown,ArrowLeft"":8,""ArrowDown,ArrowRight"":30}","true","ArrowDown,ArrowRight","false","","","original","1","88","","",""
"html-keyboard-response","205","1002294","0.0-4.0-2.0-1.44","spark_pilot_2","7530","3","23","Female","","","","","","","null","<div style=""font-size:60px;"">+</div>","null","fixation","","","","","","","","","","","89","","",""
"revaluation","206","1008322","0.0-4.0-2.0-0.45","spark_pilot_2","7530","3","23","Female","","","false","","","","[627.1999999284744,397.2999999523163]","./assets/img/ocean/memory/31.jpg","[""ArrowDown"",""ArrowRight""]","value training","ocean","30","{""ArrowUp,ArrowLeft"":23,""ArrowUp,ArrowRight"":10,""ArrowDown,ArrowLeft"":8,""ArrowDown,ArrowRight"":30}","true","ArrowDown,ArrowRight","false","","","original","1","90","","",""
"html-keyboard-response","207","1008826","0.0-4.0-2.0-1.45","spark_pilot_2","7530","3","23","Female","","","","","","","null","<div style=""font-size:60px;"">+</div>","null","fixation","","","","","","","","","","","91","","",""
"revaluation","208","1014854","0.0-4.0-2.0-0.46","spark_pilot_2","7530","3","23","Female","","","false","","","","[596.5999999046326,392]","./assets/img/ocean/memory/40.jpg","[""ArrowDown"",""ArrowRight""]","value training","ocean","30","{""ArrowUp,ArrowLeft"":23,""ArrowUp,ArrowRight"":10,""ArrowDown,ArrowLeft"":8,""ArrowDown,ArrowRight"":30}","true","ArrowDown,ArrowRight","false","","","original","1","92","","",""
"html-keyboard-response","209","1015360","0.0-4.0-2.0-1.46","spark_pilot_2","7530","3","23","Female","","","","","","","null","<div style=""font-size:60px;"">+</div>","null","fixation","","","","","","","","","","","93","","",""
"revaluation","210","1019378","0.0-4.0-2.0-0.47","spark_pilot_2","7530","3","23","Female","","","false","","","","[1235]","./assets/img/ocean/catch/0.jpg","[""spaceBar""]","value training","ocean","0","{""ArrowUp,ArrowLeft"":23,""ArrowUp,ArrowRight"":10,""ArrowDown,ArrowLeft"":8,""ArrowDown,ArrowRight"":30}","true","spaceBar","true","","","original","1","94","","",""
"html-keyboard-response","211","1019884","0.0-4.0-2.0-1.47","spark_pilot_2","7530","3","23","Female","","","","","","","null","<div style=""font-size:60px;"">+</div>","null","fixation","","","","","","","","","","","95","","",""
"revaluation","212","1025905","0.0-4.0-2.0-0.48","spark_pilot_2","7530","3","23","Female","","","false","","","","[491,323.90000009536743]","./assets/img/ocean/memory/38.jpg","[""ArrowDown"",""ArrowRight""]","value training","ocean","30","{""ArrowUp,ArrowLeft"":23,""ArrowUp,ArrowRight"":10,""ArrowDown,ArrowLeft"":8,""ArrowDown,ArrowRight"":30}","true","ArrowDown,ArrowRight","false","","","original","1","96","","",""
"html-keyboard-response","213","1026413","0.0-4.0-2.0-1.48","spark_pilot_2","7530","3","23","Female","","","","","","","null","<div style=""font-size:60px;"">+</div>","null","fixation","","","","","","","","","","","97","","",""
"revaluation","214","1032442","0.0-4.0-2.0-0.49","spark_pilot_2","7530","3","23","Female","","","false","","","","[451.8000000715256,433.5]","./assets/img/ocean/memory/36.jpg","[""ArrowDown"",""ArrowRight""]","value training","ocean","30","{""ArrowUp,ArrowLeft"":23,""ArrowUp,ArrowRight"":10,""ArrowDown,ArrowLeft"":8,""ArrowDown,ArrowRight"":30}","true","ArrowDown,ArrowRight","false","","","original","1","98","","",""
"html-keyboard-response","215","1032952","0.0-4.0-2.0-1.49","spark_pilot_2","7530","3","23","Female","","","","","","","null","<div style=""font-size:60px;"">+</div>","null","fixation","","","","","","","","","","","99","","",""
"learning-instructions","216","1047955","0.0-4.0-3.0-0.0","spark_pilot_2","7530","3","23","Female","","","","","","","1820.3999999761581","<p> Now, you will travel with a friend who will choose whether you go up or down first. </p>
            <p> On these turns, you will just see the animal that they found. You will still get to choose which chest to search for treasure.</p>","","instructions","","","","","","","","","","","","","",""
"revaluation","217","1051973","0.0-4.0-4.0-0.0","spark_pilot_2","7530","3","23","Female","","","false","","","","[669.5]","./assets/img/ocean/animals/octopus.jpg","[""ArrowLeft""]","revaluation","ocean","23","{""ArrowUp,ArrowLeft"":23,""ArrowUp,ArrowRight"":10,""ArrowDown,ArrowLeft"":8,""ArrowDown,ArrowRight"":30}","true","ArrowUp,ArrowLeft","","","","original","1","0","","",""
"html-keyboard-response","218","1052483","0.0-4.0-4.0-1.0","spark_pilot_2","7530","3","23","Female","","","","","","","null","<div style=""font-size:60px;"">+</div>","null","fixation","","","","","","","","","","","1","","",""
"revaluation","219","1056504","0.0-4.0-4.0-0.1","spark_pilot_2","7530","3","23","Female","","","false","","","","[529.6999999284744]","./assets/img/ocean/animals/seahorse.jpg","[""ArrowRight""]","revaluation","ocean","30","{""ArrowUp,ArrowLeft"":23,""ArrowUp,ArrowRight"":10,""ArrowDown,ArrowLeft"":8,""ArrowDown,ArrowRight"":30}","true","ArrowDown,ArrowRight","","","","original","1","2","","",""
"html-keyboard-response","220","1057014","0.0-4.0-4.0-1.1","spark_pilot_2","7530","3","23","Female","","","","","","","null","<div style=""font-size:60px;"">+</div>","null","fixation","","","","","","","","","","","3","","",""
"revaluation","221","1061033","0.0-4.0-4.0-0.2","spark_pilot_2","7530","3","23","Female","","","false","","","","[577.7999999523163]","./assets/img/ocean/animals/seahorse.jpg","[""ArrowRight""]","revaluation","ocean","30","{""ArrowUp,ArrowLeft"":23,""ArrowUp,ArrowRight"":10,""ArrowDown,ArrowLeft"":8,""ArrowDown,ArrowRight"":30}","true","ArrowDown,ArrowRight","","","","original","1","4","","",""
"html-keyboard-response","222","1061544","0.0-4.0-4.0-1.2","spark_pilot_2","7530","3","23","Female","","","","","","","null","<div style=""font-size:60px;"">+</div>","null","fixation","","","","","","","","","","","5","","",""
"revaluation","223","1065564","0.0-4.0-4.0-0.3","spark_pilot_2","7530","3","23","Female","","","false","","","","[537.3000000715256]","./assets/img/ocean/animals/octopus.jpg","[""ArrowLeft""]","revaluation","ocean","23","{""ArrowUp,ArrowLeft"":23,""ArrowUp,ArrowRight"":10,""ArrowDown,ArrowLeft"":8,""ArrowDown,ArrowRight"":30}","true","ArrowUp,ArrowLeft","","","","original","1","6","","",""
"html-keyboard-response","224","1066074","0.0-4.0-4.0-1.3","spark_pilot_2","7530","3","23","Female","","","","","","","null","<div style=""font-size:60px;"">+</div>","null","fixation","","","","","","","","","","","7","","",""
"revaluation","225","1070084","0.0-4.0-4.0-0.4","spark_pilot_2","7530","3","23","Female","","","false","","","","[475.10000002384186]","./assets/img/ocean/animals/seahorse.jpg","[""ArrowRight""]","revaluation","ocean","30","{""ArrowUp,ArrowLeft"":23,""ArrowUp,ArrowRight"":10,""ArrowDown,ArrowLeft"":8,""ArrowDown,ArrowRight"":30}","true","ArrowDown,ArrowRight","","","","original","1","8","","",""
"html-keyboard-response","226","1070604","0.0-4.0-4.0-1.4","spark_pilot_2","7530","3","23","Female","","","","","","","null","<div style=""font-size:60px;"">+</div>","null","fixation","","","","","","","","","","","9","","",""
"revaluation","227","1074624","0.0-4.0-4.0-0.5","spark_pilot_2","7530","3","23","Female","","","false","","","","[327]","./assets/img/ocean/animals/seahorse.jpg","[""ArrowRight""]","revaluation","ocean","30","{""ArrowUp,ArrowLeft"":23,""ArrowUp,ArrowRight"":10,""ArrowDown,ArrowLeft"":8,""ArrowDown,ArrowRight"":30}","true","ArrowDown,ArrowRight","","","","original","1","10","","",""
"html-keyboard-response","228","1075134","0.0-4.0-4.0-1.5","spark_pilot_2","7530","3","23","Female","","","","","","","null","<div style=""font-size:60px;"">+</div>","null","fixation","","","","","","","","","","","11","","",""
"revaluation","229","1079149","0.0-4.0-4.0-0.6","spark_pilot_2","7530","3","23","Female","","","false","","","","[475.10000002384186]","./assets/img/ocean/animals/octopus.jpg","[""ArrowRight""]","revaluation","ocean","10","{""ArrowUp,ArrowLeft"":23,""ArrowUp,ArrowRight"":10,""ArrowDown,ArrowLeft"":8,""ArrowDown,ArrowRight"":30}","false","ArrowUp,ArrowRight","","","","original","1","12","","",""
"html-keyboard-response","230","1079653","0.0-4.0-4.0-1.6","spark_pilot_2","7530","3","23","Female","","","","","","","null","<div style=""font-size:60px;"">+</div>","null","fixation","","","","","","","","","","","13","","",""
"revaluation","231","1083673","0.0-4.0-4.0-0.7","spark_pilot_2","7530","3","23","Female","","","false","","","","[493.60000002384186]","./assets/img/ocean/animals/seahorse.jpg","[""ArrowRight""]","revaluation","ocean","30","{""ArrowUp,ArrowLeft"":23,""ArrowUp,ArrowRight"":10,""ArrowDown,ArrowLeft"":8,""ArrowDown,ArrowRight"":30}","true","ArrowDown,ArrowRight","","","","original","1","14","","",""
"html-keyboard-response","232","1084183","0.0-4.0-4.0-1.7","spark_pilot_2","7530","3","23","Female","","","","","","","null","<div style=""font-size:60px;"">+</div>","null","fixation","","","","","","","","","","","15","","",""
"revaluation","233","1088195","0.0-4.0-4.0-0.8","spark_pilot_2","7530","3","23","Female","","","false","","","","[538.9000000953674]","./assets/img/ocean/animals/octopus.jpg","[""ArrowLeft""]","revaluation","ocean","23","{""ArrowUp,ArrowLeft"":23,""ArrowUp,ArrowRight"":10,""ArrowDown,ArrowLeft"":8,""ArrowDown,ArrowRight"":30}","true","ArrowUp,ArrowLeft","","","","original","1","16","","",""
"html-keyboard-response","234","1088702","0.0-4.0-4.0-1.8","spark_pilot_2","7530","3","23","Female","","","","","","","null","<div style=""font-size:60px;"">+</div>","null","fixation","","","","","","","","","","","17","","",""
"revaluation","235","1092724","0.0-4.0-4.0-0.9","spark_pilot_2","7530","3","23","Female","","","false","","","","[390.5]","./assets/img/ocean/animals/seahorse.jpg","[""ArrowRight""]","revaluation","ocean","30","{""ArrowUp,ArrowLeft"":23,""ArrowUp,ArrowRight"":10,""ArrowDown,ArrowLeft"":8,""ArrowDown,ArrowRight"":30}","true","ArrowDown,ArrowRight","","","","original","1","18","","",""
"html-keyboard-response","236","1093236","0.0-4.0-4.0-1.9","spark_pilot_2","7530","3","23","Female","","","","","","","null","<div style=""font-size:60px;"">+</div>","null","fixation","","","","","","","","","","","19","","",""
"revaluation","237","1097257","0.0-4.0-4.0-0.10","spark_pilot_2","7530","3","23","Female","","","false","","","","[464.8000000715256]","./assets/img/ocean/animals/octopus.jpg","[""ArrowLeft""]","revaluation","ocean","23","{""ArrowUp,ArrowLeft"":23,""ArrowUp,ArrowRight"":10,""ArrowDown,ArrowLeft"":8,""ArrowDown,ArrowRight"":30}","true","ArrowUp,ArrowLeft","","","","original","1","20","","",""
"html-keyboard-response","238","1097765","0.0-4.0-4.0-1.10","spark_pilot_2","7530","3","23","Female","","","","","","","null","<div style=""font-size:60px;"">+</div>","null","fixation","","","","","","","","","","","21","","",""
"revaluation","239","1101782","0.0-4.0-4.0-0.11","spark_pilot_2","7530","3","23","Female","","","false","","","","[647.8000000715256]","./assets/img/ocean/animals/octopus.jpg","[""ArrowLeft""]","revaluation","ocean","23","{""ArrowUp,ArrowLeft"":23,""ArrowUp,ArrowRight"":10,""ArrowDown,ArrowLeft"":8,""ArrowDown,ArrowRight"":30}","true","ArrowUp,ArrowLeft","","","","original","1","22","","",""
"html-keyboard-response","240","1102288","0.0-4.0-4.0-1.11","spark_pilot_2","7530","3","23","Female","","","","","","","null","<div style=""font-size:60px;"">+</div>","null","fixation","","","","","","","","","","","23","","",""
"revaluation","241","1106301","0.0-4.0-4.0-0.12","spark_pilot_2","7530","3","23","Female","","","false","","","","[660.8999999761581]","./assets/img/ocean/animals/seahorse.jpg","[""ArrowRight""]","revaluation","ocean","30","{""ArrowUp,ArrowLeft"":23,""ArrowUp,ArrowRight"":10,""ArrowDown,ArrowLeft"":8,""ArrowDown,ArrowRight"":30}","true","ArrowDown,ArrowRight","","","","original","1","24","","",""
"html-keyboard-response","242","1106814","0.0-4.0-4.0-1.12","spark_pilot_2","7530","3","23","Female","","","","","","","null","<div style=""font-size:60px;"">+</div>","null","fixation","","","","","","","","","","","25","","",""
"revaluation","243","1110839","0.0-4.0-4.0-0.13","spark_pilot_2","7530","3","23","Female","","","false","","","","[487.7999999523163]","./assets/img/ocean/animals/octopus.jpg","[""ArrowLeft""]","revaluation","ocean","23","{""ArrowUp,ArrowLeft"":23,""ArrowUp,ArrowRight"":10,""ArrowDown,ArrowLeft"":8,""ArrowDown,ArrowRight"":30}","true","ArrowUp,ArrowLeft","","","","original","1","26","","",""
"html-keyboard-response","244","1111343","0.0-4.0-4.0-1.13","spark_pilot_2","7530","3","23","Female","","","","","","","null","<div style=""font-size:60px;"">+</div>","null","fixation","","","","","","","","","","","27","","",""
"revaluation","245","1115351","0.0-4.0-4.0-0.14","spark_pilot_2","7530","3","23","Female","","","false","","","","[763.3999999761581]","./assets/img/ocean/animals/octopus.jpg","[""ArrowLeft""]","revaluation","ocean","23","{""ArrowUp,ArrowLeft"":23,""ArrowUp,ArrowRight"":10,""ArrowDown,ArrowLeft"":8,""ArrowDown,ArrowRight"":30}","true","ArrowUp,ArrowLeft","","","","original","1","28","","",""
"html-keyboard-response","246","1115862","0.0-4.0-4.0-1.14","spark_pilot_2","7530","3","23","Female","","","","","","","null","<div style=""font-size:60px;"">+</div>","null","fixation","","","","","","","","","","","29","","",""
"revaluation","247","1119884","0.0-4.0-4.0-0.15","spark_pilot_2","7530","3","23","Female","","","false","","","","[599.4000000953674]","./assets/img/ocean/animals/seahorse.jpg","[""ArrowRight""]","revaluation","ocean","30","{""ArrowUp,ArrowLeft"":23,""ArrowUp,ArrowRight"":10,""ArrowDown,ArrowLeft"":8,""ArrowDown,ArrowRight"":30}","true","ArrowDown,ArrowRight","","","","original","1","30","","",""
"html-keyboard-response","248","1120389","0.0-4.0-4.0-1.15","spark_pilot_2","7530","3","23","Female","","","","","","","null","<div style=""font-size:60px;"">+</div>","null","fixation","","","","","","","","","","","31","","",""
"revaluation","249","1124403","0.0-4.0-4.0-0.16","spark_pilot_2","7530","3","23","Female","","","false","","","","[607.3999999761581]","./assets/img/ocean/animals/octopus.jpg","[""ArrowLeft""]","revaluation","ocean","23","{""ArrowUp,ArrowLeft"":23,""ArrowUp,ArrowRight"":10,""ArrowDown,ArrowLeft"":8,""ArrowDown,ArrowRight"":30}","true","ArrowUp,ArrowLeft","","","","original","1","32","","",""
"html-keyboard-response","250","1124910","0.0-4.0-4.0-1.16","spark_pilot_2","7530","3","23","Female","","","","","","","null","<div style=""font-size:60px;"">+</div>","null","fixation","","","","","","","","","","","33","","",""
"revaluation","251","1128923","0.0-4.0-4.0-0.17","spark_pilot_2","7530","3","23","Female","","","false","","","","[450.2000000476837]","./assets/img/ocean/animals/seahorse.jpg","[""ArrowRight""]","revaluation","ocean","30","{""ArrowUp,ArrowLeft"":23,""ArrowUp,ArrowRight"":10,""ArrowDown,ArrowLeft"":8,""ArrowDown,ArrowRight"":30}","true","ArrowDown,ArrowRight","","","","original","1","34","","",""
"html-keyboard-response","252","1129429","0.0-4.0-4.0-1.17","spark_pilot_2","7530","3","23","Female","","","","","","","null","<div style=""font-size:60px;"">+</div>","null","fixation","","","","","","","","","","","35","","",""
"learning-instructions","253","1145338","0.0-4.0-5.0-0.0","spark_pilot_2","7530","3","23","Female","","","","","","","786.8999999761581","<p> Time to play the dot game! </p>
            <p> For one minute, click the red dots on the following screen as they appear. </p>
            <p><b> Don't look away, as you will earn bonus for clicking dots</b>. </p>","","instructions","","","","","","","","","","","","","",""
"revaluation","254","1205346","0.0-4.0-6.0-0.0","spark_pilot_2","7530","3","23","Female","","","","","","","[77,71,67,73,59,65]","","","rest","","60","","","","","0","60000","","","","","",""
"learning-instructions","255","1212542","0.0-4.0-7.0-0.0","spark_pilot_2","7530","3","23","Female","","","","","","","840.5","<p> You have almost finished this part of the game! </p>
            <p> We are going to ask you to make a few more choices. </p>","","instructions","","","","","","","","","","","","","",""
"learning-instructions","256","1227044","0.0-4.0-7.0-0.1","spark_pilot_2","7530","3","23","Female","","","","","","","533.5","<p> First, you need to decide whether to go up or down. When you see each picture, use the arrow keys to make your choice. </p>
            <p><b>You will not see which animal you found, but try to get to the one that will give you the most treasure.</b></p>","","instructions","","","","","","","","","","","","","",""
"revaluation","257","1228684","0.0-4.0-8.0-0.0","spark_pilot_2","7530","3","23","Female","","","false","","","","[1636.5]","./assets/img/ocean/test/3.jpg","[""ArrowDown""]","first stage test","ocean","0","{""ArrowUp,ArrowLeft"":23,""ArrowUp,ArrowRight"":10,""ArrowDown,ArrowLeft"":8,""ArrowDown,ArrowRight"":30}","true","ArrowDown","false","","","original","1","","","",""
"html-keyboard-response","258","1229188","0.0-4.0-8.0-1.0","spark_pilot_2","7530","3","23","Female","","","","","","","null","<div style=""font-size:60px;"">+</div>","null","fixation","","","","","","","","","","","","","",""
"revaluation","259","1230763","0.0-4.0-8.0-0.1","spark_pilot_2","7530","3","23","Female","","","false","","","","[1569.5]","./assets/img/ocean/test/1.jpg","[""ArrowDown""]","first stage test","ocean","0","{""ArrowUp,ArrowLeft"":23,""ArrowUp,ArrowRight"":10,""ArrowDown,ArrowLeft"":8,""ArrowDown,ArrowRight"":30}","true","ArrowDown","false","","","original","1","","","",""
"html-keyboard-response","260","1231269","0.0-4.0-8.0-1.1","spark_pilot_2","7530","3","23","Female","","","","","","","null","<div style=""font-size:60px;"">+</div>","null","fixation","","","","","","","","","","","","","",""
"revaluation","261","1232721","0.0-4.0-8.0-0.2","spark_pilot_2","7530","3","23","Female","","","false","","","","[1447.1000000238419]","./assets/img/ocean/test/2.jpg","[""ArrowDown""]","first stage test","ocean","0","{""ArrowUp,ArrowLeft"":23,""ArrowUp,ArrowRight"":10,""ArrowDown,ArrowLeft"":8,""ArrowDown,ArrowRight"":30}","true","ArrowDown","false","","","original","1","","","",""
"html-keyboard-response","262","1233230","0.0-4.0-8.0-1.2","spark_pilot_2","7530","3","23","Female","","","","","","","null","<div style=""font-size:60px;"">+</div>","null","fixation","","","","","","","","","","","","","",""
"revaluation","263","1234161","0.0-4.0-8.0-0.3","spark_pilot_2","7530","3","23","Female","","","false","","","","[925.3999999761581]","./assets/img/ocean/test/0.jpg","[""ArrowDown""]","first stage test","ocean","0","{""ArrowUp,ArrowLeft"":23,""ArrowUp,ArrowRight"":10,""ArrowDown,ArrowLeft"":8,""ArrowDown,ArrowRight"":30}","true","ArrowDown","false","","","original","1","","","",""
"html-keyboard-response","264","1234670","0.0-4.0-8.0-1.3","spark_pilot_2","7530","3","23","Female","","","","","","","null","<div style=""font-size:60px;"">+</div>","null","fixation","","","","","","","","","","","","","",""
"learning-instructions","265","1247012","0.0-4.0-9.0-0.0","spark_pilot_2","7530","3","23","Female","","","","","","","991.6000000238419","<p> Now you will see the animals again and can search their chests for treasure. </p>
            <p> This time, you will not see how much treasure you earned, but you will earn more bonus money for making better choices. </p>","","instructions","","","","","","","","","","","","","",""
"revaluation","266","1247402","0.0-4.0-10.0-0.0","spark_pilot_2","7530","3","23","Female","","","false","","","","[385.8000000715256]","./assets/img/ocean/animals/octopus.jpg","[""ArrowRight""]","second stage test","ocean","0","{""ArrowUp,ArrowLeft"":23,""ArrowUp,ArrowRight"":10,""ArrowDown,ArrowLeft"":8,""ArrowDown,ArrowRight"":30}","false","ArrowUp,ArrowRight","","","","original","1","","","",""
"html-keyboard-response","267","1247909","0.0-4.0-10.0-1.0","spark_pilot_2","7530","3","23","Female","","","","","","","null","<div style=""font-size:60px;"">+</div>","null","fixation","","","","","","","","","","","","","",""
"revaluation","268","1248581","0.0-4.0-10.0-0.1","spark_pilot_2","7530","3","23","Female","","","false","","","","[667]","./assets/img/ocean/animals/octopus.jpg","[""ArrowLeft""]","second stage test","ocean","0","{""ArrowUp,ArrowLeft"":23,""ArrowUp,ArrowRight"":10,""ArrowDown,ArrowLeft"":8,""ArrowDown,ArrowRight"":30}","true","ArrowUp,ArrowLeft","","","","original","1","","","",""
"html-keyboard-response","269","1249087","0.0-4.0-10.0-1.1","spark_pilot_2","7530","3","23","Female","","","","","","","null","<div style=""font-size:60px;"">+</div>","null","fixation","","","","","","","","","","","","","",""
"revaluation","270","1249794","0.0-4.0-10.0-0.2","spark_pilot_2","7530","3","23","Female","","","false","","","","[702.1000000238419]","./assets/img/ocean/animals/octopus.jpg","[""ArrowLeft""]","second stage test","ocean","0","{""ArrowUp,ArrowLeft"":23,""ArrowUp,ArrowRight"":10,""ArrowDown,ArrowLeft"":8,""ArrowDown,ArrowRight"":30}","true","ArrowUp,ArrowLeft","","","","original","1","","","",""
"html-keyboard-response","271","1250309","0.0-4.0-10.0-1.2","spark_pilot_2","7530","3","23","Female","","","","","","","null","<div style=""font-size:60px;"">+</div>","null","fixation","","","","","","","","","","","","","",""
"revaluation","272","1251063","0.0-4.0-10.0-0.3","spark_pilot_2","7530","3","23","Female","","","false","","","","[749.2000000476837]","./assets/img/ocean/animals/octopus.jpg","[""ArrowLeft""]","second stage test","ocean","0","{""ArrowUp,ArrowLeft"":23,""ArrowUp,ArrowRight"":10,""ArrowDown,ArrowLeft"":8,""ArrowDown,ArrowRight"":30}","true","ArrowUp,ArrowLeft","","","","original","1","","","",""
"html-keyboard-response","273","1251570","0.0-4.0-10.0-1.3","spark_pilot_2","7530","3","23","Female","","","","","","","null","<div style=""font-size:60px;"">+</div>","null","fixation","","","","","","","","","","","","","",""
"revaluation","274","1252234","0.0-4.0-10.0-0.4","spark_pilot_2","7530","3","23","Female","","","false","","","","[658.7000000476837]","./assets/img/ocean/animals/seahorse.jpg","[""ArrowRight""]","second stage test","ocean","0","{""ArrowUp,ArrowLeft"":23,""ArrowUp,ArrowRight"":10,""ArrowDown,ArrowLeft"":8,""ArrowDown,ArrowRight"":30}","true","ArrowDown,ArrowRight","","","","original","1","","","",""
"html-keyboard-response","275","1252738","0.0-4.0-10.0-1.4","spark_pilot_2","7530","3","23","Female","","","","","","","null","<div style=""font-size:60px;"">+</div>","null","fixation","","","","","","","","","","","","","",""
"revaluation","276","1253281","0.0-4.0-10.0-0.5","spark_pilot_2","7530","3","23","Female","","","false","","","","[538]","./assets/img/ocean/animals/seahorse.jpg","[""ArrowRight""]","second stage test","ocean","0","{""ArrowUp,ArrowLeft"":23,""ArrowUp,ArrowRight"":10,""ArrowDown,ArrowLeft"":8,""ArrowDown,ArrowRight"":30}","true","ArrowDown,ArrowRight","","","","original","1","","","",""
"html-keyboard-response","277","1253783","0.0-4.0-10.0-1.5","spark_pilot_2","7530","3","23","Female","","","","","","","null","<div style=""font-size:60px;"">+</div>","null","fixation","","","","","","","","","","","","","",""
"revaluation","278","1254372","0.0-4.0-10.0-0.6","spark_pilot_2","7530","3","23","Female","","","false","","","","[583.3999999761581]","./assets/img/ocean/animals/seahorse.jpg","[""ArrowRight""]","second stage test","ocean","0","{""ArrowUp,ArrowLeft"":23,""ArrowUp,ArrowRight"":10,""ArrowDown,ArrowLeft"":8,""ArrowDown,ArrowRight"":30}","true","ArrowDown,ArrowRight","","","","original","1","","","",""
"html-keyboard-response","279","1254878","0.0-4.0-10.0-1.6","spark_pilot_2","7530","3","23","Female","","","","","","","null","<div style=""font-size:60px;"">+</div>","null","fixation","","","","","","","","","","","","","",""
"revaluation","280","1255452","0.0-4.0-10.0-0.7","spark_pilot_2","7530","3","23","Female","","","false","","","","[567.5]","./assets/img/ocean/animals/seahorse.jpg","[""ArrowRight""]","second stage test","ocean","0","{""ArrowUp,ArrowLeft"":23,""ArrowUp,ArrowRight"":10,""ArrowDown,ArrowLeft"":8,""ArrowDown,ArrowRight"":30}","true","ArrowDown,ArrowRight","","","","original","1","","","",""
"html-keyboard-response","281","1255959","0.0-4.0-10.0-1.7","spark_pilot_2","7530","3","23","Female","","","","","","","null","<div style=""font-size:60px;"">+</div>","null","fixation","","","","","","","","","","","","","",""
"learning-instructions","282","1262324","0.0-4.0-0.1-0.2","spark_pilot_2","7530","3","23","Female","","","","","","","1923.5","<p> This time you are searching for treasure in the <b>canyon</b>.</p>","","instructions","","","","","","","","","","","","","",""
"learning-instructions","283","1280370","0.0-4.0-0.1-0.3","spark_pilot_2","7530","3","23","Female","","","","","","","788.8999999761581","<p><b>New</b> animals with <b>new</b> treasure chests live here. You need to explore to discover where the animal with the best treasure chest is.</p>
                    <p> Like before, once you figure out which animal has the chest with the most treasure, you should try to get to that animal and select that chest! </p>","","instructions","","","","","","","","","","","","","",""
"learning-instructions","284","1295912","0.0-4.0-1.1-0.1","spark_pilot_2","7530","3","23","Female","","","","","","","810.8999999761581","<p> Remember, when you see a picture of the place, use the up and down keys to <b>find an animal</b>.</p>
            <p> When you encounter an animal, you should use the left and right keys to <b>select a treasure chest</b>.</p>
            <p> Don't forget to look out for the robber! </p>","","instructions","","","","","","","","","","","","","",""
"revaluation","285","1301940","0.0-4.0-2.1-0.50","spark_pilot_2","7530","3","23","Female","","","false","","","","[916.5,722.3999999761581]","./assets/img/canyon/memory/40.jpg","[""ArrowUp"",""ArrowLeft""]","value training","canyon","26","{""ArrowUp,ArrowLeft"":26,""ArrowUp,ArrowRight"":10,""ArrowDown,ArrowLeft"":5,""ArrowDown,ArrowRight"":17}","true","ArrowUp,ArrowLeft","false","","","revaluation","2","0","","",""
"html-keyboard-response","286","1302450","0.0-4.0-2.1-1.50","spark_pilot_2","7530","3","23","Female","","","","","","","null","<div style=""font-size:60px;"">+</div>","null","fixation","","","","","","","","","","","1","","",""
"revaluation","287","1308470","0.0-4.0-2.1-0.51","spark_pilot_2","7530","3","23","Female","","","false","","","","[515.1000000238419,693.5]","./assets/img/canyon/memory/0.jpg","[""ArrowUp"",""ArrowRight""]","value training","canyon","10","{""ArrowUp,ArrowLeft"":26,""ArrowUp,ArrowRight"":10,""ArrowDown,ArrowLeft"":5,""ArrowDown,ArrowRight"":17}","false","ArrowUp,ArrowRight","false","","","revaluation","2","2","","",""
"html-keyboard-response","288","1308978","0.0-4.0-2.1-1.51","spark_pilot_2","7530","3","23","Female","","","","","","","null","<div style=""font-size:60px;"">+</div>","null","fixation","","","","","","","","","","","3","","",""
"revaluation","289","1315011","0.0-4.0-2.1-0.52","spark_pilot_2","7530","3","23","Female","","","false","","","","[956.3000000715256,572.0999999046326]","./assets/img/canyon/memory/35.jpg","[""ArrowDown"",""ArrowLeft""]","value training","canyon","5","{""ArrowUp,ArrowLeft"":26,""ArrowUp,ArrowRight"":10,""ArrowDown,ArrowLeft"":5,""ArrowDown,ArrowRight"":17}","false","ArrowDown,ArrowLeft","false","","","revaluation","2","4","","",""
"html-keyboard-response","290","1315515","0.0-4.0-2.1-1.52","spark_pilot_2","7530","3","23","Female","","","","","","","null","<div style=""font-size:60px;"">+</div>","null","fixation","","","","","","","","","","","5","","",""
"revaluation","291","1321540","0.0-4.0-2.1-0.53","spark_pilot_2","7530","3","23","Female","","","false","","","","[1034.2000000476837,412.60000002384186]","./assets/img/canyon/memory/26.jpg","[""ArrowDown"",""ArrowRight""]","value training","canyon","17","{""ArrowUp,ArrowLeft"":26,""ArrowUp,ArrowRight"":10,""ArrowDown,ArrowLeft"":5,""ArrowDown,ArrowRight"":17}","false","ArrowDown,ArrowRight","false","","","revaluation","2","6","","",""
"html-keyboard-response","292","1322050","0.0-4.0-2.1-1.53","spark_pilot_2","7530","3","23","Female","","","","","","","null","<div style=""font-size:60px;"">+</div>","null","fixation","","","","","","","","","","","7","","",""
"revaluation","293","1328079","0.0-4.0-2.1-0.54","spark_pilot_2","7530","3","23","Female","","","false","","","","[733.6000000238419,693.1000000238419]","./assets/img/canyon/memory/38.jpg","[""ArrowUp"",""ArrowLeft""]","value training","canyon","26","{""ArrowUp,ArrowLeft"":26,""ArrowUp,ArrowRight"":10,""ArrowDown,ArrowLeft"":5,""ArrowDown,ArrowRight"":17}","true","ArrowUp,ArrowLeft","false","","","revaluation","2","8","","",""
"html-keyboard-response","294","1328581","0.0-4.0-2.1-1.54","spark_pilot_2","7530","3","23","Female","","","","","","","null","<div style=""font-size:60px;"">+</div>","null","fixation","","","","","","","","","","","9","","",""
"revaluation","295","1334603","0.0-4.0-2.1-0.55","spark_pilot_2","7530","3","23","Female","","","false","","","","[992.6000000238419,480.6999999284744]","./assets/img/canyon/memory/34.jpg","[""ArrowUp"",""ArrowRight""]","value training","canyon","10","{""ArrowUp,ArrowLeft"":26,""ArrowUp,ArrowRight"":10,""ArrowDown,ArrowLeft"":5,""ArrowDown,ArrowRight"":17}","false","ArrowUp,ArrowRight","false","","","revaluation","2","10","","",""
"html-keyboard-response","296","1335112","0.0-4.0-2.1-1.55","spark_pilot_2","7530","3","23","Female","","","","","","","null","<div style=""font-size:60px;"">+</div>","null","fixation","","","","","","","","","","","11","","",""
"revaluation","297","1339135","0.0-4.0-2.1-0.56","spark_pilot_2","7530","3","23","Female","","","false","","","","[1044.7999999523163]","./assets/img/canyon/catch/6.jpg","[""spaceBar""]","value training","canyon","0","{""ArrowUp,ArrowLeft"":26,""ArrowUp,ArrowRight"":10,""ArrowDown,ArrowLeft"":5,""ArrowDown,ArrowRight"":17}","true","spaceBar","true","","","revaluation","2","12","","",""
"html-keyboard-response","298","1339638","0.0-4.0-2.1-1.56","spark_pilot_2","7530","3","23","Female","","","","","","","null","<div style=""font-size:60px;"">+</div>","null","fixation","","","","","","","","","","","13","","",""
"revaluation","299","1345659","0.0-4.0-2.1-0.57","spark_pilot_2","7530","3","23","Female","","","false","","","","[988.1999999284744,855.8999999761581]","./assets/img/canyon/memory/14.jpg","[""ArrowDown"",""ArrowLeft""]","value training","canyon","5","{""ArrowUp,ArrowLeft"":26,""ArrowUp,ArrowRight"":10,""ArrowDown,ArrowLeft"":5,""ArrowDown,ArrowRight"":17}","false","ArrowDown,ArrowLeft","false","","","revaluation","2","14","","",""
"html-keyboard-response","300","1346166","0.0-4.0-2.1-1.57","spark_pilot_2","7530","3","23","Female","","","","","","","null","<div style=""font-size:60px;"">+</div>","null","fixation","","","","","","","","","","","15","","",""
"revaluation","301","1352197","0.0-4.0-2.1-0.58","spark_pilot_2","7530","3","23","Female","","","false","","","","[313.7000000476837,492.6999999284744]","./assets/img/canyon/memory/32.jpg","[""ArrowDown"",""ArrowRight""]","value training","canyon","17","{""ArrowUp,ArrowLeft"":26,""ArrowUp,ArrowRight"":10,""ArrowDown,ArrowLeft"":5,""ArrowDown,ArrowRight"":17}","false","ArrowDown,ArrowRight","false","","","revaluation","2","16","","",""
"html-keyboard-response","302","1352703","0.0-4.0-2.1-1.58","spark_pilot_2","7530","3","23","Female","","","","","","","null","<div style=""font-size:60px;"">+</div>","null","fixation","","","","","","","","","","","17","","",""
"revaluation","303","1356722","0.0-4.0-2.1-0.59","spark_pilot_2","7530","3","23","Female","","","false","","","","[660.1999999284744]","./assets/img/canyon/catch/1.jpg","[""spaceBar""]","value training","canyon","0","{""ArrowUp,ArrowLeft"":26,""ArrowUp,ArrowRight"":10,""ArrowDown,ArrowLeft"":5,""ArrowDown,ArrowRight"":17}","true","spaceBar","true","","","revaluation","2","18","","",""
"html-keyboard-response","304","1357234","0.0-4.0-2.1-1.59","spark_pilot_2","7530","3","23","Female","","","","","","","null","<div style=""font-size:60px;"">+</div>","null","fixation","","","","","","","","","","","19","","",""
