"trial_type","trial_index","time_elapsed","internal_node_id","task_version","subject_id","assigned_condition","age","gender","success","timeout","failed_images","failed_audio","failed_video","browser_interaction","rt","stimulus","response","task_part","environment","score","rewardMap","correct","fullState","isCatch","numberMissed","duration","condition","order","trial_num","key_press","ground_truth","bonus"
"pavlovia","0","1716","0.0-0.0","spark_pilot_2","7969","6","14","Female","","","","","","","","","","","","","","","","","","","","","","","",""
"preload","1","23620","0.0-1.0","spark_pilot_2","7969","6","14","Female","true","false","[]","[]","[]","[{""event"":""fullscreenenter"",""trial"":2,""time"":30185}]","","","","","","","","","","","","","","","","","",""
"fullscreen","2","31172","0.0-2.0","spark_pilot_2","7969","6","14","Female","true","","","","","","","","","","","","","","","","","","","","","","",""
"audio-button-response","3","33979","0.0-3.0-0.0-0.0","spark_pilot_2","7969","6","14","Female","","","","","","","2688","./assets/audio/audiotest/turtle.mp3","2","audio_test","","","","","","","","","","","","","",""
"learning-instructions","4","42630","0.0-3.0-1.0-0.0","spark_pilot_2","7969","6","14","Female","","","","","","","1645.5999999996275","<p> Welcome! Please remember to stay in fullscreen mode and don't click away from the experiment. </p>","","instructions","","","","","","","","","","","","","",""
"learning-instructions","5","53760","0.0-3.0-1.0-0.1","spark_pilot_2","7969","6","14","Female","","","","","","","2696","<p> Today you will be playing a game to earn treasure. </p>
            <p> At the end of the experiment, you will earn a bonus based on how much treasure you find. </p>
            <img src='./assets/img/instructions/treasure.jpg' class='instructions-image'>","","instructions","","","","","","","","","","","","","",""
"learning-instructions","6","64783","0.0-3.0-1.0-0.2","spark_pilot_2","7969","6","14","Female","","","","","","","2732.39999999851","<p> Animals have hidden treasure in treasure chests. </p>
            <p> You need to first find an animal and then choose which of their treasure chests to search. </p>
            <img src='./assets/img/space/animals/cat.jpg' class='instructions-image'>","","instructions","","","","","","","","","","","","","",""
"learning-instructions","7","80517","0.0-3.0-1.0-0.3","spark_pilot_2","7969","6","14","Female","","","","","","","2540.800000000745","<p> In each round, you will search for treasure in a different place. In the real game, there will be two rounds. </p>
            <p> You will begin with a separate, practice round where you will search for treasure in outer space. </p>
            <img src='./assets/img/space/0.jpg' class='instructions-image'>","","instructions","","","","","","","","","","","","","",""
"learning-instructions","8","92871","0.0-3.0-1.0-0.4","spark_pilot_2","7969","6","14","Female","","","","","","","900.1999999992549","<p> On every turn, you will see a picture of the place that you are in, but the specific image may be different each time. </p>
            <p> For example, both of these images mean you are in outer space. </p>
            <img src='./assets/img/instructions/outerspace.jpg' class='instructions-image'>","","instructions","","","","","","","","","","","","","",""
"learning-instructions","9","103106","0.0-3.0-1.0-0.5","spark_pilot_2","7969","6","14","Female","","","","","","","2377","<p> You need to decide which direction to travel in. </p>
            <p> You can choose between going <b>up or down</b> by using the arrow keys. </p>
            <img src='./assets/img/instructions/updown.jpg' class='instructions-image'>","","instructions","","","","","","","","","","","","","",""
"learning-instructions","10","112807","0.0-3.0-1.0-0.6","spark_pilot_2","7969","6","14","Female","","","","","","","857","<p> You will have <b>2 seconds</b> to make your choice. </p>
            <p> If you do not make a choice within 2 seconds, you will not find an animal or earn treasure. </p>
            <img src='./assets/img/instructions/2seconds.jpg' class='instructions-image'>","","instructions","","","","","","","","","","","","","",""
"learning-instructions","11","120930","0.0-3.0-1.0-0.7","spark_pilot_2","7969","6","14","Female","","","","","","","1054","<p> Let’s try practicing that now! </p>
            <p> When you see a picture of the place you are in, press the <b>up</b> key to travel up. </p>
            <img src='./assets/img/instructions/pressUp.jpg' class='instructions-image'>","","instructions","","","","","","","","","","","","","",""
"revaluation","12","124965","0.0-3.0-2.0-0.0","spark_pilot_2","7969","6","14","Female","","false","","","","","[1248.0999999996275]","./assets/img/space/0.jpg","[""ArrowUp""]","first stage practice","space","0","null","null","ArrowUp","false","","","","","","","",""
"html-keyboard-response","13","125468","0.0-3.0-2.0-1.0","spark_pilot_2","7969","6","14","Female","","","","","","","null","<div style=""font-size:60px;"">+</div>","null","fixation","","","","","","","","","","","","","",""
"revaluation","14","129485","0.0-3.0-2.0-0.1","spark_pilot_2","7969","6","14","Female","","false","","","","","[1141.699999999255]","./assets/img/space/1.jpg","[""ArrowUp""]","first stage practice","space","0","null","null","ArrowUp","false","","","","","","","",""
"html-keyboard-response","15","129988","0.0-3.0-2.0-1.1","spark_pilot_2","7969","6","14","Female","","","","","","","null","<div style=""font-size:60px;"">+</div>","null","fixation","","","","","","","","","","","","","",""
"revaluation","16","134004","0.0-3.0-2.0-0.2","spark_pilot_2","7969","6","14","Female","","false","","","","","[647.3000000007451]","./assets/img/space/2.jpg","[""ArrowUp""]","first stage practice","space","0","null","null","ArrowUp","false","","","","","","","",""
"html-keyboard-response","17","134508","0.0-3.0-2.0-1.2","spark_pilot_2","7969","6","14","Female","","","","","","","null","<div style=""font-size:60px;"">+</div>","null","fixation","","","","","","","","","","","","","",""
"learning-instructions","18","141488","0.0-3.0-3.0-0.0","spark_pilot_2","7969","6","14","Female","","","","","","","2263.5999999996275","<p> Great job! Now try pressing the <b>down</b> key to travel down. </p>
            <img src='./assets/img/instructions/pressDown.jpg' class='instructions-image'>","","instructions","","","","","","","","","","","","","",""
"revaluation","19","145500","0.0-3.0-4.0-0.0","spark_pilot_2","7969","6","14","Female","","false","","","","","[1604]","./assets/img/space/3.jpg","[""ArrowDown""]","first stage practice","space","0","null","null","ArrowDown","false","","","","","","","",""
"html-keyboard-response","20","146003","0.0-3.0-4.0-1.0","spark_pilot_2","7969","6","14","Female","","","","","","","null","<div style=""font-size:60px;"">+</div>","null","fixation","","","","","","","","","","","","","",""
"revaluation","21","150020","0.0-3.0-4.0-0.1","spark_pilot_2","7969","6","14","Female","","true","","","","","[]","./assets/img/space/4.jpg","[]","first stage practice","space","-5","null","null","","false","","","","","","","",""
"html-keyboard-response","22","150524","0.0-3.0-4.0-1.1","spark_pilot_2","7969","6","14","Female","","","","","","","null","<div style=""font-size:60px;"">+</div>","null","fixation","","","","","","","","","","","","","",""
"revaluation","23","154541","0.0-3.0-4.0-0.2","spark_pilot_2","7969","6","14","Female","","false","","","","","[1735.3999999985099]","./assets/img/space/5.jpg","[""ArrowDown""]","first stage practice","space","0","null","null","ArrowDown","false","","","","","","","",""
"html-keyboard-response","24","155044","0.0-3.0-4.0-1.2","spark_pilot_2","7969","6","14","Female","","","","","","","null","<div style=""font-size:60px;"">+</div>","null","fixation","","","","","","","","","","","","","",""
"learning-instructions","25","167421","0.0-3.0-5.0-0.0","spark_pilot_2","7969","6","14","Female","","","","","","","2489.0999999996275","<p> The animals don’t move, so the animal in the upper part of a place will stay in the upper part of a place, and the animal in the lower part of a place will stay in the lower part of a place. </p>","","instructions","","","","","","","","","","","","","",""
"learning-instructions","26","177422","0.0-3.0-5.0-0.1","spark_pilot_2","7969","6","14","Female","","","","","","","810.8000000007451","<p> Each animal has two treasure chests for you to choose from. </p>
            <p> The amount of treasure in each chest can range from <b> 0 to 40 pieces.</b></p>","","instructions","","","","","","","","","","","","","",""
"learning-instructions","27","189204","0.0-3.0-5.0-0.2","spark_pilot_2","7969","6","14","Female","","","","","","","549.4000000003725","<p> You should decide which chest to search for treasure by using the <b>left</b> and <b>right</b> arrow keys. </p>
            <p><b> Pay attention to which animal is on the screen, as the animals have different treasure chests. </b></p>
            <img src='./assets/img/instructions/leftright.jpg' class='instructions-image'>","","instructions","","","","","","","","","","","","","",""
"learning-instructions","28","196655","0.0-3.0-5.0-0.3","spark_pilot_2","7969","6","14","Female","","","","","","","1056.2000000011176","<p> Let’s try practicing that now. </p>
            <p> When you see an animal, choose which chest to search for treasure. </p>
            <img src='./assets/img/instructions/chooseChest.jpg' class='instructions-image'>","","instructions","","","","","","","","","","","","","",""
"revaluation","29","200672","0.0-3.0-6.0-0.0","spark_pilot_2","7969","6","14","Female","","false","","","","","[1077.4000000003725]","./assets/img/space/animals/rabbit.jpg","[""ArrowRight""]","second stage practice","space","23","{""ArrowUp,ArrowLeft"":3,""ArrowUp,ArrowRight"":36,""ArrowDown,ArrowLeft"":15,""ArrowDown,ArrowRight"":23}","true","ArrowDown,ArrowRight","","","","","","","","",""
"html-keyboard-response","30","201179","0.0-3.0-6.0-1.0","spark_pilot_2","7969","6","14","Female","","","","","","","null","<div style=""font-size:60px;"">+</div>","null","fixation","","","","","","","","","","","","","",""
"revaluation","31","205197","0.0-3.0-6.0-0.1","spark_pilot_2","7969","6","14","Female","","false","","","","","[1234.0999999996275]","./assets/img/space/animals/cat.jpg","[""ArrowLeft""]","second stage practice","space","3","{""ArrowUp,ArrowLeft"":3,""ArrowUp,ArrowRight"":36,""ArrowDown,ArrowLeft"":15,""ArrowDown,ArrowRight"":23}","false","ArrowUp,ArrowLeft","","","","","","","","",""
"html-keyboard-response","32","205700","0.0-3.0-6.0-1.1","spark_pilot_2","7969","6","14","Female","","","","","","","null","<div style=""font-size:60px;"">+</div>","null","fixation","","","","","","","","","","","","","",""
"revaluation","33","209717","0.0-3.0-6.0-0.2","spark_pilot_2","7969","6","14","Female","","false","","","","","[1170.3999999985099]","./assets/img/space/animals/rabbit.jpg","[""ArrowLeft""]","second stage practice","space","15","{""ArrowUp,ArrowLeft"":3,""ArrowUp,ArrowRight"":36,""ArrowDown,ArrowLeft"":15,""ArrowDown,ArrowRight"":23}","false","ArrowDown,ArrowLeft","","","","","","","","",""
"html-keyboard-response","34","210220","0.0-3.0-6.0-1.2","spark_pilot_2","7969","6","14","Female","","","","","","","null","<div style=""font-size:60px;"">+</div>","null","fixation","","","","","","","","","","","","","",""
"revaluation","35","214236","0.0-3.0-6.0-0.3","spark_pilot_2","7969","6","14","Female","","false","","","","","[978.8000000007451]","./assets/img/space/animals/cat.jpg","[""ArrowRight""]","second stage practice","space","36","{""ArrowUp,ArrowLeft"":3,""ArrowUp,ArrowRight"":36,""ArrowDown,ArrowLeft"":15,""ArrowDown,ArrowRight"":23}","true","ArrowUp,ArrowRight","","","","","","","","",""
"html-keyboard-response","36","214740","0.0-3.0-6.0-1.3","spark_pilot_2","7969","6","14","Female","","","","","","","null","<div style=""font-size:60px;"">+</div>","null","fixation","","","","","","","","","","","","","",""
"learning-instructions","37","233034","0.0-3.0-7.0-0.0","spark_pilot_2","7969","6","14","Female","","","","","","","1425.9000000003725","<p> Great job. Now let’s try putting it together. </p>
            <p> On each turn, you will first see a picture to remind you of the place you are in, and you need to choose whether to go up or down. </p>
            <p> Then you will see an animal and choose which of its chests to search for treasure. </p>","","instructions","","","","","","","","","","","","","",""
"learning-instructions","38","242065","0.0-3.0-7.0-0.1","spark_pilot_2","7969","6","14","Female","","","","","","","739.5999999996275","<p> When you choose whether to go up or down, try to go to the animal with the chest with the most treasure. </p>
            <p> Try practicing that now! </p>","","instructions","","","","","","","","","","","","","",""
"revaluation","39","248092","0.0-3.0-8.0-0.0","spark_pilot_2","7969","6","14","Female","","false","","","","","[790.2000000011176,850.5]","./assets/img/space/6.jpg","[""ArrowUp"",""ArrowRight""]","full practice","space","36","{""ArrowUp,ArrowLeft"":3,""ArrowUp,ArrowRight"":36,""ArrowDown,ArrowLeft"":15,""ArrowDown,ArrowRight"":23}","true","ArrowUp,ArrowRight","false","","","","","","","",""
"html-keyboard-response","40","248596","0.0-3.0-8.0-1.0","spark_pilot_2","7969","6","14","Female","","","","","","","null","<div style=""font-size:60px;"">+</div>","null","fixation","","","","","","","","","","","","","",""
"revaluation","41","254620","0.0-3.0-8.0-0.1","spark_pilot_2","7969","6","14","Female","","false","","","","","[1026.5,1214.800000000745]","./assets/img/space/7.jpg","[""ArrowDown"",""ArrowLeft""]","full practice","space","15","{""ArrowUp,ArrowLeft"":3,""ArrowUp,ArrowRight"":36,""ArrowDown,ArrowLeft"":15,""ArrowDown,ArrowRight"":23}","false","ArrowDown,ArrowLeft","false","","","","","","","",""
"html-keyboard-response","42","255124","0.0-3.0-8.0-1.1","spark_pilot_2","7969","6","14","Female","","","","","","","null","<div style=""font-size:60px;"">+</div>","null","fixation","","","","","","","","","","","","","",""
"revaluation","43","261148","0.0-3.0-8.0-0.2","spark_pilot_2","7969","6","14","Female","","false","","","","","[916.4000000003725,923.1999999992549]","./assets/img/space/8.jpg","[""ArrowUp"",""ArrowRight""]","full practice","space","36","{""ArrowUp,ArrowLeft"":3,""ArrowUp,ArrowRight"":36,""ArrowDown,ArrowLeft"":15,""ArrowDown,ArrowRight"":23}","true","ArrowUp,ArrowRight","false","","","","","","","",""
"html-keyboard-response","44","261652","0.0-3.0-8.0-1.2","spark_pilot_2","7969","6","14","Female","","","","","","","null","<div style=""font-size:60px;"">+</div>","null","fixation","","","","","","","","","","","","","",""
"revaluation","45","267676","0.0-3.0-8.0-0.3","spark_pilot_2","7969","6","14","Female","","false","","","","","[702.6999999992549,1035.0999999996275]","./assets/img/space/9.jpg","[""ArrowDown"",""ArrowRight""]","full practice","space","23","{""ArrowUp,ArrowLeft"":3,""ArrowUp,ArrowRight"":36,""ArrowDown,ArrowLeft"":15,""ArrowDown,ArrowRight"":23}","false","ArrowDown,ArrowRight","false","","","","","","","",""
"html-keyboard-response","46","268180","0.0-3.0-8.0-1.3","spark_pilot_2","7969","6","14","Female","","","","","","","null","<div style=""font-size:60px;"">+</div>","null","fixation","","","","","","","","","","","","","",""
"revaluation","47","274204","0.0-3.0-8.0-0.4","spark_pilot_2","7969","6","14","Female","","false","","","","","[634.0999999996275,529.5]","./assets/img/space/10.jpg","[""ArrowUp"",""ArrowRight""]","full practice","space","36","{""ArrowUp,ArrowLeft"":3,""ArrowUp,ArrowRight"":36,""ArrowDown,ArrowLeft"":15,""ArrowDown,ArrowRight"":23}","true","ArrowUp,ArrowRight","false","","","","","","","",""
"html-keyboard-response","48","274708","0.0-3.0-8.0-1.4","spark_pilot_2","7969","6","14","Female","","","","","","","null","<div style=""font-size:60px;"">+</div>","null","fixation","","","","","","","","","","","","","",""
"learning-instructions","49","286605","0.0-3.0-9.0-0.0","spark_pilot_2","7969","6","14","Female","","","","","","","1561.7999999988824","<p> One last thing: sometimes, you will see a robber. The robber can be anywhere in the picture. </p>
            <p> If you do not stop them, you will lose treasure. </p>
            <img src='./assets/img/instructions/robber.jpg' class='instructions-image'>","","instructions","","","","","","","","","","","","","",""
"learning-instructions","50","294385","0.0-3.0-9.0-0.1","spark_pilot_2","7969","6","14","Female","","","","","","","586.5999999996275","<p> If you see the robber, you should <b>press the space bar</b> rather than using the arrow keys. </p>
            <p> Try practicing that now! </p>","","instructions","","","","","","","","","","","","","",""
"revaluation","51","298404","0.0-3.0-10.0-0.0","spark_pilot_2","7969","6","14","Female","","false","","","","","[1619.300000000745]","./assets/img/space/catch/0.jpg","[""spaceBar""]","catch practice","space","0","{""ArrowUp,ArrowLeft"":3,""ArrowUp,ArrowRight"":36,""ArrowDown,ArrowLeft"":15,""ArrowDown,ArrowRight"":23}","true","spaceBar","true","","","","","","","",""
"html-keyboard-response","52","298908","0.0-3.0-10.0-1.0","spark_pilot_2","7969","6","14","Female","","","","","","","null","<div style=""font-size:60px;"">+</div>","null","fixation","","","","","","","","","","","","","",""
"revaluation","53","302924","0.0-3.0-10.0-0.1","spark_pilot_2","7969","6","14","Female","","false","","","","","[1087.7999999988824]","./assets/img/space/catch/1.jpg","[""spaceBar""]","catch practice","space","0","{""ArrowUp,ArrowLeft"":3,""ArrowUp,ArrowRight"":36,""ArrowDown,ArrowLeft"":15,""ArrowDown,ArrowRight"":23}","true","spaceBar","true","","","","","","","",""
"html-keyboard-response","54","303428","0.0-3.0-10.0-1.1","spark_pilot_2","7969","6","14","Female","","","","","","","null","<div style=""font-size:60px;"">+</div>","null","fixation","","","","","","","","","","","","","",""
"revaluation","55","307444","0.0-3.0-10.0-0.2","spark_pilot_2","7969","6","14","Female","","false","","","","","[713.6999999992549]","./assets/img/space/catch/2.jpg","[""spaceBar""]","catch practice","space","0","{""ArrowUp,ArrowLeft"":3,""ArrowUp,ArrowRight"":36,""ArrowDown,ArrowLeft"":15,""ArrowDown,ArrowRight"":23}","true","spaceBar","true","","","","","","","",""
"html-keyboard-response","56","307948","0.0-3.0-10.0-1.2","spark_pilot_2","7969","6","14","Female","","","","","","","null","<div style=""font-size:60px;"">+</div>","null","fixation","","","","","","","","","","","","","",""
"learning-instructions","57","323551","0.0-3.0-11.0-0.0","spark_pilot_2","7969","6","14","Female","","","","","","","1570.7999999988824","<p> After you explore a place to find treasure, it will be time to play a different game. </p>
            <p> During this game, red dots will appear on the screen and fall down slowly. </p>
            <p><b> You must click on them before they reach the bottom. </b></p>
            <img src='./assets/img/instructions/dotGame.jpg' class='instructions-image'>","","instructions","","","","","","","","","","","","","",""
"learning-instructions","58","330204","0.0-3.0-11.0-0.1","spark_pilot_2","7969","6","14","Female","","","","","","","949.8000000007451","<p> For every dot you click, you will earn additional treasure. </p>
            <p> Let’s try practicing that now. </p>","","instructions","","","","","","","","","","","","","",""
"revaluation","59","345216","0.0-3.0-12.0-0.0","spark_pilot_2","7969","6","14","Female","","","","","","","[145]","","","rest practice","","10","","","","","0","15000","","","","","",""
"learning-instructions","60","352128","0.0-3.0-13.0-0.0-0.0","spark_pilot_2","7969","6","14","Female","","","","","","","1476.4000000003725","<p> Now, you will practice a shortened version of the game to get a sense of how it all fits together. </p>","","instructions","","","","","","","","","","","","","",""
"learning-instructions","61","356309","0.0-3.0-13.0-0.0-0.1","spark_pilot_2","7969","6","14","Female","","","","","","","964","<p>This time you are searching for treasure in outer space.</p>","","instructions","","","","","","","","","","","","","",""
"learning-instructions","62","373364","0.0-3.0-13.0-1.0-0.0","spark_pilot_2","7969","6","14","Female","","","","","","","2253.4000000003725","<p> Remember, when you see a picture of the place, use the up and down keys to <b>find an animal</b>.</p>
            <p> When you encounter an animal, you should use the left and right keys to <b>select a treasure chest</b>.</p>
            <p> Don't forget to look out for the robber! </p>","","instructions","","","","","","","","","","","","","",""
"revaluation","63","379388","0.0-3.0-13.0-2.0-0.0","spark_pilot_2","7969","6","14","Female","","false","","","","","[1603.199999999255,551.6999999992549]","./assets/img/space/11.jpg","[""ArrowUp"",""ArrowRight""]","practice block","space","36","{""ArrowUp,ArrowLeft"":3,""ArrowUp,ArrowRight"":36,""ArrowDown,ArrowLeft"":15,""ArrowDown,ArrowRight"":23}","true","ArrowUp,ArrowRight","false","","","","","","","",""
"html-keyboard-response","64","379892","0.0-3.0-13.0-2.0-1.0","spark_pilot_2","7969","6","14","Female","","","","","","","null","<div style=""font-size:60px;"">+</div>","null","fixation","","","","","","","","","","","","","",""
"revaluation","65","385916","0.0-3.0-13.0-2.0-0.1","spark_pilot_2","7969","6","14","Female","","false","","","","","[1664.0999999996275,454.19999999925494]","./assets/img/space/12.jpg","[""ArrowUp"",""ArrowRight""]","practice block","space","36","{""ArrowUp,ArrowLeft"":3,""ArrowUp,ArrowRight"":36,""ArrowDown,ArrowLeft"":15,""ArrowDown,ArrowRight"":23}","true","ArrowUp,ArrowRight","false","","","","","","","",""
"html-keyboard-response","66","386420","0.0-3.0-13.0-2.0-1.1","spark_pilot_2","7969","6","14","Female","","","","","","","null","<div style=""font-size:60px;"">+</div>","null","fixation","","","","","","","","","","","","","",""
"revaluation","67","392444","0.0-3.0-13.0-2.0-0.2","spark_pilot_2","7969","6","14","Female","","false","","","","","[1481.300000000745,587.4000000003725]","./assets/img/space/13.jpg","[""ArrowUp"",""ArrowRight""]","practice block","space","36","{""ArrowUp,ArrowLeft"":3,""ArrowUp,ArrowRight"":36,""ArrowDown,ArrowLeft"":15,""ArrowDown,ArrowRight"":23}","true","ArrowUp,ArrowRight","false","","","","","","","",""
"html-keyboard-response","68","392948","0.0-3.0-13.0-2.0-1.2","spark_pilot_2","7969","6","14","Female","","","","","","","null","<div style=""font-size:60px;"">+</div>","null","fixation","","","","","","","","","","","","","",""
"revaluation","69","398972","0.0-3.0-13.0-2.0-0.3","spark_pilot_2","7969","6","14","Female","","false","","","","","[1570.800000000745,524.6999999992549]","./assets/img/space/14.jpg","[""ArrowUp"",""ArrowRight""]","practice block","space","36","{""ArrowUp,ArrowLeft"":3,""ArrowUp,ArrowRight"":36,""ArrowDown,ArrowLeft"":15,""ArrowDown,ArrowRight"":23}","true","ArrowUp,ArrowRight","false","","","","","","","",""
"html-keyboard-response","70","399476","0.0-3.0-13.0-2.0-1.3","spark_pilot_2","7969","6","14","Female","","","","","","","null","<div style=""font-size:60px;"">+</div>","null","fixation","","","","","","","","","","","","","",""
"revaluation","71","403492","0.0-3.0-13.0-2.0-0.4","spark_pilot_2","7969","6","14","Female","","true","","","","","[]","./assets/img/space/11.jpg","[]","practice block","space","-5","{""ArrowUp,ArrowLeft"":3,""ArrowUp,ArrowRight"":36,""ArrowDown,ArrowLeft"":15,""ArrowDown,ArrowRight"":23}","false","","false","","","","","","","",""
"html-keyboard-response","72","403995","0.0-3.0-13.0-2.0-1.4","spark_pilot_2","7969","6","14","Female","","","","","","","null","<div style=""font-size:60px;"">+</div>","null","fixation","","","","","","","","","","","","","",""
"revaluation","73","410020","0.0-3.0-13.0-2.0-0.5","spark_pilot_2","7969","6","14","Female","","false","","","","","[1547.800000000745,458.8999999985099]","./assets/img/space/12.jpg","[""ArrowUp"",""ArrowRight""]","practice block","space","36","{""ArrowUp,ArrowLeft"":3,""ArrowUp,ArrowRight"":36,""ArrowDown,ArrowLeft"":15,""ArrowDown,ArrowRight"":23}","true","ArrowUp,ArrowRight","false","","","","","","","",""
"html-keyboard-response","74","410524","0.0-3.0-13.0-2.0-1.5","spark_pilot_2","7969","6","14","Female","","","","","","","null","<div style=""font-size:60px;"">+</div>","null","fixation","","","","","","","","","","","","","",""
"revaluation","75","416548","0.0-3.0-13.0-2.0-0.6","spark_pilot_2","7969","6","14","Female","","false","","","","","[873.1000000014901,611]","./assets/img/space/13.jpg","[""ArrowUp"",""ArrowRight""]","practice block","space","36","{""ArrowUp,ArrowLeft"":3,""ArrowUp,ArrowRight"":36,""ArrowDown,ArrowLeft"":15,""ArrowDown,ArrowRight"":23}","true","ArrowUp,ArrowRight","false","","","","","","","",""
"html-keyboard-response","76","417051","0.0-3.0-13.0-2.0-1.6","spark_pilot_2","7969","6","14","Female","","","","","","","null","<div style=""font-size:60px;"">+</div>","null","fixation","","","","","","","","","","","","","",""
"revaluation","77","423077","0.0-3.0-13.0-2.0-0.7","spark_pilot_2","7969","6","14","Female","","false","","","","","[737.3999999985099,388.8999999985099]","./assets/img/space/14.jpg","[""ArrowUp"",""ArrowRight""]","practice block","space","36","{""ArrowUp,ArrowLeft"":3,""ArrowUp,ArrowRight"":36,""ArrowDown,ArrowLeft"":15,""ArrowDown,ArrowRight"":23}","true","ArrowUp,ArrowRight","false","","","","","","","",""
"html-keyboard-response","78","423579","0.0-3.0-13.0-2.0-1.7","spark_pilot_2","7969","6","14","Female","","","","","","","null","<div style=""font-size:60px;"">+</div>","null","fixation","","","","","","","","","","","","","",""
"revaluation","79","427596","0.0-3.0-13.0-2.0-0.8","spark_pilot_2","7969","6","14","Female","","false","","","","","[760.5]","./assets/img/space/catch/3.jpg","[""spaceBar""]","practice block","space","0","{""ArrowUp,ArrowLeft"":3,""ArrowUp,ArrowRight"":36,""ArrowDown,ArrowLeft"":15,""ArrowDown,ArrowRight"":23}","true","spaceBar","true","","","","","","","",""
"html-keyboard-response","80","428100","0.0-3.0-13.0-2.0-1.8","spark_pilot_2","7969","6","14","Female","","","","","","","null","<div style=""font-size:60px;"">+</div>","null","fixation","","","","","","","","","","","","","",""
"learning-instructions","81","442540","0.0-3.0-13.0-3.0-0.0","spark_pilot_2","7969","6","14","Female","","","","","","","1403.300000000745","<p> Now, you will travel with a friend who will choose whether you go up or down first. </p>
            <p> On these turns, you will just see the animal that they found. You will still get to choose which chest to search for treasure.</p>","","instructions","","","","","","","","","","","","","",""
"revaluation","82","446556","0.0-3.0-13.0-4.0-0.0","spark_pilot_2","7969","6","14","Female","","false","","","","","[979.5]","./assets/img/space/animals/cat.jpg","[""ArrowRight""]","practice block","space","36","{""ArrowUp,ArrowLeft"":3,""ArrowUp,ArrowRight"":36,""ArrowDown,ArrowLeft"":15,""ArrowDown,ArrowRight"":23}","true","ArrowUp,ArrowRight","","","","","","","","",""
"html-keyboard-response","83","447060","0.0-3.0-13.0-4.0-1.0","spark_pilot_2","7969","6","14","Female","","","","","","","null","<div style=""font-size:60px;"">+</div>","null","fixation","","","","","","","","","","","","","",""
"revaluation","84","451076","0.0-3.0-13.0-4.0-0.1","spark_pilot_2","7969","6","14","Female","","false","","","","","[632.7999999988824]","./assets/img/space/animals/cat.jpg","[""ArrowRight""]","practice block","space","36","{""ArrowUp,ArrowLeft"":3,""ArrowUp,ArrowRight"":36,""ArrowDown,ArrowLeft"":15,""ArrowDown,ArrowRight"":23}","true","ArrowUp,ArrowRight","","","","","","","","",""
"html-keyboard-response","85","451580","0.0-3.0-13.0-4.0-1.1","spark_pilot_2","7969","6","14","Female","","","","","","","null","<div style=""font-size:60px;"">+</div>","null","fixation","","","","","","","","","","","","","",""
"revaluation","86","455596","0.0-3.0-13.0-4.0-0.2","spark_pilot_2","7969","6","14","Female","","false","","","","","[1446.0999999996275]","./assets/img/space/animals/rabbit.jpg","[""ArrowRight""]","practice block","space","23","{""ArrowUp,ArrowLeft"":3,""ArrowUp,ArrowRight"":36,""ArrowDown,ArrowLeft"":15,""ArrowDown,ArrowRight"":23}","true","ArrowDown,ArrowRight","","","","","","","","",""
"html-keyboard-response","87","456100","0.0-3.0-13.0-4.0-1.2","spark_pilot_2","7969","6","14","Female","","","","","","","null","<div style=""font-size:60px;"">+</div>","null","fixation","","","","","","","","","","","","","",""
"revaluation","88","460116","0.0-3.0-13.0-4.0-0.3","spark_pilot_2","7969","6","14","Female","","false","","","","","[806.5999999996275]","./assets/img/space/animals/rabbit.jpg","[""ArrowRight""]","practice block","space","23","{""ArrowUp,ArrowLeft"":3,""ArrowUp,ArrowRight"":36,""ArrowDown,ArrowLeft"":15,""ArrowDown,ArrowRight"":23}","true","ArrowDown,ArrowRight","","","","","","","","",""
"html-keyboard-response","89","460620","0.0-3.0-13.0-4.0-1.3","spark_pilot_2","7969","6","14","Female","","","","","","","null","<div style=""font-size:60px;"">+</div>","null","fixation","","","","","","","","","","","","","",""
"learning-instructions","90","469954","0.0-3.0-13.0-5.0-0.0","spark_pilot_2","7969","6","14","Female","","","","","","","1940.9000000003725","<p> Time to play the dot game! </p>
            <p> For 15 seconds, click the red dots on the following screen as they appear. </p>","","instructions","","","","","","","","","","","","","",""
"revaluation","91","484958","0.0-3.0-13.0-6.0-0.0","spark_pilot_2","7969","6","14","Female","","","","","","","[92]","","","rest practice","","10","","","","","0","15000","","","","","",""
"learning-instructions","92","492958","0.0-3.0-13.0-7.0-0.0","spark_pilot_2","7969","6","14","Female","","","","","","","1840.699999999255","<p> You have almost finished this part of the game! </p>
            <p> We are going to ask you to make a few more choices. </p>","","instructions","","","","","","","","","","","","","",""
"learning-instructions","93","512471","0.0-3.0-13.0-7.0-0.1","spark_pilot_2","7969","6","14","Female","","","","","","","5460.5999999996275","<p> First, you need to decide whether to go up or down. When you see each picture, use the arrow keys to make your choice. </p>
            <p><b>You will not see which animal you found, but try to get to the one that will give you the most treasure.</b></p>","","instructions","","","","","","","","","","","","","",""
"revaluation","94","513526","0.0-3.0-13.0-8.0","spark_pilot_2","7969","6","14","Female","","false","","","","","[1050.7999999988824]","./assets/img/space/15.jpg","[""ArrowUp""]","practice block","space","0","{""ArrowUp,ArrowLeft"":3,""ArrowUp,ArrowRight"":36,""ArrowDown,ArrowLeft"":15,""ArrowDown,ArrowRight"":23}","true","ArrowUp","false","","","","","","","",""
"html-keyboard-response","95","514028","0.0-3.0-13.0-9.0","spark_pilot_2","7969","6","14","Female","","","","","","","null","<div style=""font-size:60px;"">+</div>","null","fixation","","","","","","","","","","","","","",""
"learning-instructions","96","526964","0.0-3.0-13.0-10.0-0.0","spark_pilot_2","7969","6","14","Female","","","","","","","1521.0999999996275","<p> Now you will see the animals again and can search their chests for treasure. </p>
            <p> This time, you will not see how much treasure you earned, but you will earn more bonus money for making better choices. </p>","","instructions","","","","","","","","","","","","","",""
"revaluation","97","527761","0.0-3.0-13.0-11.0-0.0","spark_pilot_2","7969","6","14","Female","","false","","","","","[793.3000000007451]","./assets/img/space/animals/cat.jpg","[""ArrowRight""]","practice block","space","0","{""ArrowUp,ArrowLeft"":3,""ArrowUp,ArrowRight"":36,""ArrowDown,ArrowLeft"":15,""ArrowDown,ArrowRight"":23}","true","ArrowUp,ArrowRight","","","","","","","","",""
"html-keyboard-response","98","528268","0.0-3.0-13.0-11.0-1.0","spark_pilot_2","7969","6","14","Female","","","","","","","null","<div style=""font-size:60px;"">+</div>","null","fixation","","","","","","","","","","","","","",""
"revaluation","99","529151","0.0-3.0-13.0-11.0-0.1","spark_pilot_2","7969","6","14","Female","","false","","","","","[877.8000000007451]","./assets/img/space/animals/rabbit.jpg","[""ArrowRight""]","practice block","space","0","{""ArrowUp,ArrowLeft"":3,""ArrowUp,ArrowRight"":36,""ArrowDown,ArrowLeft"":15,""ArrowDown,ArrowRight"":23}","true","ArrowDown,ArrowRight","","","","","","","","",""
"html-keyboard-response","100","529660","0.0-3.0-13.0-11.0-1.1","spark_pilot_2","7969","6","14","Female","","","","","","","null","<div style=""font-size:60px;"">+</div>","null","fixation","","","","","","","","","","","","","",""
"learning-instructions","101","537449","0.0-3.0-14.0-0.0","spark_pilot_2","7969","6","14","Female","","","","","","","3185","<p> Before you start, we're going to ask you a few questions about how the game works. </p>","","instructions","","","","","","","","","","","","","",""
"comp-q","102","545304","0.0-3.0-15.0-0.0-0.0","spark_pilot_2","7969","6","14","Female","","","","","","","2235.199999999255","<p> <b> True or False? </b> </p>
            <p> There can be 50 pieces of treasure in a given animal's chest. </p>","1","comp_question","","","","true","","","","","","","","","",""
"comp-q","103","556776","0.0-3.0-15.0-0.0-1.0","spark_pilot_2","7969","6","14","Female","","","","","","","4784.300000000745","<p> <b> That's right! </b> The amount of treasure in each chest can range from 0 to 40 pieces. </p>","0","comp_answer","","","","","","","","","","","","","",""
"comp-q","104","565151","0.0-3.0-15.0-0.1-0.1","spark_pilot_2","7969","6","14","Female","","","","","","","1222.2999999988824","<p> <b> True or False? </b> </p><p> In this game, all animals have the same amount of treasure in their left and right chests. </p>","1","comp_question","","","","true","","","","","","","","","",""
"comp-q","105","572554","0.0-3.0-15.0-0.1-1.1","spark_pilot_2","7969","6","14","Female","","","","","","","2118.5","<p> <b> That's right! </b> Animals have different amounts of treasure in their treasure chests. </p>","0","comp_answer","","","","","","","","","","","","","",""
"comp-q","106","580238","0.0-3.0-15.0-0.2-0.2","spark_pilot_2","7969","6","14","Female","","","","","","","1813.800000000745","<p> <b> True or False? </b> </p><p> The same animal will always be there if you go up in the same place. </p>","0","comp_question","","","","true","","","","","","","","","",""
"comp-q","107","590883","0.0-3.0-15.0-0.2-1.2","spark_pilot_2","7969","6","14","Female","","","","","","","4181.60000000149","<p> <b> That's right! </b> One animal lives in the upper part and one lives in the lower part of every place. </p>","0","comp_answer","","","","","","","","","","","","","",""
"comp-q","108","599376","0.0-3.0-15.0-0.3-0.3","spark_pilot_2","7969","6","14","Female","","","","","","","2946.0999999996275","<p> <b> True or False? </b> </p><p> If you see a different picture, it means you are in a new place. </p>","1","comp_question","","","","true","","","","","","","","","",""
"comp-q","109","613719","0.0-3.0-15.0-0.3-1.3","spark_pilot_2","7969","6","14","Female","","","","","","","3071.5","<p> <b> That's right! </b> Lots of different images may show the same place. For example,  you may see three different images that all remind you that you are in outer space. </p>","0","comp_answer","","","","","","","","","","","","","",""
"learning-instructions","110","627615","0.0-3.0-16.0-0.0","spark_pilot_2","7969","6","14","Female","","","","","","","3814.800000000745","<p> Good job. Remember to do your best because the amount of treasure you earn will be converted into bonus money. </p>
            <p> It’s time to start the real game! </p>","","instructions","","","","","","","","","","","","","",""
"learning-instructions","111","632355","0.0-4.0-0.0-0.0","spark_pilot_2","7969","6","14","Female","","","","","","","1952.7999999988824","<p> This time you are searching for treasure in the <b>canyon</b>.</p>","","instructions","","","","","","","","","","","","","",""
"learning-instructions","112","650673","0.0-4.0-0.0-0.1","spark_pilot_2","7969","6","14","Female","","","","","","","963.4000000003725","<p><b>New</b> animals with <b>new</b> treasure chests live here. You need to explore to discover where the animal with the best treasure chest is.</p>
                    <p> Like before, once you figure out which animal has the chest with the most treasure, you should try to get to that animal and select that chest! </p>","","instructions","","","","","","","","","","","","","",""
"learning-instructions","113","667359","0.0-4.0-1.0-0.0","spark_pilot_2","7969","6","14","Female","","","","","","","1958.699999999255","<p> Remember, when you see a picture of the place, use the up and down keys to <b>find an animal</b>.</p>
            <p> When you encounter an animal, you should use the left and right keys to <b>select a treasure chest</b>.</p>
            <p> Don't forget to look out for the robber! </p>","","instructions","","","","","","","","","","","","","",""
"revaluation","114","671373","0.0-4.0-2.0-0.0","spark_pilot_2","7969","6","14","Female","","false","","","","","[1014.4000000003725]","./assets/img/canyon/catch/7.jpg","[""spaceBar""]","value training","canyon","0","{""ArrowUp,ArrowLeft"":23,""ArrowUp,ArrowRight"":10,""ArrowDown,ArrowLeft"":8,""ArrowDown,ArrowRight"":30}","true","spaceBar","true","","","revaluation","1","0","","",""
"html-keyboard-response","115","671884","0.0-4.0-2.0-1.0","spark_pilot_2","7969","6","14","Female","","","","","","","null","<div style=""font-size:60px;"">+</div>","null","fixation","","","","","","","","","","","1","","",""
"revaluation","116","677908","0.0-4.0-2.0-0.1","spark_pilot_2","7969","6","14","Female","","false","","","","","[1443.5,871]","./assets/img/canyon/memory/23.jpg","[""ArrowUp"",""ArrowRight""]","value training","canyon","10","{""ArrowUp,ArrowLeft"":23,""ArrowUp,ArrowRight"":10,""ArrowDown,ArrowLeft"":8,""ArrowDown,ArrowRight"":30}","false","ArrowUp,ArrowRight","false","","","revaluation","1","2","","",""
"html-keyboard-response","117","678412","0.0-4.0-2.0-1.1","spark_pilot_2","7969","6","14","Female","","","","","","","null","<div style=""font-size:60px;"">+</div>","null","fixation","","","","","","","","","","","3","","",""
"revaluation","118","684436","0.0-4.0-2.0-0.2","spark_pilot_2","7969","6","14","Female","","false","","","","","[1000.3000000007451,999.5999999996275]","./assets/img/canyon/memory/27.jpg","[""ArrowDown"",""ArrowLeft""]","value training","canyon","8","{""ArrowUp,ArrowLeft"":23,""ArrowUp,ArrowRight"":10,""ArrowDown,ArrowLeft"":8,""ArrowDown,ArrowRight"":30}","false","ArrowDown,ArrowLeft","false","","","revaluation","1","4","","",""
"html-keyboard-response","119","684940","0.0-4.0-2.0-1.2","spark_pilot_2","7969","6","14","Female","","","","","","","null","<div style=""font-size:60px;"">+</div>","null","fixation","","","","","","","","","","","5","","",""
"revaluation","120","690964","0.0-4.0-2.0-0.3","spark_pilot_2","7969","6","14","Female","","false","","","","","[873.1999999992549,1406.800000000745]","./assets/img/canyon/memory/32.jpg","[""ArrowUp"",""ArrowRight""]","value training","canyon","10","{""ArrowUp,ArrowLeft"":23,""ArrowUp,ArrowRight"":10,""ArrowDown,ArrowLeft"":8,""ArrowDown,ArrowRight"":30}","false","ArrowUp,ArrowRight","false","","","revaluation","1","6","","",""
"html-keyboard-response","121","691468","0.0-4.0-2.0-1.3","spark_pilot_2","7969","6","14","Female","","","","","","","null","<div style=""font-size:60px;"">+</div>","null","fixation","","","","","","","","","","","7","","",""
"revaluation","122","697484","0.0-4.0-2.0-0.4","spark_pilot_2","7969","6","14","Female","","false","","","","","[1119.4000000003725,1118.9000000003725]","./assets/img/canyon/memory/18.jpg","[""ArrowDown"",""ArrowRight""]","value training","canyon","30","{""ArrowUp,ArrowLeft"":23,""ArrowUp,ArrowRight"":10,""ArrowDown,ArrowLeft"":8,""ArrowDown,ArrowRight"":30}","true","ArrowDown,ArrowRight","false","","","revaluation","1","8","","",""
"html-keyboard-response","123","697987","0.0-4.0-2.0-1.4","spark_pilot_2","7969","6","14","Female","","","","","","","null","<div style=""font-size:60px;"">+</div>","null","fixation","","","","","","","","","","","9","","",""
"revaluation","124","704012","0.0-4.0-2.0-0.5","spark_pilot_2","7969","6","14","Female","","false","","","","","[771.0999999996275,850.1999999992549]","./assets/img/canyon/memory/1.jpg","[""ArrowUp"",""ArrowLeft""]","value training","canyon","23","{""ArrowUp,ArrowLeft"":23,""ArrowUp,ArrowRight"":10,""ArrowDown,ArrowLeft"":8,""ArrowDown,ArrowRight"":30}","false","ArrowUp,ArrowLeft","false","","","revaluation","1","10","","",""
"html-keyboard-response","125","704516","0.0-4.0-2.0-1.5","spark_pilot_2","7969","6","14","Female","","","","","","","null","<div style=""font-size:60px;"">+</div>","null","fixation","","","","","","","","","","","11","","",""
"revaluation","126","710540","0.0-4.0-2.0-0.6","spark_pilot_2","7969","6","14","Female","","false","","","","","[858.4000000003725,661.9000000003725]","./assets/img/canyon/memory/23.jpg","[""ArrowDown"",""ArrowRight""]","value training","canyon","30","{""ArrowUp,ArrowLeft"":23,""ArrowUp,ArrowRight"":10,""ArrowDown,ArrowLeft"":8,""ArrowDown,ArrowRight"":30}","true","ArrowDown,ArrowRight","false","","","revaluation","1","12","","",""
"html-keyboard-response","127","711043","0.0-4.0-2.0-1.6","spark_pilot_2","7969","6","14","Female","","","","","","","null","<div style=""font-size:60px;"">+</div>","null","fixation","","","","","","","","","","","13","","",""
"revaluation","128","717068","0.0-4.0-2.0-0.7","spark_pilot_2","7969","6","14","Female","","false","","","","","[1002.4000000003725,932.1000000014901]","./assets/img/canyon/memory/12.jpg","[""ArrowDown"",""ArrowRight""]","value training","canyon","30","{""ArrowUp,ArrowLeft"":23,""ArrowUp,ArrowRight"":10,""ArrowDown,ArrowLeft"":8,""ArrowDown,ArrowRight"":30}","true","ArrowDown,ArrowRight","false","","","revaluation","1","14","","",""
"html-keyboard-response","129","717571","0.0-4.0-2.0-1.7","spark_pilot_2","7969","6","14","Female","","","","","","","null","<div style=""font-size:60px;"">+</div>","null","fixation","","","","","","","","","","","15","","",""
"revaluation","130","721588","0.0-4.0-2.0-0.8","spark_pilot_2","7969","6","14","Female","","false","","","","","[940.5]","./assets/img/canyon/catch/2.jpg","[""spaceBar""]","value training","canyon","0","{""ArrowUp,ArrowLeft"":23,""ArrowUp,ArrowRight"":10,""ArrowDown,ArrowLeft"":8,""ArrowDown,ArrowRight"":30}","true","spaceBar","true","","","revaluation","1","16","","",""
"html-keyboard-response","131","722092","0.0-4.0-2.0-1.8","spark_pilot_2","7969","6","14","Female","","","","","","","null","<div style=""font-size:60px;"">+</div>","null","fixation","","","","","","","","","","","17","","",""
"revaluation","132","726108","0.0-4.0-2.0-0.9","spark_pilot_2","7969","6","14","Female","","false","","","","","[717.0999999996275]","./assets/img/canyon/catch/6.jpg","[""spaceBar""]","value training","canyon","0","{""ArrowUp,ArrowLeft"":23,""ArrowUp,ArrowRight"":10,""ArrowDown,ArrowLeft"":8,""ArrowDown,ArrowRight"":30}","true","spaceBar","true","","","revaluation","1","18","","",""
"html-keyboard-response","133","726611","0.0-4.0-2.0-1.9","spark_pilot_2","7969","6","14","Female","","","","","","","null","<div style=""font-size:60px;"">+</div>","null","fixation","","","","","","","","","","","19","","",""
"revaluation","134","732636","0.0-4.0-2.0-0.10","spark_pilot_2","7969","6","14","Female","","false","","","","","[911.4000000003725,743.9000000003725]","./assets/img/canyon/memory/40.jpg","[""ArrowDown"",""ArrowRight""]","value training","canyon","30","{""ArrowUp,ArrowLeft"":23,""ArrowUp,ArrowRight"":10,""ArrowDown,ArrowLeft"":8,""ArrowDown,ArrowRight"":30}","true","ArrowDown,ArrowRight","false","","","revaluation","1","20","","",""
"html-keyboard-response","135","733140","0.0-4.0-2.0-1.10","spark_pilot_2","7969","6","14","Female","","","","","","","null","<div style=""font-size:60px;"">+</div>","null","fixation","","","","","","","","","","","21","","",""
"revaluation","136","739164","0.0-4.0-2.0-0.11","spark_pilot_2","7969","6","14","Female","","false","","","","","[1113.699999999255,652.1000000014901]","./assets/img/canyon/memory/2.jpg","[""ArrowDown"",""ArrowRight""]","value training","canyon","30","{""ArrowUp,ArrowLeft"":23,""ArrowUp,ArrowRight"":10,""ArrowDown,ArrowLeft"":8,""ArrowDown,ArrowRight"":30}","true","ArrowDown,ArrowRight","false","","","revaluation","1","22","","",""
"html-keyboard-response","137","739667","0.0-4.0-2.0-1.11","spark_pilot_2","7969","6","14","Female","","","","","","","null","<div style=""font-size:60px;"">+</div>","null","fixation","","","","","","","","","","","23","","",""
"revaluation","138","745692","0.0-4.0-2.0-0.12","spark_pilot_2","7969","6","14","Female","","false","","","","","[865.2000000011176,642.4000000003725]","./assets/img/canyon/memory/2.jpg","[""ArrowDown"",""ArrowRight""]","value training","canyon","30","{""ArrowUp,ArrowLeft"":23,""ArrowUp,ArrowRight"":10,""ArrowDown,ArrowLeft"":8,""ArrowDown,ArrowRight"":30}","true","ArrowDown,ArrowRight","false","","","revaluation","1","24","","",""
"html-keyboard-response","139","746195","0.0-4.0-2.0-1.12","spark_pilot_2","7969","6","14","Female","","","","","","","null","<div style=""font-size:60px;"">+</div>","null","fixation","","","","","","","","","","","25","","",""
"revaluation","140","752228","0.0-4.0-2.0-0.13","spark_pilot_2","7969","6","14","Female","","false","","","","","[726.4000000003725,1031.1000000014901]","./assets/img/canyon/memory/40.jpg","[""ArrowDown"",""ArrowRight""]","value training","canyon","30","{""ArrowUp,ArrowLeft"":23,""ArrowUp,ArrowRight"":10,""ArrowDown,ArrowLeft"":8,""ArrowDown,ArrowRight"":30}","true","ArrowDown,ArrowRight","false","","","revaluation","1","26","","",""
"html-keyboard-response","141","752732","0.0-4.0-2.0-1.13","spark_pilot_2","7969","6","14","Female","","","","","","","null","<div style=""font-size:60px;"">+</div>","null","fixation","","","","","","","","","","","27","","",""
"revaluation","142","756748","0.0-4.0-2.0-0.14","spark_pilot_2","7969","6","14","Female","","false","","","","","[787]","./assets/img/canyon/catch/4.jpg","[""spaceBar""]","value training","canyon","0","{""ArrowUp,ArrowLeft"":23,""ArrowUp,ArrowRight"":10,""ArrowDown,ArrowLeft"":8,""ArrowDown,ArrowRight"":30}","true","spaceBar","true","","","revaluation","1","28","","",""
"html-keyboard-response","143","757252","0.0-4.0-2.0-1.14","spark_pilot_2","7969","6","14","Female","","","","","","","null","<div style=""font-size:60px;"">+</div>","null","fixation","","","","","","","","","","","29","","",""
"revaluation","144","763276","0.0-4.0-2.0-0.15","spark_pilot_2","7969","6","14","Female","","false","","","","","[908.3000000007451,494.7000000011176]","./assets/img/canyon/memory/19.jpg","[""ArrowDown"",""ArrowRight""]","value training","canyon","30","{""ArrowUp,ArrowLeft"":23,""ArrowUp,ArrowRight"":10,""ArrowDown,ArrowLeft"":8,""ArrowDown,ArrowRight"":30}","true","ArrowDown,ArrowRight","false","","","revaluation","1","30","","",""
"html-keyboard-response","145","763780","0.0-4.0-2.0-1.15","spark_pilot_2","7969","6","14","Female","","","","","","","null","<div style=""font-size:60px;"">+</div>","null","fixation","","","","","","","","","","","31","","",""
"revaluation","146","769804","0.0-4.0-2.0-0.16","spark_pilot_2","7969","6","14","Female","","false","","","","","[1152.2000000011176,793.3999999985099]","./assets/img/canyon/memory/27.jpg","[""ArrowDown"",""ArrowRight""]","value training","canyon","30","{""ArrowUp,ArrowLeft"":23,""ArrowUp,ArrowRight"":10,""ArrowDown,ArrowLeft"":8,""ArrowDown,ArrowRight"":30}","true","ArrowDown,ArrowRight","false","","","revaluation","1","32","","",""
"html-keyboard-response","147","770307","0.0-4.0-2.0-1.16","spark_pilot_2","7969","6","14","Female","","","","","","","null","<div style=""font-size:60px;"">+</div>","null","fixation","","","","","","","","","","","33","","",""
"revaluation","148","776332","0.0-4.0-2.0-0.17","spark_pilot_2","7969","6","14","Female","","false","","","","","[1009.5,559.8999999985099]","./assets/img/canyon/memory/8.jpg","[""ArrowDown"",""ArrowRight""]","value training","canyon","30","{""ArrowUp,ArrowLeft"":23,""ArrowUp,ArrowRight"":10,""ArrowDown,ArrowLeft"":8,""ArrowDown,ArrowRight"":30}","true","ArrowDown,ArrowRight","false","","","revaluation","1","34","","",""
"html-keyboard-response","149","776836","0.0-4.0-2.0-1.17","spark_pilot_2","7969","6","14","Female","","","","","","","null","<div style=""font-size:60px;"">+</div>","null","fixation","","","","","","","","","","","35","","",""
"revaluation","150","782860","0.0-4.0-2.0-0.18","spark_pilot_2","7969","6","14","Female","","false","","","","","[982.1999999992549,639.6999999992549]","./assets/img/canyon/memory/19.jpg","[""ArrowDown"",""ArrowRight""]","value training","canyon","30","{""ArrowUp,ArrowLeft"":23,""ArrowUp,ArrowRight"":10,""ArrowDown,ArrowLeft"":8,""ArrowDown,ArrowRight"":30}","true","ArrowDown,ArrowRight","false","","","revaluation","1","36","","",""
"html-keyboard-response","151","783363","0.0-4.0-2.0-1.18","spark_pilot_2","7969","6","14","Female","","","","","","","null","<div style=""font-size:60px;"">+</div>","null","fixation","","","","","","","","","","","37","","",""
"revaluation","152","789388","0.0-4.0-2.0-0.19","spark_pilot_2","7969","6","14","Female","","false","","","","","[1125.5999999996275,656.5]","./assets/img/canyon/memory/15.jpg","[""ArrowDown"",""ArrowRight""]","value training","canyon","30","{""ArrowUp,ArrowLeft"":23,""ArrowUp,ArrowRight"":10,""ArrowDown,ArrowLeft"":8,""ArrowDown,ArrowRight"":30}","true","ArrowDown,ArrowRight","false","","","revaluation","1","38","","",""
"html-keyboard-response","153","789891","0.0-4.0-2.0-1.19","spark_pilot_2","7969","6","14","Female","","","","","","","null","<div style=""font-size:60px;"">+</div>","null","fixation","","","","","","","","","","","39","","",""
"revaluation","154","795916","0.0-4.0-2.0-0.20","spark_pilot_2","7969","6","14","Female","","false","","","","","[1330.4000000003725,1059.2999999988824]","./assets/img/canyon/memory/6.jpg","[""ArrowDown"",""ArrowRight""]","value training","canyon","30","{""ArrowUp,ArrowLeft"":23,""ArrowUp,ArrowRight"":10,""ArrowDown,ArrowLeft"":8,""ArrowDown,ArrowRight"":30}","true","ArrowDown,ArrowRight","false","","","revaluation","1","40","","",""
"html-keyboard-response","155","796419","0.0-4.0-2.0-1.20","spark_pilot_2","7969","6","14","Female","","","","","","","null","<div style=""font-size:60px;"">+</div>","null","fixation","","","","","","","","","","","41","","",""
"revaluation","156","800436","0.0-4.0-2.0-0.21","spark_pilot_2","7969","6","14","Female","","false","","","","","[848.5]","./assets/img/canyon/catch/3.jpg","[""spaceBar""]","value training","canyon","0","{""ArrowUp,ArrowLeft"":23,""ArrowUp,ArrowRight"":10,""ArrowDown,ArrowLeft"":8,""ArrowDown,ArrowRight"":30}","true","spaceBar","true","","","revaluation","1","42","","",""
"html-keyboard-response","157","800940","0.0-4.0-2.0-1.21","spark_pilot_2","7969","6","14","Female","","","","","","","null","<div style=""font-size:60px;"">+</div>","null","fixation","","","","","","","","","","","43","","",""
"revaluation","158","804956","0.0-4.0-2.0-0.22","spark_pilot_2","7969","6","14","Female","","false","","","","","[809.7000000011176]","./assets/img/canyon/catch/1.jpg","[""spaceBar""]","value training","canyon","0","{""ArrowUp,ArrowLeft"":23,""ArrowUp,ArrowRight"":10,""ArrowDown,ArrowLeft"":8,""ArrowDown,ArrowRight"":30}","true","spaceBar","true","","","revaluation","1","44","","",""
"html-keyboard-response","159","805460","0.0-4.0-2.0-1.22","spark_pilot_2","7969","6","14","Female","","","","","","","null","<div style=""font-size:60px;"">+</div>","null","fixation","","","","","","","","","","","45","","",""
"revaluation","160","811484","0.0-4.0-2.0-0.23","spark_pilot_2","7969","6","14","Female","","false","","","","","[1342.8999999985099,1039.7999999988824]","./assets/img/canyon/memory/16.jpg","[""ArrowDown"",""ArrowRight""]","value training","canyon","30","{""ArrowUp,ArrowLeft"":23,""ArrowUp,ArrowRight"":10,""ArrowDown,ArrowLeft"":8,""ArrowDown,ArrowRight"":30}","true","ArrowDown,ArrowRight","false","","","revaluation","1","46","","",""
"html-keyboard-response","161","811988","0.0-4.0-2.0-1.23","spark_pilot_2","7969","6","14","Female","","","","","","","null","<div style=""font-size:60px;"">+</div>","null","fixation","","","","","","","","","","","47","","",""
"revaluation","162","818012","0.0-4.0-2.0-0.24","spark_pilot_2","7969","6","14","Female","","false","","","","","[1313.5,618.1000000014901]","./assets/img/canyon/memory/39.jpg","[""ArrowDown"",""ArrowRight""]","value training","canyon","30","{""ArrowUp,ArrowLeft"":23,""ArrowUp,ArrowRight"":10,""ArrowDown,ArrowLeft"":8,""ArrowDown,ArrowRight"":30}","true","ArrowDown,ArrowRight","false","","","revaluation","1","48","","",""
"html-keyboard-response","163","818516","0.0-4.0-2.0-1.24","spark_pilot_2","7969","6","14","Female","","","","","","","null","<div style=""font-size:60px;"">+</div>","null","fixation","","","","","","","","","","","49","","",""
"revaluation","164","824540","0.0-4.0-2.0-0.25","spark_pilot_2","7969","6","14","Female","","false","","","","","[966.3000000007451,570.9000000003725]","./assets/img/canyon/memory/39.jpg","[""ArrowDown"",""ArrowRight""]","value training","canyon","30","{""ArrowUp,ArrowLeft"":23,""ArrowUp,ArrowRight"":10,""ArrowDown,ArrowLeft"":8,""ArrowDown,ArrowRight"":30}","true","ArrowDown,ArrowRight","false","","","revaluation","1","50","","",""
"html-keyboard-response","165","825044","0.0-4.0-2.0-1.25","spark_pilot_2","7969","6","14","Female","","","","","","","null","<div style=""font-size:60px;"">+</div>","null","fixation","","","","","","","","","","","51","","",""
"revaluation","166","831068","0.0-4.0-2.0-0.26","spark_pilot_2","7969","6","14","Female","","false","","","","","[1354.5,838.3999999985099]","./assets/img/canyon/memory/11.jpg","[""ArrowDown"",""ArrowRight""]","value training","canyon","30","{""ArrowUp,ArrowLeft"":23,""ArrowUp,ArrowRight"":10,""ArrowDown,ArrowLeft"":8,""ArrowDown,ArrowRight"":30}","true","ArrowDown,ArrowRight","false","","","revaluation","1","52","","",""
"html-keyboard-response","167","831572","0.0-4.0-2.0-1.26","spark_pilot_2","7969","6","14","Female","","","","","","","null","<div style=""font-size:60px;"">+</div>","null","fixation","","","","","","","","","","","53","","",""
"revaluation","168","837596","0.0-4.0-2.0-0.27","spark_pilot_2","7969","6","14","Female","","false","","","","","[1224.7999999988824,736.5999999996275]","./assets/img/canyon/memory/17.jpg","[""ArrowDown"",""ArrowRight""]","value training","canyon","30","{""ArrowUp,ArrowLeft"":23,""ArrowUp,ArrowRight"":10,""ArrowDown,ArrowLeft"":8,""ArrowDown,ArrowRight"":30}","true","ArrowDown,ArrowRight","false","","","revaluation","1","54","","",""
"html-keyboard-response","169","838100","0.0-4.0-2.0-1.27","spark_pilot_2","7969","6","14","Female","","","","","","","null","<div style=""font-size:60px;"">+</div>","null","fixation","","","","","","","","","","","55","","",""
"revaluation","170","844125","0.0-4.0-2.0-0.28","spark_pilot_2","7969","6","14","Female","","false","","","","","[881.7999999988824,638.6999999992549]","./assets/img/canyon/memory/31.jpg","[""ArrowDown"",""ArrowRight""]","value training","canyon","30","{""ArrowUp,ArrowLeft"":23,""ArrowUp,ArrowRight"":10,""ArrowDown,ArrowLeft"":8,""ArrowDown,ArrowRight"":30}","true","ArrowDown,ArrowRight","false","","","revaluation","1","56","","",""
"html-keyboard-response","171","844628","0.0-4.0-2.0-1.28","spark_pilot_2","7969","6","14","Female","","","","","","","null","<div style=""font-size:60px;"">+</div>","null","fixation","","","","","","","","","","","57","","",""
"revaluation","172","850652","0.0-4.0-2.0-0.29","spark_pilot_2","7969","6","14","Female","","false","","","","","[1796.7000000011176,604.2999999988824]","./assets/img/canyon/memory/32.jpg","[""ArrowDown"",""ArrowRight""]","value training","canyon","30","{""ArrowUp,ArrowLeft"":23,""ArrowUp,ArrowRight"":10,""ArrowDown,ArrowLeft"":8,""ArrowDown,ArrowRight"":30}","true","ArrowDown,ArrowRight","false","","","revaluation","1","58","","",""
"html-keyboard-response","173","851156","0.0-4.0-2.0-1.29","spark_pilot_2","7969","6","14","Female","","","","","","","null","<div style=""font-size:60px;"">+</div>","null","fixation","","","","","","","","","","","59","","",""
"revaluation","174","857180","0.0-4.0-2.0-0.30","spark_pilot_2","7969","6","14","Female","","false","","","","","[1176.2000000011176,584.7999999988824]","./assets/img/canyon/memory/29.jpg","[""ArrowDown"",""ArrowRight""]","value training","canyon","30","{""ArrowUp,ArrowLeft"":23,""ArrowUp,ArrowRight"":10,""ArrowDown,ArrowLeft"":8,""ArrowDown,ArrowRight"":30}","true","ArrowDown,ArrowRight","false","","","revaluation","1","60","","",""
"html-keyboard-response","175","857684","0.0-4.0-2.0-1.30","spark_pilot_2","7969","6","14","Female","","","","","","","null","<div style=""font-size:60px;"">+</div>","null","fixation","","","","","","","","","","","61","","",""
"revaluation","176","863708","0.0-4.0-2.0-0.31","spark_pilot_2","7969","6","14","Female","","false","","","","","[974.6999999992549,371.69999999925494]","./assets/img/canyon/memory/15.jpg","[""ArrowDown"",""ArrowRight""]","value training","canyon","30","{""ArrowUp,ArrowLeft"":23,""ArrowUp,ArrowRight"":10,""ArrowDown,ArrowLeft"":8,""ArrowDown,ArrowRight"":30}","true","ArrowDown,ArrowRight","false","","","revaluation","1","62","","",""
"html-keyboard-response","177","864212","0.0-4.0-2.0-1.31","spark_pilot_2","7969","6","14","Female","","","","","","","null","<div style=""font-size:60px;"">+</div>","null","fixation","","","","","","","","","","","63","","",""
"revaluation","178","870236","0.0-4.0-2.0-0.32","spark_pilot_2","7969","6","14","Female","","false","","","","","[865.5999999996275,378.7999999988824]","./assets/img/canyon/memory/37.jpg","[""ArrowDown"",""ArrowRight""]","value training","canyon","30","{""ArrowUp,ArrowLeft"":23,""ArrowUp,ArrowRight"":10,""ArrowDown,ArrowLeft"":8,""ArrowDown,ArrowRight"":30}","true","ArrowDown,ArrowRight","false","","","revaluation","1","64","","",""
"html-keyboard-response","179","870740","0.0-4.0-2.0-1.32","spark_pilot_2","7969","6","14","Female","","","","","","","null","<div style=""font-size:60px;"">+</div>","null","fixation","","","","","","","","","","","65","","",""
"revaluation","180","876764","0.0-4.0-2.0-0.33","spark_pilot_2","7969","6","14","Female","","false","","","","","[878.2999999988824,379.2999999988824]","./assets/img/canyon/memory/37.jpg","[""ArrowDown"",""ArrowRight""]","value training","canyon","30","{""ArrowUp,ArrowLeft"":23,""ArrowUp,ArrowRight"":10,""ArrowDown,ArrowLeft"":8,""ArrowDown,ArrowRight"":30}","true","ArrowDown,ArrowRight","false","","","revaluation","1","66","","",""
"html-keyboard-response","181","877268","0.0-4.0-2.0-1.33","spark_pilot_2","7969","6","14","Female","","","","","","","null","<div style=""font-size:60px;"">+</div>","null","fixation","","","","","","","","","","","67","","",""
"revaluation","182","883293","0.0-4.0-2.0-0.34","spark_pilot_2","7969","6","14","Female","","false","","","","","[789.5,822]","./assets/img/canyon/memory/6.jpg","[""ArrowDown"",""ArrowRight""]","value training","canyon","30","{""ArrowUp,ArrowLeft"":23,""ArrowUp,ArrowRight"":10,""ArrowDown,ArrowLeft"":8,""ArrowDown,ArrowRight"":30}","true","ArrowDown,ArrowRight","false","","","revaluation","1","68","","",""
"html-keyboard-response","183","883796","0.0-4.0-2.0-1.34","spark_pilot_2","7969","6","14","Female","","","","","","","null","<div style=""font-size:60px;"">+</div>","null","fixation","","","","","","","","","","","69","","",""
"revaluation","184","887812","0.0-4.0-2.0-0.35","spark_pilot_2","7969","6","14","Female","","false","","","","","[871.8000000007451]","./assets/img/canyon/catch/5.jpg","[""spaceBar""]","value training","canyon","0","{""ArrowUp,ArrowLeft"":23,""ArrowUp,ArrowRight"":10,""ArrowDown,ArrowLeft"":8,""ArrowDown,ArrowRight"":30}","true","spaceBar","true","","","revaluation","1","70","","",""
"html-keyboard-response","185","888316","0.0-4.0-2.0-1.35","spark_pilot_2","7969","6","14","Female","","","","","","","null","<div style=""font-size:60px;"">+</div>","null","fixation","","","","","","","","","","","71","","",""
"revaluation","186","894340","0.0-4.0-2.0-0.36","spark_pilot_2","7969","6","14","Female","","false","","","","","[1273,768.5]","./assets/img/canyon/memory/11.jpg","[""ArrowDown"",""ArrowRight""]","value training","canyon","30","{""ArrowUp,ArrowLeft"":23,""ArrowUp,ArrowRight"":10,""ArrowDown,ArrowLeft"":8,""ArrowDown,ArrowRight"":30}","true","ArrowDown,ArrowRight","false","","","revaluation","1","72","","",""
"html-keyboard-response","187","894844","0.0-4.0-2.0-1.36","spark_pilot_2","7969","6","14","Female","","","","","","","null","<div style=""font-size:60px;"">+</div>","null","fixation","","","","","","","","","","","73","","",""
"revaluation","188","898861","0.0-4.0-2.0-0.37","spark_pilot_2","7969","6","14","Female","","false","","","","","[932.3999999985099]","./assets/img/canyon/catch/0.jpg","[""spaceBar""]","value training","canyon","0","{""ArrowUp,ArrowLeft"":23,""ArrowUp,ArrowRight"":10,""ArrowDown,ArrowLeft"":8,""ArrowDown,ArrowRight"":30}","true","spaceBar","true","","","revaluation","1","74","","",""
"html-keyboard-response","189","899364","0.0-4.0-2.0-1.37","spark_pilot_2","7969","6","14","Female","","","","","","","null","<div style=""font-size:60px;"">+</div>","null","fixation","","","","","","","","","","","75","","",""
"revaluation","190","905390","0.0-4.0-2.0-0.38","spark_pilot_2","7969","6","14","Female","","false","","","","","[883,623]","./assets/img/canyon/memory/16.jpg","[""ArrowDown"",""ArrowRight""]","value training","canyon","30","{""ArrowUp,ArrowLeft"":23,""ArrowUp,ArrowRight"":10,""ArrowDown,ArrowLeft"":8,""ArrowDown,ArrowRight"":30}","true","ArrowDown,ArrowRight","false","","","revaluation","1","76","","",""
"html-keyboard-response","191","905892","0.0-4.0-2.0-1.38","spark_pilot_2","7969","6","14","Female","","","","","","","null","<div style=""font-size:60px;"">+</div>","null","fixation","","","","","","","","","","","77","","",""
"revaluation","192","911916","0.0-4.0-2.0-0.39","spark_pilot_2","7969","6","14","Female","","false","","","","","[1094.0999999996275,491.2999999988824]","./assets/img/canyon/memory/33.jpg","[""ArrowDown"",""ArrowRight""]","value training","canyon","30","{""ArrowUp,ArrowLeft"":23,""ArrowUp,ArrowRight"":10,""ArrowDown,ArrowLeft"":8,""ArrowDown,ArrowRight"":30}","true","ArrowDown,ArrowRight","false","","","revaluation","1","78","","",""
"html-keyboard-response","193","912419","0.0-4.0-2.0-1.39","spark_pilot_2","7969","6","14","Female","","","","","","","null","<div style=""font-size:60px;"">+</div>","null","fixation","","","","","","","","","","","79","","",""
"revaluation","194","918444","0.0-4.0-2.0-0.40","spark_pilot_2","7969","6","14","Female","","false","","","","","[1366.2999999988824,451.59999999962747]","./assets/img/canyon/memory/12.jpg","[""ArrowDown"",""ArrowRight""]","value training","canyon","30","{""ArrowUp,ArrowLeft"":23,""ArrowUp,ArrowRight"":10,""ArrowDown,ArrowLeft"":8,""ArrowDown,ArrowRight"":30}","true","ArrowDown,ArrowRight","false","","","revaluation","1","80","","",""
"html-keyboard-response","195","918948","0.0-4.0-2.0-1.40","spark_pilot_2","7969","6","14","Female","","","","","","","null","<div style=""font-size:60px;"">+</div>","null","fixation","","","","","","","","","","","81","","",""
"revaluation","196","924972","0.0-4.0-2.0-0.41","spark_pilot_2","7969","6","14","Female","","false","","","","","[816.4000000003725,435.59999999962747]","./assets/img/canyon/memory/31.jpg","[""ArrowDown"",""ArrowRight""]","value training","canyon","30","{""ArrowUp,ArrowLeft"":23,""ArrowUp,ArrowRight"":10,""ArrowDown,ArrowLeft"":8,""ArrowDown,ArrowRight"":30}","true","ArrowDown,ArrowRight","false","","","revaluation","1","82","","",""
"html-keyboard-response","197","925476","0.0-4.0-2.0-1.41","spark_pilot_2","7969","6","14","Female","","","","","","","null","<div style=""font-size:60px;"">+</div>","null","fixation","","","","","","","","","","","83","","",""
"revaluation","198","931501","0.0-4.0-2.0-0.42","spark_pilot_2","7969","6","14","Female","","false","","","","","[859.2000000011176,368.7999999988824]","./assets/img/canyon/memory/33.jpg","[""ArrowDown"",""ArrowRight""]","value training","canyon","30","{""ArrowUp,ArrowLeft"":23,""ArrowUp,ArrowRight"":10,""ArrowDown,ArrowLeft"":8,""ArrowDown,ArrowRight"":30}","true","ArrowDown,ArrowRight","false","","","revaluation","1","84","","",""
"html-keyboard-response","199","932005","0.0-4.0-2.0-1.42","spark_pilot_2","7969","6","14","Female","","","","","","","null","<div style=""font-size:60px;"">+</div>","null","fixation","","","","","","","","","","","85","","",""
"revaluation","200","938028","0.0-4.0-2.0-0.43","spark_pilot_2","7969","6","14","Female","","false","","","","","[809.8000000007451,345.7999999988824]","./assets/img/canyon/memory/17.jpg","[""ArrowDown"",""ArrowRight""]","value training","canyon","30","{""ArrowUp,ArrowLeft"":23,""ArrowUp,ArrowRight"":10,""ArrowDown,ArrowLeft"":8,""ArrowDown,ArrowRight"":30}","true","ArrowDown,ArrowRight","false","","","revaluation","1","86","","",""
"html-keyboard-response","201","938531","0.0-4.0-2.0-1.43","spark_pilot_2","7969","6","14","Female","","","","","","","null","<div style=""font-size:60px;"">+</div>","null","fixation","","","","","","","","","","","87","","",""
"revaluation","202","944557","0.0-4.0-2.0-0.44","spark_pilot_2","7969","6","14","Female","","false","","","","","[729.7999999988824,498]","./assets/img/canyon/memory/34.jpg","[""ArrowDown"",""ArrowRight""]","value training","canyon","30","{""ArrowUp,ArrowLeft"":23,""ArrowUp,ArrowRight"":10,""ArrowDown,ArrowLeft"":8,""ArrowDown,ArrowRight"":30}","true","ArrowDown,ArrowRight","false","","","revaluation","1","88","","",""
"html-keyboard-response","203","945060","0.0-4.0-2.0-1.44","spark_pilot_2","7969","6","14","Female","","","","","","","null","<div style=""font-size:60px;"">+</div>","null","fixation","","","","","","","","","","","89","","",""
"revaluation","204","951084","0.0-4.0-2.0-0.45","spark_pilot_2","7969","6","14","Female","","false","","","","","[1023.1000000014901,427.69999999925494]","./assets/img/canyon/memory/18.jpg","[""ArrowDown"",""ArrowRight""]","value training","canyon","30","{""ArrowUp,ArrowLeft"":23,""ArrowUp,ArrowRight"":10,""ArrowDown,ArrowLeft"":8,""ArrowDown,ArrowRight"":30}","true","ArrowDown,ArrowRight","false","","","revaluation","1","90","","",""
"html-keyboard-response","205","951587","0.0-4.0-2.0-1.45","spark_pilot_2","7969","6","14","Female","","","","","","","null","<div style=""font-size:60px;"">+</div>","null","fixation","","","","","","","","","","","91","","",""
"revaluation","206","957612","0.0-4.0-2.0-0.46","spark_pilot_2","7969","6","14","Female","","false","","","","","[1049.0999999996275,523.0999999996275]","./assets/img/canyon/memory/29.jpg","[""ArrowDown"",""ArrowRight""]","value training","canyon","30","{""ArrowUp,ArrowLeft"":23,""ArrowUp,ArrowRight"":10,""ArrowDown,ArrowLeft"":8,""ArrowDown,ArrowRight"":30}","true","ArrowDown,ArrowRight","false","","","revaluation","1","92","","",""
"html-keyboard-response","207","958116","0.0-4.0-2.0-1.46","spark_pilot_2","7969","6","14","Female","","","","","","","null","<div style=""font-size:60px;"">+</div>","null","fixation","","","","","","","","","","","93","","",""
"revaluation","208","964140","0.0-4.0-2.0-0.47","spark_pilot_2","7969","6","14","Female","","false","","","","","[1239.7999999988824,561.5999999996275]","./assets/img/canyon/memory/8.jpg","[""ArrowDown"",""ArrowRight""]","value training","canyon","30","{""ArrowUp,ArrowLeft"":23,""ArrowUp,ArrowRight"":10,""ArrowDown,ArrowLeft"":8,""ArrowDown,ArrowRight"":30}","true","ArrowDown,ArrowRight","false","","","revaluation","1","94","","",""
"html-keyboard-response","209","964643","0.0-4.0-2.0-1.47","spark_pilot_2","7969","6","14","Female","","","","","","","null","<div style=""font-size:60px;"">+</div>","null","fixation","","","","","","","","","","","95","","",""
"revaluation","210","970668","0.0-4.0-2.0-0.48","spark_pilot_2","7969","6","14","Female","","false","","","","","[703.9000000003725,345]","./assets/img/canyon/memory/1.jpg","[""ArrowDown"",""ArrowRight""]","value training","canyon","30","{""ArrowUp,ArrowLeft"":23,""ArrowUp,ArrowRight"":10,""ArrowDown,ArrowLeft"":8,""ArrowDown,ArrowRight"":30}","true","ArrowDown,ArrowRight","false","","","revaluation","1","96","","",""
"html-keyboard-response","211","971172","0.0-4.0-2.0-1.48","spark_pilot_2","7969","6","14","Female","","","","","","","null","<div style=""font-size:60px;"">+</div>","null","fixation","","","","","","","","","","","97","","",""
"revaluation","212","977197","0.0-4.0-2.0-0.49","spark_pilot_2","7969","6","14","Female","","false","","","","","[868.8000000007451,474.7999999988824]","./assets/img/canyon/memory/34.jpg","[""ArrowDown"",""ArrowRight""]","value training","canyon","30","{""ArrowUp,ArrowLeft"":23,""ArrowUp,ArrowRight"":10,""ArrowDown,ArrowLeft"":8,""ArrowDown,ArrowRight"":30}","true","ArrowDown,ArrowRight","false","","","revaluation","1","98","","",""
"html-keyboard-response","213","977700","0.0-4.0-2.0-1.49","spark_pilot_2","7969","6","14","Female","","","","","","","null","<div style=""font-size:60px;"">+</div>","null","fixation","","","","","","","","","","","99","","",""
"learning-instructions","214","992482","0.0-4.0-3.0-0.0","spark_pilot_2","7969","6","14","Female","","","","","","","1807.699999999255","<p> Now, you will travel with a friend who will choose whether you go up or down first. </p>
            <p> On these turns, you will just see the animal that they found. You will still get to choose which chest to search for treasure.</p>","","instructions","","","","","","","","","","","","","",""
"revaluation","215","996500","0.0-4.0-4.0-0.0","spark_pilot_2","7969","6","14","Female","","false","","","","","[1069.7999999988824]","./assets/img/canyon/animals/giraffe.jpg","[""ArrowLeft""]","revaluation","canyon","27","{""ArrowUp,ArrowLeft"":27,""ArrowUp,ArrowRight"":15,""ArrowDown,ArrowLeft"":21,""ArrowDown,ArrowRight"":7}","true","ArrowUp,ArrowLeft","","","","revaluation","1","0","","",""
"html-keyboard-response","216","997012","0.0-4.0-4.0-1.0","spark_pilot_2","7969","6","14","Female","","","","","","","null","<div style=""font-size:60px;"">+</div>","null","fixation","","","","","","","","","","","1","","",""
"revaluation","217","1001028","0.0-4.0-4.0-0.1","spark_pilot_2","7969","6","14","Female","","false","","","","","[499.5]","./assets/img/canyon/animals/giraffe.jpg","[""ArrowLeft""]","revaluation","canyon","27","{""ArrowUp,ArrowLeft"":27,""ArrowUp,ArrowRight"":15,""ArrowDown,ArrowLeft"":21,""ArrowDown,ArrowRight"":7}","true","ArrowUp,ArrowLeft","","","","revaluation","1","2","","",""
"html-keyboard-response","218","1001532","0.0-4.0-4.0-1.1","spark_pilot_2","7969","6","14","Female","","","","","","","null","<div style=""font-size:60px;"">+</div>","null","fixation","","","","","","","","","","","3","","",""
"revaluation","219","1005548","0.0-4.0-4.0-0.2","spark_pilot_2","7969","6","14","Female","","false","","","","","[715.9000000003725]","./assets/img/canyon/animals/giraffe.jpg","[""ArrowLeft""]","revaluation","canyon","27","{""ArrowUp,ArrowLeft"":27,""ArrowUp,ArrowRight"":15,""ArrowDown,ArrowLeft"":21,""ArrowDown,ArrowRight"":7}","true","ArrowUp,ArrowLeft","","","","revaluation","1","4","","",""
"html-keyboard-response","220","1006052","0.0-4.0-4.0-1.2","spark_pilot_2","7969","6","14","Female","","","","","","","null","<div style=""font-size:60px;"">+</div>","null","fixation","","","","","","","","","","","5","","",""
"revaluation","221","1010068","0.0-4.0-4.0-0.3","spark_pilot_2","7969","6","14","Female","","false","","","","","[705.1999999992549]","./assets/img/canyon/animals/giraffe.jpg","[""ArrowLeft""]","revaluation","canyon","27","{""ArrowUp,ArrowLeft"":27,""ArrowUp,ArrowRight"":15,""ArrowDown,ArrowLeft"":21,""ArrowDown,ArrowRight"":7}","true","ArrowUp,ArrowLeft","","","","revaluation","1","6","","",""
"html-keyboard-response","222","1010572","0.0-4.0-4.0-1.3","spark_pilot_2","7969","6","14","Female","","","","","","","null","<div style=""font-size:60px;"">+</div>","null","fixation","","","","","","","","","","","7","","",""
"revaluation","223","1014588","0.0-4.0-4.0-0.4","spark_pilot_2","7969","6","14","Female","","false","","","","","[661.2999999988824]","./assets/img/canyon/animals/lion.jpg","[""ArrowRight""]","revaluation","canyon","7","{""ArrowUp,ArrowLeft"":27,""ArrowUp,ArrowRight"":15,""ArrowDown,ArrowLeft"":21,""ArrowDown,ArrowRight"":7}","false","ArrowDown,ArrowRight","","","","revaluation","1","8","","",""
"html-keyboard-response","224","1015091","0.0-4.0-4.0-1.4","spark_pilot_2","7969","6","14","Female","","","","","","","null","<div style=""font-size:60px;"">+</div>","null","fixation","","","","","","","","","","","9","","",""
"revaluation","225","1019108","0.0-4.0-4.0-0.5","spark_pilot_2","7969","6","14","Female","","false","","","","","[467.09999999962747]","./assets/img/canyon/animals/lion.jpg","[""ArrowLeft""]","revaluation","canyon","21","{""ArrowUp,ArrowLeft"":27,""ArrowUp,ArrowRight"":15,""ArrowDown,ArrowLeft"":21,""ArrowDown,ArrowRight"":7}","true","ArrowDown,ArrowLeft","","","","revaluation","1","10","","",""
"html-keyboard-response","226","1019612","0.0-4.0-4.0-1.5","spark_pilot_2","7969","6","14","Female","","","","","","","null","<div style=""font-size:60px;"">+</div>","null","fixation","","","","","","","","","","","11","","",""
"revaluation","227","1023628","0.0-4.0-4.0-0.6","spark_pilot_2","7969","6","14","Female","","false","","","","","[1109.4000000003725]","./assets/img/canyon/animals/giraffe.jpg","[""ArrowLeft""]","revaluation","canyon","27","{""ArrowUp,ArrowLeft"":27,""ArrowUp,ArrowRight"":15,""ArrowDown,ArrowLeft"":21,""ArrowDown,ArrowRight"":7}","true","ArrowUp,ArrowLeft","","","","revaluation","1","12","","",""
"html-keyboard-response","228","1024131","0.0-4.0-4.0-1.6","spark_pilot_2","7969","6","14","Female","","","","","","","null","<div style=""font-size:60px;"">+</div>","null","fixation","","","","","","","","","","","13","","",""
"revaluation","229","1028149","0.0-4.0-4.0-0.7","spark_pilot_2","7969","6","14","Female","","false","","","","","[855.2999999988824]","./assets/img/canyon/animals/giraffe.jpg","[""ArrowLeft""]","revaluation","canyon","27","{""ArrowUp,ArrowLeft"":27,""ArrowUp,ArrowRight"":15,""ArrowDown,ArrowLeft"":21,""ArrowDown,ArrowRight"":7}","true","ArrowUp,ArrowLeft","","","","revaluation","1","14","","",""
"html-keyboard-response","230","1028652","0.0-4.0-4.0-1.7","spark_pilot_2","7969","6","14","Female","","","","","","","null","<div style=""font-size:60px;"">+</div>","null","fixation","","","","","","","","","","","15","","",""
"revaluation","231","1032668","0.0-4.0-4.0-0.8","spark_pilot_2","7969","6","14","Female","","false","","","","","[664]","./assets/img/canyon/animals/giraffe.jpg","[""ArrowLeft""]","revaluation","canyon","27","{""ArrowUp,ArrowLeft"":27,""ArrowUp,ArrowRight"":15,""ArrowDown,ArrowLeft"":21,""ArrowDown,ArrowRight"":7}","true","ArrowUp,ArrowLeft","","","","revaluation","1","16","","",""
"html-keyboard-response","232","1033172","0.0-4.0-4.0-1.8","spark_pilot_2","7969","6","14","Female","","","","","","","null","<div style=""font-size:60px;"">+</div>","null","fixation","","","","","","","","","","","17","","",""
"revaluation","233","1037188","0.0-4.0-4.0-0.9","spark_pilot_2","7969","6","14","Female","","false","","","","","[1351.0999999996275]","./assets/img/canyon/animals/lion.jpg","[""ArrowLeft""]","revaluation","canyon","21","{""ArrowUp,ArrowLeft"":27,""ArrowUp,ArrowRight"":15,""ArrowDown,ArrowLeft"":21,""ArrowDown,ArrowRight"":7}","true","ArrowDown,ArrowLeft","","","","revaluation","1","18","","",""
"html-keyboard-response","234","1037692","0.0-4.0-4.0-1.9","spark_pilot_2","7969","6","14","Female","","","","","","","null","<div style=""font-size:60px;"">+</div>","null","fixation","","","","","","","","","","","19","","",""
"revaluation","235","1041709","0.0-4.0-4.0-0.10","spark_pilot_2","7969","6","14","Female","","false","","","","","[962.2999999988824]","./assets/img/canyon/animals/lion.jpg","[""ArrowRight""]","revaluation","canyon","7","{""ArrowUp,ArrowLeft"":27,""ArrowUp,ArrowRight"":15,""ArrowDown,ArrowLeft"":21,""ArrowDown,ArrowRight"":7}","false","ArrowDown,ArrowRight","","","","revaluation","1","20","","",""
"html-keyboard-response","236","1042212","0.0-4.0-4.0-1.10","spark_pilot_2","7969","6","14","Female","","","","","","","null","<div style=""font-size:60px;"">+</div>","null","fixation","","","","","","","","","","","21","","",""
"revaluation","237","1046228","0.0-4.0-4.0-0.11","spark_pilot_2","7969","6","14","Female","","false","","","","","[678.9000000003725]","./assets/img/canyon/animals/lion.jpg","[""ArrowLeft""]","revaluation","canyon","21","{""ArrowUp,ArrowLeft"":27,""ArrowUp,ArrowRight"":15,""ArrowDown,ArrowLeft"":21,""ArrowDown,ArrowRight"":7}","true","ArrowDown,ArrowLeft","","","","revaluation","1","22","","",""
"html-keyboard-response","238","1046732","0.0-4.0-4.0-1.11","spark_pilot_2","7969","6","14","Female","","","","","","","null","<div style=""font-size:60px;"">+</div>","null","fixation","","","","","","","","","","","23","","",""
"revaluation","239","1050749","0.0-4.0-4.0-0.12","spark_pilot_2","7969","6","14","Female","","false","","","","","[794.0999999996275]","./assets/img/canyon/animals/giraffe.jpg","[""ArrowLeft""]","revaluation","canyon","27","{""ArrowUp,ArrowLeft"":27,""ArrowUp,ArrowRight"":15,""ArrowDown,ArrowLeft"":21,""ArrowDown,ArrowRight"":7}","true","ArrowUp,ArrowLeft","","","","revaluation","1","24","","",""
"html-keyboard-response","240","1051252","0.0-4.0-4.0-1.12","spark_pilot_2","7969","6","14","Female","","","","","","","null","<div style=""font-size:60px;"">+</div>","null","fixation","","","","","","","","","","","25","","",""
"revaluation","241","1055269","0.0-4.0-4.0-0.13","spark_pilot_2","7969","6","14","Female","","false","","","","","[516.0999999996275]","./assets/img/canyon/animals/lion.jpg","[""ArrowLeft""]","revaluation","canyon","21","{""ArrowUp,ArrowLeft"":27,""ArrowUp,ArrowRight"":15,""ArrowDown,ArrowLeft"":21,""ArrowDown,ArrowRight"":7}","true","ArrowDown,ArrowLeft","","","","revaluation","1","26","","",""
"html-keyboard-response","242","1055771","0.0-4.0-4.0-1.13","spark_pilot_2","7969","6","14","Female","","","","","","","null","<div style=""font-size:60px;"">+</div>","null","fixation","","","","","","","","","","","27","","",""
"revaluation","243","1059788","0.0-4.0-4.0-0.14","spark_pilot_2","7969","6","14","Female","","false","","","","","[385.80000000074506]","./assets/img/canyon/animals/lion.jpg","[""ArrowLeft""]","revaluation","canyon","21","{""ArrowUp,ArrowLeft"":27,""ArrowUp,ArrowRight"":15,""ArrowDown,ArrowLeft"":21,""ArrowDown,ArrowRight"":7}","true","ArrowDown,ArrowLeft","","","","revaluation","1","28","","",""
"html-keyboard-response","244","1060291","0.0-4.0-4.0-1.14","spark_pilot_2","7969","6","14","Female","","","","","","","null","<div style=""font-size:60px;"">+</div>","null","fixation","","","","","","","","","","","29","","",""
"revaluation","245","1064308","0.0-4.0-4.0-0.15","spark_pilot_2","7969","6","14","Female","","false","","","","","[551]","./assets/img/canyon/animals/lion.jpg","[""ArrowLeft""]","revaluation","canyon","21","{""ArrowUp,ArrowLeft"":27,""ArrowUp,ArrowRight"":15,""ArrowDown,ArrowLeft"":21,""ArrowDown,ArrowRight"":7}","true","ArrowDown,ArrowLeft","","","","revaluation","1","30","","",""
"html-keyboard-response","246","1064811","0.0-4.0-4.0-1.15","spark_pilot_2","7969","6","14","Female","","","","","","","null","<div style=""font-size:60px;"">+</div>","null","fixation","","","","","","","","","","","31","","",""
"revaluation","247","1068828","0.0-4.0-4.0-0.16","spark_pilot_2","7969","6","14","Female","","false","","","","","[1003.5999999996275]","./assets/img/canyon/animals/lion.jpg","[""ArrowLeft""]","revaluation","canyon","21","{""ArrowUp,ArrowLeft"":27,""ArrowUp,ArrowRight"":15,""ArrowDown,ArrowLeft"":21,""ArrowDown,ArrowRight"":7}","true","ArrowDown,ArrowLeft","","","","revaluation","1","32","","",""
"html-keyboard-response","248","1069332","0.0-4.0-4.0-1.16","spark_pilot_2","7969","6","14","Female","","","","","","","null","<div style=""font-size:60px;"">+</div>","null","fixation","","","","","","","","","","","33","","",""
"revaluation","249","1073348","0.0-4.0-4.0-0.17","spark_pilot_2","7969","6","14","Female","","false","","","","","[1246.199999999255]","./assets/img/canyon/animals/giraffe.jpg","[""ArrowRight""]","revaluation","canyon","15","{""ArrowUp,ArrowLeft"":27,""ArrowUp,ArrowRight"":15,""ArrowDown,ArrowLeft"":21,""ArrowDown,ArrowRight"":7}","false","ArrowUp,ArrowRight","","","","revaluation","1","34","","",""
"html-keyboard-response","250","1073852","0.0-4.0-4.0-1.17","spark_pilot_2","7969","6","14","Female","","","","","","","null","<div style=""font-size:60px;"">+</div>","null","fixation","","","","","","","","","","","35","","",""
"learning-instructions","251","1086869","0.0-4.0-5.0-0.0","spark_pilot_2","7969","6","14","Female","","","","","","","1324","<p> Time to play the dot game! </p>
            <p> For one minute, click the red dots on the following screen as they appear. </p>
            <p><b> Don't look away, as you will earn bonus for clicking dots</b>. </p>","","instructions","","","","","","","","","","","","","",""
"revaluation","252","1146876","0.0-4.0-6.0-0.0","spark_pilot_2","7969","6","14","Female","","","","","","","[168,81,85,88,216,59,111]","","","rest","","70","","","","","0","60000","","","","","",""
"learning-instructions","253","1154966","0.0-4.0-7.0-0.0","spark_pilot_2","7969","6","14","Female","","","","","","","1910.2000000011176","<p> You have almost finished this part of the game! </p>
            <p> We are going to ask you to make a few more choices. </p>","","instructions","","","","","","","","","","","","","",""
"learning-instructions","254","1172706","0.0-4.0-7.0-0.1","spark_pilot_2","7969","6","14","Female","","","","","","","3767.300000000745","<p> First, you need to decide whether to go up or down. When you see each picture, use the arrow keys to make your choice. </p>
            <p><b>You will not see which animal you found, but try to get to the one that will give you the most treasure.</b></p>","","instructions","","","","","","","","","","","","","",""
"revaluation","255","1173912","0.0-4.0-8.0-0.0","spark_pilot_2","7969","6","14","Female","","false","","","","","[1202.199999999255]","./assets/img/canyon/test/3.jpg","[""ArrowUp""]","first stage test","canyon","0","{""ArrowUp,ArrowLeft"":27,""ArrowUp,ArrowRight"":15,""ArrowDown,ArrowLeft"":21,""ArrowDown,ArrowRight"":7}","true","ArrowUp","false","","","revaluation","1","","","",""
"html-keyboard-response","256","1174420","0.0-4.0-8.0-1.0","spark_pilot_2","7969","6","14","Female","","","","","","","null","<div style=""font-size:60px;"">+</div>","null","fixation","","","","","","","","","","","","","",""
"revaluation","257","1175783","0.0-4.0-8.0-0.1","spark_pilot_2","7969","6","14","Female","","false","","","","","[1358.3999999985099]","./assets/img/canyon/test/2.jpg","[""ArrowDown""]","first stage test","canyon","0","{""ArrowUp,ArrowLeft"":27,""ArrowUp,ArrowRight"":15,""ArrowDown,ArrowLeft"":21,""ArrowDown,ArrowRight"":7}","false","ArrowDown","false","","","revaluation","1","","","",""
"html-keyboard-response","258","1176292","0.0-4.0-8.0-1.1","spark_pilot_2","7969","6","14","Female","","","","","","","null","<div style=""font-size:60px;"">+</div>","null","fixation","","","","","","","","","","","","","",""
"revaluation","259","1177771","0.0-4.0-8.0-0.2","spark_pilot_2","7969","6","14","Female","","false","","","","","[1474.5]","./assets/img/canyon/test/1.jpg","[""ArrowUp""]","first stage test","canyon","0","{""ArrowUp,ArrowLeft"":27,""ArrowUp,ArrowRight"":15,""ArrowDown,ArrowLeft"":21,""ArrowDown,ArrowRight"":7}","true","ArrowUp","false","","","revaluation","1","","","",""
"html-keyboard-response","260","1178276","0.0-4.0-8.0-1.2","spark_pilot_2","7969","6","14","Female","","","","","","","null","<div style=""font-size:60px;"">+</div>","null","fixation","","","","","","","","","","","","","",""
"revaluation","261","1179510","0.0-4.0-8.0-0.3","spark_pilot_2","7969","6","14","Female","","false","","","","","[1230.4000000003725]","./assets/img/canyon/test/0.jpg","[""ArrowUp""]","first stage test","canyon","0","{""ArrowUp,ArrowLeft"":27,""ArrowUp,ArrowRight"":15,""ArrowDown,ArrowLeft"":21,""ArrowDown,ArrowRight"":7}","true","ArrowUp","false","","","revaluation","1","","","",""
"html-keyboard-response","262","1180012","0.0-4.0-8.0-1.3","spark_pilot_2","7969","6","14","Female","","","","","","","null","<div style=""font-size:60px;"">+</div>","null","fixation","","","","","","","","","","","","","",""
"learning-instructions","263","1194641","0.0-4.0-9.0-0.0","spark_pilot_2","7969","6","14","Female","","","","","","","3281.7000000011176","<p> Now you will see the animals again and can search their chests for treasure. </p>
            <p> This time, you will not see how much treasure you earned, but you will earn more bonus money for making better choices. </p>","","instructions","","","","","","","","","","","","","",""
"revaluation","264","1195731","0.0-4.0-10.0-0.0","spark_pilot_2","7969","6","14","Female","","false","","","","","[1085.5999999996275]","./assets/img/canyon/animals/giraffe.jpg","[""ArrowRight""]","second stage test","canyon","0","{""ArrowUp,ArrowLeft"":27,""ArrowUp,ArrowRight"":15,""ArrowDown,ArrowLeft"":21,""ArrowDown,ArrowRight"":7}","false","ArrowUp,ArrowRight","","","","revaluation","1","","","",""
"html-keyboard-response","265","1196236","0.0-4.0-10.0-1.0","spark_pilot_2","7969","6","14","Female","","","","","","","null","<div style=""font-size:60px;"">+</div>","null","fixation","","","","","","","","","","","","","",""
"revaluation","266","1197536","0.0-4.0-10.0-0.1","spark_pilot_2","7969","6","14","Female","","false","","","","","[1295.2000000011176]","./assets/img/canyon/animals/giraffe.jpg","[""ArrowLeft""]","second stage test","canyon","0","{""ArrowUp,ArrowLeft"":27,""ArrowUp,ArrowRight"":15,""ArrowDown,ArrowLeft"":21,""ArrowDown,ArrowRight"":7}","true","ArrowUp,ArrowLeft","","","","revaluation","1","","","",""
"html-keyboard-response","267","1198044","0.0-4.0-10.0-1.1","spark_pilot_2","7969","6","14","Female","","","","","","","null","<div style=""font-size:60px;"">+</div>","null","fixation","","","","","","","","","","","","","",""
"revaluation","268","1199652","0.0-4.0-10.0-0.2","spark_pilot_2","7969","6","14","Female","","false","","","","","[1603.2000000011176]","./assets/img/canyon/animals/giraffe.jpg","[""ArrowLeft""]","second stage test","canyon","0","{""ArrowUp,ArrowLeft"":27,""ArrowUp,ArrowRight"":15,""ArrowDown,ArrowLeft"":21,""ArrowDown,ArrowRight"":7}","true","ArrowUp,ArrowLeft","","","","revaluation","1","","","",""
"html-keyboard-response","269","1200156","0.0-4.0-10.0-1.2","spark_pilot_2","7969","6","14","Female","","","","","","","null","<div style=""font-size:60px;"">+</div>","null","fixation","","","","","","","","","","","","","",""
"revaluation","270","1202090","0.0-4.0-10.0-0.3","spark_pilot_2","7969","6","14","Female","","false","","","","","[1928.9000000003725]","./assets/img/canyon/animals/giraffe.jpg","[""ArrowLeft""]","second stage test","canyon","0","{""ArrowUp,ArrowLeft"":27,""ArrowUp,ArrowRight"":15,""ArrowDown,ArrowLeft"":21,""ArrowDown,ArrowRight"":7}","true","ArrowUp,ArrowLeft","","","","revaluation","1","","","",""
"html-keyboard-response","271","1202596","0.0-4.0-10.0-1.3","spark_pilot_2","7969","6","14","Female","","","","","","","null","<div style=""font-size:60px;"">+</div>","null","fixation","","","","","","","","","","","","","",""
"revaluation","272","1204413","0.0-4.0-10.0-0.4","spark_pilot_2","7969","6","14","Female","","false","","","","","[1811.8999999985099]","./assets/img/canyon/animals/lion.jpg","[""ArrowRight""]","second stage test","canyon","0","{""ArrowUp,ArrowLeft"":27,""ArrowUp,ArrowRight"":15,""ArrowDown,ArrowLeft"":21,""ArrowDown,ArrowRight"":7}","false","ArrowDown,ArrowRight","","","","revaluation","1","","","",""
"html-keyboard-response","273","1204916","0.0-4.0-10.0-1.4","spark_pilot_2","7969","6","14","Female","","","","","","","null","<div style=""font-size:60px;"">+</div>","null","fixation","","","","","","","","","","","","","",""
"revaluation","274","1207021","0.0-4.0-10.0-0.5","spark_pilot_2","7969","6","14","Female","","false","","","","","[2100.5]","./assets/img/canyon/animals/lion.jpg","[""ArrowRight""]","second stage test","canyon","0","{""ArrowUp,ArrowLeft"":27,""ArrowUp,ArrowRight"":15,""ArrowDown,ArrowLeft"":21,""ArrowDown,ArrowRight"":7}","false","ArrowDown,ArrowRight","","","","revaluation","1","","","",""
"html-keyboard-response","275","1207524","0.0-4.0-10.0-1.5","spark_pilot_2","7969","6","14","Female","","","","","","","null","<div style=""font-size:60px;"">+</div>","null","fixation","","","","","","","","","","","","","",""
"revaluation","276","1209868","0.0-4.0-10.0-0.6","spark_pilot_2","7969","6","14","Female","","false","","","","","[2339]","./assets/img/canyon/animals/lion.jpg","[""ArrowLeft""]","second stage test","canyon","0","{""ArrowUp,ArrowLeft"":27,""ArrowUp,ArrowRight"":15,""ArrowDown,ArrowLeft"":21,""ArrowDown,ArrowRight"":7}","true","ArrowDown,ArrowLeft","","","","revaluation","1","","","",""
"html-keyboard-response","277","1210372","0.0-4.0-10.0-1.6","spark_pilot_2","7969","6","14","Female","","","","","","","null","<div style=""font-size:60px;"">+</div>","null","fixation","","","","","","","","","","","","","",""
"revaluation","278","1210921","0.0-4.0-10.0-0.7","spark_pilot_2","7969","6","14","Female","","false","","","","","[545.9000000003725]","./assets/img/canyon/animals/lion.jpg","[""ArrowLeft""]","second stage test","canyon","0","{""ArrowUp,ArrowLeft"":27,""ArrowUp,ArrowRight"":15,""ArrowDown,ArrowLeft"":21,""ArrowDown,ArrowRight"":7}","true","ArrowDown,ArrowLeft","","","","revaluation","1","","","",""
"html-keyboard-response","279","1211428","0.0-4.0-10.0-1.7","spark_pilot_2","7969","6","14","Female","","","","","","","null","<div style=""font-size:60px;"">+</div>","null","fixation","","","","","","","","","","","","","",""
"learning-instructions","280","1216424","0.0-4.0-0.1-0.2","spark_pilot_2","7969","6","14","Female","","","","","","","2258.9000000003725","<p> This time you are searching for treasure in the <b>ocean</b>.</p>","","instructions","","","","","","","","","","","","","",""
"learning-instructions","281","1235636","0.0-4.0-0.1-0.3","spark_pilot_2","7969","6","14","Female","","","","","","","1949.9000000003725","<p><b>New</b> animals with <b>new</b> treasure chests live here. You need to explore to discover where the animal with the best treasure chest is.</p>
                    <p> Like before, once you figure out which animal has the chest with the most treasure, you should try to get to that animal and select that chest! </p>","","instructions","","","","","","","","","","","","","",""
"learning-instructions","282","1252588","0.0-4.0-1.1-0.1","spark_pilot_2","7969","6","14","Female","","","","","","","2219.5","<p> Remember, when you see a picture of the place, use the up and down keys to <b>find an animal</b>.</p>
            <p> When you encounter an animal, you should use the left and right keys to <b>select a treasure chest</b>.</p>
            <p> Don't forget to look out for the robber! </p>","","instructions","","","","","","","","","","","","","",""
"revaluation","283","1258612","0.0-4.0-2.1-0.50","spark_pilot_2","7969","6","14","Female","","false","","","","","[861.5999999996275,581.5999999996275]","./assets/img/ocean/memory/12.jpg","[""ArrowUp"",""ArrowRight""]","value training","ocean","10","{""ArrowUp,ArrowLeft"":26,""ArrowUp,ArrowRight"":10,""ArrowDown,ArrowLeft"":5,""ArrowDown,ArrowRight"":17}","false","ArrowUp,ArrowRight","false","","","original","2","0","","",""
"html-keyboard-response","284","1259116","0.0-4.0-2.1-1.50","spark_pilot_2","7969","6","14","Female","","","","","","","null","<div style=""font-size:60px;"">+</div>","null","fixation","","","","","","","","","","","1","","",""
"revaluation","285","1265140","0.0-4.0-2.1-0.51","spark_pilot_2","7969","6","14","Female","","false","","","","","[1136.800000000745,436.3999999985099]","./assets/img/ocean/memory/15.jpg","[""ArrowUp"",""ArrowLeft""]","value training","ocean","26","{""ArrowUp,ArrowLeft"":26,""ArrowUp,ArrowRight"":10,""ArrowDown,ArrowLeft"":5,""ArrowDown,ArrowRight"":17}","true","ArrowUp,ArrowLeft","false","","","original","2","2","","",""
"html-keyboard-response","286","1265644","0.0-4.0-2.1-1.51","spark_pilot_2","7969","6","14","Female","","","","","","","null","<div style=""font-size:60px;"">+</div>","null","fixation","","","","","","","","","","","3","","",""
"revaluation","287","1271668","0.0-4.0-2.1-0.52","spark_pilot_2","7969","6","14","Female","","false","","","","","[774,855.0999999996275]","./assets/img/ocean/memory/1.jpg","[""ArrowDown"",""ArrowLeft""]","value training","ocean","5","{""ArrowUp,ArrowLeft"":26,""ArrowUp,ArrowRight"":10,""ArrowDown,ArrowLeft"":5,""ArrowDown,ArrowRight"":17}","false","ArrowDown,ArrowLeft","false","","","original","2","4","","",""
"html-keyboard-response","288","1272172","0.0-4.0-2.1-1.52","spark_pilot_2","7969","6","14","Female","","","","","","","null","<div style=""font-size:60px;"">+</div>","null","fixation","","","","","","","","","","","5","","",""
"revaluation","289","1278196","0.0-4.0-2.1-0.53","spark_pilot_2","7969","6","14","Female","","false","","","","","[327,489]","./assets/img/ocean/memory/11.jpg","[""ArrowDown"",""ArrowRight""]","value training","ocean","17","{""ArrowUp,ArrowLeft"":26,""ArrowUp,ArrowRight"":10,""ArrowDown,ArrowLeft"":5,""ArrowDown,ArrowRight"":17}","false","ArrowDown,ArrowRight","false","","","original","2","6","","",""
"html-keyboard-response","290","1278700","0.0-4.0-2.1-1.53","spark_pilot_2","7969","6","14","Female","","","","","","","null","<div style=""font-size:60px;"">+</div>","null","fixation","","","","","","","","","","","7","","",""
"revaluation","291","1284724","0.0-4.0-2.1-0.54","spark_pilot_2","7969","6","14","Female","","false","","","","","[434.90000000037253,517.3000000007451]","./assets/img/ocean/memory/18.jpg","[""ArrowUp"",""ArrowLeft""]","value training","ocean","26","{""ArrowUp,ArrowLeft"":26,""ArrowUp,ArrowRight"":10,""ArrowDown,ArrowLeft"":5,""ArrowDown,ArrowRight"":17}","true","ArrowUp,ArrowLeft","false","","","original","2","8","","",""
"html-keyboard-response","292","1285227","0.0-4.0-2.1-1.54","spark_pilot_2","7969","6","14","Female","","","","","","","null","<div style=""font-size:60px;"">+</div>","null","fixation","","","","","","","","","","","9","","",""
"revaluation","293","1291252","0.0-4.0-2.1-0.55","spark_pilot_2","7969","6","14","Female","","false","","","","","[873.8999999985099,871.1999999992549]","./assets/img/ocean/memory/11.jpg","[""ArrowUp"",""ArrowLeft""]","value training","ocean","26","{""ArrowUp,ArrowLeft"":26,""ArrowUp,ArrowRight"":10,""ArrowDown,ArrowLeft"":5,""ArrowDown,ArrowRight"":17}","true","ArrowUp,ArrowLeft","false","","","original","2","10","","",""
"html-keyboard-response","294","1291755","0.0-4.0-2.1-1.55","spark_pilot_2","7969","6","14","Female","","","","","","","null","<div style=""font-size:60px;"">+</div>","null","fixation","","","","","","","","","","","11","","",""
"revaluation","295","1297780","0.0-4.0-2.1-0.56","spark_pilot_2","7969","6","14","Female","","false","","","","","[1080.9000000003725,576.8999999985099]","./assets/img/ocean/memory/15.jpg","[""ArrowUp"",""ArrowLeft""]","value training","ocean","26","{""ArrowUp,ArrowLeft"":26,""ArrowUp,ArrowRight"":10,""ArrowDown,ArrowLeft"":5,""ArrowDown,ArrowRight"":17}","true","ArrowUp,ArrowLeft","false","","","original","2","12","","",""
"html-keyboard-response","296","1298284","0.0-4.0-2.1-1.56","spark_pilot_2","7969","6","14","Female","","","","","","","null","<div style=""font-size:60px;"">+</div>","null","fixation","","","","","","","","","","","13","","",""
"revaluation","297","1304308","0.0-4.0-2.1-0.57","spark_pilot_2","7969","6","14","Female","","false","","","","","[654,527.1999999992549]","./assets/img/ocean/memory/8.jpg","[""ArrowUp"",""ArrowLeft""]","value training","ocean","26","{""ArrowUp,ArrowLeft"":26,""ArrowUp,ArrowRight"":10,""ArrowDown,ArrowLeft"":5,""ArrowDown,ArrowRight"":17}","true","ArrowUp,ArrowLeft","false","","","original","2","14","","",""
"html-keyboard-response","298","1304811","0.0-4.0-2.1-1.57","spark_pilot_2","7969","6","14","Female","","","","","","","null","<div style=""font-size:60px;"">+</div>","null","fixation","","","","","","","","","","","15","","",""
"revaluation","299","1310836","0.0-4.0-2.1-0.58","spark_pilot_2","7969","6","14","Female","","false","","","","","[724.1999999992549,440.19999999925494]","./assets/img/ocean/memory/6.jpg","[""ArrowUp"",""ArrowLeft""]","value training","ocean","26","{""ArrowUp,ArrowLeft"":26,""ArrowUp,ArrowRight"":10,""ArrowDown,ArrowLeft"":5,""ArrowDown,ArrowRight"":17}","true","ArrowUp,ArrowLeft","false","","","original","2","16","","",""
"html-keyboard-response","300","1311339","0.0-4.0-2.1-1.58","spark_pilot_2","7969","6","14","Female","","","","","","","null","<div style=""font-size:60px;"">+</div>","null","fixation","","","","","","","","","","","17","","",""
"revaluation","301","1317364","0.0-4.0-2.1-0.59","spark_pilot_2","7969","6","14","Female","","false","","","","","[698.4000000003725,343.40000000037253]","./assets/img/ocean/memory/39.jpg","[""ArrowUp"",""ArrowLeft""]","value training","ocean","26","{""ArrowUp,ArrowLeft"":26,""ArrowUp,ArrowRight"":10,""ArrowDown,ArrowLeft"":5,""ArrowDown,ArrowRight"":17}","true","ArrowUp,ArrowLeft","false","","","original","2","18","","",""
"html-keyboard-response","302","1317868","0.0-4.0-2.1-1.59","spark_pilot_2","7969","6","14","Female","","","","","","","null","<div style=""font-size:60px;"">+</div>","null","fixation","","","","","","","","","","","19","","",""
"revaluation","303","1323892","0.0-4.0-2.1-0.60","spark_pilot_2","7969","6","14","Female","","false","","","","","[725.5999999996275,334.19999999925494]","./assets/img/ocean/memory/34.jpg","[""ArrowUp"",""ArrowLeft""]","value training","ocean","26","{""ArrowUp,ArrowLeft"":26,""ArrowUp,ArrowRight"":10,""ArrowDown,ArrowLeft"":5,""ArrowDown,ArrowRight"":17}","true","ArrowUp,ArrowLeft","false","","","original","2","20","","",""
"html-keyboard-response","304","1324396","0.0-4.0-2.1-1.60","spark_pilot_2","7969","6","14","Female","","","","","","","null","<div style=""font-size:60px;"">+</div>","null","fixation","","","","","","","","","","","21","","",""
