"trial_type","trial_index","time_elapsed","internal_node_id","task_version","subject_id","assigned_condition","age","gender","success","timeout","failed_images","failed_audio","failed_video","browser_interaction","rt","stimulus","response","task_part","environment","score","rewardMap","correct","fullState","isCatch","numberMissed","duration","condition","order","trial_num","key_press","ground_truth","bonus"
"pavlovia","0","1444","0.0-0.0","spark_pilot_2","7412","6","17","Male","","","","","","","","","","","","","","","","","","","","","","","",""
"preload","1","7738","0.0-1.0","spark_pilot_2","7412","6","17","Male","true","false","[]","[]","[]","[{""event"":""fullscreenenter"",""trial"":2,""time"":9818}]","","","","","","","","","","","","","","","","","",""
"fullscreen","2","10801","0.0-2.0","spark_pilot_2","7412","6","17","Male","true","","","","","","","","","","","","","","","","","","","","","","",""
"audio-button-response","3","12093","0.0-3.0-0.0-0.0","spark_pilot_2","7412","6","17","Male","","","","","","","1259","./assets/audio/audiotest/turtle.mp3","2","audio_test","","","","","","","","","","","","","",""
"learning-instructions","4","21901","0.0-3.0-1.0-0.0","spark_pilot_2","7412","6","17","Male","","","","","","","2771.899999999907","<p> Welcome! Please remember to stay in fullscreen mode and don't click away from the experiment. </p>","","instructions","","","","","","","","","","","","","",""
"learning-instructions","5","30873","0.0-3.0-1.0-0.1","spark_pilot_2","7412","6","17","Male","","","","","","","476.90000000037253","<p> Today you will be playing a game to earn treasure. </p>
            <p> At the end of the experiment, you will earn a bonus based on how much treasure you find. </p>
            <img src='./assets/img/instructions/treasure.jpg' class='instructions-image'>","","instructions","","","","","","","","","","","","","",""
"learning-instructions","6","39769","0.0-3.0-1.0-0.2","spark_pilot_2","7412","6","17","Male","","","","","","","566","<p> Animals have hidden treasure in treasure chests. </p>
            <p> You need to first find an animal and then choose which of their treasure chests to search. </p>
            <img src='./assets/img/space/animals/cat.jpg' class='instructions-image'>","","instructions","","","","","","","","","","","","","",""
"learning-instructions","7","57334","0.0-3.0-1.0-0.3","spark_pilot_2","7412","6","17","Male","","","","","","","4302.100000000093","<p> In each round, you will search for treasure in a different place. In the real game, there will be two rounds. </p>
            <p> You will begin with a separate, practice round where you will search for treasure in outer space. </p>
            <img src='./assets/img/space/0.jpg' class='instructions-image'>","","instructions","","","","","","","","","","","","","",""
"learning-instructions","8","69590","0.0-3.0-1.0-0.4","spark_pilot_2","7412","6","17","Male","","","","","","","736.8999999999069","<p> On every turn, you will see a picture of the place that you are in, but the specific image may be different each time. </p>
            <p> For example, both of these images mean you are in outer space. </p>
            <img src='./assets/img/instructions/outerspace.jpg' class='instructions-image'>","","instructions","","","","","","","","","","","","","",""
"learning-instructions","9","79523","0.0-3.0-1.0-0.5","spark_pilot_2","7412","6","17","Male","","","","","","","2022.9000000003725","<p> You need to decide which direction to travel in. </p>
            <p> You can choose between going <b>up or down</b> by using the arrow keys. </p>
            <img src='./assets/img/instructions/updown.jpg' class='instructions-image'>","","instructions","","","","","","","","","","","","","",""
"learning-instructions","10","90033","0.0-3.0-1.0-0.6","spark_pilot_2","7412","6","17","Male","","","","","","","1605.3999999999069","<p> You will have <b>2 seconds</b> to make your choice. </p>
            <p> If you do not make a choice within 2 seconds, you will not find an animal or earn treasure. </p>
            <img src='./assets/img/instructions/2seconds.jpg' class='instructions-image'>","","instructions","","","","","","","","","","","","","",""
"learning-instructions","11","97700","0.0-3.0-1.0-0.7","spark_pilot_2","7412","6","17","Male","","","","","","","551.1000000000931","<p> Let’s try practicing that now! </p>
            <p> When you see a picture of the place you are in, press the <b>up</b> key to travel up. </p>
            <img src='./assets/img/instructions/pressUp.jpg' class='instructions-image'>","","instructions","","","","","","","","","","","","","",""
"revaluation","12","101765","0.0-3.0-2.0-0.0","spark_pilot_2","7412","6","17","Male","","false","","","","","[1028]","./assets/img/space/0.jpg","[""ArrowUp""]","first stage practice","space","0","null","null","ArrowUp","false","","","","","","","",""
"html-keyboard-response","13","102274","0.0-3.0-2.0-1.0","spark_pilot_2","7412","6","17","Male","","","","","","","null","<div style=""font-size:60px;"">+</div>","null","fixation","","","","","","","","","","","","","",""
"revaluation","14","106299","0.0-3.0-2.0-0.1","spark_pilot_2","7412","6","17","Male","","false","","","","","[754.2999999998137]","./assets/img/space/1.jpg","[""ArrowUp""]","first stage practice","space","0","null","null","ArrowUp","false","","","","","","","",""
"html-keyboard-response","15","106810","0.0-3.0-2.0-1.1","spark_pilot_2","7412","6","17","Male","","","","","","","null","<div style=""font-size:60px;"">+</div>","null","fixation","","","","","","","","","","","","","",""
"revaluation","16","110835","0.0-3.0-2.0-0.2","spark_pilot_2","7412","6","17","Male","","false","","","","","[1740.2999999998137]","./assets/img/space/2.jpg","[""ArrowUp""]","first stage practice","space","0","null","null","ArrowUp","false","","","","","","","",""
"html-keyboard-response","17","111346","0.0-3.0-2.0-1.2","spark_pilot_2","7412","6","17","Male","","","","","","","null","<div style=""font-size:60px;"">+</div>","null","fixation","","","","","","","","","","","","","",""
"learning-instructions","18","118312","0.0-3.0-3.0-0.0","spark_pilot_2","7412","6","17","Male","","","","","","","2208.7999999998137","<p> Great job! Now try pressing the <b>down</b> key to travel down. </p>
            <img src='./assets/img/instructions/pressDown.jpg' class='instructions-image'>","","instructions","","","","","","","","","","","","","",""
"revaluation","19","122331","0.0-3.0-4.0-0.0","spark_pilot_2","7412","6","17","Male","","false","","","","","[777.5]","./assets/img/space/3.jpg","[""ArrowDown""]","first stage practice","space","0","null","null","ArrowDown","false","","","","","","","",""
"html-keyboard-response","20","122842","0.0-3.0-4.0-1.0","spark_pilot_2","7412","6","17","Male","","","","","","","null","<div style=""font-size:60px;"">+</div>","null","fixation","","","","","","","","","","","","","",""
"revaluation","21","126866","0.0-3.0-4.0-0.1","spark_pilot_2","7412","6","17","Male","","false","","","","","[339.3000000002794]","./assets/img/space/4.jpg","[""ArrowDown""]","first stage practice","space","0","null","null","ArrowDown","false","","","","","","","",""
"html-keyboard-response","22","127369","0.0-3.0-4.0-1.1","spark_pilot_2","7412","6","17","Male","","","","","","","null","<div style=""font-size:60px;"">+</div>","null","fixation","","","","","","","","","","","","","",""
"revaluation","23","131394","0.0-3.0-4.0-0.2","spark_pilot_2","7412","6","17","Male","","false","","","","","[222.39999999990687]","./assets/img/space/5.jpg","[""ArrowDown""]","first stage practice","space","0","null","null","ArrowDown","false","","","","","","","",""
"html-keyboard-response","24","131905","0.0-3.0-4.0-1.2","spark_pilot_2","7412","6","17","Male","","","","","","","null","<div style=""font-size:60px;"">+</div>","null","fixation","","","","","","","","","","","","","",""
"learning-instructions","25","143900","0.0-3.0-5.0-0.0","spark_pilot_2","7412","6","17","Male","","","","","","","2050.5","<p> The animals don’t move, so the animal in the upper part of a place will stay in the upper part of a place, and the animal in the lower part of a place will stay in the lower part of a place. </p>","","instructions","","","","","","","","","","","","","",""
"learning-instructions","26","153773","0.0-3.0-5.0-0.1","spark_pilot_2","7412","6","17","Male","","","","","","","643.6999999997206","<p> Each animal has two treasure chests for you to choose from. </p>
            <p> The amount of treasure in each chest can range from <b> 0 to 40 pieces.</b></p>","","instructions","","","","","","","","","","","","","",""
"learning-instructions","27","165627","0.0-3.0-5.0-0.2","spark_pilot_2","7412","6","17","Male","","","","","","","565.7000000001863","<p> You should decide which chest to search for treasure by using the <b>left</b> and <b>right</b> arrow keys. </p>
            <p><b> Pay attention to which animal is on the screen, as the animals have different treasure chests. </b></p>
            <img src='./assets/img/instructions/leftright.jpg' class='instructions-image'>","","instructions","","","","","","","","","","","","","",""
"learning-instructions","28","172430","0.0-3.0-5.0-0.3","spark_pilot_2","7412","6","17","Male","","","","","","","364.60000000009313","<p> Let’s try practicing that now. </p>
            <p> When you see an animal, choose which chest to search for treasure. </p>
            <img src='./assets/img/instructions/chooseChest.jpg' class='instructions-image'>","","instructions","","","","","","","","","","","","","",""
"revaluation","29","176451","0.0-3.0-6.0-0.0","spark_pilot_2","7412","6","17","Male","","false","","","","","[1189.3999999999069]","./assets/img/space/animals/rabbit.jpg","[""ArrowLeft""]","second stage practice","space","15","{""ArrowUp,ArrowLeft"":3,""ArrowUp,ArrowRight"":36,""ArrowDown,ArrowLeft"":15,""ArrowDown,ArrowRight"":23}","false","ArrowDown,ArrowLeft","","","","","","","","",""
"html-keyboard-response","30","176962","0.0-3.0-6.0-1.0","spark_pilot_2","7412","6","17","Male","","","","","","","null","<div style=""font-size:60px;"">+</div>","null","fixation","","","","","","","","","","","","","",""
"revaluation","31","180987","0.0-3.0-6.0-0.1","spark_pilot_2","7412","6","17","Male","","false","","","","","[255.5]","./assets/img/space/animals/cat.jpg","[""ArrowRight""]","second stage practice","space","36","{""ArrowUp,ArrowLeft"":3,""ArrowUp,ArrowRight"":36,""ArrowDown,ArrowLeft"":15,""ArrowDown,ArrowRight"":23}","true","ArrowUp,ArrowRight","","","","","","","","",""
"html-keyboard-response","32","181497","0.0-3.0-6.0-1.1","spark_pilot_2","7412","6","17","Male","","","","","","","null","<div style=""font-size:60px;"">+</div>","null","fixation","","","","","","","","","","","","","",""
"revaluation","33","185523","0.0-3.0-6.0-0.2","spark_pilot_2","7412","6","17","Male","","false","","","","","[747.2999999998137]","./assets/img/space/animals/cat.jpg","[""ArrowRight""]","second stage practice","space","36","{""ArrowUp,ArrowLeft"":3,""ArrowUp,ArrowRight"":36,""ArrowDown,ArrowLeft"":15,""ArrowDown,ArrowRight"":23}","true","ArrowUp,ArrowRight","","","","","","","","",""
"html-keyboard-response","34","186034","0.0-3.0-6.0-1.2","spark_pilot_2","7412","6","17","Male","","","","","","","null","<div style=""font-size:60px;"">+</div>","null","fixation","","","","","","","","","","","","","",""
"revaluation","35","190058","0.0-3.0-6.0-0.3","spark_pilot_2","7412","6","17","Male","","false","","","","","[520]","./assets/img/space/animals/rabbit.jpg","[""ArrowLeft""]","second stage practice","space","15","{""ArrowUp,ArrowLeft"":3,""ArrowUp,ArrowRight"":36,""ArrowDown,ArrowLeft"":15,""ArrowDown,ArrowRight"":23}","false","ArrowDown,ArrowLeft","","","","","","","","",""
"html-keyboard-response","36","190570","0.0-3.0-6.0-1.3","spark_pilot_2","7412","6","17","Male","","","","","","","null","<div style=""font-size:60px;"">+</div>","null","fixation","","","","","","","","","","","","","",""
"learning-instructions","37","208325","0.0-3.0-7.0-0.0","spark_pilot_2","7412","6","17","Male","","","","","","","812.6999999997206","<p> Great job. Now let’s try putting it together. </p>
            <p> On each turn, you will first see a picture to remind you of the place you are in, and you need to choose whether to go up or down. </p>
            <p> Then you will see an animal and choose which of its chests to search for treasure. </p>","","instructions","","","","","","","","","","","","","",""
"learning-instructions","38","219532","0.0-3.0-7.0-0.1","spark_pilot_2","7412","6","17","Male","","","","","","","2862","<p> When you choose whether to go up or down, try to go to the animal with the chest with the most treasure. </p>
            <p> Try practicing that now! </p>","","instructions","","","","","","","","","","","","","",""
"revaluation","39","225563","0.0-3.0-8.0-0.0","spark_pilot_2","7412","6","17","Male","","false","","","","","[1104.7000000001863,641.7999999998137]","./assets/img/space/6.jpg","[""ArrowUp"",""ArrowLeft""]","full practice","space","3","{""ArrowUp,ArrowLeft"":3,""ArrowUp,ArrowRight"":36,""ArrowDown,ArrowLeft"":15,""ArrowDown,ArrowRight"":23}","false","ArrowUp,ArrowLeft","false","","","","","","","",""
"html-keyboard-response","40","226073","0.0-3.0-8.0-1.0","spark_pilot_2","7412","6","17","Male","","","","","","","null","<div style=""font-size:60px;"">+</div>","null","fixation","","","","","","","","","","","","","",""
"revaluation","41","232106","0.0-3.0-8.0-0.1","spark_pilot_2","7412","6","17","Male","","false","","","","","[727.5,762.1000000000931]","./assets/img/space/7.jpg","[""ArrowUp"",""ArrowRight""]","full practice","space","36","{""ArrowUp,ArrowLeft"":3,""ArrowUp,ArrowRight"":36,""ArrowDown,ArrowLeft"":15,""ArrowDown,ArrowRight"":23}","true","ArrowUp,ArrowRight","false","","","","","","","",""
"html-keyboard-response","42","232617","0.0-3.0-8.0-1.1","spark_pilot_2","7412","6","17","Male","","","","","","","null","<div style=""font-size:60px;"">+</div>","null","fixation","","","","","","","","","","","","","",""
"revaluation","43","238650","0.0-3.0-8.0-0.2","spark_pilot_2","7412","6","17","Male","","false","","","","","[1272.6999999997206,636.3999999999069]","./assets/img/space/8.jpg","[""ArrowDown"",""ArrowRight""]","full practice","space","23","{""ArrowUp,ArrowLeft"":3,""ArrowUp,ArrowRight"":36,""ArrowDown,ArrowLeft"":15,""ArrowDown,ArrowRight"":23}","false","ArrowDown,ArrowRight","false","","","","","","","",""
"html-keyboard-response","44","239161","0.0-3.0-8.0-1.2","spark_pilot_2","7412","6","17","Male","","","","","","","null","<div style=""font-size:60px;"">+</div>","null","fixation","","","","","","","","","","","","","",""
"revaluation","45","245194","0.0-3.0-8.0-0.3","spark_pilot_2","7412","6","17","Male","","false","","","","","[825.3000000002794,499.89999999990687]","./assets/img/space/9.jpg","[""ArrowUp"",""ArrowRight""]","full practice","space","36","{""ArrowUp,ArrowLeft"":3,""ArrowUp,ArrowRight"":36,""ArrowDown,ArrowLeft"":15,""ArrowDown,ArrowRight"":23}","true","ArrowUp,ArrowRight","false","","","","","","","",""
"html-keyboard-response","46","245706","0.0-3.0-8.0-1.3","spark_pilot_2","7412","6","17","Male","","","","","","","null","<div style=""font-size:60px;"">+</div>","null","fixation","","","","","","","","","","","","","",""
"revaluation","47","251738","0.0-3.0-8.0-0.4","spark_pilot_2","7412","6","17","Male","","false","","","","","[376.20000000018626,315]","./assets/img/space/10.jpg","[""ArrowUp"",""ArrowRight""]","full practice","space","36","{""ArrowUp,ArrowLeft"":3,""ArrowUp,ArrowRight"":36,""ArrowDown,ArrowLeft"":15,""ArrowDown,ArrowRight"":23}","true","ArrowUp,ArrowRight","false","","","","","","","",""
"html-keyboard-response","48","252249","0.0-3.0-8.0-1.4","spark_pilot_2","7412","6","17","Male","","","","","","","null","<div style=""font-size:60px;"">+</div>","null","fixation","","","","","","","","","","","","","",""
"learning-instructions","49","264538","0.0-3.0-9.0-0.0","spark_pilot_2","7412","6","17","Male","","","","","","","1882.0999999996275","<p> One last thing: sometimes, you will see a robber. The robber can be anywhere in the picture. </p>
            <p> If you do not stop them, you will lose treasure. </p>
            <img src='./assets/img/instructions/robber.jpg' class='instructions-image'>","","instructions","","","","","","","","","","","","","",""
"learning-instructions","50","272981","0.0-3.0-9.0-0.1","spark_pilot_2","7412","6","17","Male","","","","","","","1199.5","<p> If you see the robber, you should <b>press the space bar</b> rather than using the arrow keys. </p>
            <p> Try practicing that now! </p>","","instructions","","","","","","","","","","","","","",""
"revaluation","51","277002","0.0-3.0-10.0-0.0","spark_pilot_2","7412","6","17","Male","","false","","","","","[883.1000000000931]","./assets/img/space/catch/0.jpg","[""spaceBar""]","catch practice","space","0","{""ArrowUp,ArrowLeft"":3,""ArrowUp,ArrowRight"":36,""ArrowDown,ArrowLeft"":15,""ArrowDown,ArrowRight"":23}","true","spaceBar","true","","","","","","","",""
"html-keyboard-response","52","277505","0.0-3.0-10.0-1.0","spark_pilot_2","7412","6","17","Male","","","","","","","null","<div style=""font-size:60px;"">+</div>","null","fixation","","","","","","","","","","","","","",""
"revaluation","53","281530","0.0-3.0-10.0-0.1","spark_pilot_2","7412","6","17","Male","","false","","","","","[618.3999999999069]","./assets/img/space/catch/1.jpg","[""spaceBar""]","catch practice","space","0","{""ArrowUp,ArrowLeft"":3,""ArrowUp,ArrowRight"":36,""ArrowDown,ArrowLeft"":15,""ArrowDown,ArrowRight"":23}","true","spaceBar","true","","","","","","","",""
"html-keyboard-response","54","282033","0.0-3.0-10.0-1.1","spark_pilot_2","7412","6","17","Male","","","","","","","null","<div style=""font-size:60px;"">+</div>","null","fixation","","","","","","","","","","","","","",""
"revaluation","55","286051","0.0-3.0-10.0-0.2","spark_pilot_2","7412","6","17","Male","","false","","","","","[517.3999999999069]","./assets/img/space/catch/2.jpg","[""spaceBar""]","catch practice","space","0","{""ArrowUp,ArrowLeft"":3,""ArrowUp,ArrowRight"":36,""ArrowDown,ArrowLeft"":15,""ArrowDown,ArrowRight"":23}","true","spaceBar","true","","","","","","","",""
"html-keyboard-response","56","286561","0.0-3.0-10.0-1.2","spark_pilot_2","7412","6","17","Male","","","","","","","null","<div style=""font-size:60px;"">+</div>","null","fixation","","","","","","","","","","","","","",""
"learning-instructions","57","301780","0.0-3.0-11.0-0.0","spark_pilot_2","7412","6","17","Male","","","","","","","1521.5","<p> After you explore a place to find treasure, it will be time to play a different game. </p>
            <p> During this game, red dots will appear on the screen and fall down slowly. </p>
            <p><b> You must click on them before they reach the bottom. </b></p>
            <img src='./assets/img/instructions/dotGame.jpg' class='instructions-image'>","","instructions","","","","","","","","","","","","","",""
"learning-instructions","58","309412","0.0-3.0-11.0-0.1","spark_pilot_2","7412","6","17","Male","","","","","","","1819.5","<p> For every dot you click, you will earn additional treasure. </p>
            <p> Let’s try practicing that now. </p>","","instructions","","","","","","","","","","","","","",""
"revaluation","59","324438","0.0-3.0-12.0-0.0","spark_pilot_2","7412","6","17","Male","","","","","","","[81]","","","rest practice","","10","","","","","0","15000","","","","","",""
"learning-instructions","60","331074","0.0-3.0-13.0-0.0-0.0","spark_pilot_2","7412","6","17","Male","","","","","","","1262.7999999998137","<p> Now, you will practice a shortened version of the game to get a sense of how it all fits together. </p>","","instructions","","","","","","","","","","","","","",""
"learning-instructions","61","334529","0.0-3.0-13.0-0.0-0.1","spark_pilot_2","7412","6","17","Male","","","","","","","230.60000000009313","<p>This time you are searching for treasure in outer space.</p>","","instructions","","","","","","","","","","","","","",""
"learning-instructions","62","350335","0.0-3.0-13.0-1.0-0.0","spark_pilot_2","7412","6","17","Male","","","","","","","939.6000000000931","<p> Remember, when you see a picture of the place, use the up and down keys to <b>find an animal</b>.</p>
            <p> When you encounter an animal, you should use the left and right keys to <b>select a treasure chest</b>.</p>
            <p> Don't forget to look out for the robber! </p>","","instructions","","","","","","","","","","","","","",""
"revaluation","63","356362","0.0-3.0-13.0-2.0-0.0","spark_pilot_2","7412","6","17","Male","","false","","","","","[1387.7999999998137,633.1000000000931]","./assets/img/space/11.jpg","[""ArrowUp"",""ArrowRight""]","practice block","space","36","{""ArrowUp,ArrowLeft"":3,""ArrowUp,ArrowRight"":36,""ArrowDown,ArrowLeft"":15,""ArrowDown,ArrowRight"":23}","true","ArrowUp,ArrowRight","false","","","","","","","",""
"html-keyboard-response","64","356874","0.0-3.0-13.0-2.0-1.0","spark_pilot_2","7412","6","17","Male","","","","","","","null","<div style=""font-size:60px;"">+</div>","null","fixation","","","","","","","","","","","","","",""
"revaluation","65","362906","0.0-3.0-13.0-2.0-0.1","spark_pilot_2","7412","6","17","Male","","false","","","","","[728.7999999998137,476.10000000009313]","./assets/img/space/12.jpg","[""ArrowUp"",""ArrowRight""]","practice block","space","36","{""ArrowUp,ArrowLeft"":3,""ArrowUp,ArrowRight"":36,""ArrowDown,ArrowLeft"":15,""ArrowDown,ArrowRight"":23}","true","ArrowUp,ArrowRight","false","","","","","","","",""
"html-keyboard-response","66","363409","0.0-3.0-13.0-2.0-1.1","spark_pilot_2","7412","6","17","Male","","","","","","","null","<div style=""font-size:60px;"">+</div>","null","fixation","","","","","","","","","","","","","",""
"revaluation","67","369442","0.0-3.0-13.0-2.0-0.2","spark_pilot_2","7412","6","17","Male","","false","","","","","[623,357.60000000009313]","./assets/img/space/13.jpg","[""ArrowUp"",""ArrowRight""]","practice block","space","36","{""ArrowUp,ArrowLeft"":3,""ArrowUp,ArrowRight"":36,""ArrowDown,ArrowLeft"":15,""ArrowDown,ArrowRight"":23}","true","ArrowUp,ArrowRight","false","","","","","","","",""
"html-keyboard-response","68","369945","0.0-3.0-13.0-2.0-1.2","spark_pilot_2","7412","6","17","Male","","","","","","","null","<div style=""font-size:60px;"">+</div>","null","fixation","","","","","","","","","","","","","",""
"revaluation","69","375970","0.0-3.0-13.0-2.0-0.3","spark_pilot_2","7412","6","17","Male","","false","","","","","[810.2000000001863,296.5]","./assets/img/space/14.jpg","[""ArrowUp"",""ArrowRight""]","practice block","space","36","{""ArrowUp,ArrowLeft"":3,""ArrowUp,ArrowRight"":36,""ArrowDown,ArrowLeft"":15,""ArrowDown,ArrowRight"":23}","true","ArrowUp,ArrowRight","false","","","","","","","",""
"html-keyboard-response","70","376474","0.0-3.0-13.0-2.0-1.3","spark_pilot_2","7412","6","17","Male","","","","","","","null","<div style=""font-size:60px;"">+</div>","null","fixation","","","","","","","","","","","","","",""
"revaluation","71","382506","0.0-3.0-13.0-2.0-0.4","spark_pilot_2","7412","6","17","Male","","false","","","","","[585.8999999999069,508.79999999981374]","./assets/img/space/11.jpg","[""ArrowUp"",""ArrowRight""]","practice block","space","36","{""ArrowUp,ArrowLeft"":3,""ArrowUp,ArrowRight"":36,""ArrowDown,ArrowLeft"":15,""ArrowDown,ArrowRight"":23}","true","ArrowUp,ArrowRight","false","","","","","","","",""
"html-keyboard-response","72","383017","0.0-3.0-13.0-2.0-1.4","spark_pilot_2","7412","6","17","Male","","","","","","","null","<div style=""font-size:60px;"">+</div>","null","fixation","","","","","","","","","","","","","",""
"revaluation","73","389050","0.0-3.0-13.0-2.0-0.5","spark_pilot_2","7412","6","17","Male","","false","","","","","[1114.3999999999069,500.29999999981374]","./assets/img/space/12.jpg","[""ArrowUp"",""ArrowRight""]","practice block","space","36","{""ArrowUp,ArrowLeft"":3,""ArrowUp,ArrowRight"":36,""ArrowDown,ArrowLeft"":15,""ArrowDown,ArrowRight"":23}","true","ArrowUp,ArrowRight","false","","","","","","","",""
"html-keyboard-response","74","389562","0.0-3.0-13.0-2.0-1.5","spark_pilot_2","7412","6","17","Male","","","","","","","null","<div style=""font-size:60px;"">+</div>","null","fixation","","","","","","","","","","","","","",""
"revaluation","75","395595","0.0-3.0-13.0-2.0-0.6","spark_pilot_2","7412","6","17","Male","","false","","","","","[842.7999999998137,417.09999999962747]","./assets/img/space/13.jpg","[""ArrowUp"",""ArrowRight""]","practice block","space","36","{""ArrowUp,ArrowLeft"":3,""ArrowUp,ArrowRight"":36,""ArrowDown,ArrowLeft"":15,""ArrowDown,ArrowRight"":23}","true","ArrowUp,ArrowRight","false","","","","","","","",""
"html-keyboard-response","76","396105","0.0-3.0-13.0-2.0-1.6","spark_pilot_2","7412","6","17","Male","","","","","","","null","<div style=""font-size:60px;"">+</div>","null","fixation","","","","","","","","","","","","","",""
"revaluation","77","402138","0.0-3.0-13.0-2.0-0.7","spark_pilot_2","7412","6","17","Male","","false","","","","","[606.8999999999069,346.1999999997206]","./assets/img/space/14.jpg","[""ArrowUp"",""ArrowRight""]","practice block","space","36","{""ArrowUp,ArrowLeft"":3,""ArrowUp,ArrowRight"":36,""ArrowDown,ArrowLeft"":15,""ArrowDown,ArrowRight"":23}","true","ArrowUp,ArrowRight","false","","","","","","","",""
"html-keyboard-response","78","402649","0.0-3.0-13.0-2.0-1.7","spark_pilot_2","7412","6","17","Male","","","","","","","null","<div style=""font-size:60px;"">+</div>","null","fixation","","","","","","","","","","","","","",""
"revaluation","79","406674","0.0-3.0-13.0-2.0-0.8","spark_pilot_2","7412","6","17","Male","","false","","","","","[775]","./assets/img/space/catch/3.jpg","[""spaceBar""]","practice block","space","0","{""ArrowUp,ArrowLeft"":3,""ArrowUp,ArrowRight"":36,""ArrowDown,ArrowLeft"":15,""ArrowDown,ArrowRight"":23}","true","spaceBar","true","","","","","","","",""
"html-keyboard-response","80","407178","0.0-3.0-13.0-2.0-1.8","spark_pilot_2","7412","6","17","Male","","","","","","","null","<div style=""font-size:60px;"">+</div>","null","fixation","","","","","","","","","","","","","",""
"learning-instructions","81","422009","0.0-3.0-13.0-3.0-0.0","spark_pilot_2","7412","6","17","Male","","","","","","","1785.2000000001863","<p> Now, you will travel with a friend who will choose whether you go up or down first. </p>
            <p> On these turns, you will just see the animal that they found. You will still get to choose which chest to search for treasure.</p>","","instructions","","","","","","","","","","","","","",""
"revaluation","82","426035","0.0-3.0-13.0-4.0-0.0","spark_pilot_2","7412","6","17","Male","","false","","","","","[1109.1000000000931]","./assets/img/space/animals/rabbit.jpg","[""ArrowRight""]","practice block","space","23","{""ArrowUp,ArrowLeft"":3,""ArrowUp,ArrowRight"":36,""ArrowDown,ArrowLeft"":15,""ArrowDown,ArrowRight"":23}","true","ArrowDown,ArrowRight","","","","","","","","",""
"html-keyboard-response","83","426546","0.0-3.0-13.0-4.0-1.0","spark_pilot_2","7412","6","17","Male","","","","","","","null","<div style=""font-size:60px;"">+</div>","null","fixation","","","","","","","","","","","","","",""
"revaluation","84","430571","0.0-3.0-13.0-4.0-0.1","spark_pilot_2","7412","6","17","Male","","false","","","","","[512]","./assets/img/space/animals/rabbit.jpg","[""ArrowLeft""]","practice block","space","15","{""ArrowUp,ArrowLeft"":3,""ArrowUp,ArrowRight"":36,""ArrowDown,ArrowLeft"":15,""ArrowDown,ArrowRight"":23}","false","ArrowDown,ArrowLeft","","","","","","","","",""
"html-keyboard-response","85","431082","0.0-3.0-13.0-4.0-1.1","spark_pilot_2","7412","6","17","Male","","","","","","","null","<div style=""font-size:60px;"">+</div>","null","fixation","","","","","","","","","","","","","",""
"revaluation","86","435098","0.0-3.0-13.0-4.0-0.2","spark_pilot_2","7412","6","17","Male","","false","","","","","[789.8999999999069]","./assets/img/space/animals/cat.jpg","[""ArrowRight""]","practice block","space","36","{""ArrowUp,ArrowLeft"":3,""ArrowUp,ArrowRight"":36,""ArrowDown,ArrowLeft"":15,""ArrowDown,ArrowRight"":23}","true","ArrowUp,ArrowRight","","","","","","","","",""
"html-keyboard-response","87","435602","0.0-3.0-13.0-4.0-1.2","spark_pilot_2","7412","6","17","Male","","","","","","","null","<div style=""font-size:60px;"">+</div>","null","fixation","","","","","","","","","","","","","",""
"revaluation","88","439619","0.0-3.0-13.0-4.0-0.3","spark_pilot_2","7412","6","17","Male","","false","","","","","[299.20000000018626]","./assets/img/space/animals/cat.jpg","[""ArrowRight""]","practice block","space","36","{""ArrowUp,ArrowLeft"":3,""ArrowUp,ArrowRight"":36,""ArrowDown,ArrowLeft"":15,""ArrowDown,ArrowRight"":23}","true","ArrowUp,ArrowRight","","","","","","","","",""
"html-keyboard-response","89","440130","0.0-3.0-13.0-4.0-1.3","spark_pilot_2","7412","6","17","Male","","","","","","","null","<div style=""font-size:60px;"">+</div>","null","fixation","","","","","","","","","","","","","",""
"learning-instructions","90","448878","0.0-3.0-13.0-5.0-0.0","spark_pilot_2","7412","6","17","Male","","","","","","","1307.8000000002794","<p> Time to play the dot game! </p>
            <p> For 15 seconds, click the red dots on the following screen as they appear. </p>","","instructions","","","","","","","","","","","","","",""
"revaluation","91","463888","0.0-3.0-13.0-6.0-0.0","spark_pilot_2","7412","6","17","Male","","","","","","","[71,83]","","","rest practice","","20","","","","","0","15000","","","","","",""
"learning-instructions","92","472021","0.0-3.0-13.0-7.0-0.0","spark_pilot_2","7412","6","17","Male","","","","","","","1944.5","<p> You have almost finished this part of the game! </p>
            <p> We are going to ask you to make a few more choices. </p>","","instructions","","","","","","","","","","","","","",""
"learning-instructions","93","487785","0.0-3.0-13.0-7.0-0.1","spark_pilot_2","7412","6","17","Male","","","","","","","1642.2999999998137","<p> First, you need to decide whether to go up or down. When you see each picture, use the arrow keys to make your choice. </p>
            <p><b>You will not see which animal you found, but try to get to the one that will give you the most treasure.</b></p>","","instructions","","","","","","","","","","","","","",""
"revaluation","94","488720","0.0-3.0-13.0-8.0","spark_pilot_2","7412","6","17","Male","","false","","","","","[925.3000000002794]","./assets/img/space/15.jpg","[""ArrowUp""]","practice block","space","0","{""ArrowUp,ArrowLeft"":3,""ArrowUp,ArrowRight"":36,""ArrowDown,ArrowLeft"":15,""ArrowDown,ArrowRight"":23}","true","ArrowUp","false","","","","","","","",""
"html-keyboard-response","95","489226","0.0-3.0-13.0-9.0","spark_pilot_2","7412","6","17","Male","","","","","","","null","<div style=""font-size:60px;"">+</div>","null","fixation","","","","","","","","","","","","","",""
"learning-instructions","96","501929","0.0-3.0-13.0-10.0-0.0","spark_pilot_2","7412","6","17","Male","","","","","","","1233.4000000003725","<p> Now you will see the animals again and can search their chests for treasure. </p>
            <p> This time, you will not see how much treasure you earned, but you will earn more bonus money for making better choices. </p>","","instructions","","","","","","","","","","","","","",""
"revaluation","97","502614","0.0-3.0-13.0-11.0-0.0","spark_pilot_2","7412","6","17","Male","","false","","","","","[676.7999999998137]","./assets/img/space/animals/cat.jpg","[""ArrowRight""]","practice block","space","0","{""ArrowUp,ArrowLeft"":3,""ArrowUp,ArrowRight"":36,""ArrowDown,ArrowLeft"":15,""ArrowDown,ArrowRight"":23}","true","ArrowUp,ArrowRight","","","","","","","","",""
"html-keyboard-response","98","503122","0.0-3.0-13.0-11.0-1.0","spark_pilot_2","7412","6","17","Male","","","","","","","null","<div style=""font-size:60px;"">+</div>","null","fixation","","","","","","","","","","","","","",""
"revaluation","99","503977","0.0-3.0-13.0-11.0-0.1","spark_pilot_2","7412","6","17","Male","","false","","","","","[846.5]","./assets/img/space/animals/rabbit.jpg","[""ArrowRight""]","practice block","space","0","{""ArrowUp,ArrowLeft"":3,""ArrowUp,ArrowRight"":36,""ArrowDown,ArrowLeft"":15,""ArrowDown,ArrowRight"":23}","true","ArrowDown,ArrowRight","","","","","","","","",""
"html-keyboard-response","100","504482","0.0-3.0-13.0-11.0-1.1","spark_pilot_2","7412","6","17","Male","","","","","","","null","<div style=""font-size:60px;"">+</div>","null","fixation","","","","","","","","","","","","","",""
"learning-instructions","101","509678","0.0-3.0-14.0-0.0","spark_pilot_2","7412","6","17","Male","","","","","","","570.8999999999069","<p> Before you start, we're going to ask you a few questions about how the game works. </p>","","instructions","","","","","","","","","","","","","",""
"comp-q","102","516469","0.0-3.0-15.0-0.0-0.0","spark_pilot_2","7412","6","17","Male","","","","","","","1115.1999999997206","<p> <b> True or False? </b> </p>
            <p> There can be 50 pieces of treasure in a given animal's chest. </p>","1","comp_question","","","","true","","","","","","","","","",""
"comp-q","103","524291","0.0-3.0-15.0-0.0-1.0","spark_pilot_2","7412","6","17","Male","","","","","","","1099.8999999999069","<p> <b> That's right! </b> The amount of treasure in each chest can range from 0 to 40 pieces. </p>","0","comp_answer","","","","","","","","","","","","","",""
"comp-q","104","532307","0.0-3.0-15.0-0.1-0.1","spark_pilot_2","7412","6","17","Male","","","","","","","809.2000000001863","<p> <b> True or False? </b> </p><p> In this game, all animals have the same amount of treasure in their left and right chests. </p>","1","comp_question","","","","true","","","","","","","","","",""
"comp-q","105","538738","0.0-3.0-15.0-0.1-1.1","spark_pilot_2","7412","6","17","Male","","","","","","","1131.5","<p> <b> That's right! </b> Animals have different amounts of treasure in their treasure chests. </p>","0","comp_answer","","","","","","","","","","","","","",""
"comp-q","106","545134","0.0-3.0-15.0-0.2-0.2","spark_pilot_2","7412","6","17","Male","","","","","","","492.29999999981374","<p> <b> True or False? </b> </p><p> The same animal will always be there if you go up in the same place. </p>","0","comp_question","","","","true","","","","","","","","","",""
"comp-q","107","552479","0.0-3.0-15.0-0.2-1.2","spark_pilot_2","7412","6","17","Male","","","","","","","833.3999999999069","<p> <b> That's right! </b> One animal lives in the upper part and one lives in the lower part of every place. </p>","0","comp_answer","","","","","","","","","","","","","",""
"comp-q","108","558523","0.0-3.0-15.0-0.3-0.3","spark_pilot_2","7412","6","17","Male","","","","","","","457.5","<p> <b> True or False? </b> </p><p> If you see a different picture, it means you are in a new place. </p>","1","comp_question","","","","true","","","","","","","","","",""
"comp-q","109","570695","0.0-3.0-15.0-0.3-1.3","spark_pilot_2","7412","6","17","Male","","","","","","","849.2999999998137","<p> <b> That's right! </b> Lots of different images may show the same place. For example,  you may see three different images that all remind you that you are in outer space. </p>","0","comp_answer","","","","","","","","","","","","","",""
"learning-instructions","110","581828","0.0-3.0-16.0-0.0","spark_pilot_2","7412","6","17","Male","","","","","","","1183.1000000000931","<p> Good job. Remember to do your best because the amount of treasure you earn will be converted into bonus money. </p>
            <p> It’s time to start the real game! </p>","","instructions","","","","","","","","","","","","","",""
"learning-instructions","111","587810","0.0-4.0-0.0-0.0","spark_pilot_2","7412","6","17","Male","","","","","","","3177.2999999998137","<p> This time you are searching for treasure in the <b>canyon</b>.</p>","","instructions","","","","","","","","","","","","","",""
"learning-instructions","112","605996","0.0-4.0-0.0-0.1","spark_pilot_2","7412","6","17","Male","","","","","","","755","<p><b>New</b> animals with <b>new</b> treasure chests live here. You need to explore to discover where the animal with the best treasure chest is.</p>
                    <p> Like before, once you figure out which animal has the chest with the most treasure, you should try to get to that animal and select that chest! </p>","","instructions","","","","","","","","","","","","","",""
"learning-instructions","113","621110","0.0-4.0-1.0-0.0","spark_pilot_2","7412","6","17","Male","","","","","","","388.70000000018626","<p> Remember, when you see a picture of the place, use the up and down keys to <b>find an animal</b>.</p>
            <p> When you encounter an animal, you should use the left and right keys to <b>select a treasure chest</b>.</p>
            <p> Don't forget to look out for the robber! </p>","","instructions","","","","","","","","","","","","","",""
"revaluation","114","627147","0.0-4.0-2.0-0.0","spark_pilot_2","7412","6","17","Male","","false","","","","","[1366.1000000000931,660]","./assets/img/canyon/memory/28.jpg","[""ArrowUp"",""ArrowRight""]","value training","canyon","10","{""ArrowUp,ArrowLeft"":23,""ArrowUp,ArrowRight"":10,""ArrowDown,ArrowLeft"":8,""ArrowDown,ArrowRight"":30}","false","ArrowUp,ArrowRight","false","","","revaluation","1","0","","",""
"html-keyboard-response","115","627666","0.0-4.0-2.0-1.0","spark_pilot_2","7412","6","17","Male","","","","","","","null","<div style=""font-size:60px;"">+</div>","null","fixation","","","","","","","","","","","1","","",""
"revaluation","116","633698","0.0-4.0-2.0-0.1","spark_pilot_2","7412","6","17","Male","","false","","","","","[571.7999999998137,593.1000000000931]","./assets/img/canyon/memory/27.jpg","[""ArrowUp"",""ArrowLeft""]","value training","canyon","23","{""ArrowUp,ArrowLeft"":23,""ArrowUp,ArrowRight"":10,""ArrowDown,ArrowLeft"":8,""ArrowDown,ArrowRight"":30}","false","ArrowUp,ArrowLeft","false","","","revaluation","1","2","","",""
"html-keyboard-response","117","634202","0.0-4.0-2.0-1.1","spark_pilot_2","7412","6","17","Male","","","","","","","null","<div style=""font-size:60px;"">+</div>","null","fixation","","","","","","","","","","","3","","",""
"revaluation","118","640227","0.0-4.0-2.0-0.2","spark_pilot_2","7412","6","17","Male","","false","","","","","[349.5,883.1000000000931]","./assets/img/canyon/memory/37.jpg","[""ArrowDown"",""ArrowLeft""]","value training","canyon","8","{""ArrowUp,ArrowLeft"":23,""ArrowUp,ArrowRight"":10,""ArrowDown,ArrowLeft"":8,""ArrowDown,ArrowRight"":30}","false","ArrowDown,ArrowLeft","false","","","revaluation","1","4","","",""
"html-keyboard-response","119","640738","0.0-4.0-2.0-1.2","spark_pilot_2","7412","6","17","Male","","","","","","","null","<div style=""font-size:60px;"">+</div>","null","fixation","","","","","","","","","","","5","","",""
"revaluation","120","644762","0.0-4.0-2.0-0.3","spark_pilot_2","7412","6","17","Male","","false","","","","","[356.10000000009313]","./assets/img/canyon/catch/2.jpg","[""ArrowDown""]","value training","canyon","-10","{""ArrowUp,ArrowLeft"":23,""ArrowUp,ArrowRight"":10,""ArrowDown,ArrowLeft"":8,""ArrowDown,ArrowRight"":30}","false","ArrowDown","true","","","revaluation","1","6","","",""
"html-keyboard-response","121","645266","0.0-4.0-2.0-1.3","spark_pilot_2","7412","6","17","Male","","","","","","","null","<div style=""font-size:60px;"">+</div>","null","fixation","","","","","","","","","","","7","","",""
"revaluation","122","651291","0.0-4.0-2.0-0.4","spark_pilot_2","7412","6","17","Male","","false","","","","","[502.39999999990687,356.60000000009313]","./assets/img/canyon/memory/19.jpg","[""ArrowDown"",""ArrowRight""]","value training","canyon","30","{""ArrowUp,ArrowLeft"":23,""ArrowUp,ArrowRight"":10,""ArrowDown,ArrowLeft"":8,""ArrowDown,ArrowRight"":30}","true","ArrowDown,ArrowRight","false","","","revaluation","1","8","","",""
"html-keyboard-response","123","651801","0.0-4.0-2.0-1.4","spark_pilot_2","7412","6","17","Male","","","","","","","null","<div style=""font-size:60px;"">+</div>","null","fixation","","","","","","","","","","","9","","",""
"revaluation","124","655826","0.0-4.0-2.0-0.5","spark_pilot_2","7412","6","17","Male","","false","","","","","[707.7999999998137]","./assets/img/canyon/catch/0.jpg","[""ArrowDown""]","value training","canyon","-10","{""ArrowUp,ArrowLeft"":23,""ArrowUp,ArrowRight"":10,""ArrowDown,ArrowLeft"":8,""ArrowDown,ArrowRight"":30}","false","ArrowDown","true","","","revaluation","1","10","","",""
"html-keyboard-response","125","656330","0.0-4.0-2.0-1.5","spark_pilot_2","7412","6","17","Male","","","","","","","null","<div style=""font-size:60px;"">+</div>","null","fixation","","","","","","","","","","","11","","",""
"revaluation","126","662362","0.0-4.0-2.0-0.6","spark_pilot_2","7412","6","17","Male","","false","","","","","[773.6000000000931,390.10000000009313]","./assets/img/canyon/memory/38.jpg","[""ArrowDown"",""ArrowRight""]","value training","canyon","30","{""ArrowUp,ArrowLeft"":23,""ArrowUp,ArrowRight"":10,""ArrowDown,ArrowLeft"":8,""ArrowDown,ArrowRight"":30}","true","ArrowDown,ArrowRight","false","","","revaluation","1","12","","",""
"html-keyboard-response","127","662865","0.0-4.0-2.0-1.6","spark_pilot_2","7412","6","17","Male","","","","","","","null","<div style=""font-size:60px;"">+</div>","null","fixation","","","","","","","","","","","13","","",""
"revaluation","128","668898","0.0-4.0-2.0-0.7","spark_pilot_2","7412","6","17","Male","","false","","","","","[997,552.5]","./assets/img/canyon/memory/5.jpg","[""ArrowDown"",""ArrowRight""]","value training","canyon","30","{""ArrowUp,ArrowLeft"":23,""ArrowUp,ArrowRight"":10,""ArrowDown,ArrowLeft"":8,""ArrowDown,ArrowRight"":30}","true","ArrowDown,ArrowRight","false","","","revaluation","1","14","","",""
"html-keyboard-response","129","669409","0.0-4.0-2.0-1.7","spark_pilot_2","7412","6","17","Male","","","","","","","null","<div style=""font-size:60px;"">+</div>","null","fixation","","","","","","","","","","","15","","",""
"revaluation","130","675443","0.0-4.0-2.0-0.8","spark_pilot_2","7412","6","17","Male","","false","","","","","[1049.6000000000931,487.20000000018626]","./assets/img/canyon/memory/18.jpg","[""ArrowDown"",""ArrowRight""]","value training","canyon","30","{""ArrowUp,ArrowLeft"":23,""ArrowUp,ArrowRight"":10,""ArrowDown,ArrowLeft"":8,""ArrowDown,ArrowRight"":30}","true","ArrowDown,ArrowRight","false","","","revaluation","1","16","","",""
"html-keyboard-response","131","675954","0.0-4.0-2.0-1.8","spark_pilot_2","7412","6","17","Male","","","","","","","null","<div style=""font-size:60px;"">+</div>","null","fixation","","","","","","","","","","","17","","",""
"revaluation","132","681986","0.0-4.0-2.0-0.9","spark_pilot_2","7412","6","17","Male","","false","","","","","[642.3999999999069,427.6999999997206]","./assets/img/canyon/memory/3.jpg","[""ArrowDown"",""ArrowRight""]","value training","canyon","30","{""ArrowUp,ArrowLeft"":23,""ArrowUp,ArrowRight"":10,""ArrowDown,ArrowLeft"":8,""ArrowDown,ArrowRight"":30}","true","ArrowDown,ArrowRight","false","","","revaluation","1","18","","",""
"html-keyboard-response","133","682489","0.0-4.0-2.0-1.9","spark_pilot_2","7412","6","17","Male","","","","","","","null","<div style=""font-size:60px;"">+</div>","null","fixation","","","","","","","","","","","19","","",""
"revaluation","134","686522","0.0-4.0-2.0-0.10","spark_pilot_2","7412","6","17","Male","","false","","","","","[649.1999999997206]","./assets/img/canyon/catch/5.jpg","[""spaceBar""]","value training","canyon","0","{""ArrowUp,ArrowLeft"":23,""ArrowUp,ArrowRight"":10,""ArrowDown,ArrowLeft"":8,""ArrowDown,ArrowRight"":30}","true","spaceBar","true","","","revaluation","1","20","","",""
"html-keyboard-response","135","687025","0.0-4.0-2.0-1.10","spark_pilot_2","7412","6","17","Male","","","","","","","null","<div style=""font-size:60px;"">+</div>","null","fixation","","","","","","","","","","","21","","",""
"revaluation","136","693059","0.0-4.0-2.0-0.11","spark_pilot_2","7412","6","17","Male","","false","","","","","[631.8000000002794,345]","./assets/img/canyon/memory/37.jpg","[""ArrowDown"",""ArrowRight""]","value training","canyon","30","{""ArrowUp,ArrowLeft"":23,""ArrowUp,ArrowRight"":10,""ArrowDown,ArrowLeft"":8,""ArrowDown,ArrowRight"":30}","true","ArrowDown,ArrowRight","false","","","revaluation","1","22","","",""
"html-keyboard-response","137","693570","0.0-4.0-2.0-1.11","spark_pilot_2","7412","6","17","Male","","","","","","","null","<div style=""font-size:60px;"">+</div>","null","fixation","","","","","","","","","","","23","","",""
"revaluation","138","699602","0.0-4.0-2.0-0.12","spark_pilot_2","7412","6","17","Male","","false","","","","","[942,451.5]","./assets/img/canyon/memory/7.jpg","[""ArrowDown"",""ArrowRight""]","value training","canyon","30","{""ArrowUp,ArrowLeft"":23,""ArrowUp,ArrowRight"":10,""ArrowDown,ArrowLeft"":8,""ArrowDown,ArrowRight"":30}","true","ArrowDown,ArrowRight","false","","","revaluation","1","24","","",""
"html-keyboard-response","139","700114","0.0-4.0-2.0-1.12","spark_pilot_2","7412","6","17","Male","","","","","","","null","<div style=""font-size:60px;"">+</div>","null","fixation","","","","","","","","","","","25","","",""
"revaluation","140","706139","0.0-4.0-2.0-0.13","spark_pilot_2","7412","6","17","Male","","false","","","","","[760.4000000003725,335.10000000009313]","./assets/img/canyon/memory/3.jpg","[""ArrowDown"",""ArrowRight""]","value training","canyon","30","{""ArrowUp,ArrowLeft"":23,""ArrowUp,ArrowRight"":10,""ArrowDown,ArrowLeft"":8,""ArrowDown,ArrowRight"":30}","true","ArrowDown,ArrowRight","false","","","revaluation","1","26","","",""
"html-keyboard-response","141","706650","0.0-4.0-2.0-1.13","spark_pilot_2","7412","6","17","Male","","","","","","","null","<div style=""font-size:60px;"">+</div>","null","fixation","","","","","","","","","","","27","","",""
"revaluation","142","712683","0.0-4.0-2.0-0.14","spark_pilot_2","7412","6","17","Male","","false","","","","","[743.8999999999069,325]","./assets/img/canyon/memory/1.jpg","[""ArrowDown"",""ArrowRight""]","value training","canyon","30","{""ArrowUp,ArrowLeft"":23,""ArrowUp,ArrowRight"":10,""ArrowDown,ArrowLeft"":8,""ArrowDown,ArrowRight"":30}","true","ArrowDown,ArrowRight","false","","","revaluation","1","28","","",""
"html-keyboard-response","143","713193","0.0-4.0-2.0-1.14","spark_pilot_2","7412","6","17","Male","","","","","","","null","<div style=""font-size:60px;"">+</div>","null","fixation","","","","","","","","","","","29","","",""
"revaluation","144","719227","0.0-4.0-2.0-0.15","spark_pilot_2","7412","6","17","Male","","false","","","","","[577.6000000000931,414.39999999990687]","./assets/img/canyon/memory/8.jpg","[""ArrowDown"",""ArrowRight""]","value training","canyon","30","{""ArrowUp,ArrowLeft"":23,""ArrowUp,ArrowRight"":10,""ArrowDown,ArrowLeft"":8,""ArrowDown,ArrowRight"":30}","true","ArrowDown,ArrowRight","false","","","revaluation","1","30","","",""
"html-keyboard-response","145","719737","0.0-4.0-2.0-1.15","spark_pilot_2","7412","6","17","Male","","","","","","","null","<div style=""font-size:60px;"">+</div>","null","fixation","","","","","","","","","","","31","","",""
"revaluation","146","725770","0.0-4.0-2.0-0.16","spark_pilot_2","7412","6","17","Male","","false","","","","","[512.6000000000931,559.5]","./assets/img/canyon/memory/31.jpg","[""ArrowDown"",""ArrowRight""]","value training","canyon","30","{""ArrowUp,ArrowLeft"":23,""ArrowUp,ArrowRight"":10,""ArrowDown,ArrowLeft"":8,""ArrowDown,ArrowRight"":30}","true","ArrowDown,ArrowRight","false","","","revaluation","1","32","","",""
"html-keyboard-response","147","726282","0.0-4.0-2.0-1.16","spark_pilot_2","7412","6","17","Male","","","","","","","null","<div style=""font-size:60px;"">+</div>","null","fixation","","","","","","","","","","","33","","",""
"revaluation","148","732315","0.0-4.0-2.0-0.17","spark_pilot_2","7412","6","17","Male","","false","","","","","[690.8999999999069,307.89999999990687]","./assets/img/canyon/memory/21.jpg","[""ArrowDown"",""ArrowRight""]","value training","canyon","30","{""ArrowUp,ArrowLeft"":23,""ArrowUp,ArrowRight"":10,""ArrowDown,ArrowLeft"":8,""ArrowDown,ArrowRight"":30}","true","ArrowDown,ArrowRight","false","","","revaluation","1","34","","",""
"html-keyboard-response","149","732826","0.0-4.0-2.0-1.17","spark_pilot_2","7412","6","17","Male","","","","","","","null","<div style=""font-size:60px;"">+</div>","null","fixation","","","","","","","","","","","35","","",""
"revaluation","150","736850","0.0-4.0-2.0-0.18","spark_pilot_2","7412","6","17","Male","","false","","","","","[638.8999999999069]","./assets/img/canyon/catch/7.jpg","[""spaceBar""]","value training","canyon","0","{""ArrowUp,ArrowLeft"":23,""ArrowUp,ArrowRight"":10,""ArrowDown,ArrowLeft"":8,""ArrowDown,ArrowRight"":30}","true","spaceBar","true","","","revaluation","1","36","","",""
"html-keyboard-response","151","737361","0.0-4.0-2.0-1.18","spark_pilot_2","7412","6","17","Male","","","","","","","null","<div style=""font-size:60px;"">+</div>","null","fixation","","","","","","","","","","","37","","",""
"revaluation","152","743394","0.0-4.0-2.0-0.19","spark_pilot_2","7412","6","17","Male","","false","","","","","[697.1000000000931,417.1999999997206]","./assets/img/canyon/memory/41.jpg","[""ArrowDown"",""ArrowRight""]","value training","canyon","30","{""ArrowUp,ArrowLeft"":23,""ArrowUp,ArrowRight"":10,""ArrowDown,ArrowLeft"":8,""ArrowDown,ArrowRight"":30}","true","ArrowDown,ArrowRight","false","","","revaluation","1","38","","",""
"html-keyboard-response","153","743906","0.0-4.0-2.0-1.19","spark_pilot_2","7412","6","17","Male","","","","","","","null","<div style=""font-size:60px;"">+</div>","null","fixation","","","","","","","","","","","39","","",""
"revaluation","154","747930","0.0-4.0-2.0-0.20","spark_pilot_2","7412","6","17","Male","","false","","","","","[607.1000000000931]","./assets/img/canyon/catch/4.jpg","[""spaceBar""]","value training","canyon","0","{""ArrowUp,ArrowLeft"":23,""ArrowUp,ArrowRight"":10,""ArrowDown,ArrowLeft"":8,""ArrowDown,ArrowRight"":30}","true","spaceBar","true","","","revaluation","1","40","","",""
"html-keyboard-response","155","748442","0.0-4.0-2.0-1.20","spark_pilot_2","7412","6","17","Male","","","","","","","null","<div style=""font-size:60px;"">+</div>","null","fixation","","","","","","","","","","","41","","",""
"revaluation","156","754474","0.0-4.0-2.0-0.21","spark_pilot_2","7412","6","17","Male","","false","","","","","[636.7999999998137,367.8000000002794]","./assets/img/canyon/memory/13.jpg","[""ArrowDown"",""ArrowRight""]","value training","canyon","30","{""ArrowUp,ArrowLeft"":23,""ArrowUp,ArrowRight"":10,""ArrowDown,ArrowLeft"":8,""ArrowDown,ArrowRight"":30}","true","ArrowDown,ArrowRight","false","","","revaluation","1","42","","",""
"html-keyboard-response","157","754977","0.0-4.0-2.0-1.21","spark_pilot_2","7412","6","17","Male","","","","","","","null","<div style=""font-size:60px;"">+</div>","null","fixation","","","","","","","","","","","43","","",""
"revaluation","158","761002","0.0-4.0-2.0-0.22","spark_pilot_2","7412","6","17","Male","","false","","","","","[686.1999999997206,436]","./assets/img/canyon/memory/21.jpg","[""ArrowDown"",""ArrowRight""]","value training","canyon","30","{""ArrowUp,ArrowLeft"":23,""ArrowUp,ArrowRight"":10,""ArrowDown,ArrowLeft"":8,""ArrowDown,ArrowRight"":30}","true","ArrowDown,ArrowRight","false","","","revaluation","1","44","","",""
"html-keyboard-response","159","761514","0.0-4.0-2.0-1.22","spark_pilot_2","7412","6","17","Male","","","","","","","null","<div style=""font-size:60px;"">+</div>","null","fixation","","","","","","","","","","","45","","",""
"revaluation","160","767546","0.0-4.0-2.0-0.23","spark_pilot_2","7412","6","17","Male","","false","","","","","[716.7999999998137,97.1999999997206]","./assets/img/canyon/memory/16.jpg","[""ArrowDown"",""ArrowRight""]","value training","canyon","30","{""ArrowUp,ArrowLeft"":23,""ArrowUp,ArrowRight"":10,""ArrowDown,ArrowLeft"":8,""ArrowDown,ArrowRight"":30}","true","ArrowDown,ArrowRight","false","","","revaluation","1","46","","",""
"html-keyboard-response","161","768058","0.0-4.0-2.0-1.23","spark_pilot_2","7412","6","17","Male","","","","","","","null","<div style=""font-size:60px;"">+</div>","null","fixation","","","","","","","","","","","47","","",""
"revaluation","162","774091","0.0-4.0-2.0-0.24","spark_pilot_2","7412","6","17","Male","","false","","","","","[754.8999999999069,543.6999999997206]","./assets/img/canyon/memory/13.jpg","[""ArrowDown"",""ArrowRight""]","value training","canyon","30","{""ArrowUp,ArrowLeft"":23,""ArrowUp,ArrowRight"":10,""ArrowDown,ArrowLeft"":8,""ArrowDown,ArrowRight"":30}","true","ArrowDown,ArrowRight","false","","","revaluation","1","48","","",""
"html-keyboard-response","163","774601","0.0-4.0-2.0-1.24","spark_pilot_2","7412","6","17","Male","","","","","","","null","<div style=""font-size:60px;"">+</div>","null","fixation","","","","","","","","","","","49","","",""
"revaluation","164","780634","0.0-4.0-2.0-0.25","spark_pilot_2","7412","6","17","Male","","false","","","","","[650.1000000000931,326.10000000009313]","./assets/img/canyon/memory/19.jpg","[""ArrowDown"",""ArrowRight""]","value training","canyon","30","{""ArrowUp,ArrowLeft"":23,""ArrowUp,ArrowRight"":10,""ArrowDown,ArrowLeft"":8,""ArrowDown,ArrowRight"":30}","true","ArrowDown,ArrowRight","false","","","revaluation","1","50","","",""
"html-keyboard-response","165","781137","0.0-4.0-2.0-1.25","spark_pilot_2","7412","6","17","Male","","","","","","","null","<div style=""font-size:60px;"">+</div>","null","fixation","","","","","","","","","","","51","","",""
"revaluation","166","787170","0.0-4.0-2.0-0.26","spark_pilot_2","7412","6","17","Male","","false","","","","","[667.3000000002794,319.1999999997206]","./assets/img/canyon/memory/9.jpg","[""ArrowDown"",""ArrowRight""]","value training","canyon","30","{""ArrowUp,ArrowLeft"":23,""ArrowUp,ArrowRight"":10,""ArrowDown,ArrowLeft"":8,""ArrowDown,ArrowRight"":30}","true","ArrowDown,ArrowRight","false","","","revaluation","1","52","","",""
"html-keyboard-response","167","787681","0.0-4.0-2.0-1.26","spark_pilot_2","7412","6","17","Male","","","","","","","null","<div style=""font-size:60px;"">+</div>","null","fixation","","","","","","","","","","","53","","",""
"revaluation","168","793715","0.0-4.0-2.0-0.27","spark_pilot_2","7412","6","17","Male","","false","","","","","[724.6000000000931,451.5]","./assets/img/canyon/memory/18.jpg","[""ArrowDown"",""ArrowRight""]","value training","canyon","30","{""ArrowUp,ArrowLeft"":23,""ArrowUp,ArrowRight"":10,""ArrowDown,ArrowLeft"":8,""ArrowDown,ArrowRight"":30}","true","ArrowDown,ArrowRight","false","","","revaluation","1","54","","",""
"html-keyboard-response","169","794226","0.0-4.0-2.0-1.27","spark_pilot_2","7412","6","17","Male","","","","","","","null","<div style=""font-size:60px;"">+</div>","null","fixation","","","","","","","","","","","55","","",""
"revaluation","170","800259","0.0-4.0-2.0-0.28","spark_pilot_2","7412","6","17","Male","","false","","","","","[612.2000000001863,206.20000000018626]","./assets/img/canyon/memory/34.jpg","[""ArrowDown"",""ArrowRight""]","value training","canyon","30","{""ArrowUp,ArrowLeft"":23,""ArrowUp,ArrowRight"":10,""ArrowDown,ArrowLeft"":8,""ArrowDown,ArrowRight"":30}","true","ArrowDown,ArrowRight","false","","","revaluation","1","56","","",""
"html-keyboard-response","171","800770","0.0-4.0-2.0-1.28","spark_pilot_2","7412","6","17","Male","","","","","","","null","<div style=""font-size:60px;"">+</div>","null","fixation","","","","","","","","","","","57","","",""
"revaluation","172","804795","0.0-4.0-2.0-0.29","spark_pilot_2","7412","6","17","Male","","false","","","","","[752.8999999999069]","./assets/img/canyon/catch/1.jpg","[""spaceBar""]","value training","canyon","0","{""ArrowUp,ArrowLeft"":23,""ArrowUp,ArrowRight"":10,""ArrowDown,ArrowLeft"":8,""ArrowDown,ArrowRight"":30}","true","spaceBar","true","","","revaluation","1","58","","",""
"html-keyboard-response","173","805306","0.0-4.0-2.0-1.29","spark_pilot_2","7412","6","17","Male","","","","","","","null","<div style=""font-size:60px;"">+</div>","null","fixation","","","","","","","","","","","59","","",""
"revaluation","174","811339","0.0-4.0-2.0-0.30","spark_pilot_2","7412","6","17","Male","","false","","","","","[704.1000000000931,225.6999999997206]","./assets/img/canyon/memory/5.jpg","[""ArrowDown"",""ArrowRight""]","value training","canyon","30","{""ArrowUp,ArrowLeft"":23,""ArrowUp,ArrowRight"":10,""ArrowDown,ArrowLeft"":8,""ArrowDown,ArrowRight"":30}","true","ArrowDown,ArrowRight","false","","","revaluation","1","60","","",""
"html-keyboard-response","175","811849","0.0-4.0-2.0-1.30","spark_pilot_2","7412","6","17","Male","","","","","","","null","<div style=""font-size:60px;"">+</div>","null","fixation","","","","","","","","","","","61","","",""
"revaluation","176","817882","0.0-4.0-2.0-0.31","spark_pilot_2","7412","6","17","Male","","false","","","","","[809.7999999998137,306.60000000009313]","./assets/img/canyon/memory/10.jpg","[""ArrowDown"",""ArrowRight""]","value training","canyon","30","{""ArrowUp,ArrowLeft"":23,""ArrowUp,ArrowRight"":10,""ArrowDown,ArrowLeft"":8,""ArrowDown,ArrowRight"":30}","true","ArrowDown,ArrowRight","false","","","revaluation","1","62","","",""
"html-keyboard-response","177","818385","0.0-4.0-2.0-1.31","spark_pilot_2","7412","6","17","Male","","","","","","","null","<div style=""font-size:60px;"">+</div>","null","fixation","","","","","","","","","","","63","","",""
"revaluation","178","822410","0.0-4.0-2.0-0.32","spark_pilot_2","7412","6","17","Male","","false","","","","","[570.5]","./assets/img/canyon/catch/3.jpg","[""spaceBar""]","value training","canyon","0","{""ArrowUp,ArrowLeft"":23,""ArrowUp,ArrowRight"":10,""ArrowDown,ArrowLeft"":8,""ArrowDown,ArrowRight"":30}","true","spaceBar","true","","","revaluation","1","64","","",""
"html-keyboard-response","179","822914","0.0-4.0-2.0-1.32","spark_pilot_2","7412","6","17","Male","","","","","","","null","<div style=""font-size:60px;"">+</div>","null","fixation","","","","","","","","","","","65","","",""
"revaluation","180","828947","0.0-4.0-2.0-0.33","spark_pilot_2","7412","6","17","Male","","false","","","","","[572.1000000000931,1028.1000000000931]","./assets/img/canyon/memory/4.jpg","[""ArrowDown"",""ArrowRight""]","value training","canyon","30","{""ArrowUp,ArrowLeft"":23,""ArrowUp,ArrowRight"":10,""ArrowDown,ArrowLeft"":8,""ArrowDown,ArrowRight"":30}","true","ArrowDown,ArrowRight","false","","","revaluation","1","66","","",""
"html-keyboard-response","181","829458","0.0-4.0-2.0-1.33","spark_pilot_2","7412","6","17","Male","","","","","","","null","<div style=""font-size:60px;"">+</div>","null","fixation","","","","","","","","","","","67","","",""
"revaluation","182","835491","0.0-4.0-2.0-0.34","spark_pilot_2","7412","6","17","Male","","false","","","","","[656.5,373.39999999990687]","./assets/img/canyon/memory/8.jpg","[""ArrowDown"",""ArrowRight""]","value training","canyon","30","{""ArrowUp,ArrowLeft"":23,""ArrowUp,ArrowRight"":10,""ArrowDown,ArrowLeft"":8,""ArrowDown,ArrowRight"":30}","true","ArrowDown,ArrowRight","false","","","revaluation","1","68","","",""
"html-keyboard-response","183","836002","0.0-4.0-2.0-1.34","spark_pilot_2","7412","6","17","Male","","","","","","","null","<div style=""font-size:60px;"">+</div>","null","fixation","","","","","","","","","","","69","","",""
"revaluation","184","842034","0.0-4.0-2.0-0.35","spark_pilot_2","7412","6","17","Male","","false","","","","","[700.5,402.5]","./assets/img/canyon/memory/16.jpg","[""ArrowDown"",""ArrowRight""]","value training","canyon","30","{""ArrowUp,ArrowLeft"":23,""ArrowUp,ArrowRight"":10,""ArrowDown,ArrowLeft"":8,""ArrowDown,ArrowRight"":30}","true","ArrowDown,ArrowRight","false","","","revaluation","1","70","","",""
"html-keyboard-response","185","842545","0.0-4.0-2.0-1.35","spark_pilot_2","7412","6","17","Male","","","","","","","null","<div style=""font-size:60px;"">+</div>","null","fixation","","","","","","","","","","","71","","",""
"revaluation","186","848578","0.0-4.0-2.0-0.36","spark_pilot_2","7412","6","17","Male","","false","","","","","[722.8999999999069,369.6999999997206]","./assets/img/canyon/memory/7.jpg","[""ArrowDown"",""ArrowRight""]","value training","canyon","30","{""ArrowUp,ArrowLeft"":23,""ArrowUp,ArrowRight"":10,""ArrowDown,ArrowLeft"":8,""ArrowDown,ArrowRight"":30}","true","ArrowDown,ArrowRight","false","","","revaluation","1","72","","",""
"html-keyboard-response","187","849081","0.0-4.0-2.0-1.36","spark_pilot_2","7412","6","17","Male","","","","","","","null","<div style=""font-size:60px;"">+</div>","null","fixation","","","","","","","","","","","73","","",""
"revaluation","188","855114","0.0-4.0-2.0-0.37","spark_pilot_2","7412","6","17","Male","","false","","","","","[705,327.29999999981374]","./assets/img/canyon/memory/0.jpg","[""ArrowDown"",""ArrowRight""]","value training","canyon","30","{""ArrowUp,ArrowLeft"":23,""ArrowUp,ArrowRight"":10,""ArrowDown,ArrowLeft"":8,""ArrowDown,ArrowRight"":30}","true","ArrowDown,ArrowRight","false","","","revaluation","1","74","","",""
"html-keyboard-response","189","855625","0.0-4.0-2.0-1.37","spark_pilot_2","7412","6","17","Male","","","","","","","null","<div style=""font-size:60px;"">+</div>","null","fixation","","","","","","","","","","","75","","",""
"revaluation","190","861658","0.0-4.0-2.0-0.38","spark_pilot_2","7412","6","17","Male","","false","","","","","[628.2999999998137,389.5]","./assets/img/canyon/memory/10.jpg","[""ArrowDown"",""ArrowRight""]","value training","canyon","30","{""ArrowUp,ArrowLeft"":23,""ArrowUp,ArrowRight"":10,""ArrowDown,ArrowLeft"":8,""ArrowDown,ArrowRight"":30}","true","ArrowDown,ArrowRight","false","","","revaluation","1","76","","",""
"html-keyboard-response","191","862170","0.0-4.0-2.0-1.38","spark_pilot_2","7412","6","17","Male","","","","","","","null","<div style=""font-size:60px;"">+</div>","null","fixation","","","","","","","","","","","77","","",""
"revaluation","192","868202","0.0-4.0-2.0-0.39","spark_pilot_2","7412","6","17","Male","","false","","","","","[540.3999999999069,270]","./assets/img/canyon/memory/4.jpg","[""ArrowDown"",""ArrowRight""]","value training","canyon","30","{""ArrowUp,ArrowLeft"":23,""ArrowUp,ArrowRight"":10,""ArrowDown,ArrowLeft"":8,""ArrowDown,ArrowRight"":30}","true","ArrowDown,ArrowRight","false","","","revaluation","1","78","","",""
"html-keyboard-response","193","868705","0.0-4.0-2.0-1.39","spark_pilot_2","7412","6","17","Male","","","","","","","null","<div style=""font-size:60px;"">+</div>","null","fixation","","","","","","","","","","","79","","",""
"revaluation","194","874738","0.0-4.0-2.0-0.40","spark_pilot_2","7412","6","17","Male","","false","","","","","[550.1999999997206,430.20000000018626]","./assets/img/canyon/memory/31.jpg","[""ArrowDown"",""ArrowRight""]","value training","canyon","30","{""ArrowUp,ArrowLeft"":23,""ArrowUp,ArrowRight"":10,""ArrowDown,ArrowLeft"":8,""ArrowDown,ArrowRight"":30}","true","ArrowDown,ArrowRight","false","","","revaluation","1","80","","",""
"html-keyboard-response","195","875249","0.0-4.0-2.0-1.40","spark_pilot_2","7412","6","17","Male","","","","","","","null","<div style=""font-size:60px;"">+</div>","null","fixation","","","","","","","","","","","81","","",""
"revaluation","196","881283","0.0-4.0-2.0-0.41","spark_pilot_2","7412","6","17","Male","","false","","","","","[493.89999999990687,628.6999999997206]","./assets/img/canyon/memory/28.jpg","[""ArrowDown"",""ArrowRight""]","value training","canyon","30","{""ArrowUp,ArrowLeft"":23,""ArrowUp,ArrowRight"":10,""ArrowDown,ArrowLeft"":8,""ArrowDown,ArrowRight"":30}","true","ArrowDown,ArrowRight","false","","","revaluation","1","82","","",""
"html-keyboard-response","197","881794","0.0-4.0-2.0-1.41","spark_pilot_2","7412","6","17","Male","","","","","","","null","<div style=""font-size:60px;"">+</div>","null","fixation","","","","","","","","","","","83","","",""
"revaluation","198","887826","0.0-4.0-2.0-0.42","spark_pilot_2","7412","6","17","Male","","false","","","","","[1003.7999999998137,464.09999999962747]","./assets/img/canyon/memory/1.jpg","[""ArrowDown"",""ArrowRight""]","value training","canyon","30","{""ArrowUp,ArrowLeft"":23,""ArrowUp,ArrowRight"":10,""ArrowDown,ArrowLeft"":8,""ArrowDown,ArrowRight"":30}","true","ArrowDown,ArrowRight","false","","","revaluation","1","84","","",""
"html-keyboard-response","199","888337","0.0-4.0-2.0-1.42","spark_pilot_2","7412","6","17","Male","","","","","","","null","<div style=""font-size:60px;"">+</div>","null","fixation","","","","","","","","","","","85","","",""
"revaluation","200","894370","0.0-4.0-2.0-0.43","spark_pilot_2","7412","6","17","Male","","false","","","","","[511.20000000018626,491.6999999997206]","./assets/img/canyon/memory/41.jpg","[""ArrowDown"",""ArrowRight""]","value training","canyon","30","{""ArrowUp,ArrowLeft"":23,""ArrowUp,ArrowRight"":10,""ArrowDown,ArrowLeft"":8,""ArrowDown,ArrowRight"":30}","true","ArrowDown,ArrowRight","false","","","revaluation","1","86","","",""
"html-keyboard-response","201","894882","0.0-4.0-2.0-1.43","spark_pilot_2","7412","6","17","Male","","","","","","","null","<div style=""font-size:60px;"">+</div>","null","fixation","","","","","","","","","","","87","","",""
"revaluation","202","900914","0.0-4.0-2.0-0.44","spark_pilot_2","7412","6","17","Male","","false","","","","","[580.7999999998137,390]","./assets/img/canyon/memory/34.jpg","[""ArrowDown"",""ArrowRight""]","value training","canyon","30","{""ArrowUp,ArrowLeft"":23,""ArrowUp,ArrowRight"":10,""ArrowDown,ArrowLeft"":8,""ArrowDown,ArrowRight"":30}","true","ArrowDown,ArrowRight","false","","","revaluation","1","88","","",""
"html-keyboard-response","203","901426","0.0-4.0-2.0-1.44","spark_pilot_2","7412","6","17","Male","","","","","","","null","<div style=""font-size:60px;"">+</div>","null","fixation","","","","","","","","","","","89","","",""
"revaluation","204","907458","0.0-4.0-2.0-0.45","spark_pilot_2","7412","6","17","Male","","false","","","","","[629.8999999999069,372.39999999990687]","./assets/img/canyon/memory/27.jpg","[""ArrowDown"",""ArrowRight""]","value training","canyon","30","{""ArrowUp,ArrowLeft"":23,""ArrowUp,ArrowRight"":10,""ArrowDown,ArrowLeft"":8,""ArrowDown,ArrowRight"":30}","true","ArrowDown,ArrowRight","false","","","revaluation","1","90","","",""
"html-keyboard-response","205","907961","0.0-4.0-2.0-1.45","spark_pilot_2","7412","6","17","Male","","","","","","","null","<div style=""font-size:60px;"">+</div>","null","fixation","","","","","","","","","","","91","","",""
"revaluation","206","913994","0.0-4.0-2.0-0.46","spark_pilot_2","7412","6","17","Male","","false","","","","","[594.7000000001863,397.39999999990687]","./assets/img/canyon/memory/0.jpg","[""ArrowDown"",""ArrowRight""]","value training","canyon","30","{""ArrowUp,ArrowLeft"":23,""ArrowUp,ArrowRight"":10,""ArrowDown,ArrowLeft"":8,""ArrowDown,ArrowRight"":30}","true","ArrowDown,ArrowRight","false","","","revaluation","1","92","","",""
"html-keyboard-response","207","914505","0.0-4.0-2.0-1.46","spark_pilot_2","7412","6","17","Male","","","","","","","null","<div style=""font-size:60px;"">+</div>","null","fixation","","","","","","","","","","","93","","",""
"revaluation","208","918530","0.0-4.0-2.0-0.47","spark_pilot_2","7412","6","17","Male","","false","","","","","[511.20000000018626]","./assets/img/canyon/catch/6.jpg","[""spaceBar""]","value training","canyon","0","{""ArrowUp,ArrowLeft"":23,""ArrowUp,ArrowRight"":10,""ArrowDown,ArrowLeft"":8,""ArrowDown,ArrowRight"":30}","true","spaceBar","true","","","revaluation","1","94","","",""
"html-keyboard-response","209","919042","0.0-4.0-2.0-1.47","spark_pilot_2","7412","6","17","Male","","","","","","","null","<div style=""font-size:60px;"">+</div>","null","fixation","","","","","","","","","","","95","","",""
"revaluation","210","925074","0.0-4.0-2.0-0.48","spark_pilot_2","7412","6","17","Male","","false","","","","","[665.8000000002794,291.79999999981374]","./assets/img/canyon/memory/38.jpg","[""ArrowDown"",""ArrowRight""]","value training","canyon","30","{""ArrowUp,ArrowLeft"":23,""ArrowUp,ArrowRight"":10,""ArrowDown,ArrowLeft"":8,""ArrowDown,ArrowRight"":30}","true","ArrowDown,ArrowRight","false","","","revaluation","1","96","","",""
"html-keyboard-response","211","925579","0.0-4.0-2.0-1.48","spark_pilot_2","7412","6","17","Male","","","","","","","null","<div style=""font-size:60px;"">+</div>","null","fixation","","","","","","","","","","","97","","",""
"revaluation","212","931610","0.0-4.0-2.0-0.49","spark_pilot_2","7412","6","17","Male","","false","","","","","[873.6999999997206,426.6999999997206]","./assets/img/canyon/memory/9.jpg","[""ArrowDown"",""ArrowRight""]","value training","canyon","30","{""ArrowUp,ArrowLeft"":23,""ArrowUp,ArrowRight"":10,""ArrowDown,ArrowLeft"":8,""ArrowDown,ArrowRight"":30}","true","ArrowDown,ArrowRight","false","","","revaluation","1","98","","",""
"html-keyboard-response","213","932114","0.0-4.0-2.0-1.49","spark_pilot_2","7412","6","17","Male","","","","","","","null","<div style=""font-size:60px;"">+</div>","null","fixation","","","","","","","","","","","99","","",""
"learning-instructions","214","947571","0.0-4.0-3.0-0.0","spark_pilot_2","7412","6","17","Male","","","","","","","2549.100000000093","<p> Now, you will travel with a friend who will choose whether you go up or down first. </p>
            <p> On these turns, you will just see the animal that they found. You will still get to choose which chest to search for treasure.</p>","","instructions","","","","","","","","","","","","","",""
"revaluation","215","951595","0.0-4.0-4.0-0.0","spark_pilot_2","7412","6","17","Male","","false","","","","","[679.2000000001863]","./assets/img/canyon/animals/lion.jpg","[""ArrowRight""]","revaluation","canyon","7","{""ArrowUp,ArrowLeft"":27,""ArrowUp,ArrowRight"":15,""ArrowDown,ArrowLeft"":21,""ArrowDown,ArrowRight"":7}","false","ArrowDown,ArrowRight","","","","revaluation","1","0","","",""
"html-keyboard-response","216","952114","0.0-4.0-4.0-1.0","spark_pilot_2","7412","6","17","Male","","","","","","","null","<div style=""font-size:60px;"">+</div>","null","fixation","","","","","","","","","","","1","","",""
"revaluation","217","956139","0.0-4.0-4.0-0.1","spark_pilot_2","7412","6","17","Male","","false","","","","","[810.1999999997206]","./assets/img/canyon/animals/giraffe.jpg","[""ArrowRight""]","revaluation","canyon","15","{""ArrowUp,ArrowLeft"":27,""ArrowUp,ArrowRight"":15,""ArrowDown,ArrowLeft"":21,""ArrowDown,ArrowRight"":7}","false","ArrowUp,ArrowRight","","","","revaluation","1","2","","",""
"html-keyboard-response","218","956650","0.0-4.0-4.0-1.1","spark_pilot_2","7412","6","17","Male","","","","","","","null","<div style=""font-size:60px;"">+</div>","null","fixation","","","","","","","","","","","3","","",""
"revaluation","219","960675","0.0-4.0-4.0-0.2","spark_pilot_2","7412","6","17","Male","","false","","","","","[641.6000000000931]","./assets/img/canyon/animals/giraffe.jpg","[""ArrowLeft""]","revaluation","canyon","27","{""ArrowUp,ArrowLeft"":27,""ArrowUp,ArrowRight"":15,""ArrowDown,ArrowLeft"":21,""ArrowDown,ArrowRight"":7}","true","ArrowUp,ArrowLeft","","","","revaluation","1","4","","",""
"html-keyboard-response","220","961186","0.0-4.0-4.0-1.2","spark_pilot_2","7412","6","17","Male","","","","","","","null","<div style=""font-size:60px;"">+</div>","null","fixation","","","","","","","","","","","5","","",""
"revaluation","221","965202","0.0-4.0-4.0-0.3","spark_pilot_2","7412","6","17","Male","","false","","","","","[606.8999999999069]","./assets/img/canyon/animals/giraffe.jpg","[""ArrowLeft""]","revaluation","canyon","27","{""ArrowUp,ArrowLeft"":27,""ArrowUp,ArrowRight"":15,""ArrowDown,ArrowLeft"":21,""ArrowDown,ArrowRight"":7}","true","ArrowUp,ArrowLeft","","","","revaluation","1","6","","",""
"html-keyboard-response","222","965706","0.0-4.0-4.0-1.3","spark_pilot_2","7412","6","17","Male","","","","","","","null","<div style=""font-size:60px;"">+</div>","null","fixation","","","","","","","","","","","7","","",""
"revaluation","223","969731","0.0-4.0-4.0-0.4","spark_pilot_2","7412","6","17","Male","","false","","","","","[710.8999999999069]","./assets/img/canyon/animals/lion.jpg","[""ArrowLeft""]","revaluation","canyon","21","{""ArrowUp,ArrowLeft"":27,""ArrowUp,ArrowRight"":15,""ArrowDown,ArrowLeft"":21,""ArrowDown,ArrowRight"":7}","true","ArrowDown,ArrowLeft","","","","revaluation","1","8","","",""
"html-keyboard-response","224","970242","0.0-4.0-4.0-1.4","spark_pilot_2","7412","6","17","Male","","","","","","","null","<div style=""font-size:60px;"">+</div>","null","fixation","","","","","","","","","","","9","","",""
"revaluation","225","974267","0.0-4.0-4.0-0.5","spark_pilot_2","7412","6","17","Male","","false","","","","","[372.60000000009313]","./assets/img/canyon/animals/lion.jpg","[""ArrowLeft""]","revaluation","canyon","21","{""ArrowUp,ArrowLeft"":27,""ArrowUp,ArrowRight"":15,""ArrowDown,ArrowLeft"":21,""ArrowDown,ArrowRight"":7}","true","ArrowDown,ArrowLeft","","","","revaluation","1","10","","",""
"html-keyboard-response","226","974777","0.0-4.0-4.0-1.5","spark_pilot_2","7412","6","17","Male","","","","","","","null","<div style=""font-size:60px;"">+</div>","null","fixation","","","","","","","","","","","11","","",""
"revaluation","227","978802","0.0-4.0-4.0-0.6","spark_pilot_2","7412","6","17","Male","","false","","","","","[570.3000000002794]","./assets/img/canyon/animals/giraffe.jpg","[""ArrowLeft""]","revaluation","canyon","27","{""ArrowUp,ArrowLeft"":27,""ArrowUp,ArrowRight"":15,""ArrowDown,ArrowLeft"":21,""ArrowDown,ArrowRight"":7}","true","ArrowUp,ArrowLeft","","","","revaluation","1","12","","",""
"html-keyboard-response","228","979306","0.0-4.0-4.0-1.6","spark_pilot_2","7412","6","17","Male","","","","","","","null","<div style=""font-size:60px;"">+</div>","null","fixation","","","","","","","","","","","13","","",""
"revaluation","229","983331","0.0-4.0-4.0-0.7","spark_pilot_2","7412","6","17","Male","","false","","","","","[365.39999999990687]","./assets/img/canyon/animals/lion.jpg","[""ArrowLeft""]","revaluation","canyon","21","{""ArrowUp,ArrowLeft"":27,""ArrowUp,ArrowRight"":15,""ArrowDown,ArrowLeft"":21,""ArrowDown,ArrowRight"":7}","true","ArrowDown,ArrowLeft","","","","revaluation","1","14","","",""
"html-keyboard-response","230","983842","0.0-4.0-4.0-1.7","spark_pilot_2","7412","6","17","Male","","","","","","","null","<div style=""font-size:60px;"">+</div>","null","fixation","","","","","","","","","","","15","","",""
"revaluation","231","987866","0.0-4.0-4.0-0.8","spark_pilot_2","7412","6","17","Male","","false","","","","","[248.60000000009313]","./assets/img/canyon/animals/lion.jpg","[""ArrowLeft""]","revaluation","canyon","21","{""ArrowUp,ArrowLeft"":27,""ArrowUp,ArrowRight"":15,""ArrowDown,ArrowLeft"":21,""ArrowDown,ArrowRight"":7}","true","ArrowDown,ArrowLeft","","","","revaluation","1","16","","",""
"html-keyboard-response","232","988369","0.0-4.0-4.0-1.8","spark_pilot_2","7412","6","17","Male","","","","","","","null","<div style=""font-size:60px;"">+</div>","null","fixation","","","","","","","","","","","17","","",""
"revaluation","233","992395","0.0-4.0-4.0-0.9","spark_pilot_2","7412","6","17","Male","","false","","","","","[253.29999999981374]","./assets/img/canyon/animals/giraffe.jpg","[""ArrowLeft""]","revaluation","canyon","27","{""ArrowUp,ArrowLeft"":27,""ArrowUp,ArrowRight"":15,""ArrowDown,ArrowLeft"":21,""ArrowDown,ArrowRight"":7}","true","ArrowUp,ArrowLeft","","","","revaluation","1","18","","",""
"html-keyboard-response","234","992903","0.0-4.0-4.0-1.9","spark_pilot_2","7412","6","17","Male","","","","","","","null","<div style=""font-size:60px;"">+</div>","null","fixation","","","","","","","","","","","19","","",""
"revaluation","235","996931","0.0-4.0-4.0-0.10","spark_pilot_2","7412","6","17","Male","","false","","","","","[210]","./assets/img/canyon/animals/lion.jpg","[""ArrowLeft""]","revaluation","canyon","21","{""ArrowUp,ArrowLeft"":27,""ArrowUp,ArrowRight"":15,""ArrowDown,ArrowLeft"":21,""ArrowDown,ArrowRight"":7}","true","ArrowDown,ArrowLeft","","","","revaluation","1","20","","",""
"html-keyboard-response","236","997441","0.0-4.0-4.0-1.10","spark_pilot_2","7412","6","17","Male","","","","","","","null","<div style=""font-size:60px;"">+</div>","null","fixation","","","","","","","","","","","21","","",""
"revaluation","237","1001466","0.0-4.0-4.0-0.11","spark_pilot_2","7412","6","17","Male","","false","","","","","[382.8000000002794]","./assets/img/canyon/animals/giraffe.jpg","[""ArrowLeft""]","revaluation","canyon","27","{""ArrowUp,ArrowLeft"":27,""ArrowUp,ArrowRight"":15,""ArrowDown,ArrowLeft"":21,""ArrowDown,ArrowRight"":7}","true","ArrowUp,ArrowLeft","","","","revaluation","1","22","","",""
"html-keyboard-response","238","1001977","0.0-4.0-4.0-1.11","spark_pilot_2","7412","6","17","Male","","","","","","","null","<div style=""font-size:60px;"">+</div>","null","fixation","","","","","","","","","","","23","","",""
"revaluation","239","1005995","0.0-4.0-4.0-0.12","spark_pilot_2","7412","6","17","Male","","false","","","","","[158]","./assets/img/canyon/animals/lion.jpg","[""ArrowLeft""]","revaluation","canyon","21","{""ArrowUp,ArrowLeft"":27,""ArrowUp,ArrowRight"":15,""ArrowDown,ArrowLeft"":21,""ArrowDown,ArrowRight"":7}","true","ArrowDown,ArrowLeft","","","","revaluation","1","24","","",""
"html-keyboard-response","240","1006506","0.0-4.0-4.0-1.12","spark_pilot_2","7412","6","17","Male","","","","","","","null","<div style=""font-size:60px;"">+</div>","null","fixation","","","","","","","","","","","25","","",""
"revaluation","241","1010531","0.0-4.0-4.0-0.13","spark_pilot_2","7412","6","17","Male","","false","","","","","[112.5]","./assets/img/canyon/animals/giraffe.jpg","[""ArrowLeft""]","revaluation","canyon","27","{""ArrowUp,ArrowLeft"":27,""ArrowUp,ArrowRight"":15,""ArrowDown,ArrowLeft"":21,""ArrowDown,ArrowRight"":7}","true","ArrowUp,ArrowLeft","","","","revaluation","1","26","","",""
"html-keyboard-response","242","1011041","0.0-4.0-4.0-1.13","spark_pilot_2","7412","6","17","Male","","","","","","","null","<div style=""font-size:60px;"">+</div>","null","fixation","","","","","","","","","","","27","","",""
"revaluation","243","1015066","0.0-4.0-4.0-0.14","spark_pilot_2","7412","6","17","Male","","false","","","","","[248.1999999997206]","./assets/img/canyon/animals/giraffe.jpg","[""ArrowLeft""]","revaluation","canyon","27","{""ArrowUp,ArrowLeft"":27,""ArrowUp,ArrowRight"":15,""ArrowDown,ArrowLeft"":21,""ArrowDown,ArrowRight"":7}","true","ArrowUp,ArrowLeft","","","","revaluation","1","28","","",""
"html-keyboard-response","244","1015577","0.0-4.0-4.0-1.14","spark_pilot_2","7412","6","17","Male","","","","","","","null","<div style=""font-size:60px;"">+</div>","null","fixation","","","","","","","","","","","29","","",""
"revaluation","245","1019603","0.0-4.0-4.0-0.15","spark_pilot_2","7412","6","17","Male","","false","","","","","[122.39999999990687]","./assets/img/canyon/animals/lion.jpg","[""ArrowLeft""]","revaluation","canyon","21","{""ArrowUp,ArrowLeft"":27,""ArrowUp,ArrowRight"":15,""ArrowDown,ArrowLeft"":21,""ArrowDown,ArrowRight"":7}","true","ArrowDown,ArrowLeft","","","","revaluation","1","30","","",""
"html-keyboard-response","246","1020113","0.0-4.0-4.0-1.15","spark_pilot_2","7412","6","17","Male","","","","","","","null","<div style=""font-size:60px;"">+</div>","null","fixation","","","","","","","","","","","31","","",""
"revaluation","247","1024138","0.0-4.0-4.0-0.16","spark_pilot_2","7412","6","17","Male","","false","","","","","[6.100000000093132]","./assets/img/canyon/animals/lion.jpg","[""ArrowLeft""]","revaluation","canyon","21","{""ArrowUp,ArrowLeft"":27,""ArrowUp,ArrowRight"":15,""ArrowDown,ArrowLeft"":21,""ArrowDown,ArrowRight"":7}","true","ArrowDown,ArrowLeft","","","","revaluation","1","32","","",""
"html-keyboard-response","248","1024649","0.0-4.0-4.0-1.16","spark_pilot_2","7412","6","17","Male","","","","","","","null","<div style=""font-size:60px;"">+</div>","null","fixation","","","","","","","","","","","33","","",""
"revaluation","249","1028675","0.0-4.0-4.0-0.17","spark_pilot_2","7412","6","17","Male","","false","","","","","[547.1000000000931]","./assets/img/canyon/animals/giraffe.jpg","[""ArrowLeft""]","revaluation","canyon","27","{""ArrowUp,ArrowLeft"":27,""ArrowUp,ArrowRight"":15,""ArrowDown,ArrowLeft"":21,""ArrowDown,ArrowRight"":7}","true","ArrowUp,ArrowLeft","","","","revaluation","1","34","","",""
"html-keyboard-response","250","1029186","0.0-4.0-4.0-1.17","spark_pilot_2","7412","6","17","Male","","","","","","","null","<div style=""font-size:60px;"">+</div>","null","fixation","","","","","","","","","","","35","","",""
"learning-instructions","251","1041046","0.0-4.0-5.0-0.0","spark_pilot_2","7412","6","17","Male","","","","","","","332.5","<p> Time to play the dot game! </p>
            <p> For one minute, click the red dots on the following screen as they appear. </p>
            <p><b> Don't look away, as you will earn bonus for clicking dots</b>. </p>","","instructions","","","","","","","","","","","","","",""
"revaluation","252","1101054","0.0-4.0-6.0-0.0","spark_pilot_2","7412","6","17","Male","","","","","","","[73,66,71,64,64,180]","","","rest","","60","","","","","0","60000","","","","","",""
"learning-instructions","253","1107222","0.0-4.0-7.0-0.0","spark_pilot_2","7412","6","17","Male","","","","","","","47.200000000186265","<p> You have almost finished this part of the game! </p>
            <p> We are going to ask you to make a few more choices. </p>","","instructions","","","","","","","","","","","","","",""
"learning-instructions","254","1121526","0.0-4.0-7.0-0.1","spark_pilot_2","7412","6","17","Male","","","","","","","341.10000000009313","<p> First, you need to decide whether to go up or down. When you see each picture, use the arrow keys to make your choice. </p>
            <p><b>You will not see which animal you found, but try to get to the one that will give you the most treasure.</b></p>","","instructions","","","","","","","","","","","","","",""
"revaluation","255","1122565","0.0-4.0-8.0-0.0","spark_pilot_2","7412","6","17","Male","","false","","","","","[1031.1000000000931]","./assets/img/canyon/test/1.jpg","[""ArrowUp""]","first stage test","canyon","0","{""ArrowUp,ArrowLeft"":27,""ArrowUp,ArrowRight"":15,""ArrowDown,ArrowLeft"":21,""ArrowDown,ArrowRight"":7}","true","ArrowUp","false","","","revaluation","1","","","",""
"html-keyboard-response","256","1123074","0.0-4.0-8.0-1.0","spark_pilot_2","7412","6","17","Male","","","","","","","null","<div style=""font-size:60px;"">+</div>","null","fixation","","","","","","","","","","","","","",""
"revaluation","257","1123922","0.0-4.0-8.0-0.1","spark_pilot_2","7412","6","17","Male","","false","","","","","[838.6999999997206]","./assets/img/canyon/test/0.jpg","[""ArrowUp""]","first stage test","canyon","0","{""ArrowUp,ArrowLeft"":27,""ArrowUp,ArrowRight"":15,""ArrowDown,ArrowLeft"":21,""ArrowDown,ArrowRight"":7}","true","ArrowUp","false","","","revaluation","1","","","",""
"html-keyboard-response","258","1124426","0.0-4.0-8.0-1.1","spark_pilot_2","7412","6","17","Male","","","","","","","null","<div style=""font-size:60px;"">+</div>","null","fixation","","","","","","","","","","","","","",""
"revaluation","259","1125598","0.0-4.0-8.0-0.2","spark_pilot_2","7412","6","17","Male","","false","","","","","[1163.3999999999069]","./assets/img/canyon/test/2.jpg","[""ArrowUp""]","first stage test","canyon","0","{""ArrowUp,ArrowLeft"":27,""ArrowUp,ArrowRight"":15,""ArrowDown,ArrowLeft"":21,""ArrowDown,ArrowRight"":7}","true","ArrowUp","false","","","revaluation","1","","","",""
"html-keyboard-response","260","1126106","0.0-4.0-8.0-1.2","spark_pilot_2","7412","6","17","Male","","","","","","","null","<div style=""font-size:60px;"">+</div>","null","fixation","","","","","","","","","","","","","",""
"revaluation","261","1127176","0.0-4.0-8.0-0.3","spark_pilot_2","7412","6","17","Male","","false","","","","","[1061.2999999998137]","./assets/img/canyon/test/3.jpg","[""ArrowUp""]","first stage test","canyon","0","{""ArrowUp,ArrowLeft"":27,""ArrowUp,ArrowRight"":15,""ArrowDown,ArrowLeft"":21,""ArrowDown,ArrowRight"":7}","true","ArrowUp","false","","","revaluation","1","","","",""
"html-keyboard-response","262","1127682","0.0-4.0-8.0-1.3","spark_pilot_2","7412","6","17","Male","","","","","","","null","<div style=""font-size:60px;"">+</div>","null","fixation","","","","","","","","","","","","","",""
"learning-instructions","263","1140243","0.0-4.0-9.0-0.0","spark_pilot_2","7412","6","17","Male","","","","","","","1222.6000000000931","<p> Now you will see the animals again and can search their chests for treasure. </p>
            <p> This time, you will not see how much treasure you earned, but you will earn more bonus money for making better choices. </p>","","instructions","","","","","","","","","","","","","",""
"revaluation","264","1141014","0.0-4.0-10.0-0.0","spark_pilot_2","7412","6","17","Male","","false","","","","","[761.8000000002794]","./assets/img/canyon/animals/giraffe.jpg","[""ArrowRight""]","second stage test","canyon","0","{""ArrowUp,ArrowLeft"":27,""ArrowUp,ArrowRight"":15,""ArrowDown,ArrowLeft"":21,""ArrowDown,ArrowRight"":7}","false","ArrowUp,ArrowRight","","","","revaluation","1","","","",""
"html-keyboard-response","265","1141521","0.0-4.0-10.0-1.0","spark_pilot_2","7412","6","17","Male","","","","","","","null","<div style=""font-size:60px;"">+</div>","null","fixation","","","","","","","","","","","","","",""
"revaluation","266","1142527","0.0-4.0-10.0-0.1","spark_pilot_2","7412","6","17","Male","","false","","","","","[997.3000000002794]","./assets/img/canyon/animals/giraffe.jpg","[""ArrowRight""]","second stage test","canyon","0","{""ArrowUp,ArrowLeft"":27,""ArrowUp,ArrowRight"":15,""ArrowDown,ArrowLeft"":21,""ArrowDown,ArrowRight"":7}","false","ArrowUp,ArrowRight","","","","revaluation","1","","","",""
"html-keyboard-response","267","1143033","0.0-4.0-10.0-1.1","spark_pilot_2","7412","6","17","Male","","","","","","","null","<div style=""font-size:60px;"">+</div>","null","fixation","","","","","","","","","","","","","",""
"revaluation","268","1144364","0.0-4.0-10.0-0.2","spark_pilot_2","7412","6","17","Male","","false","","","","","[1323.1000000000931]","./assets/img/canyon/animals/giraffe.jpg","[""ArrowRight""]","second stage test","canyon","0","{""ArrowUp,ArrowLeft"":27,""ArrowUp,ArrowRight"":15,""ArrowDown,ArrowLeft"":21,""ArrowDown,ArrowRight"":7}","false","ArrowUp,ArrowRight","","","","revaluation","1","","","",""
"html-keyboard-response","269","1144873","0.0-4.0-10.0-1.2","spark_pilot_2","7412","6","17","Male","","","","","","","null","<div style=""font-size:60px;"">+</div>","null","fixation","","","","","","","","","","","","","",""
"revaluation","270","1146603","0.0-4.0-10.0-0.3","spark_pilot_2","7412","6","17","Male","","false","","","","","[1720]","./assets/img/canyon/animals/giraffe.jpg","[""ArrowLeft""]","second stage test","canyon","0","{""ArrowUp,ArrowLeft"":27,""ArrowUp,ArrowRight"":15,""ArrowDown,ArrowLeft"":21,""ArrowDown,ArrowRight"":7}","true","ArrowUp,ArrowLeft","","","","revaluation","1","","","",""
"html-keyboard-response","271","1147113","0.0-4.0-10.0-1.3","spark_pilot_2","7412","6","17","Male","","","","","","","null","<div style=""font-size:60px;"">+</div>","null","fixation","","","","","","","","","","","","","",""
"revaluation","272","1148384","0.0-4.0-10.0-0.4","spark_pilot_2","7412","6","17","Male","","false","","","","","[1258.5999999996275]","./assets/img/canyon/animals/lion.jpg","[""ArrowRight""]","second stage test","canyon","0","{""ArrowUp,ArrowLeft"":27,""ArrowUp,ArrowRight"":15,""ArrowDown,ArrowLeft"":21,""ArrowDown,ArrowRight"":7}","false","ArrowDown,ArrowRight","","","","revaluation","1","","","",""
"html-keyboard-response","273","1148890","0.0-4.0-10.0-1.4","spark_pilot_2","7412","6","17","Male","","","","","","","null","<div style=""font-size:60px;"">+</div>","null","fixation","","","","","","","","","","","","","",""
"revaluation","274","1149286","0.0-4.0-10.0-0.5","spark_pilot_2","7412","6","17","Male","","false","","","","","[382.10000000009313]","./assets/img/canyon/animals/lion.jpg","[""ArrowRight""]","second stage test","canyon","0","{""ArrowUp,ArrowLeft"":27,""ArrowUp,ArrowRight"":15,""ArrowDown,ArrowLeft"":21,""ArrowDown,ArrowRight"":7}","false","ArrowDown,ArrowRight","","","","revaluation","1","","","",""
"html-keyboard-response","275","1149793","0.0-4.0-10.0-1.5","spark_pilot_2","7412","6","17","Male","","","","","","","null","<div style=""font-size:60px;"">+</div>","null","fixation","","","","","","","","","","","","","",""
"revaluation","276","1150300","0.0-4.0-10.0-0.6","spark_pilot_2","7412","6","17","Male","","false","","","","","[498]","./assets/img/canyon/animals/lion.jpg","[""ArrowRight""]","second stage test","canyon","0","{""ArrowUp,ArrowLeft"":27,""ArrowUp,ArrowRight"":15,""ArrowDown,ArrowLeft"":21,""ArrowDown,ArrowRight"":7}","false","ArrowDown,ArrowRight","","","","revaluation","1","","","",""
"html-keyboard-response","277","1150809","0.0-4.0-10.0-1.6","spark_pilot_2","7412","6","17","Male","","","","","","","null","<div style=""font-size:60px;"">+</div>","null","fixation","","","","","","","","","","","","","",""
"revaluation","278","1151229","0.0-4.0-10.0-0.7","spark_pilot_2","7412","6","17","Male","","false","","","","","[412.3000000002794]","./assets/img/canyon/animals/lion.jpg","[""ArrowRight""]","second stage test","canyon","0","{""ArrowUp,ArrowLeft"":27,""ArrowUp,ArrowRight"":15,""ArrowDown,ArrowLeft"":21,""ArrowDown,ArrowRight"":7}","false","ArrowDown,ArrowRight","","","","revaluation","1","","","",""
"html-keyboard-response","279","1151737","0.0-4.0-10.0-1.7","spark_pilot_2","7412","6","17","Male","","","","","","","null","<div style=""font-size:60px;"">+</div>","null","fixation","","","","","","","","","","","","","",""
"learning-instructions","280","1155740","0.0-4.0-0.1-0.2","spark_pilot_2","7412","6","17","Male","","","","","","","1249.8000000002794","<p> This time you are searching for treasure in the <b>ocean</b>.</p>","","instructions","","","","","","","","","","","","","",""
"learning-instructions","281","1173349","0.0-4.0-0.1-0.3","spark_pilot_2","7412","6","17","Male","","","","","","","361","<p><b>New</b> animals with <b>new</b> treasure chests live here. You need to explore to discover where the animal with the best treasure chest is.</p>
                    <p> Like before, once you figure out which animal has the chest with the most treasure, you should try to get to that animal and select that chest! </p>","","instructions","","","","","","","","","","","","","",""
"learning-instructions","282","1188247","0.0-4.0-1.1-0.1","spark_pilot_2","7412","6","17","Male","","","","","","","173.3000000002794","<p> Remember, when you see a picture of the place, use the up and down keys to <b>find an animal</b>.</p>
            <p> When you encounter an animal, you should use the left and right keys to <b>select a treasure chest</b>.</p>
            <p> Don't forget to look out for the robber! </p>","","instructions","","","","","","","","","","","","","",""
"revaluation","283","1192266","0.0-4.0-2.1-0.50","spark_pilot_2","7412","6","17","Male","","false","","","","","[1080]","./assets/img/ocean/catch/7.jpg","[""ArrowDown""]","value training","ocean","-10","{""ArrowUp,ArrowLeft"":26,""ArrowUp,ArrowRight"":10,""ArrowDown,ArrowLeft"":5,""ArrowDown,ArrowRight"":17}","false","ArrowDown","true","","","original","2","0","","",""
"html-keyboard-response","284","1192769","0.0-4.0-2.1-1.50","spark_pilot_2","7412","6","17","Male","","","","","","","null","<div style=""font-size:60px;"">+</div>","null","fixation","","","","","","","","","","","1","","",""
"revaluation","285","1198802","0.0-4.0-2.1-0.51","spark_pilot_2","7412","6","17","Male","","false","","","","","[712.0999999996275,561.1000000000931]","./assets/img/ocean/memory/8.jpg","[""ArrowDown"",""ArrowRight""]","value training","ocean","17","{""ArrowUp,ArrowLeft"":26,""ArrowUp,ArrowRight"":10,""ArrowDown,ArrowLeft"":5,""ArrowDown,ArrowRight"":17}","false","ArrowDown,ArrowRight","false","","","original","2","2","","",""
"html-keyboard-response","286","1199313","0.0-4.0-2.1-1.51","spark_pilot_2","7412","6","17","Male","","","","","","","null","<div style=""font-size:60px;"">+</div>","null","fixation","","","","","","","","","","","3","","",""
"revaluation","287","1205346","0.0-4.0-2.1-0.52","spark_pilot_2","7412","6","17","Male","","false","","","","","[573.8999999999069,343.5]","./assets/img/ocean/memory/10.jpg","[""ArrowDown"",""ArrowLeft""]","value training","ocean","5","{""ArrowUp,ArrowLeft"":26,""ArrowUp,ArrowRight"":10,""ArrowDown,ArrowLeft"":5,""ArrowDown,ArrowRight"":17}","false","ArrowDown,ArrowLeft","false","","","original","2","4","","",""
"html-keyboard-response","288","1205857","0.0-4.0-2.1-1.52","spark_pilot_2","7412","6","17","Male","","","","","","","null","<div style=""font-size:60px;"">+</div>","null","fixation","","","","","","","","","","","5","","",""
"revaluation","289","1211890","0.0-4.0-2.1-0.53","spark_pilot_2","7412","6","17","Male","","false","","","","","[610.7000000001863,446.5]","./assets/img/ocean/memory/34.jpg","[""ArrowUp"",""ArrowRight""]","value training","ocean","10","{""ArrowUp,ArrowLeft"":26,""ArrowUp,ArrowRight"":10,""ArrowDown,ArrowLeft"":5,""ArrowDown,ArrowRight"":17}","false","ArrowUp,ArrowRight","false","","","original","2","6","","",""
"html-keyboard-response","290","1212401","0.0-4.0-2.1-1.53","spark_pilot_2","7412","6","17","Male","","","","","","","null","<div style=""font-size:60px;"">+</div>","null","fixation","","","","","","","","","","","7","","",""
"revaluation","291","1216426","0.0-4.0-2.1-0.54","spark_pilot_2","7412","6","17","Male","","false","","","","","[594.5]","./assets/img/ocean/catch/2.jpg","[""spaceBar""]","value training","ocean","0","{""ArrowUp,ArrowLeft"":26,""ArrowUp,ArrowRight"":10,""ArrowDown,ArrowLeft"":5,""ArrowDown,ArrowRight"":17}","true","spaceBar","true","","","original","2","8","","",""
"html-keyboard-response","292","1216938","0.0-4.0-2.1-1.54","spark_pilot_2","7412","6","17","Male","","","","","","","null","<div style=""font-size:60px;"">+</div>","null","fixation","","","","","","","","","","","9","","",""
"revaluation","293","1222970","0.0-4.0-2.1-0.55","spark_pilot_2","7412","6","17","Male","","false","","","","","[464.5,477.29999999981374]","./assets/img/ocean/memory/10.jpg","[""ArrowUp"",""ArrowLeft""]","value training","ocean","26","{""ArrowUp,ArrowLeft"":26,""ArrowUp,ArrowRight"":10,""ArrowDown,ArrowLeft"":5,""ArrowDown,ArrowRight"":17}","true","ArrowUp,ArrowLeft","false","","","original","2","10","","",""
"html-keyboard-response","294","1223481","0.0-4.0-2.1-1.55","spark_pilot_2","7412","6","17","Male","","","","","","","null","<div style=""font-size:60px;"">+</div>","null","fixation","","","","","","","","","","","11","","",""
"revaluation","295","1229506","0.0-4.0-2.1-0.56","spark_pilot_2","7412","6","17","Male","","false","","","","","[663.7000000001863,277.39999999990687]","./assets/img/ocean/memory/16.jpg","[""ArrowDown"",""ArrowRight""]","value training","ocean","17","{""ArrowUp,ArrowLeft"":26,""ArrowUp,ArrowRight"":10,""ArrowDown,ArrowLeft"":5,""ArrowDown,ArrowRight"":17}","false","ArrowDown,ArrowRight","false","","","original","2","12","","",""
"html-keyboard-response","296","1230017","0.0-4.0-2.1-1.56","spark_pilot_2","7412","6","17","Male","","","","","","","null","<div style=""font-size:60px;"">+</div>","null","fixation","","","","","","","","","","","13","","",""
"revaluation","297","1234042","0.0-4.0-2.1-0.57","spark_pilot_2","7412","6","17","Male","","false","","","","","[756.2000000001863]","./assets/img/ocean/catch/4.jpg","[""spaceBar""]","value training","ocean","0","{""ArrowUp,ArrowLeft"":26,""ArrowUp,ArrowRight"":10,""ArrowDown,ArrowLeft"":5,""ArrowDown,ArrowRight"":17}","true","spaceBar","true","","","original","2","14","","",""
"html-keyboard-response","298","1234553","0.0-4.0-2.1-1.57","spark_pilot_2","7412","6","17","Male","","","","","","","null","<div style=""font-size:60px;"">+</div>","null","fixation","","","","","","","","","","","15","","",""
"revaluation","299","1238586","0.0-4.0-2.1-0.58","spark_pilot_2","7412","6","17","Male","","false","","","","","[714.3999999999069]","./assets/img/ocean/catch/1.jpg","[""spaceBar""]","value training","ocean","0","{""ArrowUp,ArrowLeft"":26,""ArrowUp,ArrowRight"":10,""ArrowDown,ArrowLeft"":5,""ArrowDown,ArrowRight"":17}","true","spaceBar","true","","","original","2","16","","",""
"html-keyboard-response","300","1239097","0.0-4.0-2.1-1.58","spark_pilot_2","7412","6","17","Male","","","","","","","null","<div style=""font-size:60px;"">+</div>","null","fixation","","","","","","","","","","","17","","",""
"revaluation","301","1245131","0.0-4.0-2.1-0.59","spark_pilot_2","7412","6","17","Male","","false","","","","","[588.6999999997206,322.3000000002794]","./assets/img/ocean/memory/4.jpg","[""ArrowUp"",""ArrowLeft""]","value training","ocean","26","{""ArrowUp,ArrowLeft"":26,""ArrowUp,ArrowRight"":10,""ArrowDown,ArrowLeft"":5,""ArrowDown,ArrowRight"":17}","true","ArrowUp,ArrowLeft","false","","","original","2","18","","",""
"html-keyboard-response","302","1245641","0.0-4.0-2.1-1.59","spark_pilot_2","7412","6","17","Male","","","","","","","null","<div style=""font-size:60px;"">+</div>","null","fixation","","","","","","","","","","","19","","",""
"revaluation","303","1251674","0.0-4.0-2.1-0.60","spark_pilot_2","7412","6","17","Male","","false","","","","","[617.7000000001863,231]","./assets/img/ocean/memory/5.jpg","[""ArrowUp"",""ArrowLeft""]","value training","ocean","26","{""ArrowUp,ArrowLeft"":26,""ArrowUp,ArrowRight"":10,""ArrowDown,ArrowLeft"":5,""ArrowDown,ArrowRight"":17}","true","ArrowUp,ArrowLeft","false","","","original","2","20","","",""
"html-keyboard-response","304","1252186","0.0-4.0-2.1-1.60","spark_pilot_2","7412","6","17","Male","","","","","","","null","<div style=""font-size:60px;"">+</div>","null","fixation","","","","","","","","","","","21","","",""
"revaluation","305","1258218","0.0-4.0-2.1-0.61","spark_pilot_2","7412","6","17","Male","","false","","","","","[751.1000000000931,697.1000000000931]","./assets/img/ocean/memory/41.jpg","[""ArrowUp"",""ArrowLeft""]","value training","ocean","26","{""ArrowUp,ArrowLeft"":26,""ArrowUp,ArrowRight"":10,""ArrowDown,ArrowLeft"":5,""ArrowDown,ArrowRight"":17}","true","ArrowUp,ArrowLeft","false","","","original","2","22","","",""
"html-keyboard-response","306","1258730","0.0-4.0-2.1-1.61","spark_pilot_2","7412","6","17","Male","","","","","","","null","<div style=""font-size:60px;"">+</div>","null","fixation","","","","","","","","","","","23","","",""
"revaluation","307","1264762","0.0-4.0-2.1-0.62","spark_pilot_2","7412","6","17","Male","","false","","","","","[510.29999999981374,353.89999999990687]","./assets/img/ocean/memory/7.jpg","[""ArrowUp"",""ArrowLeft""]","value training","ocean","26","{""ArrowUp,ArrowLeft"":26,""ArrowUp,ArrowRight"":10,""ArrowDown,ArrowLeft"":5,""ArrowDown,ArrowRight"":17}","true","ArrowUp,ArrowLeft","false","","","original","2","24","","",""
