"trial_type","trial_index","time_elapsed","internal_node_id","task_version","subject_id","assigned_condition","age","gender","browser_interaction","success","timeout","failed_images","failed_audio","failed_video","rt","stimulus","response","task_part","environment","score","rewardMap","correct","fullState","isCatch","numberMissed","duration","condition","order","trial_num","key_press","ground_truth","bonus"
"pavlovia","0","2191","0.0-0.0","spark_pilot_2","7320","7","12","Male","[{""event"":""blur"",""trial"":1,""time"":16997},{""event"":""focus"",""trial"":1,""time"":27043},{""event"":""blur"",""trial"":1,""time"":36062},{""event"":""focus"",""trial"":2,""time"":39605},{""event"":""fullscreenenter"",""trial"":2,""time"":40078},{""event"":""blur"",""trial"":108,""time"":643564},{""event"":""focus"",""trial"":108,""time"":646091}]","","","","","","","","","","","","","","","","","","","","","","",""
"preload","1","36856","0.0-1.0","spark_pilot_2","7320","7","12","Male","[{""event"":""blur"",""trial"":1,""time"":16997},{""event"":""focus"",""trial"":1,""time"":27043},{""event"":""blur"",""trial"":1,""time"":36062},{""event"":""focus"",""trial"":2,""time"":39605},{""event"":""fullscreenenter"",""trial"":2,""time"":40078},{""event"":""blur"",""trial"":108,""time"":643564},{""event"":""focus"",""trial"":108,""time"":646091}]","true","false","[]","[]","[]","","","","","","","","","","","","","","","","","",""
"fullscreen","2","40807","0.0-2.0","spark_pilot_2","7320","7","12","Male","","true","","","","","","","","","","","","","","","","","","","","","",""
"audio-button-response","3","42843","0.0-3.0-0.0-0.0","spark_pilot_2","7320","7","12","Male","","","","","","","1840","./assets/audio/audiotest/turtle.mp3","2","audio_test","","","","","","","","","","","","","",""
"learning-instructions","4","51405","0.0-3.0-1.0-0.0","spark_pilot_2","7320","7","12","Male","","","","","","","1496","<p> Welcome! Please remember to stay in fullscreen mode and don't click away from the experiment. </p>","","instructions","","","","","","","","","","","","","",""
"learning-instructions","5","60940","0.0-3.0-1.0-0.1","spark_pilot_2","7320","7","12","Male","","","","","","","962","<p> Today you will be playing a game to earn treasure. </p>
            <p> At the end of the experiment, you will earn a bonus based on how much treasure you find. </p>
            <img src='./assets/img/instructions/treasure.jpg' class='instructions-image'>","","instructions","","","","","","","","","","","","","",""
"learning-instructions","6","70493","0.0-3.0-1.0-0.2","spark_pilot_2","7320","7","12","Male","","","","","","","1144","<p> Animals have hidden treasure in treasure chests. </p>
            <p> You need to first find an animal and then choose which of their treasure chests to search. </p>
            <img src='./assets/img/space/animals/cat.jpg' class='instructions-image'>","","instructions","","","","","","","","","","","","","",""
"learning-instructions","7","84973","0.0-3.0-1.0-0.3","spark_pilot_2","7320","7","12","Male","","","","","","","1104","<p> In each round, you will search for treasure in a different place. In the real game, there will be two rounds. </p>
            <p> You will begin with a separate, practice round where you will search for treasure in outer space. </p>
            <img src='./assets/img/space/0.jpg' class='instructions-image'>","","instructions","","","","","","","","","","","","","",""
"learning-instructions","8","99452","0.0-3.0-1.0-0.4","spark_pilot_2","7320","7","12","Male","","","","","","","2862","<p> On every turn, you will see a picture of the place that you are in, but the specific image may be different each time. </p>
            <p> For example, both of these images mean you are in outer space. </p>
            <img src='./assets/img/instructions/outerspace.jpg' class='instructions-image'>","","instructions","","","","","","","","","","","","","",""
"learning-instructions","9","112557","0.0-3.0-1.0-0.5","spark_pilot_2","7320","7","12","Male","","","","","","","5127","<p> You need to decide which direction to travel in. </p>
            <p> You can choose between going <b>up or down</b> by using the arrow keys. </p>
            <img src='./assets/img/instructions/updown.jpg' class='instructions-image'>","","instructions","","","","","","","","","","","","","",""
"learning-instructions","10","123261","0.0-3.0-1.0-0.6","spark_pilot_2","7320","7","12","Male","","","","","","","1723","<p> You will have <b>2 seconds</b> to make your choice. </p>
            <p> If you do not make a choice within 2 seconds, you will not find an animal or earn treasure. </p>
            <img src='./assets/img/instructions/2seconds.jpg' class='instructions-image'>","","instructions","","","","","","","","","","","","","",""
"learning-instructions","11","133700","0.0-3.0-1.0-0.7","spark_pilot_2","7320","7","12","Male","","","","","","","3253","<p> Let’s try practicing that now! </p>
            <p> When you see a picture of the place you are in, press the <b>up</b> key to travel up. </p>
            <img src='./assets/img/instructions/pressUp.jpg' class='instructions-image'>","","instructions","","","","","","","","","","","","","",""
"revaluation","12","137748","0.0-3.0-2.0-0.0","spark_pilot_2","7320","7","12","Male","","","false","","","","[1656]","./assets/img/space/0.jpg","[""ArrowUp""]","first stage practice","space","0","null","null","ArrowUp","false","","","","","","","",""
"html-keyboard-response","13","138266","0.0-3.0-2.0-1.0","spark_pilot_2","7320","7","12","Male","","","","","","","null","<div style=""font-size:60px;"">+</div>","null","fixation","","","","","","","","","","","","","",""
"revaluation","14","142308","0.0-3.0-2.0-0.1","spark_pilot_2","7320","7","12","Male","","","false","","","","[1280]","./assets/img/space/1.jpg","[""ArrowUp""]","first stage practice","space","0","null","null","ArrowUp","false","","","","","","","",""
"html-keyboard-response","15","142827","0.0-3.0-2.0-1.1","spark_pilot_2","7320","7","12","Male","","","","","","","null","<div style=""font-size:60px;"">+</div>","null","fixation","","","","","","","","","","","","","",""
"revaluation","16","146878","0.0-3.0-2.0-0.2","spark_pilot_2","7320","7","12","Male","","","false","","","","[1181]","./assets/img/space/2.jpg","[""ArrowUp""]","first stage practice","space","0","null","null","ArrowUp","false","","","","","","","",""
"html-keyboard-response","17","147396","0.0-3.0-2.0-1.2","spark_pilot_2","7320","7","12","Male","","","","","","","null","<div style=""font-size:60px;"">+</div>","null","fixation","","","","","","","","","","","","","",""
"learning-instructions","18","160198","0.0-3.0-3.0-0.0","spark_pilot_2","7320","7","12","Male","","","","","","","7989","<p> Great job! Now try pressing the <b>down</b> key to travel down. </p>
            <img src='./assets/img/instructions/pressDown.jpg' class='instructions-image'>","","instructions","","","","","","","","","","","","","",""
"revaluation","19","164227","0.0-3.0-4.0-0.0","spark_pilot_2","7320","7","12","Male","","","false","","","","[954]","./assets/img/space/3.jpg","[""ArrowDown""]","first stage practice","space","0","null","null","ArrowDown","false","","","","","","","",""
"html-keyboard-response","20","164747","0.0-3.0-4.0-1.0","spark_pilot_2","7320","7","12","Male","","","","","","","null","<div style=""font-size:60px;"">+</div>","null","fixation","","","","","","","","","","","","","",""
"revaluation","21","168787","0.0-3.0-4.0-0.1","spark_pilot_2","7320","7","12","Male","","","true","","","","[]","./assets/img/space/4.jpg","[]","first stage practice","space","-5","null","null","","false","","","","","","","",""
"html-keyboard-response","22","169306","0.0-3.0-4.0-1.1","spark_pilot_2","7320","7","12","Male","","","","","","","null","<div style=""font-size:60px;"">+</div>","null","fixation","","","","","","","","","","","","","",""
"revaluation","23","173337","0.0-3.0-4.0-0.2","spark_pilot_2","7320","7","12","Male","","","false","","","","[1033]","./assets/img/space/5.jpg","[""ArrowDown""]","first stage practice","space","0","null","null","ArrowDown","false","","","","","","","",""
"html-keyboard-response","24","173856","0.0-3.0-4.0-1.2","spark_pilot_2","7320","7","12","Male","","","","","","","null","<div style=""font-size:60px;"">+</div>","null","fixation","","","","","","","","","","","","","",""
"learning-instructions","25","186925","0.0-3.0-5.0-0.0","spark_pilot_2","7320","7","12","Male","","","","","","","3057","<p> The animals don’t move, so the animal in the upper part of a place will stay in the upper part of a place, and the animal in the lower part of a place will stay in the lower part of a place. </p>","","instructions","","","","","","","","","","","","","",""
"learning-instructions","26","197484","0.0-3.0-5.0-0.1","spark_pilot_2","7320","7","12","Male","","","","","","","1257","<p> Each animal has two treasure chests for you to choose from. </p>
            <p> The amount of treasure in each chest can range from <b> 0 to 40 pieces.</b></p>","","instructions","","","","","","","","","","","","","",""
"learning-instructions","27","211141","0.0-3.0-5.0-0.2","spark_pilot_2","7320","7","12","Male","","","","","","","2272","<p> You should decide which chest to search for treasure by using the <b>left</b> and <b>right</b> arrow keys. </p>
            <p><b> Pay attention to which animal is on the screen, as the animals have different treasure chests. </b></p>
            <img src='./assets/img/instructions/leftright.jpg' class='instructions-image'>","","instructions","","","","","","","","","","","","","",""
"learning-instructions","28","218589","0.0-3.0-5.0-0.3","spark_pilot_2","7320","7","12","Male","","","","","","","940","<p> Let’s try practicing that now. </p>
            <p> When you see an animal, choose which chest to search for treasure. </p>
            <img src='./assets/img/instructions/chooseChest.jpg' class='instructions-image'>","","instructions","","","","","","","","","","","","","",""
"revaluation","29","222618","0.0-3.0-6.0-0.0","spark_pilot_2","7320","7","12","Male","","","false","","","","[1256]","./assets/img/space/animals/cat.jpg","[""ArrowRight""]","second stage practice","space","36","{""ArrowUp,ArrowLeft"":3,""ArrowUp,ArrowRight"":36,""ArrowDown,ArrowLeft"":15,""ArrowDown,ArrowRight"":23}","true","ArrowUp,ArrowRight","","","","","","","","",""
"html-keyboard-response","30","223136","0.0-3.0-6.0-1.0","spark_pilot_2","7320","7","12","Male","","","","","","","null","<div style=""font-size:60px;"">+</div>","null","fixation","","","","","","","","","","","","","",""
"revaluation","31","227178","0.0-3.0-6.0-0.1","spark_pilot_2","7320","7","12","Male","","","false","","","","[465]","./assets/img/space/animals/rabbit.jpg","[""ArrowLeft""]","second stage practice","space","15","{""ArrowUp,ArrowLeft"":3,""ArrowUp,ArrowRight"":36,""ArrowDown,ArrowLeft"":15,""ArrowDown,ArrowRight"":23}","false","ArrowDown,ArrowLeft","","","","","","","","",""
"html-keyboard-response","32","227696","0.0-3.0-6.0-1.1","spark_pilot_2","7320","7","12","Male","","","","","","","null","<div style=""font-size:60px;"">+</div>","null","fixation","","","","","","","","","","","","","",""
"revaluation","33","231738","0.0-3.0-6.0-0.2","spark_pilot_2","7320","7","12","Male","","","false","","","","[318]","./assets/img/space/animals/rabbit.jpg","[""ArrowLeft""]","second stage practice","space","15","{""ArrowUp,ArrowLeft"":3,""ArrowUp,ArrowRight"":36,""ArrowDown,ArrowLeft"":15,""ArrowDown,ArrowRight"":23}","false","ArrowDown,ArrowLeft","","","","","","","","",""
"html-keyboard-response","34","232246","0.0-3.0-6.0-1.2","spark_pilot_2","7320","7","12","Male","","","","","","","null","<div style=""font-size:60px;"">+</div>","null","fixation","","","","","","","","","","","","","",""
"revaluation","35","236267","0.0-3.0-6.0-0.3","spark_pilot_2","7320","7","12","Male","","","false","","","","[1471]","./assets/img/space/animals/cat.jpg","[""ArrowLeft""]","second stage practice","space","3","{""ArrowUp,ArrowLeft"":3,""ArrowUp,ArrowRight"":36,""ArrowDown,ArrowLeft"":15,""ArrowDown,ArrowRight"":23}","false","ArrowUp,ArrowLeft","","","","","","","","",""
"html-keyboard-response","36","236787","0.0-3.0-6.0-1.3","spark_pilot_2","7320","7","12","Male","","","","","","","null","<div style=""font-size:60px;"">+</div>","null","fixation","","","","","","","","","","","","","",""
"learning-instructions","37","255045","0.0-3.0-7.0-0.0","spark_pilot_2","7320","7","12","Male","","","","","","","1197","<p> Great job. Now let’s try putting it together. </p>
            <p> On each turn, you will first see a picture to remind you of the place you are in, and you need to choose whether to go up or down. </p>
            <p> Then you will see an animal and choose which of its chests to search for treasure. </p>","","instructions","","","","","","","","","","","","","",""
"learning-instructions","38","264573","0.0-3.0-7.0-0.1","spark_pilot_2","7320","7","12","Male","","","","","","","1105","<p> When you choose whether to go up or down, try to go to the animal with the chest with the most treasure. </p>
            <p> Try practicing that now! </p>","","instructions","","","","","","","","","","","","","",""
"revaluation","39","270618","0.0-3.0-8.0-0.0","spark_pilot_2","7320","7","12","Male","","","true","","","","[1395]","./assets/img/space/6.jpg","[""ArrowUp""]","full practice","space","-5","{""ArrowUp,ArrowLeft"":3,""ArrowUp,ArrowRight"":36,""ArrowDown,ArrowLeft"":15,""ArrowDown,ArrowRight"":23}","false","ArrowUp","false","","","","","","","",""
"html-keyboard-response","40","271137","0.0-3.0-8.0-1.0","spark_pilot_2","7320","7","12","Male","","","","","","","null","<div style=""font-size:60px;"">+</div>","null","fixation","","","","","","","","","","","","","",""
"revaluation","41","277147","0.0-3.0-8.0-0.1","spark_pilot_2","7320","7","12","Male","","","false","","","","[1208,803]","./assets/img/space/7.jpg","[""ArrowUp"",""ArrowLeft""]","full practice","space","3","{""ArrowUp,ArrowLeft"":3,""ArrowUp,ArrowRight"":36,""ArrowDown,ArrowLeft"":15,""ArrowDown,ArrowRight"":23}","false","ArrowUp,ArrowLeft","false","","","","","","","",""
"html-keyboard-response","42","277666","0.0-3.0-8.0-1.1","spark_pilot_2","7320","7","12","Male","","","","","","","null","<div style=""font-size:60px;"">+</div>","null","fixation","","","","","","","","","","","","","",""
"revaluation","43","283727","0.0-3.0-8.0-0.2","spark_pilot_2","7320","7","12","Male","","","false","","","","[733,560]","./assets/img/space/8.jpg","[""ArrowUp"",""ArrowRight""]","full practice","space","36","{""ArrowUp,ArrowLeft"":3,""ArrowUp,ArrowRight"":36,""ArrowDown,ArrowLeft"":15,""ArrowDown,ArrowRight"":23}","true","ArrowUp,ArrowRight","false","","","","","","","",""
"html-keyboard-response","44","284246","0.0-3.0-8.0-1.2","spark_pilot_2","7320","7","12","Male","","","","","","","null","<div style=""font-size:60px;"">+</div>","null","fixation","","","","","","","","","","","","","",""
"revaluation","45","290287","0.0-3.0-8.0-0.3","spark_pilot_2","7320","7","12","Male","","","false","","","","[1657,820]","./assets/img/space/9.jpg","[""ArrowDown"",""ArrowRight""]","full practice","space","23","{""ArrowUp,ArrowLeft"":3,""ArrowUp,ArrowRight"":36,""ArrowDown,ArrowLeft"":15,""ArrowDown,ArrowRight"":23}","false","ArrowDown,ArrowRight","false","","","","","","","",""
"html-keyboard-response","46","290802","0.0-3.0-8.0-1.3","spark_pilot_2","7320","7","12","Male","","","","","","","null","<div style=""font-size:60px;"">+</div>","null","fixation","","","","","","","","","","","","","",""
"revaluation","47","296867","0.0-3.0-8.0-0.4","spark_pilot_2","7320","7","12","Male","","","false","","","","[1246,884]","./assets/img/space/10.jpg","[""ArrowDown"",""ArrowLeft""]","full practice","space","15","{""ArrowUp,ArrowLeft"":3,""ArrowUp,ArrowRight"":36,""ArrowDown,ArrowLeft"":15,""ArrowDown,ArrowRight"":23}","false","ArrowDown,ArrowLeft","false","","","","","","","",""
"html-keyboard-response","48","297386","0.0-3.0-8.0-1.4","spark_pilot_2","7320","7","12","Male","","","","","","","null","<div style=""font-size:60px;"">+</div>","null","fixation","","","","","","","","","","","","","",""
"learning-instructions","49","309933","0.0-3.0-9.0-0.0","spark_pilot_2","7320","7","12","Male","","","","","","","2074","<p> One last thing: sometimes, you will see a robber. The robber can be anywhere in the picture. </p>
            <p> If you do not stop them, you will lose treasure. </p>
            <img src='./assets/img/instructions/robber.jpg' class='instructions-image'>","","instructions","","","","","","","","","","","","","",""
"learning-instructions","50","318661","0.0-3.0-9.0-0.1","spark_pilot_2","7320","7","12","Male","","","","","","","912","<p> If you see the robber, you should <b>press the space bar</b> rather than using the arrow keys. </p>
            <p> Try practicing that now! </p>","","instructions","","","","","","","","","","","","","",""
"revaluation","51","322695","0.0-3.0-10.0-0.0","spark_pilot_2","7320","7","12","Male","","","false","","","","[1076]","./assets/img/space/catch/0.jpg","[""spaceBar""]","catch practice","space","0","{""ArrowUp,ArrowLeft"":3,""ArrowUp,ArrowRight"":36,""ArrowDown,ArrowLeft"":15,""ArrowDown,ArrowRight"":23}","true","spaceBar","true","","","","","","","",""
"html-keyboard-response","52","323217","0.0-3.0-10.0-1.0","spark_pilot_2","7320","7","12","Male","","","","","","","null","<div style=""font-size:60px;"">+</div>","null","fixation","","","","","","","","","","","","","",""
"revaluation","53","327258","0.0-3.0-10.0-0.1","spark_pilot_2","7320","7","12","Male","","","false","","","","[527]","./assets/img/space/catch/1.jpg","[""spaceBar""]","catch practice","space","0","{""ArrowUp,ArrowLeft"":3,""ArrowUp,ArrowRight"":36,""ArrowDown,ArrowLeft"":15,""ArrowDown,ArrowRight"":23}","true","spaceBar","true","","","","","","","",""
"html-keyboard-response","54","327777","0.0-3.0-10.0-1.1","spark_pilot_2","7320","7","12","Male","","","","","","","null","<div style=""font-size:60px;"">+</div>","null","fixation","","","","","","","","","","","","","",""
"revaluation","55","331795","0.0-3.0-10.0-0.2","spark_pilot_2","7320","7","12","Male","","","false","","","","[408]","./assets/img/space/catch/2.jpg","[""ArrowUp""]","catch practice","space","-10","{""ArrowUp,ArrowLeft"":3,""ArrowUp,ArrowRight"":36,""ArrowDown,ArrowLeft"":15,""ArrowDown,ArrowRight"":23}","false","ArrowUp","true","","","","","","","",""
"html-keyboard-response","56","332316","0.0-3.0-10.0-1.2","spark_pilot_2","7320","7","12","Male","","","","","","","null","<div style=""font-size:60px;"">+</div>","null","fixation","","","","","","","","","","","","","",""
"learning-instructions","57","347493","0.0-3.0-11.0-0.0","spark_pilot_2","7320","7","12","Male","","","","","","","1383","<p> After you explore a place to find treasure, it will be time to play a different game. </p>
            <p> During this game, red dots will appear on the screen and fall down slowly. </p>
            <p><b> You must click on them before they reach the bottom. </b></p>
            <img src='./assets/img/instructions/dotGame.jpg' class='instructions-image'>","","instructions","","","","","","","","","","","","","",""
"learning-instructions","58","356005","0.0-3.0-11.0-0.1","spark_pilot_2","7320","7","12","Male","","","","","","","2736","<p> For every dot you click, you will earn additional treasure. </p>
            <p> Let’s try practicing that now. </p>","","instructions","","","","","","","","","","","","","",""
"revaluation","59","371015","0.0-3.0-12.0-0.0","spark_pilot_2","7320","7","12","Male","","","","","","","[131]","","","rest practice","","10","","","","","0","15000","","","","","",""
"learning-instructions","60","377709","0.0-3.0-13.0-0.0-0.0","spark_pilot_2","7320","7","12","Male","","","","","","","1172","<p> Now, you will practice a shortened version of the game to get a sense of how it all fits together. </p>","","instructions","","","","","","","","","","","","","",""
"learning-instructions","61","382372","0.0-3.0-13.0-0.0-0.1","spark_pilot_2","7320","7","12","Male","","","","","","","1365","<p>This time you are searching for treasure in outer space.</p>","","instructions","","","","","","","","","","","","","",""
"learning-instructions","62","403800","0.0-3.0-13.0-1.0-0.0","spark_pilot_2","7320","7","12","Male","","","","","","","6328","<p> Remember, when you see a picture of the place, use the up and down keys to <b>find an animal</b>.</p>
            <p> When you encounter an animal, you should use the left and right keys to <b>select a treasure chest</b>.</p>
            <p> Don't forget to look out for the robber! </p>","","instructions","","","","","","","","","","","","","",""
"revaluation","63","409848","0.0-3.0-13.0-2.0-0.0","spark_pilot_2","7320","7","12","Male","","","false","","","","[1266,789]","./assets/img/space/11.jpg","[""ArrowDown"",""ArrowRight""]","practice block","space","23","{""ArrowUp,ArrowLeft"":3,""ArrowUp,ArrowRight"":36,""ArrowDown,ArrowLeft"":15,""ArrowDown,ArrowRight"":23}","false","ArrowDown,ArrowRight","false","","","","","","","",""
"html-keyboard-response","64","410366","0.0-3.0-13.0-2.0-1.0","spark_pilot_2","7320","7","12","Male","","","","","","","null","<div style=""font-size:60px;"">+</div>","null","fixation","","","","","","","","","","","","","",""
"revaluation","65","416417","0.0-3.0-13.0-2.0-0.1","spark_pilot_2","7320","7","12","Male","","","false","","","","[937,1195]","./assets/img/space/12.jpg","[""ArrowUp"",""ArrowLeft""]","practice block","space","3","{""ArrowUp,ArrowLeft"":3,""ArrowUp,ArrowRight"":36,""ArrowDown,ArrowLeft"":15,""ArrowDown,ArrowRight"":23}","false","ArrowUp,ArrowLeft","false","","","","","","","",""
"html-keyboard-response","66","416936","0.0-3.0-13.0-2.0-1.1","spark_pilot_2","7320","7","12","Male","","","","","","","null","<div style=""font-size:60px;"">+</div>","null","fixation","","","","","","","","","","","","","",""
"revaluation","67","422978","0.0-3.0-13.0-2.0-0.2","spark_pilot_2","7320","7","12","Male","","","false","","","","[1613,964]","./assets/img/space/13.jpg","[""ArrowDown"",""ArrowRight""]","practice block","space","23","{""ArrowUp,ArrowLeft"":3,""ArrowUp,ArrowRight"":36,""ArrowDown,ArrowLeft"":15,""ArrowDown,ArrowRight"":23}","false","ArrowDown,ArrowRight","false","","","","","","","",""
"html-keyboard-response","68","423496","0.0-3.0-13.0-2.0-1.2","spark_pilot_2","7320","7","12","Male","","","","","","","null","<div style=""font-size:60px;"">+</div>","null","fixation","","","","","","","","","","","","","",""
"revaluation","69","429547","0.0-3.0-13.0-2.0-0.3","spark_pilot_2","7320","7","12","Male","","","false","","","","[1111,499]","./assets/img/space/14.jpg","[""ArrowUp"",""ArrowRight""]","practice block","space","36","{""ArrowUp,ArrowLeft"":3,""ArrowUp,ArrowRight"":36,""ArrowDown,ArrowLeft"":15,""ArrowDown,ArrowRight"":23}","true","ArrowUp,ArrowRight","false","","","","","","","",""
"html-keyboard-response","70","430066","0.0-3.0-13.0-2.0-1.3","spark_pilot_2","7320","7","12","Male","","","","","","","null","<div style=""font-size:60px;"">+</div>","null","fixation","","","","","","","","","","","","","",""
"revaluation","71","436107","0.0-3.0-13.0-2.0-0.4","spark_pilot_2","7320","7","12","Male","","","false","","","","[1166,726]","./assets/img/space/11.jpg","[""ArrowUp"",""ArrowRight""]","practice block","space","36","{""ArrowUp,ArrowLeft"":3,""ArrowUp,ArrowRight"":36,""ArrowDown,ArrowLeft"":15,""ArrowDown,ArrowRight"":23}","true","ArrowUp,ArrowRight","false","","","","","","","",""
"html-keyboard-response","72","436626","0.0-3.0-13.0-2.0-1.4","spark_pilot_2","7320","7","12","Male","","","","","","","null","<div style=""font-size:60px;"">+</div>","null","fixation","","","","","","","","","","","","","",""
"revaluation","73","442657","0.0-3.0-13.0-2.0-0.5","spark_pilot_2","7320","7","12","Male","","","false","","","","[1214,983]","./assets/img/space/12.jpg","[""ArrowDown"",""ArrowRight""]","practice block","space","23","{""ArrowUp,ArrowLeft"":3,""ArrowUp,ArrowRight"":36,""ArrowDown,ArrowLeft"":15,""ArrowDown,ArrowRight"":23}","false","ArrowDown,ArrowRight","false","","","","","","","",""
"html-keyboard-response","74","443164","0.0-3.0-13.0-2.0-1.5","spark_pilot_2","7320","7","12","Male","","","","","","","null","<div style=""font-size:60px;"">+</div>","null","fixation","","","","","","","","","","","","","",""
"revaluation","75","449208","0.0-3.0-13.0-2.0-0.6","spark_pilot_2","7320","7","12","Male","","","false","","","","[1578,563]","./assets/img/space/13.jpg","[""ArrowDown"",""ArrowLeft""]","practice block","space","15","{""ArrowUp,ArrowLeft"":3,""ArrowUp,ArrowRight"":36,""ArrowDown,ArrowLeft"":15,""ArrowDown,ArrowRight"":23}","false","ArrowDown,ArrowLeft","false","","","","","","","",""
"html-keyboard-response","76","449726","0.0-3.0-13.0-2.0-1.6","spark_pilot_2","7320","7","12","Male","","","","","","","null","<div style=""font-size:60px;"">+</div>","null","fixation","","","","","","","","","","","","","",""
"revaluation","77","455758","0.0-3.0-13.0-2.0-0.7","spark_pilot_2","7320","7","12","Male","","","false","","","","[1727,788]","./assets/img/space/14.jpg","[""ArrowUp"",""ArrowRight""]","practice block","space","36","{""ArrowUp,ArrowLeft"":3,""ArrowUp,ArrowRight"":36,""ArrowDown,ArrowLeft"":15,""ArrowDown,ArrowRight"":23}","true","ArrowUp,ArrowRight","false","","","","","","","",""
"html-keyboard-response","78","456273","0.0-3.0-13.0-2.0-1.7","spark_pilot_2","7320","7","12","Male","","","","","","","null","<div style=""font-size:60px;"">+</div>","null","fixation","","","","","","","","","","","","","",""
"revaluation","79","460318","0.0-3.0-13.0-2.0-0.8","spark_pilot_2","7320","7","12","Male","","","false","","","","[834]","./assets/img/space/catch/3.jpg","[""spaceBar""]","practice block","space","0","{""ArrowUp,ArrowLeft"":3,""ArrowUp,ArrowRight"":36,""ArrowDown,ArrowLeft"":15,""ArrowDown,ArrowRight"":23}","true","spaceBar","true","","","","","","","",""
"html-keyboard-response","80","460836","0.0-3.0-13.0-2.0-1.8","spark_pilot_2","7320","7","12","Male","","","","","","","null","<div style=""font-size:60px;"">+</div>","null","fixation","","","","","","","","","","","","","",""
"learning-instructions","81","479693","0.0-3.0-13.0-3.0-0.0","spark_pilot_2","7320","7","12","Male","","","","","","","5745","<p> Now, you will travel with a friend who will choose whether you go up or down first. </p>
            <p> On these turns, you will just see the animal that they found. You will still get to choose which chest to search for treasure.</p>","","instructions","","","","","","","","","","","","","",""
"revaluation","82","483717","0.0-3.0-13.0-4.0-0.0","spark_pilot_2","7320","7","12","Male","","","false","","","","[1940]","./assets/img/space/animals/rabbit.jpg","[""ArrowRight""]","practice block","space","23","{""ArrowUp,ArrowLeft"":3,""ArrowUp,ArrowRight"":36,""ArrowDown,ArrowLeft"":15,""ArrowDown,ArrowRight"":23}","true","ArrowDown,ArrowRight","","","","","","","","",""
"html-keyboard-response","83","484236","0.0-3.0-13.0-4.0-1.0","spark_pilot_2","7320","7","12","Male","","","","","","","null","<div style=""font-size:60px;"">+</div>","null","fixation","","","","","","","","","","","","","",""
"revaluation","84","488278","0.0-3.0-13.0-4.0-0.1","spark_pilot_2","7320","7","12","Male","","","false","","","","[361]","./assets/img/space/animals/cat.jpg","[""ArrowLeft""]","practice block","space","3","{""ArrowUp,ArrowLeft"":3,""ArrowUp,ArrowRight"":36,""ArrowDown,ArrowLeft"":15,""ArrowDown,ArrowRight"":23}","false","ArrowUp,ArrowLeft","","","","","","","","",""
"html-keyboard-response","85","488798","0.0-3.0-13.0-4.0-1.1","spark_pilot_2","7320","7","12","Male","","","","","","","null","<div style=""font-size:60px;"">+</div>","null","fixation","","","","","","","","","","","","","",""
"revaluation","86","492838","0.0-3.0-13.0-4.0-0.2","spark_pilot_2","7320","7","12","Male","","","false","","","","[417]","./assets/img/space/animals/cat.jpg","[""ArrowRight""]","practice block","space","36","{""ArrowUp,ArrowLeft"":3,""ArrowUp,ArrowRight"":36,""ArrowDown,ArrowLeft"":15,""ArrowDown,ArrowRight"":23}","true","ArrowUp,ArrowRight","","","","","","","","",""
"html-keyboard-response","87","493347","0.0-3.0-13.0-4.0-1.2","spark_pilot_2","7320","7","12","Male","","","","","","","null","<div style=""font-size:60px;"">+</div>","null","fixation","","","","","","","","","","","","","",""
"revaluation","88","497388","0.0-3.0-13.0-4.0-0.3","spark_pilot_2","7320","7","12","Male","","","false","","","","[92]","./assets/img/space/animals/rabbit.jpg","[""ArrowRight""]","practice block","space","23","{""ArrowUp,ArrowLeft"":3,""ArrowUp,ArrowRight"":36,""ArrowDown,ArrowLeft"":15,""ArrowDown,ArrowRight"":23}","true","ArrowDown,ArrowRight","","","","","","","","",""
"html-keyboard-response","89","497906","0.0-3.0-13.0-4.0-1.3","spark_pilot_2","7320","7","12","Male","","","","","","","null","<div style=""font-size:60px;"">+</div>","null","fixation","","","","","","","","","","","","","",""
"learning-instructions","90","506964","0.0-3.0-13.0-5.0-0.0","spark_pilot_2","7320","7","12","Male","","","","","","","1557","<p> Time to play the dot game! </p>
            <p> For 15 seconds, click the red dots on the following screen as they appear. </p>","","instructions","","","","","","","","","","","","","",""
"revaluation","91","521977","0.0-3.0-13.0-6.0-0.0","spark_pilot_2","7320","7","12","Male","","","","","","","[118]","","","rest practice","","10","","","","","0","15000","","","","","",""
"learning-instructions","92","531197","0.0-3.0-13.0-7.0-0.0","spark_pilot_2","7320","7","12","Male","","","","","","","2978","<p> You have almost finished this part of the game! </p>
            <p> We are going to ask you to make a few more choices. </p>","","instructions","","","","","","","","","","","","","",""
"learning-instructions","93","553564","0.0-3.0-13.0-7.0-0.1","spark_pilot_2","7320","7","12","Male","","","","","","","8137","<p> First, you need to decide whether to go up or down. When you see each picture, use the arrow keys to make your choice. </p>
            <p><b>You will not see which animal you found, but try to get to the one that will give you the most treasure.</b></p>","","instructions","","","","","","","","","","","","","",""
"revaluation","94","555087","0.0-3.0-13.0-8.0","spark_pilot_2","7320","7","12","Male","","","false","","","","[1516]","./assets/img/space/15.jpg","[""ArrowDown""]","practice block","space","0","{""ArrowUp,ArrowLeft"":3,""ArrowUp,ArrowRight"":36,""ArrowDown,ArrowLeft"":15,""ArrowDown,ArrowRight"":23}","false","ArrowDown","false","","","","","","","",""
"html-keyboard-response","95","555607","0.0-3.0-13.0-9.0","spark_pilot_2","7320","7","12","Male","","","","","","","null","<div style=""font-size:60px;"">+</div>","null","fixation","","","","","","","","","","","","","",""
"learning-instructions","96","570101","0.0-3.0-13.0-10.0-0.0","spark_pilot_2","7320","7","12","Male","","","","","","","2723","<p> Now you will see the animals again and can search their chests for treasure. </p>
            <p> This time, you will not see how much treasure you earned, but you will earn more bonus money for making better choices. </p>","","instructions","","","","","","","","","","","","","",""
"revaluation","97","571448","0.0-3.0-13.0-11.0-0.0","spark_pilot_2","7320","7","12","Male","","","false","","","","[1341]","./assets/img/space/animals/cat.jpg","[""ArrowRight""]","practice block","space","0","{""ArrowUp,ArrowLeft"":3,""ArrowUp,ArrowRight"":36,""ArrowDown,ArrowLeft"":15,""ArrowDown,ArrowRight"":23}","true","ArrowUp,ArrowRight","","","","","","","","",""
"html-keyboard-response","98","571967","0.0-3.0-13.0-11.0-1.0","spark_pilot_2","7320","7","12","Male","","","","","","","null","<div style=""font-size:60px;"">+</div>","null","fixation","","","","","","","","","","","","","",""
"revaluation","99","572743","0.0-3.0-13.0-11.0-0.1","spark_pilot_2","7320","7","12","Male","","","false","","","","[770]","./assets/img/space/animals/rabbit.jpg","[""ArrowLeft""]","practice block","space","0","{""ArrowUp,ArrowLeft"":3,""ArrowUp,ArrowRight"":36,""ArrowDown,ArrowLeft"":15,""ArrowDown,ArrowRight"":23}","false","ArrowDown,ArrowLeft","","","","","","","","",""
"html-keyboard-response","100","573246","0.0-3.0-13.0-11.0-1.1","spark_pilot_2","7320","7","12","Male","","","","","","","null","<div style=""font-size:60px;"">+</div>","null","fixation","","","","","","","","","","","","","",""
"learning-instructions","101","581812","0.0-3.0-14.0-0.0","spark_pilot_2","7320","7","12","Male","","","","","","","3895","<p> Before you start, we're going to ask you a few questions about how the game works. </p>","","instructions","","","","","","","","","","","","","",""
"comp-q","102","588900","0.0-3.0-15.0-0.0-0.0","spark_pilot_2","7320","7","12","Male","","","","","","","1351","<p> <b> True or False? </b> </p>
            <p> There can be 50 pieces of treasure in a given animal's chest. </p>","1","comp_question","","","","true","","","","","","","","","",""
"comp-q","103","597653","0.0-3.0-15.0-0.0-1.0","spark_pilot_2","7320","7","12","Male","","","","","","","1966","<p> <b> That's right! </b> The amount of treasure in each chest can range from 0 to 40 pieces. </p>","0","comp_answer","","","","","","","","","","","","","",""
"comp-q","104","606021","0.0-3.0-15.0-0.1-0.1","spark_pilot_2","7320","7","12","Male","","","","","","","1113","<p> <b> True or False? </b> </p><p> In this game, all animals have the same amount of treasure in their left and right chests. </p>","1","comp_question","","","","true","","","","","","","","","",""
"comp-q","105","620821","0.0-3.0-15.0-0.1-1.1","spark_pilot_2","7320","7","12","Male","","","","","","","9452","<p> <b> That's right! </b> Animals have different amounts of treasure in their treasure chests. </p>","0","comp_answer","","","","","","","","","","","","","",""
"comp-q","106","630525","0.0-3.0-15.0-0.2-0.2","spark_pilot_2","7320","7","12","Male","","","","","","","3156","<p> <b> True or False? </b> </p><p> The same animal will always be there if you go up in the same place. </p>","0","comp_question","","","","true","","","","","","","","","",""
"comp-q","107","639061","0.0-3.0-15.0-0.2-1.2","spark_pilot_2","7320","7","12","Male","[{""event"":""blur"",""trial"":1,""time"":16997},{""event"":""focus"",""trial"":1,""time"":27043},{""event"":""blur"",""trial"":1,""time"":36062},{""event"":""focus"",""trial"":2,""time"":39605},{""event"":""fullscreenenter"",""trial"":2,""time"":40078},{""event"":""blur"",""trial"":108,""time"":643564},{""event"":""focus"",""trial"":108,""time"":646091}]","","","","","","1963","<p> <b> That's right! </b> One animal lives in the upper part and one lives in the lower part of every place. </p>","0","comp_answer","","","","","","","","","","","","","",""
"comp-q","108","655839","0.0-3.0-15.0-0.3-0.3","spark_pilot_2","7320","7","12","Male","","","","","","","11134","<p> <b> True or False? </b> </p><p> If you see a different picture, it means you are in a new place. </p>","0","comp_question","","","","false","","","","","","","","","",""
"comp-q","109","675205","0.0-3.0-15.0-0.3-1.3","spark_pilot_2","7320","7","12","Male","","","","","","","8055","<p> <b>Incorrect.</b> Lots of different images may show the same place. For example,  you may see three different images that all remind you that you are in outer space. </p>","0","comp_answer","","","","","","","","","","","","","",""
"comp-q","110","685918","0.0-3.0-15.0-0.4-0.4","spark_pilot_2","7320","7","12","Male","","","","","","","5188","<p> <b> True or False? </b> </p><p> If you see a different picture, it means you are in a new place. </p>","1","comp_question","","","","true","","","","","","","","","",""
"comp-q","111","717133","0.0-3.0-15.0-0.4-1.4","spark_pilot_2","7320","7","12","Male","","","","","","","19795","<p> <b> That's right! </b> Lots of different images may show the same place. For example,  you may see three different images that all remind you that you are in outer space. </p>","0","comp_answer","","","","","","","","","","","","","",""
"learning-instructions","112","728813","0.0-3.0-16.0-0.0","spark_pilot_2","7320","7","12","Male","","","","","","","1645","<p> Good job. Remember to do your best because the amount of treasure you earn will be converted into bonus money. </p>
            <p> It’s time to start the real game! </p>","","instructions","","","","","","","","","","","","","",""
"learning-instructions","113","733398","0.0-4.0-0.0-0.0","spark_pilot_2","7320","7","12","Male","","","","","","","1729","<p> This time you are searching for treasure in the <b>canyon</b>.</p>","","instructions","","","","","","","","","","","","","",""
"learning-instructions","114","768710","0.0-4.0-0.0-0.1","spark_pilot_2","7320","7","12","Male","","","","","","","17662","<p><b>New</b> animals with <b>new</b> treasure chests live here. You need to explore to discover where the animal with the best treasure chest is.</p>
                    <p> Like before, once you figure out which animal has the chest with the most treasure, you should try to get to that animal and select that chest! </p>","","instructions","","","","","","","","","","","","","",""
"learning-instructions","115","783992","0.0-4.0-1.0-0.0","spark_pilot_2","7320","7","12","Male","","","","","","","542","<p> Remember, when you see a picture of the place, use the up and down keys to <b>find an animal</b>.</p>
            <p> When you encounter an animal, you should use the left and right keys to <b>select a treasure chest</b>.</p>
            <p> Don't forget to look out for the robber! </p>","","instructions","","","","","","","","","","","","","",""
"revaluation","116","790039","0.0-4.0-2.0-0.0","spark_pilot_2","7320","7","12","Male","","","false","","","","[1551,927]","./assets/img/canyon/memory/4.jpg","[""ArrowUp"",""ArrowRight""]","value training","canyon","10","{""ArrowUp,ArrowLeft"":23,""ArrowUp,ArrowRight"":10,""ArrowDown,ArrowLeft"":8,""ArrowDown,ArrowRight"":30}","false","ArrowUp,ArrowRight","false","","","original","1","0","","",""
"html-keyboard-response","117","790557","0.0-4.0-2.0-1.0","spark_pilot_2","7320","7","12","Male","","","","","","","null","<div style=""font-size:60px;"">+</div>","null","fixation","","","","","","","","","","","1","","",""
"revaluation","118","796597","0.0-4.0-2.0-0.1","spark_pilot_2","7320","7","12","Male","","","false","","","","[1186,725]","./assets/img/canyon/memory/19.jpg","[""ArrowUp"",""ArrowLeft""]","value training","canyon","23","{""ArrowUp,ArrowLeft"":23,""ArrowUp,ArrowRight"":10,""ArrowDown,ArrowLeft"":8,""ArrowDown,ArrowRight"":30}","false","ArrowUp,ArrowLeft","false","","","original","1","2","","",""
"html-keyboard-response","119","797116","0.0-4.0-2.0-1.1","spark_pilot_2","7320","7","12","Male","","","","","","","null","<div style=""font-size:60px;"">+</div>","null","fixation","","","","","","","","","","","3","","",""
"revaluation","120","803159","0.0-4.0-2.0-0.2","spark_pilot_2","7320","7","12","Male","","","false","","","","[939,123]","./assets/img/canyon/memory/17.jpg","[""ArrowUp"",""ArrowLeft""]","value training","canyon","23","{""ArrowUp,ArrowLeft"":23,""ArrowUp,ArrowRight"":10,""ArrowDown,ArrowLeft"":8,""ArrowDown,ArrowRight"":30}","false","ArrowUp,ArrowLeft","false","","","original","1","4","","",""
"html-keyboard-response","121","803677","0.0-4.0-2.0-1.2","spark_pilot_2","7320","7","12","Male","","","","","","","null","<div style=""font-size:60px;"">+</div>","null","fixation","","","","","","","","","","","5","","",""
"revaluation","122","809738","0.0-4.0-2.0-0.3","spark_pilot_2","7320","7","12","Male","","","false","","","","[820,356]","./assets/img/canyon/memory/3.jpg","[""ArrowDown"",""ArrowRight""]","value training","canyon","30","{""ArrowUp,ArrowLeft"":23,""ArrowUp,ArrowRight"":10,""ArrowDown,ArrowLeft"":8,""ArrowDown,ArrowRight"":30}","true","ArrowDown,ArrowRight","false","","","original","1","6","","",""
"html-keyboard-response","123","810258","0.0-4.0-2.0-1.3","spark_pilot_2","7320","7","12","Male","","","","","","","null","<div style=""font-size:60px;"">+</div>","null","fixation","","","","","","","","","","","7","","",""
"revaluation","124","816318","0.0-4.0-2.0-0.4","spark_pilot_2","7320","7","12","Male","","","false","","","","[742,483]","./assets/img/canyon/memory/1.jpg","[""ArrowDown"",""ArrowLeft""]","value training","canyon","8","{""ArrowUp,ArrowLeft"":23,""ArrowUp,ArrowRight"":10,""ArrowDown,ArrowLeft"":8,""ArrowDown,ArrowRight"":30}","false","ArrowDown,ArrowLeft","false","","","original","1","8","","",""
"html-keyboard-response","125","816838","0.0-4.0-2.0-1.4","spark_pilot_2","7320","7","12","Male","","","","","","","null","<div style=""font-size:60px;"">+</div>","null","fixation","","","","","","","","","","","9","","",""
"revaluation","126","822888","0.0-4.0-2.0-0.5","spark_pilot_2","7320","7","12","Male","","","false","","","","[676,879]","./assets/img/canyon/memory/28.jpg","[""ArrowUp"",""ArrowRight""]","value training","canyon","10","{""ArrowUp,ArrowLeft"":23,""ArrowUp,ArrowRight"":10,""ArrowDown,ArrowLeft"":8,""ArrowDown,ArrowRight"":30}","false","ArrowUp,ArrowRight","false","","","original","1","10","","",""
"html-keyboard-response","127","823407","0.0-4.0-2.0-1.5","spark_pilot_2","7320","7","12","Male","","","","","","","null","<div style=""font-size:60px;"">+</div>","null","fixation","","","","","","","","","","","11","","",""
"revaluation","128","827448","0.0-4.0-2.0-0.6","spark_pilot_2","7320","7","12","Male","","","false","","","","[1106]","./assets/img/canyon/catch/6.jpg","[""spaceBar""]","value training","canyon","0","{""ArrowUp,ArrowLeft"":23,""ArrowUp,ArrowRight"":10,""ArrowDown,ArrowLeft"":8,""ArrowDown,ArrowRight"":30}","true","spaceBar","true","","","original","1","12","","",""
"html-keyboard-response","129","827967","0.0-4.0-2.0-1.6","spark_pilot_2","7320","7","12","Male","","","","","","","null","<div style=""font-size:60px;"">+</div>","null","fixation","","","","","","","","","","","13","","",""
"revaluation","130","834006","0.0-4.0-2.0-0.7","spark_pilot_2","7320","7","12","Male","","","false","","","","[1449,1157]","./assets/img/canyon/memory/7.jpg","[""ArrowUp"",""ArrowLeft""]","value training","canyon","23","{""ArrowUp,ArrowLeft"":23,""ArrowUp,ArrowRight"":10,""ArrowDown,ArrowLeft"":8,""ArrowDown,ArrowRight"":30}","false","ArrowUp,ArrowLeft","false","","","original","1","14","","",""
"html-keyboard-response","131","834527","0.0-4.0-2.0-1.7","spark_pilot_2","7320","7","12","Male","","","","","","","null","<div style=""font-size:60px;"">+</div>","null","fixation","","","","","","","","","","","15","","",""
"revaluation","132","838568","0.0-4.0-2.0-0.8","spark_pilot_2","7320","7","12","Male","","","false","","","","[480]","./assets/img/canyon/catch/5.jpg","[""ArrowDown""]","value training","canyon","-10","{""ArrowUp,ArrowLeft"":23,""ArrowUp,ArrowRight"":10,""ArrowDown,ArrowLeft"":8,""ArrowDown,ArrowRight"":30}","false","ArrowDown","true","","","original","1","16","","",""
"html-keyboard-response","133","839087","0.0-4.0-2.0-1.8","spark_pilot_2","7320","7","12","Male","","","","","","","null","<div style=""font-size:60px;"">+</div>","null","fixation","","","","","","","","","","","17","","",""
"revaluation","134","843129","0.0-4.0-2.0-0.9","spark_pilot_2","7320","7","12","Male","","","false","","","","[73]","./assets/img/canyon/catch/1.jpg","[""spaceBar""]","value training","canyon","0","{""ArrowUp,ArrowLeft"":23,""ArrowUp,ArrowRight"":10,""ArrowDown,ArrowLeft"":8,""ArrowDown,ArrowRight"":30}","true","spaceBar","true","","","original","1","18","","",""
"html-keyboard-response","135","843647","0.0-4.0-2.0-1.9","spark_pilot_2","7320","7","12","Male","","","","","","","null","<div style=""font-size:60px;"">+</div>","null","fixation","","","","","","","","","","","19","","",""
"revaluation","136","849709","0.0-4.0-2.0-0.10","spark_pilot_2","7320","7","12","Male","","","false","","","","[795,843]","./assets/img/canyon/memory/18.jpg","[""ArrowDown"",""ArrowRight""]","value training","canyon","30","{""ArrowUp,ArrowLeft"":23,""ArrowUp,ArrowRight"":10,""ArrowDown,ArrowLeft"":8,""ArrowDown,ArrowRight"":30}","true","ArrowDown,ArrowRight","false","","","original","1","20","","",""
"html-keyboard-response","137","850227","0.0-4.0-2.0-1.10","spark_pilot_2","7320","7","12","Male","","","","","","","null","<div style=""font-size:60px;"">+</div>","null","fixation","","","","","","","","","","","21","","",""
"revaluation","138","856258","0.0-4.0-2.0-0.11","spark_pilot_2","7320","7","12","Male","","","false","","","","[1163,72]","./assets/img/canyon/memory/6.jpg","[""ArrowDown"",""ArrowRight""]","value training","canyon","30","{""ArrowUp,ArrowLeft"":23,""ArrowUp,ArrowRight"":10,""ArrowDown,ArrowLeft"":8,""ArrowDown,ArrowRight"":30}","true","ArrowDown,ArrowRight","false","","","original","1","22","","",""
"html-keyboard-response","139","856777","0.0-4.0-2.0-1.11","spark_pilot_2","7320","7","12","Male","","","","","","","null","<div style=""font-size:60px;"">+</div>","null","fixation","","","","","","","","","","","23","","",""
"revaluation","140","862839","0.0-4.0-2.0-0.12","spark_pilot_2","7320","7","12","Male","","","false","","","","[24,607]","./assets/img/canyon/memory/28.jpg","[""ArrowDown"",""ArrowLeft""]","value training","canyon","8","{""ArrowUp,ArrowLeft"":23,""ArrowUp,ArrowRight"":10,""ArrowDown,ArrowLeft"":8,""ArrowDown,ArrowRight"":30}","false","ArrowDown,ArrowLeft","false","","","original","1","24","","",""
"html-keyboard-response","141","863357","0.0-4.0-2.0-1.12","spark_pilot_2","7320","7","12","Male","","","","","","","null","<div style=""font-size:60px;"">+</div>","null","fixation","","","","","","","","","","","25","","",""
"revaluation","142","869398","0.0-4.0-2.0-0.13","spark_pilot_2","7320","7","12","Male","","","false","","","","[89,149]","./assets/img/canyon/memory/23.jpg","[""ArrowDown"",""ArrowRight""]","value training","canyon","30","{""ArrowUp,ArrowLeft"":23,""ArrowUp,ArrowRight"":10,""ArrowDown,ArrowLeft"":8,""ArrowDown,ArrowRight"":30}","true","ArrowDown,ArrowRight","false","","","original","1","26","","",""
"html-keyboard-response","143","869918","0.0-4.0-2.0-1.13","spark_pilot_2","7320","7","12","Male","","","","","","","null","<div style=""font-size:60px;"">+</div>","null","fixation","","","","","","","","","","","27","","",""
"revaluation","144","876010","0.0-4.0-2.0-0.14","spark_pilot_2","7320","7","12","Male","","","false","","","","[123,181]","./assets/img/canyon/memory/17.jpg","[""ArrowDown"",""ArrowRight""]","value training","canyon","30","{""ArrowUp,ArrowLeft"":23,""ArrowUp,ArrowRight"":10,""ArrowDown,ArrowLeft"":8,""ArrowDown,ArrowRight"":30}","true","ArrowDown,ArrowRight","false","","","original","1","28","","",""
"html-keyboard-response","145","876527","0.0-4.0-2.0-1.14","spark_pilot_2","7320","7","12","Male","","","","","","","null","<div style=""font-size:60px;"">+</div>","null","fixation","","","","","","","","","","","29","","",""
"revaluation","146","882590","0.0-4.0-2.0-0.15","spark_pilot_2","7320","7","12","Male","","","false","","","","[58,309]","./assets/img/canyon/memory/18.jpg","[""ArrowDown"",""ArrowRight""]","value training","canyon","30","{""ArrowUp,ArrowLeft"":23,""ArrowUp,ArrowRight"":10,""ArrowDown,ArrowLeft"":8,""ArrowDown,ArrowRight"":30}","true","ArrowDown,ArrowRight","false","","","original","1","30","","",""
"html-keyboard-response","147","883107","0.0-4.0-2.0-1.15","spark_pilot_2","7320","7","12","Male","","","","","","","null","<div style=""font-size:60px;"">+</div>","null","fixation","","","","","","","","","","","31","","",""
"revaluation","148","889170","0.0-4.0-2.0-0.16","spark_pilot_2","7320","7","12","Male","","","false","","","","[69,160]","./assets/img/canyon/memory/25.jpg","[""ArrowDown"",""ArrowRight""]","value training","canyon","30","{""ArrowUp,ArrowLeft"":23,""ArrowUp,ArrowRight"":10,""ArrowDown,ArrowLeft"":8,""ArrowDown,ArrowRight"":30}","true","ArrowDown,ArrowRight","false","","","original","1","32","","",""
"html-keyboard-response","149","889687","0.0-4.0-2.0-1.16","spark_pilot_2","7320","7","12","Male","","","","","","","null","<div style=""font-size:60px;"">+</div>","null","fixation","","","","","","","","","","","33","","",""
"revaluation","150","895728","0.0-4.0-2.0-0.17","spark_pilot_2","7320","7","12","Male","","","false","","","","[49,95]","./assets/img/canyon/memory/12.jpg","[""ArrowDown"",""ArrowRight""]","value training","canyon","30","{""ArrowUp,ArrowLeft"":23,""ArrowUp,ArrowRight"":10,""ArrowDown,ArrowLeft"":8,""ArrowDown,ArrowRight"":30}","true","ArrowDown,ArrowRight","false","","","original","1","34","","",""
"html-keyboard-response","151","896248","0.0-4.0-2.0-1.17","spark_pilot_2","7320","7","12","Male","","","","","","","null","<div style=""font-size:60px;"">+</div>","null","fixation","","","","","","","","","","","35","","",""
"revaluation","152","900288","0.0-4.0-2.0-0.18","spark_pilot_2","7320","7","12","Male","","","false","","","","[50]","./assets/img/canyon/catch/4.jpg","[""spaceBar""]","value training","canyon","0","{""ArrowUp,ArrowLeft"":23,""ArrowUp,ArrowRight"":10,""ArrowDown,ArrowLeft"":8,""ArrowDown,ArrowRight"":30}","true","spaceBar","true","","","original","1","36","","",""
"html-keyboard-response","153","900800","0.0-4.0-2.0-1.18","spark_pilot_2","7320","7","12","Male","","","","","","","null","<div style=""font-size:60px;"">+</div>","null","fixation","","","","","","","","","","","37","","",""
"revaluation","154","906859","0.0-4.0-2.0-0.19","spark_pilot_2","7320","7","12","Male","","","false","","","","[64,135]","./assets/img/canyon/memory/6.jpg","[""ArrowDown"",""ArrowRight""]","value training","canyon","30","{""ArrowUp,ArrowLeft"":23,""ArrowUp,ArrowRight"":10,""ArrowDown,ArrowLeft"":8,""ArrowDown,ArrowRight"":30}","true","ArrowDown,ArrowRight","false","","","original","1","38","","",""
"html-keyboard-response","155","907377","0.0-4.0-2.0-1.19","spark_pilot_2","7320","7","12","Male","","","","","","","null","<div style=""font-size:60px;"">+</div>","null","fixation","","","","","","","","","","","39","","",""
"revaluation","156","913438","0.0-4.0-2.0-0.20","spark_pilot_2","7320","7","12","Male","","","false","","","","[185,68]","./assets/img/canyon/memory/0.jpg","[""ArrowDown"",""ArrowRight""]","value training","canyon","30","{""ArrowUp,ArrowLeft"":23,""ArrowUp,ArrowRight"":10,""ArrowDown,ArrowLeft"":8,""ArrowDown,ArrowRight"":30}","true","ArrowDown,ArrowRight","false","","","original","1","40","","",""
"html-keyboard-response","157","913958","0.0-4.0-2.0-1.20","spark_pilot_2","7320","7","12","Male","","","","","","","null","<div style=""font-size:60px;"">+</div>","null","fixation","","","","","","","","","","","41","","",""
"revaluation","158","919988","0.0-4.0-2.0-0.21","spark_pilot_2","7320","7","12","Male","","","false","","","","[28,129]","./assets/img/canyon/memory/2.jpg","[""ArrowDown"",""ArrowRight""]","value training","canyon","30","{""ArrowUp,ArrowLeft"":23,""ArrowUp,ArrowRight"":10,""ArrowDown,ArrowLeft"":8,""ArrowDown,ArrowRight"":30}","true","ArrowDown,ArrowRight","false","","","original","1","42","","",""
"html-keyboard-response","159","920507","0.0-4.0-2.0-1.21","spark_pilot_2","7320","7","12","Male","","","","","","","null","<div style=""font-size:60px;"">+</div>","null","fixation","","","","","","","","","","","43","","",""
"revaluation","160","926568","0.0-4.0-2.0-0.22","spark_pilot_2","7320","7","12","Male","","","false","","","","[191,47]","./assets/img/canyon/memory/16.jpg","[""ArrowDown"",""ArrowRight""]","value training","canyon","30","{""ArrowUp,ArrowLeft"":23,""ArrowUp,ArrowRight"":10,""ArrowDown,ArrowLeft"":8,""ArrowDown,ArrowRight"":30}","true","ArrowDown,ArrowRight","false","","","original","1","44","","",""
"html-keyboard-response","161","927088","0.0-4.0-2.0-1.22","spark_pilot_2","7320","7","12","Male","","","","","","","null","<div style=""font-size:60px;"">+</div>","null","fixation","","","","","","","","","","","45","","",""
"revaluation","162","933108","0.0-4.0-2.0-0.23","spark_pilot_2","7320","7","12","Male","","","false","","","","[202,359]","./assets/img/canyon/memory/7.jpg","[""ArrowDown"",""ArrowRight""]","value training","canyon","30","{""ArrowUp,ArrowLeft"":23,""ArrowUp,ArrowRight"":10,""ArrowDown,ArrowLeft"":8,""ArrowDown,ArrowRight"":30}","true","ArrowDown,ArrowRight","false","","","original","1","46","","",""
"html-keyboard-response","163","933618","0.0-4.0-2.0-1.23","spark_pilot_2","7320","7","12","Male","","","","","","","null","<div style=""font-size:60px;"">+</div>","null","fixation","","","","","","","","","","","47","","",""
"revaluation","164","939658","0.0-4.0-2.0-0.24","spark_pilot_2","7320","7","12","Male","","","false","","","","[217,147]","./assets/img/canyon/memory/4.jpg","[""ArrowDown"",""ArrowRight""]","value training","canyon","30","{""ArrowUp,ArrowLeft"":23,""ArrowUp,ArrowRight"":10,""ArrowDown,ArrowLeft"":8,""ArrowDown,ArrowRight"":30}","true","ArrowDown,ArrowRight","false","","","original","1","48","","",""
"html-keyboard-response","165","940177","0.0-4.0-2.0-1.24","spark_pilot_2","7320","7","12","Male","","","","","","","null","<div style=""font-size:60px;"">+</div>","null","fixation","","","","","","","","","","","49","","",""
"revaluation","166","946214","0.0-4.0-2.0-0.25","spark_pilot_2","7320","7","12","Male","","","false","","","","[185,57]","./assets/img/canyon/memory/13.jpg","[""ArrowDown"",""ArrowRight""]","value training","canyon","30","{""ArrowUp,ArrowLeft"":23,""ArrowUp,ArrowRight"":10,""ArrowDown,ArrowLeft"":8,""ArrowDown,ArrowRight"":30}","true","ArrowDown,ArrowRight","false","","","original","1","50","","",""
"html-keyboard-response","167","946738","0.0-4.0-2.0-1.25","spark_pilot_2","7320","7","12","Male","","","","","","","null","<div style=""font-size:60px;"">+</div>","null","fixation","","","","","","","","","","","51","","",""
"revaluation","168","950778","0.0-4.0-2.0-0.26","spark_pilot_2","7320","7","12","Male","","","false","","","","[112]","./assets/img/canyon/catch/2.jpg","[""ArrowDown""]","value training","canyon","-10","{""ArrowUp,ArrowLeft"":23,""ArrowUp,ArrowRight"":10,""ArrowDown,ArrowLeft"":8,""ArrowDown,ArrowRight"":30}","false","ArrowDown","true","","","original","1","52","","",""
"html-keyboard-response","169","951297","0.0-4.0-2.0-1.26","spark_pilot_2","7320","7","12","Male","","","","","","","null","<div style=""font-size:60px;"">+</div>","null","fixation","","","","","","","","","","","53","","",""
"revaluation","170","957348","0.0-4.0-2.0-0.27","spark_pilot_2","7320","7","12","Male","","","false","","","","[1482,165]","./assets/img/canyon/memory/3.jpg","[""ArrowDown"",""ArrowRight""]","value training","canyon","30","{""ArrowUp,ArrowLeft"":23,""ArrowUp,ArrowRight"":10,""ArrowDown,ArrowLeft"":8,""ArrowDown,ArrowRight"":30}","true","ArrowDown,ArrowRight","false","","","original","1","54","","",""
"html-keyboard-response","171","957868","0.0-4.0-2.0-1.27","spark_pilot_2","7320","7","12","Male","","","","","","","null","<div style=""font-size:60px;"">+</div>","null","fixation","","","","","","","","","","","55","","",""
"revaluation","172","961910","0.0-4.0-2.0-0.28","spark_pilot_2","7320","7","12","Male","","","false","","","","[732]","./assets/img/canyon/catch/0.jpg","[""spaceBar""]","value training","canyon","0","{""ArrowUp,ArrowLeft"":23,""ArrowUp,ArrowRight"":10,""ArrowDown,ArrowLeft"":8,""ArrowDown,ArrowRight"":30}","true","spaceBar","true","","","original","1","56","","",""
"html-keyboard-response","173","962418","0.0-4.0-2.0-1.28","spark_pilot_2","7320","7","12","Male","","","","","","","null","<div style=""font-size:60px;"">+</div>","null","fixation","","","","","","","","","","","57","","",""
"revaluation","174","968458","0.0-4.0-2.0-0.29","spark_pilot_2","7320","7","12","Male","","","false","","","","[784,968]","./assets/img/canyon/memory/5.jpg","[""ArrowDown"",""ArrowRight""]","value training","canyon","30","{""ArrowUp,ArrowLeft"":23,""ArrowUp,ArrowRight"":10,""ArrowDown,ArrowLeft"":8,""ArrowDown,ArrowRight"":30}","true","ArrowDown,ArrowRight","false","","","original","1","58","","",""
"html-keyboard-response","175","968978","0.0-4.0-2.0-1.29","spark_pilot_2","7320","7","12","Male","","","","","","","null","<div style=""font-size:60px;"">+</div>","null","fixation","","","","","","","","","","","59","","",""
"revaluation","176","975018","0.0-4.0-2.0-0.30","spark_pilot_2","7320","7","12","Male","","","false","","","","[566,737]","./assets/img/canyon/memory/1.jpg","[""ArrowDown"",""ArrowRight""]","value training","canyon","30","{""ArrowUp,ArrowLeft"":23,""ArrowUp,ArrowRight"":10,""ArrowDown,ArrowLeft"":8,""ArrowDown,ArrowRight"":30}","true","ArrowDown,ArrowRight","false","","","original","1","60","","",""
"html-keyboard-response","177","975538","0.0-4.0-2.0-1.30","spark_pilot_2","7320","7","12","Male","","","","","","","null","<div style=""font-size:60px;"">+</div>","null","fixation","","","","","","","","","","","61","","",""
"revaluation","178","981599","0.0-4.0-2.0-0.31","spark_pilot_2","7320","7","12","Male","","","false","","","","[776,585]","./assets/img/canyon/memory/21.jpg","[""ArrowDown"",""ArrowRight""]","value training","canyon","30","{""ArrowUp,ArrowLeft"":23,""ArrowUp,ArrowRight"":10,""ArrowDown,ArrowLeft"":8,""ArrowDown,ArrowRight"":30}","true","ArrowDown,ArrowRight","false","","","original","1","62","","",""
"html-keyboard-response","179","982117","0.0-4.0-2.0-1.31","spark_pilot_2","7320","7","12","Male","","","","","","","null","<div style=""font-size:60px;"">+</div>","null","fixation","","","","","","","","","","","63","","",""
"revaluation","180","988178","0.0-4.0-2.0-0.32","spark_pilot_2","7320","7","12","Male","","","false","","","","[419,110]","./assets/img/canyon/memory/27.jpg","[""ArrowDown"",""ArrowRight""]","value training","canyon","30","{""ArrowUp,ArrowLeft"":23,""ArrowUp,ArrowRight"":10,""ArrowDown,ArrowLeft"":8,""ArrowDown,ArrowRight"":30}","true","ArrowDown,ArrowRight","false","","","original","1","64","","",""
"html-keyboard-response","181","988697","0.0-4.0-2.0-1.32","spark_pilot_2","7320","7","12","Male","","","","","","","null","<div style=""font-size:60px;"">+</div>","null","fixation","","","","","","","","","","","65","","",""
"revaluation","182","994731","0.0-4.0-2.0-0.33","spark_pilot_2","7320","7","12","Male","","","false","","","","[608,513]","./assets/img/canyon/memory/24.jpg","[""ArrowUp"",""ArrowRight""]","value training","canyon","10","{""ArrowUp,ArrowLeft"":23,""ArrowUp,ArrowRight"":10,""ArrowDown,ArrowLeft"":8,""ArrowDown,ArrowRight"":30}","false","ArrowUp,ArrowRight","false","","","original","1","66","","",""
"html-keyboard-response","183","995248","0.0-4.0-2.0-1.33","spark_pilot_2","7320","7","12","Male","","","","","","","null","<div style=""font-size:60px;"">+</div>","null","fixation","","","","","","","","","","","67","","",""
"revaluation","184","1001289","0.0-4.0-2.0-0.34","spark_pilot_2","7320","7","12","Male","","","false","","","","[20,2]","./assets/img/canyon/memory/19.jpg","[""ArrowDown"",""ArrowRight""]","value training","canyon","30","{""ArrowUp,ArrowLeft"":23,""ArrowUp,ArrowRight"":10,""ArrowDown,ArrowLeft"":8,""ArrowDown,ArrowRight"":30}","true","ArrowDown,ArrowRight","false","","","original","1","68","","",""
"html-keyboard-response","185","1001809","0.0-4.0-2.0-1.34","spark_pilot_2","7320","7","12","Male","","","","","","","null","<div style=""font-size:60px;"">+</div>","null","fixation","","","","","","","","","","","69","","",""
"revaluation","186","1007846","0.0-4.0-2.0-0.35","spark_pilot_2","7320","7","12","Male","","","false","","","","[1856,363]","./assets/img/canyon/memory/22.jpg","[""ArrowDown"",""ArrowRight""]","value training","canyon","30","{""ArrowUp,ArrowLeft"":23,""ArrowUp,ArrowRight"":10,""ArrowDown,ArrowLeft"":8,""ArrowDown,ArrowRight"":30}","true","ArrowDown,ArrowRight","false","","","original","1","70","","",""
"html-keyboard-response","187","1008367","0.0-4.0-2.0-1.35","spark_pilot_2","7320","7","12","Male","","","","","","","null","<div style=""font-size:60px;"">+</div>","null","fixation","","","","","","","","","","","71","","",""
"revaluation","188","1014431","0.0-4.0-2.0-0.36","spark_pilot_2","7320","7","12","Male","","","false","","","","[20,3]","./assets/img/canyon/memory/23.jpg","[""ArrowDown"",""ArrowRight""]","value training","canyon","30","{""ArrowUp,ArrowLeft"":23,""ArrowUp,ArrowRight"":10,""ArrowDown,ArrowLeft"":8,""ArrowDown,ArrowRight"":30}","true","ArrowDown,ArrowRight","false","","","original","1","72","","",""
"html-keyboard-response","189","1014944","0.0-4.0-2.0-1.36","spark_pilot_2","7320","7","12","Male","","","","","","","null","<div style=""font-size:60px;"">+</div>","null","fixation","","","","","","","","","","","73","","",""
"revaluation","190","1020991","0.0-4.0-2.0-0.37","spark_pilot_2","7320","7","12","Male","","","false","","","","[24,4]","./assets/img/canyon/memory/13.jpg","[""ArrowDown"",""ArrowRight""]","value training","canyon","30","{""ArrowUp,ArrowLeft"":23,""ArrowUp,ArrowRight"":10,""ArrowDown,ArrowLeft"":8,""ArrowDown,ArrowRight"":30}","true","ArrowDown,ArrowRight","false","","","original","1","74","","",""
"html-keyboard-response","191","1021508","0.0-4.0-2.0-1.37","spark_pilot_2","7320","7","12","Male","","","","","","","null","<div style=""font-size:60px;"">+</div>","null","fixation","","","","","","","","","","","75","","",""
"revaluation","192","1027559","0.0-4.0-2.0-0.38","spark_pilot_2","7320","7","12","Male","","","false","","","","[21,22]","./assets/img/canyon/memory/24.jpg","[""ArrowDown"",""ArrowRight""]","value training","canyon","30","{""ArrowUp,ArrowLeft"":23,""ArrowUp,ArrowRight"":10,""ArrowDown,ArrowLeft"":8,""ArrowDown,ArrowRight"":30}","true","ArrowDown,ArrowRight","false","","","original","1","76","","",""
"html-keyboard-response","193","1028077","0.0-4.0-2.0-1.38","spark_pilot_2","7320","7","12","Male","","","","","","","null","<div style=""font-size:60px;"">+</div>","null","fixation","","","","","","","","","","","77","","",""
"revaluation","194","1034139","0.0-4.0-2.0-0.39","spark_pilot_2","7320","7","12","Male","","","false","","","","[22,4]","./assets/img/canyon/memory/5.jpg","[""ArrowDown"",""ArrowRight""]","value training","canyon","30","{""ArrowUp,ArrowLeft"":23,""ArrowUp,ArrowRight"":10,""ArrowDown,ArrowLeft"":8,""ArrowDown,ArrowRight"":30}","true","ArrowDown,ArrowRight","false","","","original","1","78","","",""
"html-keyboard-response","195","1034657","0.0-4.0-2.0-1.39","spark_pilot_2","7320","7","12","Male","","","","","","","null","<div style=""font-size:60px;"">+</div>","null","fixation","","","","","","","","","","","79","","",""
"revaluation","196","1040718","0.0-4.0-2.0-0.40","spark_pilot_2","7320","7","12","Male","","","false","","","","[1401,22]","./assets/img/canyon/memory/21.jpg","[""ArrowDown"",""ArrowRight""]","value training","canyon","30","{""ArrowUp,ArrowLeft"":23,""ArrowUp,ArrowRight"":10,""ArrowDown,ArrowLeft"":8,""ArrowDown,ArrowRight"":30}","true","ArrowDown,ArrowRight","false","","","original","1","80","","",""
"html-keyboard-response","197","1041238","0.0-4.0-2.0-1.40","spark_pilot_2","7320","7","12","Male","","","","","","","null","<div style=""font-size:60px;"">+</div>","null","fixation","","","","","","","","","","","81","","",""
"revaluation","198","1047278","0.0-4.0-2.0-0.41","spark_pilot_2","7320","7","12","Male","","","false","","","","[987,27]","./assets/img/canyon/memory/22.jpg","[""ArrowDown"",""ArrowRight""]","value training","canyon","30","{""ArrowUp,ArrowLeft"":23,""ArrowUp,ArrowRight"":10,""ArrowDown,ArrowLeft"":8,""ArrowDown,ArrowRight"":30}","true","ArrowDown,ArrowRight","false","","","original","1","82","","",""
"html-keyboard-response","199","1047803","0.0-4.0-2.0-1.41","spark_pilot_2","7320","7","12","Male","","","","","","","null","<div style=""font-size:60px;"">+</div>","null","fixation","","","","","","","","","","","83","","",""
"revaluation","200","1053849","0.0-4.0-2.0-0.42","spark_pilot_2","7320","7","12","Male","","","false","","","","[37,17]","./assets/img/canyon/memory/2.jpg","[""ArrowDown"",""ArrowRight""]","value training","canyon","30","{""ArrowUp,ArrowLeft"":23,""ArrowUp,ArrowRight"":10,""ArrowDown,ArrowLeft"":8,""ArrowDown,ArrowRight"":30}","true","ArrowDown,ArrowRight","false","","","original","1","84","","",""
"html-keyboard-response","201","1054369","0.0-4.0-2.0-1.42","spark_pilot_2","7320","7","12","Male","","","","","","","null","<div style=""font-size:60px;"">+</div>","null","fixation","","","","","","","","","","","85","","",""
"revaluation","202","1058400","0.0-4.0-2.0-0.43","spark_pilot_2","7320","7","12","Male","","","false","","","","[14]","./assets/img/canyon/catch/3.jpg","[""spaceBar""]","value training","canyon","0","{""ArrowUp,ArrowLeft"":23,""ArrowUp,ArrowRight"":10,""ArrowDown,ArrowLeft"":8,""ArrowDown,ArrowRight"":30}","true","spaceBar","true","","","original","1","86","","",""
"html-keyboard-response","203","1058919","0.0-4.0-2.0-1.43","spark_pilot_2","7320","7","12","Male","","","","","","","null","<div style=""font-size:60px;"">+</div>","null","fixation","","","","","","","","","","","87","","",""
"revaluation","204","1064961","0.0-4.0-2.0-0.44","spark_pilot_2","7320","7","12","Male","","","false","","","","[4,852]","./assets/img/canyon/memory/16.jpg","[""ArrowDown"",""ArrowRight""]","value training","canyon","30","{""ArrowUp,ArrowLeft"":23,""ArrowUp,ArrowRight"":10,""ArrowDown,ArrowLeft"":8,""ArrowDown,ArrowRight"":30}","true","ArrowDown,ArrowRight","false","","","original","1","88","","",""
"html-keyboard-response","205","1065478","0.0-4.0-2.0-1.44","spark_pilot_2","7320","7","12","Male","","","","","","","null","<div style=""font-size:60px;"">+</div>","null","fixation","","","","","","","","","","","89","","",""
"revaluation","206","1071534","0.0-4.0-2.0-0.45","spark_pilot_2","7320","7","12","Male","","","false","","","","[26,24]","./assets/img/canyon/memory/0.jpg","[""ArrowDown"",""ArrowRight""]","value training","canyon","30","{""ArrowUp,ArrowLeft"":23,""ArrowUp,ArrowRight"":10,""ArrowDown,ArrowLeft"":8,""ArrowDown,ArrowRight"":30}","true","ArrowDown,ArrowRight","false","","","original","1","90","","",""
"html-keyboard-response","207","1072048","0.0-4.0-2.0-1.45","spark_pilot_2","7320","7","12","Male","","","","","","","null","<div style=""font-size:60px;"">+</div>","null","fixation","","","","","","","","","","","91","","",""
"revaluation","208","1078111","0.0-4.0-2.0-0.46","spark_pilot_2","7320","7","12","Male","","","false","","","","[24,5]","./assets/img/canyon/memory/27.jpg","[""ArrowDown"",""ArrowRight""]","value training","canyon","30","{""ArrowUp,ArrowLeft"":23,""ArrowUp,ArrowRight"":10,""ArrowDown,ArrowLeft"":8,""ArrowDown,ArrowRight"":30}","true","ArrowDown,ArrowRight","false","","","original","1","92","","",""
"html-keyboard-response","209","1078630","0.0-4.0-2.0-1.46","spark_pilot_2","7320","7","12","Male","","","","","","","null","<div style=""font-size:60px;"">+</div>","null","fixation","","","","","","","","","","","93","","",""
"revaluation","210","1084659","0.0-4.0-2.0-0.47","spark_pilot_2","7320","7","12","Male","","","false","","","","[4,342]","./assets/img/canyon/memory/12.jpg","[""ArrowDown"",""ArrowRight""]","value training","canyon","30","{""ArrowUp,ArrowLeft"":23,""ArrowUp,ArrowRight"":10,""ArrowDown,ArrowLeft"":8,""ArrowDown,ArrowRight"":30}","true","ArrowDown,ArrowRight","false","","","original","1","94","","",""
"html-keyboard-response","211","1085178","0.0-4.0-2.0-1.47","spark_pilot_2","7320","7","12","Male","","","","","","","null","<div style=""font-size:60px;"">+</div>","null","fixation","","","","","","","","","","","95","","",""
"revaluation","212","1089219","0.0-4.0-2.0-0.48","spark_pilot_2","7320","7","12","Male","","","false","","","","[16]","./assets/img/canyon/catch/7.jpg","[""spaceBar""]","value training","canyon","0","{""ArrowUp,ArrowLeft"":23,""ArrowUp,ArrowRight"":10,""ArrowDown,ArrowLeft"":8,""ArrowDown,ArrowRight"":30}","true","spaceBar","true","","","original","1","96","","",""
"html-keyboard-response","213","1089738","0.0-4.0-2.0-1.48","spark_pilot_2","7320","7","12","Male","","","","","","","null","<div style=""font-size:60px;"">+</div>","null","fixation","","","","","","","","","","","97","","",""
"revaluation","214","1095780","0.0-4.0-2.0-0.49","spark_pilot_2","7320","7","12","Male","","","false","","","","[1265,25]","./assets/img/canyon/memory/25.jpg","[""ArrowDown"",""ArrowRight""]","value training","canyon","30","{""ArrowUp,ArrowLeft"":23,""ArrowUp,ArrowRight"":10,""ArrowDown,ArrowLeft"":8,""ArrowDown,ArrowRight"":30}","true","ArrowDown,ArrowRight","false","","","original","1","98","","",""
"html-keyboard-response","215","1096300","0.0-4.0-2.0-1.49","spark_pilot_2","7320","7","12","Male","","","","","","","null","<div style=""font-size:60px;"">+</div>","null","fixation","","","","","","","","","","","99","","",""
"learning-instructions","216","2007175","0.0-4.0-3.0-0.0","spark_pilot_2","7320","7","12","Male","","","","","","","897986","<p> Now, you will travel with a friend who will choose whether you go up or down first. </p>
            <p> On these turns, you will just see the animal that they found. You will still get to choose which chest to search for treasure.</p>","","instructions","","","","","","","","","","","","","",""
"revaluation","217","2011200","0.0-4.0-4.0-0.0","spark_pilot_2","7320","7","12","Male","","","false","","","","[1599]","./assets/img/canyon/animals/lion.jpg","[""ArrowRight""]","revaluation","canyon","30","{""ArrowUp,ArrowLeft"":23,""ArrowUp,ArrowRight"":10,""ArrowDown,ArrowLeft"":8,""ArrowDown,ArrowRight"":30}","true","ArrowDown,ArrowRight","","","","original","1","0","","",""
"html-keyboard-response","218","2011719","0.0-4.0-4.0-1.0","spark_pilot_2","7320","7","12","Male","","","","","","","null","<div style=""font-size:60px;"">+</div>","null","fixation","","","","","","","","","","","1","","",""
"revaluation","219","2015760","0.0-4.0-4.0-0.1","spark_pilot_2","7320","7","12","Male","","","false","","","","[422]","./assets/img/canyon/animals/lion.jpg","[""ArrowRight""]","revaluation","canyon","30","{""ArrowUp,ArrowLeft"":23,""ArrowUp,ArrowRight"":10,""ArrowDown,ArrowLeft"":8,""ArrowDown,ArrowRight"":30}","true","ArrowDown,ArrowRight","","","","original","1","2","","",""
"html-keyboard-response","220","2016279","0.0-4.0-4.0-1.1","spark_pilot_2","7320","7","12","Male","","","","","","","null","<div style=""font-size:60px;"">+</div>","null","fixation","","","","","","","","","","","3","","",""
"revaluation","221","2020321","0.0-4.0-4.0-0.2","spark_pilot_2","7320","7","12","Male","","","false","","","","[666]","./assets/img/canyon/animals/lion.jpg","[""ArrowRight""]","revaluation","canyon","30","{""ArrowUp,ArrowLeft"":23,""ArrowUp,ArrowRight"":10,""ArrowDown,ArrowLeft"":8,""ArrowDown,ArrowRight"":30}","true","ArrowDown,ArrowRight","","","","original","1","4","","",""
"html-keyboard-response","222","2020839","0.0-4.0-4.0-1.2","spark_pilot_2","7320","7","12","Male","","","","","","","null","<div style=""font-size:60px;"">+</div>","null","fixation","","","","","","","","","","","5","","",""
"revaluation","223","2024881","0.0-4.0-4.0-0.3","spark_pilot_2","7320","7","12","Male","","","false","","","","[547]","./assets/img/canyon/animals/lion.jpg","[""ArrowRight""]","revaluation","canyon","30","{""ArrowUp,ArrowLeft"":23,""ArrowUp,ArrowRight"":10,""ArrowDown,ArrowLeft"":8,""ArrowDown,ArrowRight"":30}","true","ArrowDown,ArrowRight","","","","original","1","6","","",""
"html-keyboard-response","224","2025398","0.0-4.0-4.0-1.3","spark_pilot_2","7320","7","12","Male","","","","","","","null","<div style=""font-size:60px;"">+</div>","null","fixation","","","","","","","","","","","7","","",""
"revaluation","225","2029416","0.0-4.0-4.0-0.4","spark_pilot_2","7320","7","12","Male","","","false","","","","[1354]","./assets/img/canyon/animals/giraffe.jpg","[""ArrowLeft""]","revaluation","canyon","23","{""ArrowUp,ArrowLeft"":23,""ArrowUp,ArrowRight"":10,""ArrowDown,ArrowLeft"":8,""ArrowDown,ArrowRight"":30}","true","ArrowUp,ArrowLeft","","","","original","1","8","","",""
"html-keyboard-response","226","2029939","0.0-4.0-4.0-1.4","spark_pilot_2","7320","7","12","Male","","","","","","","null","<div style=""font-size:60px;"">+</div>","null","fixation","","","","","","","","","","","9","","",""
"revaluation","227","2033980","0.0-4.0-4.0-0.5","spark_pilot_2","7320","7","12","Male","","","false","","","","[940]","./assets/img/canyon/animals/lion.jpg","[""ArrowRight""]","revaluation","canyon","30","{""ArrowUp,ArrowLeft"":23,""ArrowUp,ArrowRight"":10,""ArrowDown,ArrowLeft"":8,""ArrowDown,ArrowRight"":30}","true","ArrowDown,ArrowRight","","","","original","1","10","","",""
"html-keyboard-response","228","2034499","0.0-4.0-4.0-1.5","spark_pilot_2","7320","7","12","Male","","","","","","","null","<div style=""font-size:60px;"">+</div>","null","fixation","","","","","","","","","","","11","","",""
"revaluation","229","2038515","0.0-4.0-4.0-0.6","spark_pilot_2","7320","7","12","Male","","","false","","","","[1725]","./assets/img/canyon/animals/giraffe.jpg","[""ArrowRight""]","revaluation","canyon","10","{""ArrowUp,ArrowLeft"":23,""ArrowUp,ArrowRight"":10,""ArrowDown,ArrowLeft"":8,""ArrowDown,ArrowRight"":30}","false","ArrowUp,ArrowRight","","","","original","1","12","","",""
"html-keyboard-response","230","2039038","0.0-4.0-4.0-1.6","spark_pilot_2","7320","7","12","Male","","","","","","","null","<div style=""font-size:60px;"">+</div>","null","fixation","","","","","","","","","","","13","","",""
"revaluation","231","2043080","0.0-4.0-4.0-0.7","spark_pilot_2","7320","7","12","Male","","","false","","","","[636]","./assets/img/canyon/animals/giraffe.jpg","[""ArrowLeft""]","revaluation","canyon","23","{""ArrowUp,ArrowLeft"":23,""ArrowUp,ArrowRight"":10,""ArrowDown,ArrowLeft"":8,""ArrowDown,ArrowRight"":30}","true","ArrowUp,ArrowLeft","","","","original","1","14","","",""
"html-keyboard-response","232","2043598","0.0-4.0-4.0-1.7","spark_pilot_2","7320","7","12","Male","","","","","","","null","<div style=""font-size:60px;"">+</div>","null","fixation","","","","","","","","","","","15","","",""
"revaluation","233","2047616","0.0-4.0-4.0-0.8","spark_pilot_2","7320","7","12","Male","","","false","","","","[482]","./assets/img/canyon/animals/giraffe.jpg","[""ArrowRight""]","revaluation","canyon","10","{""ArrowUp,ArrowLeft"":23,""ArrowUp,ArrowRight"":10,""ArrowDown,ArrowLeft"":8,""ArrowDown,ArrowRight"":30}","false","ArrowUp,ArrowRight","","","","original","1","16","","",""
"html-keyboard-response","234","2048139","0.0-4.0-4.0-1.8","spark_pilot_2","7320","7","12","Male","","","","","","","null","<div style=""font-size:60px;"">+</div>","null","fixation","","","","","","","","","","","17","","",""
"revaluation","235","2052180","0.0-4.0-4.0-0.9","spark_pilot_2","7320","7","12","Male","","","false","","","","[486]","./assets/img/canyon/animals/lion.jpg","[""ArrowRight""]","revaluation","canyon","30","{""ArrowUp,ArrowLeft"":23,""ArrowUp,ArrowRight"":10,""ArrowDown,ArrowLeft"":8,""ArrowDown,ArrowRight"":30}","true","ArrowDown,ArrowRight","","","","original","1","18","","",""
"html-keyboard-response","236","2052698","0.0-4.0-4.0-1.9","spark_pilot_2","7320","7","12","Male","","","","","","","null","<div style=""font-size:60px;"">+</div>","null","fixation","","","","","","","","","","","19","","",""
"revaluation","237","2056740","0.0-4.0-4.0-0.10","spark_pilot_2","7320","7","12","Male","","","false","","","","[758]","./assets/img/canyon/animals/giraffe.jpg","[""ArrowLeft""]","revaluation","canyon","23","{""ArrowUp,ArrowLeft"":23,""ArrowUp,ArrowRight"":10,""ArrowDown,ArrowLeft"":8,""ArrowDown,ArrowRight"":30}","true","ArrowUp,ArrowLeft","","","","original","1","20","","",""
"html-keyboard-response","238","2057259","0.0-4.0-4.0-1.10","spark_pilot_2","7320","7","12","Male","","","","","","","null","<div style=""font-size:60px;"">+</div>","null","fixation","","","","","","","","","","","21","","",""
"revaluation","239","2061300","0.0-4.0-4.0-0.11","spark_pilot_2","7320","7","12","Male","","","false","","","","[999]","./assets/img/canyon/animals/giraffe.jpg","[""ArrowLeft""]","revaluation","canyon","23","{""ArrowUp,ArrowLeft"":23,""ArrowUp,ArrowRight"":10,""ArrowDown,ArrowLeft"":8,""ArrowDown,ArrowRight"":30}","true","ArrowUp,ArrowLeft","","","","original","1","22","","",""
"html-keyboard-response","240","2061817","0.0-4.0-4.0-1.11","spark_pilot_2","7320","7","12","Male","","","","","","","null","<div style=""font-size:60px;"">+</div>","null","fixation","","","","","","","","","","","23","","",""
"revaluation","241","2065860","0.0-4.0-4.0-0.12","spark_pilot_2","7320","7","12","Male","","","false","","","","[655]","./assets/img/canyon/animals/giraffe.jpg","[""ArrowLeft""]","revaluation","canyon","23","{""ArrowUp,ArrowLeft"":23,""ArrowUp,ArrowRight"":10,""ArrowDown,ArrowLeft"":8,""ArrowDown,ArrowRight"":30}","true","ArrowUp,ArrowLeft","","","","original","1","24","","",""
"html-keyboard-response","242","2066379","0.0-4.0-4.0-1.12","spark_pilot_2","7320","7","12","Male","","","","","","","null","<div style=""font-size:60px;"">+</div>","null","fixation","","","","","","","","","","","25","","",""
"revaluation","243","2070418","0.0-4.0-4.0-0.13","spark_pilot_2","7320","7","12","Male","","","false","","","","[646]","./assets/img/canyon/animals/lion.jpg","[""ArrowRight""]","revaluation","canyon","30","{""ArrowUp,ArrowLeft"":23,""ArrowUp,ArrowRight"":10,""ArrowDown,ArrowLeft"":8,""ArrowDown,ArrowRight"":30}","true","ArrowDown,ArrowRight","","","","original","1","26","","",""
"html-keyboard-response","244","2070939","0.0-4.0-4.0-1.13","spark_pilot_2","7320","7","12","Male","","","","","","","null","<div style=""font-size:60px;"">+</div>","null","fixation","","","","","","","","","","","27","","",""
"revaluation","245","2074960","0.0-4.0-4.0-0.14","spark_pilot_2","7320","7","12","Male","","","false","","","","[701]","./assets/img/canyon/animals/giraffe.jpg","[""ArrowLeft""]","revaluation","canyon","23","{""ArrowUp,ArrowLeft"":23,""ArrowUp,ArrowRight"":10,""ArrowDown,ArrowLeft"":8,""ArrowDown,ArrowRight"":30}","true","ArrowUp,ArrowLeft","","","","original","1","28","","",""
"html-keyboard-response","246","2075479","0.0-4.0-4.0-1.14","spark_pilot_2","7320","7","12","Male","","","","","","","null","<div style=""font-size:60px;"">+</div>","null","fixation","","","","","","","","","","","29","","",""
"revaluation","247","2079519","0.0-4.0-4.0-0.15","spark_pilot_2","7320","7","12","Male","","","false","","","","[467]","./assets/img/canyon/animals/giraffe.jpg","[""ArrowRight""]","revaluation","canyon","10","{""ArrowUp,ArrowLeft"":23,""ArrowUp,ArrowRight"":10,""ArrowDown,ArrowLeft"":8,""ArrowDown,ArrowRight"":30}","false","ArrowUp,ArrowRight","","","","original","1","30","","",""
"html-keyboard-response","248","2080040","0.0-4.0-4.0-1.15","spark_pilot_2","7320","7","12","Male","","","","","","","null","<div style=""font-size:60px;"">+</div>","null","fixation","","","","","","","","","","","31","","",""
"revaluation","249","2084080","0.0-4.0-4.0-0.16","spark_pilot_2","7320","7","12","Male","","","false","","","","[554]","./assets/img/canyon/animals/lion.jpg","[""ArrowRight""]","revaluation","canyon","30","{""ArrowUp,ArrowLeft"":23,""ArrowUp,ArrowRight"":10,""ArrowDown,ArrowLeft"":8,""ArrowDown,ArrowRight"":30}","true","ArrowDown,ArrowRight","","","","original","1","32","","",""
"html-keyboard-response","250","2084598","0.0-4.0-4.0-1.16","spark_pilot_2","7320","7","12","Male","","","","","","","null","<div style=""font-size:60px;"">+</div>","null","fixation","","","","","","","","","","","33","","",""
"revaluation","251","2088618","0.0-4.0-4.0-0.17","spark_pilot_2","7320","7","12","Male","","","false","","","","[1033]","./assets/img/canyon/animals/lion.jpg","[""ArrowRight""]","revaluation","canyon","30","{""ArrowUp,ArrowLeft"":23,""ArrowUp,ArrowRight"":10,""ArrowDown,ArrowLeft"":8,""ArrowDown,ArrowRight"":30}","true","ArrowDown,ArrowRight","","","","original","1","34","","",""
"html-keyboard-response","252","2089138","0.0-4.0-4.0-1.17","spark_pilot_2","7320","7","12","Male","","","","","","","null","<div style=""font-size:60px;"">+</div>","null","fixation","","","","","","","","","","","35","","",""
"learning-instructions","253","2102047","0.0-4.0-5.0-0.0","spark_pilot_2","7320","7","12","Male","","","","","","","652","<p> Time to play the dot game! </p>
            <p> For one minute, click the red dots on the following screen as they appear. </p>
            <p><b> Don't look away, as you will earn bonus for clicking dots</b>. </p>","","instructions","","","","","","","","","","","","","",""
"revaluation","254","2162058","0.0-4.0-6.0-0.0","spark_pilot_2","7320","7","12","Male","","","","","","","[80,73,87,118,73,84,20]","","","rest","","70","","","","","0","60000","","","","","",""
"learning-instructions","255","2169912","0.0-4.0-7.0-0.0","spark_pilot_2","7320","7","12","Male","","","","","","","1731","<p> You have almost finished this part of the game! </p>
            <p> We are going to ask you to make a few more choices. </p>","","instructions","","","","","","","","","","","","","",""
"learning-instructions","256","2198200","0.0-4.0-7.0-0.1","spark_pilot_2","7320","7","12","Male","","","","","","","14309","<p> First, you need to decide whether to go up or down. When you see each picture, use the arrow keys to make your choice. </p>
            <p><b>You will not see which animal you found, but try to get to the one that will give you the most treasure.</b></p>","","instructions","","","","","","","","","","","","","",""
"revaluation","257","2199697","0.0-4.0-8.0-0.0","spark_pilot_2","7320","7","12","Male","","","false","","","","[1492]","./assets/img/canyon/test/3.jpg","[""ArrowUp""]","first stage test","canyon","0","{""ArrowUp,ArrowLeft"":23,""ArrowUp,ArrowRight"":10,""ArrowDown,ArrowLeft"":8,""ArrowDown,ArrowRight"":30}","false","ArrowUp","false","","","original","1","","","",""
"html-keyboard-response","258","2200199","0.0-4.0-8.0-1.0","spark_pilot_2","7320","7","12","Male","","","","","","","null","<div style=""font-size:60px;"">+</div>","null","fixation","","","","","","","","","","","","","",""
"revaluation","259","2201665","0.0-4.0-8.0-0.1","spark_pilot_2","7320","7","12","Male","","","false","","","","[1459]","./assets/img/canyon/test/2.jpg","[""ArrowUp""]","first stage test","canyon","0","{""ArrowUp,ArrowLeft"":23,""ArrowUp,ArrowRight"":10,""ArrowDown,ArrowLeft"":8,""ArrowDown,ArrowRight"":30}","false","ArrowUp","false","","","original","1","","","",""
"html-keyboard-response","260","2202179","0.0-4.0-8.0-1.1","spark_pilot_2","7320","7","12","Male","","","","","","","null","<div style=""font-size:60px;"">+</div>","null","fixation","","","","","","","","","","","","","",""
"revaluation","261","2203784","0.0-4.0-8.0-0.2","spark_pilot_2","7320","7","12","Male","","","false","","","","[1596]","./assets/img/canyon/test/1.jpg","[""ArrowDown""]","first stage test","canyon","0","{""ArrowUp,ArrowLeft"":23,""ArrowUp,ArrowRight"":10,""ArrowDown,ArrowLeft"":8,""ArrowDown,ArrowRight"":30}","true","ArrowDown","false","","","original","1","","","",""
"html-keyboard-response","262","2204299","0.0-4.0-8.0-1.2","spark_pilot_2","7320","7","12","Male","","","","","","","null","<div style=""font-size:60px;"">+</div>","null","fixation","","","","","","","","","","","","","",""
"revaluation","263","2205009","0.0-4.0-8.0-0.3","spark_pilot_2","7320","7","12","Male","","","false","","","","[699]","./assets/img/canyon/test/0.jpg","[""ArrowDown""]","first stage test","canyon","0","{""ArrowUp,ArrowLeft"":23,""ArrowUp,ArrowRight"":10,""ArrowDown,ArrowLeft"":8,""ArrowDown,ArrowRight"":30}","true","ArrowDown","false","","","original","1","","","",""
"html-keyboard-response","264","2205520","0.0-4.0-8.0-1.3","spark_pilot_2","7320","7","12","Male","","","","","","","null","<div style=""font-size:60px;"">+</div>","null","fixation","","","","","","","","","","","","","",""
"learning-instructions","265","2219063","0.0-4.0-9.0-0.0","spark_pilot_2","7320","7","12","Male","","","","","","","2193","<p> Now you will see the animals again and can search their chests for treasure. </p>
            <p> This time, you will not see how much treasure you earned, but you will earn more bonus money for making better choices. </p>","","instructions","","","","","","","","","","","","","",""
"revaluation","266","2220401","0.0-4.0-10.0-0.0","spark_pilot_2","7320","7","12","Male","","","false","","","","[1334]","./assets/img/canyon/animals/giraffe.jpg","[""ArrowLeft""]","second stage test","canyon","0","{""ArrowUp,ArrowLeft"":23,""ArrowUp,ArrowRight"":10,""ArrowDown,ArrowLeft"":8,""ArrowDown,ArrowRight"":30}","true","ArrowUp,ArrowLeft","","","","original","1","","","",""
"html-keyboard-response","267","2220909","0.0-4.0-10.0-1.0","spark_pilot_2","7320","7","12","Male","","","","","","","null","<div style=""font-size:60px;"">+</div>","null","fixation","","","","","","","","","","","","","",""
"revaluation","268","2221721","0.0-4.0-10.0-0.1","spark_pilot_2","7320","7","12","Male","","","false","","","","[806]","./assets/img/canyon/animals/giraffe.jpg","[""ArrowLeft""]","second stage test","canyon","0","{""ArrowUp,ArrowLeft"":23,""ArrowUp,ArrowRight"":10,""ArrowDown,ArrowLeft"":8,""ArrowDown,ArrowRight"":30}","true","ArrowUp,ArrowLeft","","","","original","1","","","",""
"html-keyboard-response","269","2222229","0.0-4.0-10.0-1.1","spark_pilot_2","7320","7","12","Male","","","","","","","null","<div style=""font-size:60px;"">+</div>","null","fixation","","","","","","","","","","","","","",""
"revaluation","270","2222705","0.0-4.0-10.0-0.2","spark_pilot_2","7320","7","12","Male","","","false","","","","[468]","./assets/img/canyon/animals/giraffe.jpg","[""ArrowLeft""]","second stage test","canyon","0","{""ArrowUp,ArrowLeft"":23,""ArrowUp,ArrowRight"":10,""ArrowDown,ArrowLeft"":8,""ArrowDown,ArrowRight"":30}","true","ArrowUp,ArrowLeft","","","","original","1","","","",""
"html-keyboard-response","271","2223209","0.0-4.0-10.0-1.2","spark_pilot_2","7320","7","12","Male","","","","","","","null","<div style=""font-size:60px;"">+</div>","null","fixation","","","","","","","","","","","","","",""
"revaluation","272","2223673","0.0-4.0-10.0-0.3","spark_pilot_2","7320","7","12","Male","","","false","","","","[457]","./assets/img/canyon/animals/giraffe.jpg","[""ArrowLeft""]","second stage test","canyon","0","{""ArrowUp,ArrowLeft"":23,""ArrowUp,ArrowRight"":10,""ArrowDown,ArrowLeft"":8,""ArrowDown,ArrowRight"":30}","true","ArrowUp,ArrowLeft","","","","original","1","","","",""
"html-keyboard-response","273","2224189","0.0-4.0-10.0-1.3","spark_pilot_2","7320","7","12","Male","","","","","","","null","<div style=""font-size:60px;"">+</div>","null","fixation","","","","","","","","","","","","","",""
"revaluation","274","2224705","0.0-4.0-10.0-0.4","spark_pilot_2","7320","7","12","Male","","","false","","","","[505]","./assets/img/canyon/animals/lion.jpg","[""ArrowRight""]","second stage test","canyon","0","{""ArrowUp,ArrowLeft"":23,""ArrowUp,ArrowRight"":10,""ArrowDown,ArrowLeft"":8,""ArrowDown,ArrowRight"":30}","true","ArrowDown,ArrowRight","","","","original","1","","","",""
"html-keyboard-response","275","2225219","0.0-4.0-10.0-1.4","spark_pilot_2","7320","7","12","Male","","","","","","","null","<div style=""font-size:60px;"">+</div>","null","fixation","","","","","","","","","","","","","",""
"revaluation","276","2225641","0.0-4.0-10.0-0.5","spark_pilot_2","7320","7","12","Male","","","false","","","","[414]","./assets/img/canyon/animals/lion.jpg","[""ArrowRight""]","second stage test","canyon","0","{""ArrowUp,ArrowLeft"":23,""ArrowUp,ArrowRight"":10,""ArrowDown,ArrowLeft"":8,""ArrowDown,ArrowRight"":30}","true","ArrowDown,ArrowRight","","","","original","1","","","",""
"html-keyboard-response","277","2226158","0.0-4.0-10.0-1.5","spark_pilot_2","7320","7","12","Male","","","","","","","null","<div style=""font-size:60px;"">+</div>","null","fixation","","","","","","","","","","","","","",""
"revaluation","278","2226625","0.0-4.0-10.0-0.6","spark_pilot_2","7320","7","12","Male","","","false","","","","[458]","./assets/img/canyon/animals/lion.jpg","[""ArrowRight""]","second stage test","canyon","0","{""ArrowUp,ArrowLeft"":23,""ArrowUp,ArrowRight"":10,""ArrowDown,ArrowLeft"":8,""ArrowDown,ArrowRight"":30}","true","ArrowDown,ArrowRight","","","","original","1","","","",""
"html-keyboard-response","279","2227138","0.0-4.0-10.0-1.6","spark_pilot_2","7320","7","12","Male","","","","","","","null","<div style=""font-size:60px;"">+</div>","null","fixation","","","","","","","","","","","","","",""
"revaluation","280","2227562","0.0-4.0-10.0-0.7","spark_pilot_2","7320","7","12","Male","","","false","","","","[417]","./assets/img/canyon/animals/lion.jpg","[""ArrowRight""]","second stage test","canyon","0","{""ArrowUp,ArrowLeft"":23,""ArrowUp,ArrowRight"":10,""ArrowDown,ArrowLeft"":8,""ArrowDown,ArrowRight"":30}","true","ArrowDown,ArrowRight","","","","original","1","","","",""
"html-keyboard-response","281","2228079","0.0-4.0-10.0-1.7","spark_pilot_2","7320","7","12","Male","","","","","","","null","<div style=""font-size:60px;"">+</div>","null","fixation","","","","","","","","","","","","","",""
"learning-instructions","282","2232991","0.0-4.0-0.1-0.2","spark_pilot_2","7320","7","12","Male","","","","","","","2131","<p> This time you are searching for treasure in the <b>ocean</b>.</p>","","instructions","","","","","","","","","","","","","",""
"learning-instructions","283","2250441","0.0-4.0-0.1-0.3","spark_pilot_2","7320","7","12","Male","","","","","","","177","<p><b>New</b> animals with <b>new</b> treasure chests live here. You need to explore to discover where the animal with the best treasure chest is.</p>
                    <p> Like before, once you figure out which animal has the chest with the most treasure, you should try to get to that animal and select that chest! </p>","","instructions","","","","","","","","","","","","","",""
"learning-instructions","284","2265415","0.0-4.0-1.1-0.1","spark_pilot_2","7320","7","12","Male","","","","","","","235","<p> Remember, when you see a picture of the place, use the up and down keys to <b>find an animal</b>.</p>
            <p> When you encounter an animal, you should use the left and right keys to <b>select a treasure chest</b>.</p>
            <p> Don't forget to look out for the robber! </p>","","instructions","","","","","","","","","","","","","",""
"revaluation","285","2271469","0.0-4.0-2.1-0.50","spark_pilot_2","7320","7","12","Male","","","false","","","","[1291,963]","./assets/img/ocean/memory/18.jpg","[""ArrowUp"",""ArrowRight""]","value training","ocean","10","{""ArrowUp,ArrowLeft"":26,""ArrowUp,ArrowRight"":10,""ArrowDown,ArrowLeft"":5,""ArrowDown,ArrowRight"":17}","false","ArrowUp,ArrowRight","false","","","revaluation","2","0","","",""
"html-keyboard-response","286","2271989","0.0-4.0-2.1-1.50","spark_pilot_2","7320","7","12","Male","","","","","","","null","<div style=""font-size:60px;"">+</div>","null","fixation","","","","","","","","","","","1","","",""
"revaluation","287","2278040","0.0-4.0-2.1-0.51","spark_pilot_2","7320","7","12","Male","","","false","","","","[518,233]","./assets/img/ocean/memory/4.jpg","[""ArrowUp"",""ArrowLeft""]","value training","ocean","26","{""ArrowUp,ArrowLeft"":26,""ArrowUp,ArrowRight"":10,""ArrowDown,ArrowLeft"":5,""ArrowDown,ArrowRight"":17}","true","ArrowUp,ArrowLeft","false","","","revaluation","2","2","","",""
"html-keyboard-response","288","2278559","0.0-4.0-2.1-1.51","spark_pilot_2","7320","7","12","Male","","","","","","","null","<div style=""font-size:60px;"">+</div>","null","fixation","","","","","","","","","","","3","","",""
"revaluation","289","2284590","0.0-4.0-2.1-0.52","spark_pilot_2","7320","7","12","Male","","","false","","","","[586,463]","./assets/img/ocean/memory/28.jpg","[""ArrowDown"",""ArrowRight""]","value training","ocean","17","{""ArrowUp,ArrowLeft"":26,""ArrowUp,ArrowRight"":10,""ArrowDown,ArrowLeft"":5,""ArrowDown,ArrowRight"":17}","false","ArrowDown,ArrowRight","false","","","revaluation","2","4","","",""
"html-keyboard-response","290","2285109","0.0-4.0-2.1-1.52","spark_pilot_2","7320","7","12","Male","","","","","","","null","<div style=""font-size:60px;"">+</div>","null","fixation","","","","","","","","","","","5","","",""
"revaluation","291","2291155","0.0-4.0-2.1-0.53","spark_pilot_2","7320","7","12","Male","","","false","","","","[642,511]","./assets/img/ocean/memory/7.jpg","[""ArrowDown"",""ArrowLeft""]","value training","ocean","5","{""ArrowUp,ArrowLeft"":26,""ArrowUp,ArrowRight"":10,""ArrowDown,ArrowLeft"":5,""ArrowDown,ArrowRight"":17}","false","ArrowDown,ArrowLeft","false","","","revaluation","2","6","","",""
"html-keyboard-response","292","2291660","0.0-4.0-2.1-1.53","spark_pilot_2","7320","7","12","Male","","","","","","","null","<div style=""font-size:60px;"">+</div>","null","fixation","","","","","","","","","","","7","","",""
"revaluation","293","2297720","0.0-4.0-2.1-0.54","spark_pilot_2","7320","7","12","Male","","","false","","","","[582,569]","./assets/img/ocean/memory/7.jpg","[""ArrowUp"",""ArrowLeft""]","value training","ocean","26","{""ArrowUp,ArrowLeft"":26,""ArrowUp,ArrowRight"":10,""ArrowDown,ArrowLeft"":5,""ArrowDown,ArrowRight"":17}","true","ArrowUp,ArrowLeft","false","","","revaluation","2","8","","",""
"html-keyboard-response","294","2298239","0.0-4.0-2.1-1.54","spark_pilot_2","7320","7","12","Male","","","","","","","null","<div style=""font-size:60px;"">+</div>","null","fixation","","","","","","","","","","","9","","",""
"revaluation","295","2304290","0.0-4.0-2.1-0.55","spark_pilot_2","7320","7","12","Male","","","false","","","","[562,512]","./assets/img/ocean/memory/4.jpg","[""ArrowUp"",""ArrowRight""]","value training","ocean","10","{""ArrowUp,ArrowLeft"":26,""ArrowUp,ArrowRight"":10,""ArrowDown,ArrowLeft"":5,""ArrowDown,ArrowRight"":17}","false","ArrowUp,ArrowRight","false","","","revaluation","2","10","","",""
"html-keyboard-response","296","2304809","0.0-4.0-2.1-1.55","spark_pilot_2","7320","7","12","Male","","","","","","","null","<div style=""font-size:60px;"">+</div>","null","fixation","","","","","","","","","","","11","","",""
"revaluation","297","2308850","0.0-4.0-2.1-0.56","spark_pilot_2","7320","7","12","Male","","","false","","","","[1209]","./assets/img/ocean/catch/7.jpg","[""spaceBar""]","value training","ocean","0","{""ArrowUp,ArrowLeft"":26,""ArrowUp,ArrowRight"":10,""ArrowDown,ArrowLeft"":5,""ArrowDown,ArrowRight"":17}","true","spaceBar","true","","","revaluation","2","12","","",""
"html-keyboard-response","298","2309369","0.0-4.0-2.1-1.56","spark_pilot_2","7320","7","12","Male","","","","","","","null","<div style=""font-size:60px;"">+</div>","null","fixation","","","","","","","","","","","13","","",""
"revaluation","299","2315431","0.0-4.0-2.1-0.57","spark_pilot_2","7320","7","12","Male","","","false","","","","[1240,339]","./assets/img/ocean/memory/21.jpg","[""ArrowDown"",""ArrowRight""]","value training","ocean","17","{""ArrowUp,ArrowLeft"":26,""ArrowUp,ArrowRight"":10,""ArrowDown,ArrowLeft"":5,""ArrowDown,ArrowRight"":17}","false","ArrowDown,ArrowRight","false","","","revaluation","2","14","","",""
"html-keyboard-response","300","2315949","0.0-4.0-2.1-1.57","spark_pilot_2","7320","7","12","Male","","","","","","","null","<div style=""font-size:60px;"">+</div>","null","fixation","","","","","","","","","","","15","","",""
"revaluation","301","2321970","0.0-4.0-2.1-0.58","spark_pilot_2","7320","7","12","Male","","","false","","","","[516,599]","./assets/img/ocean/memory/1.jpg","[""ArrowUp"",""ArrowLeft""]","value training","ocean","26","{""ArrowUp,ArrowLeft"":26,""ArrowUp,ArrowRight"":10,""ArrowDown,ArrowLeft"":5,""ArrowDown,ArrowRight"":17}","true","ArrowUp,ArrowLeft","false","","","revaluation","2","16","","",""
"html-keyboard-response","302","2322485","0.0-4.0-2.1-1.58","spark_pilot_2","7320","7","12","Male","","","","","","","null","<div style=""font-size:60px;"">+</div>","null","fixation","","","","","","","","","","","17","","",""
"revaluation","303","2326520","0.0-4.0-2.1-0.59","spark_pilot_2","7320","7","12","Male","","","false","","","","[950]","./assets/img/ocean/catch/6.jpg","[""spaceBar""]","value training","ocean","0","{""ArrowUp,ArrowLeft"":26,""ArrowUp,ArrowRight"":10,""ArrowDown,ArrowLeft"":5,""ArrowDown,ArrowRight"":17}","true","spaceBar","true","","","revaluation","2","18","","",""
"html-keyboard-response","304","2327039","0.0-4.0-2.1-1.59","spark_pilot_2","7320","7","12","Male","","","","","","","null","<div style=""font-size:60px;"">+</div>","null","fixation","","","","","","","","","","","19","","",""
"revaluation","305","2331059","0.0-4.0-2.1-0.60","spark_pilot_2","7320","7","12","Male","","","true","","","","[]","./assets/img/ocean/catch/1.jpg","[]","value training","ocean","-5","{""ArrowUp,ArrowLeft"":26,""ArrowUp,ArrowRight"":10,""ArrowDown,ArrowLeft"":5,""ArrowDown,ArrowRight"":17}","false","","true","","","revaluation","2","20","","",""
"html-keyboard-response","306","2331579","0.0-4.0-2.1-1.60","spark_pilot_2","7320","7","12","Male","","","","","","","null","<div style=""font-size:60px;"">+</div>","null","fixation","","","","","","","","","","","21","","",""
"revaluation","307","2337640","0.0-4.0-2.1-0.61","spark_pilot_2","7320","7","12","Male","","","false","","","","[983,33]","./assets/img/ocean/memory/23.jpg","[""ArrowUp"",""ArrowLeft""]","value training","ocean","26","{""ArrowUp,ArrowLeft"":26,""ArrowUp,ArrowRight"":10,""ArrowDown,ArrowLeft"":5,""ArrowDown,ArrowRight"":17}","true","ArrowUp,ArrowLeft","false","","","revaluation","2","22","","",""
"html-keyboard-response","308","2338159","0.0-4.0-2.1-1.61","spark_pilot_2","7320","7","12","Male","","","","","","","null","<div style=""font-size:60px;"">+</div>","null","fixation","","","","","","","","","","","23","","",""
"revaluation","309","2344221","0.0-4.0-2.1-0.62","spark_pilot_2","7320","7","12","Male","","","false","","","","[907,517]","./assets/img/ocean/memory/24.jpg","[""ArrowUp"",""ArrowLeft""]","value training","ocean","26","{""ArrowUp,ArrowLeft"":26,""ArrowUp,ArrowRight"":10,""ArrowDown,ArrowLeft"":5,""ArrowDown,ArrowRight"":17}","true","ArrowUp,ArrowLeft","false","","","revaluation","2","24","","",""
"html-keyboard-response","310","2344741","0.0-4.0-2.1-1.62","spark_pilot_2","7320","7","12","Male","","","","","","","null","<div style=""font-size:60px;"">+</div>","null","fixation","","","","","","","","","","","25","","",""
"revaluation","311","2350800","0.0-4.0-2.1-0.63","spark_pilot_2","7320","7","12","Male","","","false","","","","[1191,4]","./assets/img/ocean/memory/23.jpg","[""ArrowUp"",""ArrowLeft""]","value training","ocean","26","{""ArrowUp,ArrowLeft"":26,""ArrowUp,ArrowRight"":10,""ArrowDown,ArrowLeft"":5,""ArrowDown,ArrowRight"":17}","true","ArrowUp,ArrowLeft","false","","","revaluation","2","26","","",""
"html-keyboard-response","312","2351322","0.0-4.0-2.1-1.63","spark_pilot_2","7320","7","12","Male","","","","","","","null","<div style=""font-size:60px;"">+</div>","null","fixation","","","","","","","","","","","27","","",""
"revaluation","313","2355360","0.0-4.0-2.1-0.64","spark_pilot_2","7320","7","12","Male","","","false","","","","[38]","./assets/img/ocean/catch/2.jpg","[""ArrowUp""]","value training","ocean","-10","{""ArrowUp,ArrowLeft"":26,""ArrowUp,ArrowRight"":10,""ArrowDown,ArrowLeft"":5,""ArrowDown,ArrowRight"":17}","false","ArrowUp","true","","","revaluation","2","28","","",""
