"trial_type","trial_index","time_elapsed","internal_node_id","task_version","subject_id","assigned_condition","age","gender","success","timeout","failed_images","failed_audio","failed_video","browser_interaction","rt","stimulus","response","task_part","environment","score","rewardMap","correct","fullState","isCatch","numberMissed","duration","condition","order","trial_num","key_press","ground_truth","bonus"
"pavlovia","0","1668","0.0-0.0","spark_pilot_2","8155","7","9","Female","","","","","","","","","","","","","","","","","","","","","","","",""
"preload","1","28857","0.0-1.0","spark_pilot_2","8155","7","9","Female","true","false","[]","[]","[]","[{""event"":""fullscreenenter"",""trial"":2,""time"":42234},{""event"":""blur"",""trial"":629,""time"":2284495},{""event"":""focus"",""trial"":629,""time"":2288233}]","","","","","","","","","","","","","","","","","",""
"fullscreen","2","43231","0.0-2.0","spark_pilot_2","8155","7","9","Female","true","","","","","","","","","","","","","","","","","","","","","","",""
"audio-button-response","3","47216","0.0-3.0-0.0-0.0","spark_pilot_2","8155","7","9","Female","","","","","","","3621","./assets/audio/audiotest/turtle.mp3","2","audio_test","","","","","","","","","","","","","",""
"learning-instructions","4","59695","0.0-3.0-1.0-0.0","spark_pilot_2","8155","7","9","Female","","","","","","","5503.0999999940395","<p> Welcome! Please remember to stay in fullscreen mode and don't click away from the experiment. </p>","","instructions","","","","","","","","","","","","","",""
"learning-instructions","5","71094","0.0-3.0-1.0-0.1","spark_pilot_2","8155","7","9","Female","","","","","","","3003.300000011921","<p> Today you will be playing a game to earn treasure. </p>
            <p> At the end of the experiment, you will earn a bonus based on how much treasure you find. </p>
            <img src='./assets/img/instructions/treasure.jpg' class='instructions-image'>","","instructions","","","","","","","","","","","","","",""
"learning-instructions","6","82166","0.0-3.0-1.0-0.2","spark_pilot_2","8155","7","9","Female","","","","","","","2814.5999999940395","<p> Animals have hidden treasure in treasure chests. </p>
            <p> You need to first find an animal and then choose which of their treasure chests to search. </p>
            <img src='./assets/img/space/animals/cat.jpg' class='instructions-image'>","","instructions","","","","","","","","","","","","","",""
"learning-instructions","7","99406","0.0-3.0-1.0-0.3","spark_pilot_2","8155","7","9","Female","","","","","","","4095.2999999970198","<p> In each round, you will search for treasure in a different place. In the real game, there will be two rounds. </p>
            <p> You will begin with a separate, practice round where you will search for treasure in outer space. </p>
            <img src='./assets/img/space/0.jpg' class='instructions-image'>","","instructions","","","","","","","","","","","","","",""
"learning-instructions","8","113966","0.0-3.0-1.0-0.4","spark_pilot_2","8155","7","9","Female","","","","","","","3153.3999999910593","<p> On every turn, you will see a picture of the place that you are in, but the specific image may be different each time. </p>
            <p> For example, both of these images mean you are in outer space. </p>
            <img src='./assets/img/instructions/outerspace.jpg' class='instructions-image'>","","instructions","","","","","","","","","","","","","",""
"learning-instructions","9","124263","0.0-3.0-1.0-0.5","spark_pilot_2","8155","7","9","Female","","","","","","","2479.9000000059605","<p> You need to decide which direction to travel in. </p>
            <p> You can choose between going <b>up or down</b> by using the arrow keys. </p>
            <img src='./assets/img/instructions/updown.jpg' class='instructions-image'>","","instructions","","","","","","","","","","","","","",""
"learning-instructions","10","136120","0.0-3.0-1.0-0.6","spark_pilot_2","8155","7","9","Female","","","","","","","3067.5","<p> You will have <b>2 seconds</b> to make your choice. </p>
            <p> If you do not make a choice within 2 seconds, you will not find an animal or earn treasure. </p>
            <img src='./assets/img/instructions/2seconds.jpg' class='instructions-image'>","","instructions","","","","","","","","","","","","","",""
"learning-instructions","11","145063","0.0-3.0-1.0-0.7","spark_pilot_2","8155","7","9","Female","","","","","","","1909.9000000059605","<p> Let’s try practicing that now! </p>
            <p> When you see a picture of the place you are in, press the <b>up</b> key to travel up. </p>
            <img src='./assets/img/instructions/pressUp.jpg' class='instructions-image'>","","instructions","","","","","","","","","","","","","",""
"revaluation","12","149077","0.0-3.0-2.0-0.0","spark_pilot_2","8155","7","9","Female","","false","","","","","[625.7999999970198]","./assets/img/space/0.jpg","[""ArrowUp""]","first stage practice","space","0","null","null","ArrowUp","false","","","","","","","",""
"html-keyboard-response","13","149578","0.0-3.0-2.0-1.0","spark_pilot_2","8155","7","9","Female","","","","","","","null","<div style=""font-size:60px;"">+</div>","null","fixation","","","","","","","","","","","","","",""
"revaluation","14","153589","0.0-3.0-2.0-0.1","spark_pilot_2","8155","7","9","Female","","false","","","","","[1746.0999999940395]","./assets/img/space/1.jpg","[""ArrowUp""]","first stage practice","space","0","null","null","ArrowUp","false","","","","","","","",""
"html-keyboard-response","15","154090","0.0-3.0-2.0-1.1","spark_pilot_2","8155","7","9","Female","","","","","","","null","<div style=""font-size:60px;"">+</div>","null","fixation","","","","","","","","","","","","","",""
"revaluation","16","158095","0.0-3.0-2.0-0.2","spark_pilot_2","8155","7","9","Female","","false","","","","","[1484.2999999970198]","./assets/img/space/2.jpg","[""ArrowUp""]","first stage practice","space","0","null","null","ArrowUp","false","","","","","","","",""
"html-keyboard-response","17","158599","0.0-3.0-2.0-1.2","spark_pilot_2","8155","7","9","Female","","","","","","","null","<div style=""font-size:60px;"">+</div>","null","fixation","","","","","","","","","","","","","",""
"learning-instructions","18","164928","0.0-3.0-3.0-0.0","spark_pilot_2","8155","7","9","Female","","","","","","","1646.7999999970198","<p> Great job! Now try pressing the <b>down</b> key to travel down. </p>
            <img src='./assets/img/instructions/pressDown.jpg' class='instructions-image'>","","instructions","","","","","","","","","","","","","",""
"revaluation","19","168946","0.0-3.0-4.0-0.0","spark_pilot_2","8155","7","9","Female","","false","","","","","[709.9000000059605]","./assets/img/space/3.jpg","[""ArrowDown""]","first stage practice","space","0","null","null","ArrowDown","false","","","","","","","",""
"html-keyboard-response","20","169447","0.0-3.0-4.0-1.0","spark_pilot_2","8155","7","9","Female","","","","","","","null","<div style=""font-size:60px;"">+</div>","null","fixation","","","","","","","","","","","","","",""
"revaluation","21","173461","0.0-3.0-4.0-0.1","spark_pilot_2","8155","7","9","Female","","false","","","","","[389.40000000596046]","./assets/img/space/4.jpg","[""ArrowDown""]","first stage practice","space","0","null","null","ArrowDown","false","","","","","","","",""
"html-keyboard-response","22","173972","0.0-3.0-4.0-1.1","spark_pilot_2","8155","7","9","Female","","","","","","","null","<div style=""font-size:60px;"">+</div>","null","fixation","","","","","","","","","","","","","",""
"revaluation","23","177974","0.0-3.0-4.0-0.2","spark_pilot_2","8155","7","9","Female","","false","","","","","[506.70000000298023]","./assets/img/space/5.jpg","[""ArrowDown""]","first stage practice","space","0","null","null","ArrowDown","false","","","","","","","",""
"html-keyboard-response","24","178475","0.0-3.0-4.0-1.2","spark_pilot_2","8155","7","9","Female","","","","","","","null","<div style=""font-size:60px;"">+</div>","null","fixation","","","","","","","","","","","","","",""
"learning-instructions","25","191647","0.0-3.0-5.0-0.0","spark_pilot_2","8155","7","9","Female","","","","","","","3325.2000000029802","<p> The animals don’t move, so the animal in the upper part of a place will stay in the upper part of a place, and the animal in the lower part of a place will stay in the lower part of a place. </p>","","instructions","","","","","","","","","","","","","",""
"learning-instructions","26","202662","0.0-3.0-5.0-0.1","spark_pilot_2","8155","7","9","Female","","","","","","","1901.0999999940395","<p> Each animal has two treasure chests for you to choose from. </p>
            <p> The amount of treasure in each chest can range from <b> 0 to 40 pieces.</b></p>","","instructions","","","","","","","","","","","","","",""
"learning-instructions","27","215320","0.0-3.0-5.0-0.2","spark_pilot_2","8155","7","9","Female","","","","","","","1478.2999999970198","<p> You should decide which chest to search for treasure by using the <b>left</b> and <b>right</b> arrow keys. </p>
            <p><b> Pay attention to which animal is on the screen, as the animals have different treasure chests. </b></p>
            <img src='./assets/img/instructions/leftright.jpg' class='instructions-image'>","","instructions","","","","","","","","","","","","","",""
"learning-instructions","28","224519","0.0-3.0-5.0-0.3","spark_pilot_2","8155","7","9","Female","","","","","","","2836.5","<p> Let’s try practicing that now. </p>
            <p> When you see an animal, choose which chest to search for treasure. </p>
            <img src='./assets/img/instructions/chooseChest.jpg' class='instructions-image'>","","instructions","","","","","","","","","","","","","",""
"revaluation","29","228537","0.0-3.0-6.0-0.0","spark_pilot_2","8155","7","9","Female","","false","","","","","[982.5]","./assets/img/space/animals/cat.jpg","[""ArrowLeft""]","second stage practice","space","3","{""ArrowUp,ArrowLeft"":3,""ArrowUp,ArrowRight"":36,""ArrowDown,ArrowLeft"":15,""ArrowDown,ArrowRight"":23}","false","ArrowUp,ArrowLeft","","","","","","","","",""
"html-keyboard-response","30","229047","0.0-3.0-6.0-1.0","spark_pilot_2","8155","7","9","Female","","","","","","","null","<div style=""font-size:60px;"">+</div>","null","fixation","","","","","","","","","","","","","",""
"revaluation","31","233064","0.0-3.0-6.0-0.1","spark_pilot_2","8155","7","9","Female","","false","","","","","[1922.300000011921]","./assets/img/space/animals/rabbit.jpg","[""ArrowRight""]","second stage practice","space","23","{""ArrowUp,ArrowLeft"":3,""ArrowUp,ArrowRight"":36,""ArrowDown,ArrowLeft"":15,""ArrowDown,ArrowRight"":23}","true","ArrowDown,ArrowRight","","","","","","","","",""
"html-keyboard-response","32","233574","0.0-3.0-6.0-1.1","spark_pilot_2","8155","7","9","Female","","","","","","","null","<div style=""font-size:60px;"">+</div>","null","fixation","","","","","","","","","","","","","",""
"revaluation","33","237583","0.0-3.0-6.0-0.2","spark_pilot_2","8155","7","9","Female","","false","","","","","[798.0999999940395]","./assets/img/space/animals/rabbit.jpg","[""ArrowRight""]","second stage practice","space","23","{""ArrowUp,ArrowLeft"":3,""ArrowUp,ArrowRight"":36,""ArrowDown,ArrowLeft"":15,""ArrowDown,ArrowRight"":23}","true","ArrowDown,ArrowRight","","","","","","","","",""
"html-keyboard-response","34","238094","0.0-3.0-6.0-1.2","spark_pilot_2","8155","7","9","Female","","","","","","","null","<div style=""font-size:60px;"">+</div>","null","fixation","","","","","","","","","","","","","",""
"revaluation","35","242115","0.0-3.0-6.0-0.3","spark_pilot_2","8155","7","9","Female","","false","","","","","[584.8999999910593]","./assets/img/space/animals/cat.jpg","[""ArrowRight""]","second stage practice","space","36","{""ArrowUp,ArrowLeft"":3,""ArrowUp,ArrowRight"":36,""ArrowDown,ArrowLeft"":15,""ArrowDown,ArrowRight"":23}","true","ArrowUp,ArrowRight","","","","","","","","",""
"html-keyboard-response","36","242626","0.0-3.0-6.0-1.3","spark_pilot_2","8155","7","9","Female","","","","","","","null","<div style=""font-size:60px;"">+</div>","null","fixation","","","","","","","","","","","","","",""
"learning-instructions","37","261599","0.0-3.0-7.0-0.0","spark_pilot_2","8155","7","9","Female","","","","","","","2167.4000000059605","<p> Great job. Now let’s try putting it together. </p>
            <p> On each turn, you will first see a picture to remind you of the place you are in, and you need to choose whether to go up or down. </p>
            <p> Then you will see an animal and choose which of its chests to search for treasure. </p>","","instructions","","","","","","","","","","","","","",""
"learning-instructions","38","275760","0.0-3.0-7.0-0.1","spark_pilot_2","8155","7","9","Female","","","","","","","5907.899999991059","<p> When you choose whether to go up or down, try to go to the animal with the chest with the most treasure. </p>
            <p> Try practicing that now! </p>","","instructions","","","","","","","","","","","","","",""
"revaluation","39","281783","0.0-3.0-8.0-0.0","spark_pilot_2","8155","7","9","Female","","false","","","","","[1006,599.4000000059605]","./assets/img/space/6.jpg","[""ArrowDown"",""ArrowLeft""]","full practice","space","15","{""ArrowUp,ArrowLeft"":3,""ArrowUp,ArrowRight"":36,""ArrowDown,ArrowLeft"":15,""ArrowDown,ArrowRight"":23}","false","ArrowDown,ArrowLeft","false","","","","","","","",""
"html-keyboard-response","40","282295","0.0-3.0-8.0-1.0","spark_pilot_2","8155","7","9","Female","","","","","","","null","<div style=""font-size:60px;"">+</div>","null","fixation","","","","","","","","","","","","","",""
"revaluation","41","288307","0.0-3.0-8.0-0.1","spark_pilot_2","8155","7","9","Female","","false","","","","","[463.29999999701977,443.59999999403954]","./assets/img/space/7.jpg","[""ArrowDown"",""ArrowRight""]","full practice","space","23","{""ArrowUp,ArrowLeft"":3,""ArrowUp,ArrowRight"":36,""ArrowDown,ArrowLeft"":15,""ArrowDown,ArrowRight"":23}","false","ArrowDown,ArrowRight","false","","","","","","","",""
"html-keyboard-response","42","288817","0.0-3.0-8.0-1.1","spark_pilot_2","8155","7","9","Female","","","","","","","null","<div style=""font-size:60px;"">+</div>","null","fixation","","","","","","","","","","","","","",""
"revaluation","43","294830","0.0-3.0-8.0-0.2","spark_pilot_2","8155","7","9","Female","","false","","","","","[740.5,730.8000000119209]","./assets/img/space/8.jpg","[""ArrowUp"",""ArrowRight""]","full practice","space","36","{""ArrowUp,ArrowLeft"":3,""ArrowUp,ArrowRight"":36,""ArrowDown,ArrowLeft"":15,""ArrowDown,ArrowRight"":23}","true","ArrowUp,ArrowRight","false","","","","","","","",""
"html-keyboard-response","44","295343","0.0-3.0-8.0-1.2","spark_pilot_2","8155","7","9","Female","","","","","","","null","<div style=""font-size:60px;"">+</div>","null","fixation","","","","","","","","","","","","","",""
"revaluation","45","301375","0.0-3.0-8.0-0.3","spark_pilot_2","8155","7","9","Female","","false","","","","","[948.7999999970198,601.1999999880791]","./assets/img/space/9.jpg","[""ArrowDown"",""ArrowRight""]","full practice","space","23","{""ArrowUp,ArrowLeft"":3,""ArrowUp,ArrowRight"":36,""ArrowDown,ArrowLeft"":15,""ArrowDown,ArrowRight"":23}","false","ArrowDown,ArrowRight","false","","","","","","","",""
"html-keyboard-response","46","301875","0.0-3.0-8.0-1.3","spark_pilot_2","8155","7","9","Female","","","","","","","null","<div style=""font-size:60px;"">+</div>","null","fixation","","","","","","","","","","","","","",""
"revaluation","47","307879","0.0-3.0-8.0-0.4","spark_pilot_2","8155","7","9","Female","","false","","","","","[485,362.90000000596046]","./assets/img/space/10.jpg","[""ArrowUp"",""ArrowRight""]","full practice","space","36","{""ArrowUp,ArrowLeft"":3,""ArrowUp,ArrowRight"":36,""ArrowDown,ArrowLeft"":15,""ArrowDown,ArrowRight"":23}","true","ArrowUp,ArrowRight","false","","","","","","","",""
"html-keyboard-response","48","308381","0.0-3.0-8.0-1.4","spark_pilot_2","8155","7","9","Female","","","","","","","null","<div style=""font-size:60px;"">+</div>","null","fixation","","","","","","","","","","","","","",""
"learning-instructions","49","323455","0.0-3.0-9.0-0.0","spark_pilot_2","8155","7","9","Female","","","","","","","4424.4000000059605","<p> One last thing: sometimes, you will see a robber. The robber can be anywhere in the picture. </p>
            <p> If you do not stop them, you will lose treasure. </p>
            <img src='./assets/img/instructions/robber.jpg' class='instructions-image'>","","instructions","","","","","","","","","","","","","",""
"learning-instructions","50","334416","0.0-3.0-9.0-0.1","spark_pilot_2","8155","7","9","Female","","","","","","","3803.5999999940395","<p> If you see the robber, you should <b>press the space bar</b> rather than using the arrow keys. </p>
            <p> Try practicing that now! </p>","","instructions","","","","","","","","","","","","","",""
"revaluation","51","338435","0.0-3.0-10.0-0.0","spark_pilot_2","8155","7","9","Female","","true","","","","","[]","./assets/img/space/catch/0.jpg","[]","catch practice","space","-5","{""ArrowUp,ArrowLeft"":3,""ArrowUp,ArrowRight"":36,""ArrowDown,ArrowLeft"":15,""ArrowDown,ArrowRight"":23}","false","","true","","","","","","","",""
"html-keyboard-response","52","338936","0.0-3.0-10.0-1.0","spark_pilot_2","8155","7","9","Female","","","","","","","null","<div style=""font-size:60px;"">+</div>","null","fixation","","","","","","","","","","","","","",""
"revaluation","53","342951","0.0-3.0-10.0-0.1","spark_pilot_2","8155","7","9","Female","","false","","","","","[1262.300000011921]","./assets/img/space/catch/1.jpg","[""spaceBar""]","catch practice","space","0","{""ArrowUp,ArrowLeft"":3,""ArrowUp,ArrowRight"":36,""ArrowDown,ArrowLeft"":15,""ArrowDown,ArrowRight"":23}","true","spaceBar","true","","","","","","","",""
"html-keyboard-response","54","343463","0.0-3.0-10.0-1.1","spark_pilot_2","8155","7","9","Female","","","","","","","null","<div style=""font-size:60px;"">+</div>","null","fixation","","","","","","","","","","","","","",""
"revaluation","55","347478","0.0-3.0-10.0-0.2","spark_pilot_2","8155","7","9","Female","","false","","","","","[543.2000000029802]","./assets/img/space/catch/2.jpg","[""spaceBar""]","catch practice","space","0","{""ArrowUp,ArrowLeft"":3,""ArrowUp,ArrowRight"":36,""ArrowDown,ArrowLeft"":15,""ArrowDown,ArrowRight"":23}","true","spaceBar","true","","","","","","","",""
"html-keyboard-response","56","347993","0.0-3.0-10.0-1.2","spark_pilot_2","8155","7","9","Female","","","","","","","null","<div style=""font-size:60px;"">+</div>","null","fixation","","","","","","","","","","","","","",""
"learning-instructions","57","365127","0.0-3.0-11.0-0.0","spark_pilot_2","8155","7","9","Female","","","","","","","3555.5","<p> After you explore a place to find treasure, it will be time to play a different game. </p>
            <p> During this game, red dots will appear on the screen and fall down slowly. </p>
            <p><b> You must click on them before they reach the bottom. </b></p>
            <img src='./assets/img/instructions/dotGame.jpg' class='instructions-image'>","","instructions","","","","","","","","","","","","","",""
"learning-instructions","58","374031","0.0-3.0-11.0-0.1","spark_pilot_2","8155","7","9","Female","","","","","","","3230","<p> For every dot you click, you will earn additional treasure. </p>
            <p> Let’s try practicing that now. </p>","","instructions","","","","","","","","","","","","","",""
"revaluation","59","389033","0.0-3.0-12.0-0.0","spark_pilot_2","8155","7","9","Female","","","","","","","[-1]","","","rest practice","","10","","","","","1","15000","","","","","",""
"learning-instructions","60","396231","0.0-3.0-13.0-0.0-0.0","spark_pilot_2","8155","7","9","Female","","","","","","","1948.9000000059605","<p> Now, you will practice a shortened version of the game to get a sense of how it all fits together. </p>","","instructions","","","","","","","","","","","","","",""
"learning-instructions","61","403071","0.0-3.0-13.0-0.0-0.1","spark_pilot_2","8155","7","9","Female","","","","","","","3659.7000000029802","<p>This time you are searching for treasure in outer space.</p>","","instructions","","","","","","","","","","","","","",""
"learning-instructions","62","419015","0.0-3.0-13.0-1.0-0.0","spark_pilot_2","8155","7","9","Female","","","","","","","1194","<p> Remember, when you see a picture of the place, use the up and down keys to <b>find an animal</b>.</p>
            <p> When you encounter an animal, you should use the left and right keys to <b>select a treasure chest</b>.</p>
            <p> Don't forget to look out for the robber! </p>","","instructions","","","","","","","","","","","","","",""
"revaluation","63","425040","0.0-3.0-13.0-2.0-0.0","spark_pilot_2","8155","7","9","Female","","false","","","","","[1319.3999999910593,666.7000000029802]","./assets/img/space/11.jpg","[""ArrowDown"",""ArrowRight""]","practice block","space","23","{""ArrowUp,ArrowLeft"":3,""ArrowUp,ArrowRight"":36,""ArrowDown,ArrowLeft"":15,""ArrowDown,ArrowRight"":23}","false","ArrowDown,ArrowRight","false","","","","","","","",""
"html-keyboard-response","64","425551","0.0-3.0-13.0-2.0-1.0","spark_pilot_2","8155","7","9","Female","","","","","","","null","<div style=""font-size:60px;"">+</div>","null","fixation","","","","","","","","","","","","","",""
"revaluation","65","431578","0.0-3.0-13.0-2.0-0.1","spark_pilot_2","8155","7","9","Female","","false","","","","","[916.5,798]","./assets/img/space/12.jpg","[""ArrowDown"",""ArrowRight""]","practice block","space","23","{""ArrowUp,ArrowLeft"":3,""ArrowUp,ArrowRight"":36,""ArrowDown,ArrowLeft"":15,""ArrowDown,ArrowRight"":23}","false","ArrowDown,ArrowRight","false","","","","","","","",""
"html-keyboard-response","66","432087","0.0-3.0-13.0-2.0-1.1","spark_pilot_2","8155","7","9","Female","","","","","","","null","<div style=""font-size:60px;"">+</div>","null","fixation","","","","","","","","","","","","","",""
"revaluation","67","438107","0.0-3.0-13.0-2.0-0.2","spark_pilot_2","8155","7","9","Female","","false","","","","","[566.2000000029802,612.7999999970198]","./assets/img/space/13.jpg","[""ArrowDown"",""ArrowRight""]","practice block","space","23","{""ArrowUp,ArrowLeft"":3,""ArrowUp,ArrowRight"":36,""ArrowDown,ArrowLeft"":15,""ArrowDown,ArrowRight"":23}","false","ArrowDown,ArrowRight","false","","","","","","","",""
"html-keyboard-response","68","438618","0.0-3.0-13.0-2.0-1.2","spark_pilot_2","8155","7","9","Female","","","","","","","null","<div style=""font-size:60px;"">+</div>","null","fixation","","","","","","","","","","","","","",""
"revaluation","69","444632","0.0-3.0-13.0-2.0-0.3","spark_pilot_2","8155","7","9","Female","","false","","","","","[508.20000000298023,442.5]","./assets/img/space/14.jpg","[""ArrowUp"",""ArrowRight""]","practice block","space","36","{""ArrowUp,ArrowLeft"":3,""ArrowUp,ArrowRight"":36,""ArrowDown,ArrowLeft"":15,""ArrowDown,ArrowRight"":23}","true","ArrowUp,ArrowRight","false","","","","","","","",""
"html-keyboard-response","70","445146","0.0-3.0-13.0-2.0-1.3","spark_pilot_2","8155","7","9","Female","","","","","","","null","<div style=""font-size:60px;"">+</div>","null","fixation","","","","","","","","","","","","","",""
"revaluation","71","451164","0.0-3.0-13.0-2.0-0.4","spark_pilot_2","8155","7","9","Female","","false","","","","","[611.7999999970198,540.2999999970198]","./assets/img/space/11.jpg","[""ArrowDown"",""ArrowRight""]","practice block","space","23","{""ArrowUp,ArrowLeft"":3,""ArrowUp,ArrowRight"":36,""ArrowDown,ArrowLeft"":15,""ArrowDown,ArrowRight"":23}","false","ArrowDown,ArrowRight","false","","","","","","","",""
"html-keyboard-response","72","451666","0.0-3.0-13.0-2.0-1.4","spark_pilot_2","8155","7","9","Female","","","","","","","null","<div style=""font-size:60px;"">+</div>","null","fixation","","","","","","","","","","","","","",""
"revaluation","73","457670","0.0-3.0-13.0-2.0-0.5","spark_pilot_2","8155","7","9","Female","","false","","","","","[716.6999999880791,411]","./assets/img/space/12.jpg","[""ArrowUp"",""ArrowRight""]","practice block","space","36","{""ArrowUp,ArrowLeft"":3,""ArrowUp,ArrowRight"":36,""ArrowDown,ArrowLeft"":15,""ArrowDown,ArrowRight"":23}","true","ArrowUp,ArrowRight","false","","","","","","","",""
"html-keyboard-response","74","458170","0.0-3.0-13.0-2.0-1.5","spark_pilot_2","8155","7","9","Female","","","","","","","null","<div style=""font-size:60px;"">+</div>","null","fixation","","","","","","","","","","","","","",""
"revaluation","75","464174","0.0-3.0-13.0-2.0-0.6","spark_pilot_2","8155","7","9","Female","","false","","","","","[588.7000000029802,722.6999999880791]","./assets/img/space/13.jpg","[""ArrowUp"",""ArrowRight""]","practice block","space","36","{""ArrowUp,ArrowLeft"":3,""ArrowUp,ArrowRight"":36,""ArrowDown,ArrowLeft"":15,""ArrowDown,ArrowRight"":23}","true","ArrowUp,ArrowRight","false","","","","","","","",""
"html-keyboard-response","76","464675","0.0-3.0-13.0-2.0-1.6","spark_pilot_2","8155","7","9","Female","","","","","","","null","<div style=""font-size:60px;"">+</div>","null","fixation","","","","","","","","","","","","","",""
"revaluation","77","470679","0.0-3.0-13.0-2.0-0.7","spark_pilot_2","8155","7","9","Female","","false","","","","","[570.9000000059605,986]","./assets/img/space/14.jpg","[""ArrowUp"",""ArrowRight""]","practice block","space","36","{""ArrowUp,ArrowLeft"":3,""ArrowUp,ArrowRight"":36,""ArrowDown,ArrowLeft"":15,""ArrowDown,ArrowRight"":23}","true","ArrowUp,ArrowRight","false","","","","","","","",""
"html-keyboard-response","78","471181","0.0-3.0-13.0-2.0-1.7","spark_pilot_2","8155","7","9","Female","","","","","","","null","<div style=""font-size:60px;"">+</div>","null","fixation","","","","","","","","","","","","","",""
"revaluation","79","475185","0.0-3.0-13.0-2.0-0.8","spark_pilot_2","8155","7","9","Female","","false","","","","","[672.0999999940395]","./assets/img/space/catch/3.jpg","[""spaceBar""]","practice block","space","0","{""ArrowUp,ArrowLeft"":3,""ArrowUp,ArrowRight"":36,""ArrowDown,ArrowLeft"":15,""ArrowDown,ArrowRight"":23}","true","spaceBar","true","","","","","","","",""
"html-keyboard-response","80","475687","0.0-3.0-13.0-2.0-1.8","spark_pilot_2","8155","7","9","Female","","","","","","","null","<div style=""font-size:60px;"">+</div>","null","fixation","","","","","","","","","","","","","",""
"learning-instructions","81","494343","0.0-3.0-13.0-3.0-0.0","spark_pilot_2","8155","7","9","Female","","","","","","","5474.5","<p> Now, you will travel with a friend who will choose whether you go up or down first. </p>
            <p> On these turns, you will just see the animal that they found. You will still get to choose which chest to search for treasure.</p>","","instructions","","","","","","","","","","","","","",""
"revaluation","82","498362","0.0-3.0-13.0-4.0-0.0","spark_pilot_2","8155","7","9","Female","","false","","","","","[1214.7000000029802]","./assets/img/space/animals/cat.jpg","[""ArrowRight""]","practice block","space","36","{""ArrowUp,ArrowLeft"":3,""ArrowUp,ArrowRight"":36,""ArrowDown,ArrowLeft"":15,""ArrowDown,ArrowRight"":23}","true","ArrowUp,ArrowRight","","","","","","","","",""
"html-keyboard-response","83","498871","0.0-3.0-13.0-4.0-1.0","spark_pilot_2","8155","7","9","Female","","","","","","","null","<div style=""font-size:60px;"">+</div>","null","fixation","","","","","","","","","","","","","",""
"revaluation","84","502887","0.0-3.0-13.0-4.0-0.1","spark_pilot_2","8155","7","9","Female","","false","","","","","[431.29999999701977]","./assets/img/space/animals/cat.jpg","[""ArrowRight""]","practice block","space","36","{""ArrowUp,ArrowLeft"":3,""ArrowUp,ArrowRight"":36,""ArrowDown,ArrowLeft"":15,""ArrowDown,ArrowRight"":23}","true","ArrowUp,ArrowRight","","","","","","","","",""
"html-keyboard-response","85","503402","0.0-3.0-13.0-4.0-1.1","spark_pilot_2","8155","7","9","Female","","","","","","","null","<div style=""font-size:60px;"">+</div>","null","fixation","","","","","","","","","","","","","",""
"revaluation","86","507425","0.0-3.0-13.0-4.0-0.2","spark_pilot_2","8155","7","9","Female","","false","","","","","[427.79999999701977]","./assets/img/space/animals/rabbit.jpg","[""ArrowLeft""]","practice block","space","15","{""ArrowUp,ArrowLeft"":3,""ArrowUp,ArrowRight"":36,""ArrowDown,ArrowLeft"":15,""ArrowDown,ArrowRight"":23}","false","ArrowDown,ArrowLeft","","","","","","","","",""
"html-keyboard-response","87","507936","0.0-3.0-13.0-4.0-1.2","spark_pilot_2","8155","7","9","Female","","","","","","","null","<div style=""font-size:60px;"">+</div>","null","fixation","","","","","","","","","","","","","",""
"revaluation","88","511956","0.0-3.0-13.0-4.0-0.3","spark_pilot_2","8155","7","9","Female","","false","","","","","[468.29999999701977]","./assets/img/space/animals/rabbit.jpg","[""ArrowRight""]","practice block","space","23","{""ArrowUp,ArrowLeft"":3,""ArrowUp,ArrowRight"":36,""ArrowDown,ArrowLeft"":15,""ArrowDown,ArrowRight"":23}","true","ArrowDown,ArrowRight","","","","","","","","",""
"html-keyboard-response","89","512471","0.0-3.0-13.0-4.0-1.3","spark_pilot_2","8155","7","9","Female","","","","","","","null","<div style=""font-size:60px;"">+</div>","null","fixation","","","","","","","","","","","","","",""
"learning-instructions","90","521231","0.0-3.0-13.0-5.0-0.0","spark_pilot_2","8155","7","9","Female","","","","","","","1391.7000000029802","<p> Time to play the dot game! </p>
            <p> For 15 seconds, click the red dots on the following screen as they appear. </p>","","instructions","","","","","","","","","","","","","",""
"revaluation","91","536232","0.0-3.0-13.0-6.0-0.0","spark_pilot_2","8155","7","9","Female","","","","","","","[92]","","","rest practice","","10","","","","","0","15000","","","","","",""
"learning-instructions","92","544719","0.0-3.0-13.0-7.0-0.0","spark_pilot_2","8155","7","9","Female","","","","","","","2380.199999988079","<p> You have almost finished this part of the game! </p>
            <p> We are going to ask you to make a few more choices. </p>","","instructions","","","","","","","","","","","","","",""
"learning-instructions","93","560751","0.0-3.0-13.0-7.0-0.1","spark_pilot_2","8155","7","9","Female","","","","","","","2032.9000000059605","<p> First, you need to decide whether to go up or down. When you see each picture, use the arrow keys to make your choice. </p>
            <p><b>You will not see which animal you found, but try to get to the one that will give you the most treasure.</b></p>","","instructions","","","","","","","","","","","","","",""
"revaluation","94","561894","0.0-3.0-13.0-8.0","spark_pilot_2","8155","7","9","Female","","false","","","","","[1141.3999999910593]","./assets/img/space/15.jpg","[""ArrowDown""]","practice block","space","0","{""ArrowUp,ArrowLeft"":3,""ArrowUp,ArrowRight"":36,""ArrowDown,ArrowLeft"":15,""ArrowDown,ArrowRight"":23}","false","ArrowDown","false","","","","","","","",""
"html-keyboard-response","95","562403","0.0-3.0-13.0-9.0","spark_pilot_2","8155","7","9","Female","","","","","","","null","<div style=""font-size:60px;"">+</div>","null","fixation","","","","","","","","","","","","","",""
"learning-instructions","96","594302","0.0-3.0-13.0-10.0-0.0","spark_pilot_2","8155","7","9","Female","","","","","","","20534","<p> Now you will see the animals again and can search their chests for treasure. </p>
            <p> This time, you will not see how much treasure you earned, but you will earn more bonus money for making better choices. </p>","","instructions","","","","","","","","","","","","","",""
"revaluation","97","595312","0.0-3.0-13.0-11.0-0.0","spark_pilot_2","8155","7","9","Female","","false","","","","","[1009]","./assets/img/space/animals/cat.jpg","[""ArrowRight""]","practice block","space","0","{""ArrowUp,ArrowLeft"":3,""ArrowUp,ArrowRight"":36,""ArrowDown,ArrowLeft"":15,""ArrowDown,ArrowRight"":23}","true","ArrowUp,ArrowRight","","","","","","","","",""
"html-keyboard-response","98","595821","0.0-3.0-13.0-11.0-1.0","spark_pilot_2","8155","7","9","Female","","","","","","","null","<div style=""font-size:60px;"">+</div>","null","fixation","","","","","","","","","","","","","",""
"revaluation","99","596359","0.0-3.0-13.0-11.0-0.1","spark_pilot_2","8155","7","9","Female","","false","","","","","[536.5]","./assets/img/space/animals/rabbit.jpg","[""ArrowRight""]","practice block","space","0","{""ArrowUp,ArrowLeft"":3,""ArrowUp,ArrowRight"":36,""ArrowDown,ArrowLeft"":15,""ArrowDown,ArrowRight"":23}","true","ArrowDown,ArrowRight","","","","","","","","",""
"html-keyboard-response","100","596861","0.0-3.0-13.0-11.0-1.1","spark_pilot_2","8155","7","9","Female","","","","","","","null","<div style=""font-size:60px;"">+</div>","null","fixation","","","","","","","","","","","","","",""
"learning-instructions","101","606335","0.0-3.0-14.0-0.0","spark_pilot_2","8155","7","9","Female","","","","","","","4907.100000008941","<p> Before you start, we're going to ask you a few questions about how the game works. </p>","","instructions","","","","","","","","","","","","","",""
"comp-q","102","614592","0.0-3.0-15.0-0.0-0.0","spark_pilot_2","8155","7","9","Female","","","","","","","2672","<p> <b> True or False? </b> </p>
            <p> There can be 50 pieces of treasure in a given animal's chest. </p>","1","comp_question","","","","true","","","","","","","","","",""
"comp-q","103","623798","0.0-3.0-15.0-0.0-1.0","spark_pilot_2","8155","7","9","Female","","","","","","","2460.5","<p> <b> That's right! </b> The amount of treasure in each chest can range from 0 to 40 pieces. </p>","0","comp_answer","","","","","","","","","","","","","",""
"comp-q","104","632535","0.0-3.0-15.0-0.1-0.1","spark_pilot_2","8155","7","9","Female","","","","","","","1636.7999999970198","<p> <b> True or False? </b> </p><p> In this game, all animals have the same amount of treasure in their left and right chests. </p>","1","comp_question","","","","true","","","","","","","","","",""
"comp-q","105","639559","0.0-3.0-15.0-0.1-1.1","spark_pilot_2","8155","7","9","Female","","","","","","","1800.0999999940395","<p> <b> That's right! </b> Animals have different amounts of treasure in their treasure chests. </p>","0","comp_answer","","","","","","","","","","","","","",""
"comp-q","106","646471","0.0-3.0-15.0-0.2-0.2","spark_pilot_2","8155","7","9","Female","","","","","","","1072.2000000029802","<p> <b> True or False? </b> </p><p> The same animal will always be there if you go up in the same place. </p>","0","comp_question","","","","true","","","","","","","","","",""
"comp-q","107","655711","0.0-3.0-15.0-0.2-1.2","spark_pilot_2","8155","7","9","Female","","","","","","","2812.2999999970198","<p> <b> That's right! </b> One animal lives in the upper part and one lives in the lower part of every place. </p>","0","comp_answer","","","","","","","","","","","","","",""
"comp-q","108","664135","0.0-3.0-15.0-0.3-0.3","spark_pilot_2","8155","7","9","Female","","","","","","","2916.1000000089407","<p> <b> True or False? </b> </p><p> If you see a different picture, it means you are in a new place. </p>","0","comp_question","","","","false","","","","","","","","","",""
"comp-q","109","678176","0.0-3.0-15.0-0.3-1.3","spark_pilot_2","8155","7","9","Female","","","","","","","2965.5","<p> <b>Incorrect.</b> Lots of different images may show the same place. For example,  you may see three different images that all remind you that you are in outer space. </p>","0","comp_answer","","","","","","","","","","","","","",""
"comp-q","110","685511","0.0-3.0-15.0-0.4-0.4","spark_pilot_2","8155","7","9","Female","","","","","","","1832.2000000029802","<p> <b> True or False? </b> </p><p> If you see a different picture, it means you are in a new place. </p>","1","comp_question","","","","true","","","","","","","","","",""
"comp-q","111","698744","0.0-3.0-15.0-0.4-1.4","spark_pilot_2","8155","7","9","Female","","","","","","","2015.1000000089407","<p> <b> That's right! </b> Lots of different images may show the same place. For example,  you may see three different images that all remind you that you are in outer space. </p>","0","comp_answer","","","","","","","","","","","","","",""
"learning-instructions","112","711920","0.0-3.0-16.0-0.0","spark_pilot_2","8155","7","9","Female","","","","","","","3340.4000000059605","<p> Good job. Remember to do your best because the amount of treasure you earn will be converted into bonus money. </p>
            <p> It’s time to start the real game! </p>","","instructions","","","","","","","","","","","","","",""
"learning-instructions","113","716975","0.0-4.0-0.0-0.0","spark_pilot_2","8155","7","9","Female","","","","","","","2286","<p> This time you are searching for treasure in the <b>canyon</b>.</p>","","instructions","","","","","","","","","","","","","",""
"learning-instructions","114","736224","0.0-4.0-0.0-0.1","spark_pilot_2","8155","7","9","Female","","","","","","","1964.4000000059605","<p><b>New</b> animals with <b>new</b> treasure chests live here. You need to explore to discover where the animal with the best treasure chest is.</p>
                    <p> Like before, once you figure out which animal has the chest with the most treasure, you should try to get to that animal and select that chest! </p>","","instructions","","","","","","","","","","","","","",""
"learning-instructions","115","757080","0.0-4.0-1.0-0.0","spark_pilot_2","8155","7","9","Female","","","","","","","6120.4000000059605","<p> Remember, when you see a picture of the place, use the up and down keys to <b>find an animal</b>.</p>
            <p> When you encounter an animal, you should use the left and right keys to <b>select a treasure chest</b>.</p>
            <p> Don't forget to look out for the robber! </p>","","instructions","","","","","","","","","","","","","",""
"revaluation","116","763100","0.0-4.0-2.0-0.0","spark_pilot_2","8155","7","9","Female","","false","","","","","[1646.699999988079,923.2999999970198]","./assets/img/canyon/memory/21.jpg","[""ArrowDown"",""ArrowLeft""]","value training","canyon","8","{""ArrowUp,ArrowLeft"":23,""ArrowUp,ArrowRight"":10,""ArrowDown,ArrowLeft"":8,""ArrowDown,ArrowRight"":30}","false","ArrowDown,ArrowLeft","false","","","original","1","0","","",""
"html-keyboard-response","117","763612","0.0-4.0-2.0-1.0","spark_pilot_2","8155","7","9","Female","","","","","","","null","<div style=""font-size:60px;"">+</div>","null","fixation","","","","","","","","","","","1","","",""
"revaluation","118","769629","0.0-4.0-2.0-0.1","spark_pilot_2","8155","7","9","Female","","false","","","","","[457,359.3999999910593]","./assets/img/canyon/memory/28.jpg","[""ArrowDown"",""ArrowRight""]","value training","canyon","30","{""ArrowUp,ArrowLeft"":23,""ArrowUp,ArrowRight"":10,""ArrowDown,ArrowLeft"":8,""ArrowDown,ArrowRight"":30}","true","ArrowDown,ArrowRight","false","","","original","1","2","","",""
"html-keyboard-response","119","770133","0.0-4.0-2.0-1.1","spark_pilot_2","8155","7","9","Female","","","","","","","null","<div style=""font-size:60px;"">+</div>","null","fixation","","","","","","","","","","","3","","",""
"revaluation","120","774161","0.0-4.0-2.0-0.2","spark_pilot_2","8155","7","9","Female","","false","","","","","[449]","./assets/img/canyon/catch/7.jpg","[""ArrowUp""]","value training","canyon","-10","{""ArrowUp,ArrowLeft"":23,""ArrowUp,ArrowRight"":10,""ArrowDown,ArrowLeft"":8,""ArrowDown,ArrowRight"":30}","false","ArrowUp","true","","","original","1","4","","",""
"html-keyboard-response","121","774674","0.0-4.0-2.0-1.2","spark_pilot_2","8155","7","9","Female","","","","","","","null","<div style=""font-size:60px;"">+</div>","null","fixation","","","","","","","","","","","5","","",""
"revaluation","122","780686","0.0-4.0-2.0-0.3","spark_pilot_2","8155","7","9","Female","","false","","","","","[620.5,517]","./assets/img/canyon/memory/34.jpg","[""ArrowDown"",""ArrowRight""]","value training","canyon","30","{""ArrowUp,ArrowLeft"":23,""ArrowUp,ArrowRight"":10,""ArrowDown,ArrowLeft"":8,""ArrowDown,ArrowRight"":30}","true","ArrowDown,ArrowRight","false","","","original","1","6","","",""
"html-keyboard-response","123","781188","0.0-4.0-2.0-1.3","spark_pilot_2","8155","7","9","Female","","","","","","","null","<div style=""font-size:60px;"">+</div>","null","fixation","","","","","","","","","","","7","","",""
"revaluation","124","785192","0.0-4.0-2.0-0.4","spark_pilot_2","8155","7","9","Female","","false","","","","","[818.0999999940395]","./assets/img/canyon/catch/1.jpg","[""spaceBar""]","value training","canyon","0","{""ArrowUp,ArrowLeft"":23,""ArrowUp,ArrowRight"":10,""ArrowDown,ArrowLeft"":8,""ArrowDown,ArrowRight"":30}","true","spaceBar","true","","","original","1","8","","",""
"html-keyboard-response","125","785693","0.0-4.0-2.0-1.4","spark_pilot_2","8155","7","9","Female","","","","","","","null","<div style=""font-size:60px;"">+</div>","null","fixation","","","","","","","","","","","9","","",""
"revaluation","126","791704","0.0-4.0-2.0-0.5","spark_pilot_2","8155","7","9","Female","","false","","","","","[418.29999999701977,417.5]","./assets/img/canyon/memory/10.jpg","[""ArrowUp"",""ArrowRight""]","value training","canyon","10","{""ArrowUp,ArrowLeft"":23,""ArrowUp,ArrowRight"":10,""ArrowDown,ArrowLeft"":8,""ArrowDown,ArrowRight"":30}","false","ArrowUp,ArrowRight","false","","","original","1","10","","",""
"html-keyboard-response","127","792211","0.0-4.0-2.0-1.5","spark_pilot_2","8155","7","9","Female","","","","","","","null","<div style=""font-size:60px;"">+</div>","null","fixation","","","","","","","","","","","11","","",""
"revaluation","128","798217","0.0-4.0-2.0-0.6","spark_pilot_2","8155","7","9","Female","","false","","","","","[553.5,457.5]","./assets/img/canyon/memory/35.jpg","[""ArrowUp"",""ArrowLeft""]","value training","canyon","23","{""ArrowUp,ArrowLeft"":23,""ArrowUp,ArrowRight"":10,""ArrowDown,ArrowLeft"":8,""ArrowDown,ArrowRight"":30}","false","ArrowUp,ArrowLeft","false","","","original","1","12","","",""
"html-keyboard-response","129","798718","0.0-4.0-2.0-1.6","spark_pilot_2","8155","7","9","Female","","","","","","","null","<div style=""font-size:60px;"">+</div>","null","fixation","","","","","","","","","","","13","","",""
"revaluation","130","804726","0.0-4.0-2.0-0.7","spark_pilot_2","8155","7","9","Female","","false","","","","","[757.9000000059605,452.69999998807907]","./assets/img/canyon/memory/38.jpg","[""ArrowDown"",""ArrowRight""]","value training","canyon","30","{""ArrowUp,ArrowLeft"":23,""ArrowUp,ArrowRight"":10,""ArrowDown,ArrowLeft"":8,""ArrowDown,ArrowRight"":30}","true","ArrowDown,ArrowRight","false","","","original","1","14","","",""
"html-keyboard-response","131","805228","0.0-4.0-2.0-1.7","spark_pilot_2","8155","7","9","Female","","","","","","","null","<div style=""font-size:60px;"">+</div>","null","fixation","","","","","","","","","","","15","","",""
"revaluation","132","811232","0.0-4.0-2.0-0.8","spark_pilot_2","8155","7","9","Female","","false","","","","","[370.70000000298023,337.19999998807907]","./assets/img/canyon/memory/0.jpg","[""ArrowDown"",""ArrowRight""]","value training","canyon","30","{""ArrowUp,ArrowLeft"":23,""ArrowUp,ArrowRight"":10,""ArrowDown,ArrowLeft"":8,""ArrowDown,ArrowRight"":30}","true","ArrowDown,ArrowRight","false","","","original","1","16","","",""
"html-keyboard-response","133","811734","0.0-4.0-2.0-1.8","spark_pilot_2","8155","7","9","Female","","","","","","","null","<div style=""font-size:60px;"">+</div>","null","fixation","","","","","","","","","","","17","","",""
"revaluation","134","817737","0.0-4.0-2.0-0.9","spark_pilot_2","8155","7","9","Female","","false","","","","","[1441.5,464.40000000596046]","./assets/img/canyon/memory/32.jpg","[""ArrowDown"",""ArrowRight""]","value training","canyon","30","{""ArrowUp,ArrowLeft"":23,""ArrowUp,ArrowRight"":10,""ArrowDown,ArrowLeft"":8,""ArrowDown,ArrowRight"":30}","true","ArrowDown,ArrowRight","false","","","original","1","18","","",""
"html-keyboard-response","135","818238","0.0-4.0-2.0-1.9","spark_pilot_2","8155","7","9","Female","","","","","","","null","<div style=""font-size:60px;"">+</div>","null","fixation","","","","","","","","","","","19","","",""
"revaluation","136","824242","0.0-4.0-2.0-0.10","spark_pilot_2","8155","7","9","Female","","false","","","","","[448.8999999910593,383.5]","./assets/img/canyon/memory/33.jpg","[""ArrowDown"",""ArrowRight""]","value training","canyon","30","{""ArrowUp,ArrowLeft"":23,""ArrowUp,ArrowRight"":10,""ArrowDown,ArrowLeft"":8,""ArrowDown,ArrowRight"":30}","true","ArrowDown,ArrowRight","false","","","original","1","20","","",""
"html-keyboard-response","137","824743","0.0-4.0-2.0-1.10","spark_pilot_2","8155","7","9","Female","","","","","","","null","<div style=""font-size:60px;"">+</div>","null","fixation","","","","","","","","","","","21","","",""
"revaluation","138","830754","0.0-4.0-2.0-0.11","spark_pilot_2","8155","7","9","Female","","false","","","","","[1569,543.4000000059605]","./assets/img/canyon/memory/23.jpg","[""ArrowDown"",""ArrowRight""]","value training","canyon","30","{""ArrowUp,ArrowLeft"":23,""ArrowUp,ArrowRight"":10,""ArrowDown,ArrowLeft"":8,""ArrowDown,ArrowRight"":30}","true","ArrowDown,ArrowRight","false","","","original","1","22","","",""
"html-keyboard-response","139","831256","0.0-4.0-2.0-1.11","spark_pilot_2","8155","7","9","Female","","","","","","","null","<div style=""font-size:60px;"">+</div>","null","fixation","","","","","","","","","","","23","","",""
"revaluation","140","837274","0.0-4.0-2.0-0.12","spark_pilot_2","8155","7","9","Female","","false","","","","","[518,601]","./assets/img/canyon/memory/35.jpg","[""ArrowDown"",""ArrowRight""]","value training","canyon","30","{""ArrowUp,ArrowLeft"":23,""ArrowUp,ArrowRight"":10,""ArrowDown,ArrowLeft"":8,""ArrowDown,ArrowRight"":30}","true","ArrowDown,ArrowRight","false","","","original","1","24","","",""
"html-keyboard-response","141","837775","0.0-4.0-2.0-1.12","spark_pilot_2","8155","7","9","Female","","","","","","","null","<div style=""font-size:60px;"">+</div>","null","fixation","","","","","","","","","","","25","","",""
"revaluation","142","843781","0.0-4.0-2.0-0.13","spark_pilot_2","8155","7","9","Female","","false","","","","","[478.29999999701977,589.3000000119209]","./assets/img/canyon/memory/6.jpg","[""ArrowDown"",""ArrowRight""]","value training","canyon","30","{""ArrowUp,ArrowLeft"":23,""ArrowUp,ArrowRight"":10,""ArrowDown,ArrowLeft"":8,""ArrowDown,ArrowRight"":30}","true","ArrowDown,ArrowRight","false","","","original","1","26","","",""
"html-keyboard-response","143","844283","0.0-4.0-2.0-1.13","spark_pilot_2","8155","7","9","Female","","","","","","","null","<div style=""font-size:60px;"">+</div>","null","fixation","","","","","","","","","","","27","","",""
"revaluation","144","850301","0.0-4.0-2.0-0.14","spark_pilot_2","8155","7","9","Female","","false","","","","","[419.59999999403954,423.5]","./assets/img/canyon/memory/9.jpg","[""ArrowDown"",""ArrowRight""]","value training","canyon","30","{""ArrowUp,ArrowLeft"":23,""ArrowUp,ArrowRight"":10,""ArrowDown,ArrowLeft"":8,""ArrowDown,ArrowRight"":30}","true","ArrowDown,ArrowRight","false","","","original","1","28","","",""
"html-keyboard-response","145","850803","0.0-4.0-2.0-1.14","spark_pilot_2","8155","7","9","Female","","","","","","","null","<div style=""font-size:60px;"">+</div>","null","fixation","","","","","","","","","","","29","","",""
"revaluation","146","856810","0.0-4.0-2.0-0.15","spark_pilot_2","8155","7","9","Female","","false","","","","","[484.90000000596046,603.4000000059605]","./assets/img/canyon/memory/16.jpg","[""ArrowDown"",""ArrowRight""]","value training","canyon","30","{""ArrowUp,ArrowLeft"":23,""ArrowUp,ArrowRight"":10,""ArrowDown,ArrowLeft"":8,""ArrowDown,ArrowRight"":30}","true","ArrowDown,ArrowRight","false","","","original","1","30","","",""
"html-keyboard-response","147","857311","0.0-4.0-2.0-1.15","spark_pilot_2","8155","7","9","Female","","","","","","","null","<div style=""font-size:60px;"">+</div>","null","fixation","","","","","","","","","","","31","","",""
"revaluation","148","863328","0.0-4.0-2.0-0.16","spark_pilot_2","8155","7","9","Female","","false","","","","","[407.5,558.9000000059605]","./assets/img/canyon/memory/21.jpg","[""ArrowDown"",""ArrowRight""]","value training","canyon","30","{""ArrowUp,ArrowLeft"":23,""ArrowUp,ArrowRight"":10,""ArrowDown,ArrowLeft"":8,""ArrowDown,ArrowRight"":30}","true","ArrowDown,ArrowRight","false","","","original","1","32","","",""
"html-keyboard-response","149","863829","0.0-4.0-2.0-1.16","spark_pilot_2","8155","7","9","Female","","","","","","","null","<div style=""font-size:60px;"">+</div>","null","fixation","","","","","","","","","","","33","","",""
"revaluation","150","869841","0.0-4.0-2.0-0.17","spark_pilot_2","8155","7","9","Female","","false","","","","","[521,545.4000000059605]","./assets/img/canyon/memory/25.jpg","[""ArrowDown"",""ArrowRight""]","value training","canyon","30","{""ArrowUp,ArrowLeft"":23,""ArrowUp,ArrowRight"":10,""ArrowDown,ArrowLeft"":8,""ArrowDown,ArrowRight"":30}","true","ArrowDown,ArrowRight","false","","","original","1","34","","",""
"html-keyboard-response","151","870342","0.0-4.0-2.0-1.17","spark_pilot_2","8155","7","9","Female","","","","","","","null","<div style=""font-size:60px;"">+</div>","null","fixation","","","","","","","","","","","35","","",""
"revaluation","152","876347","0.0-4.0-2.0-0.18","spark_pilot_2","8155","7","9","Female","","false","","","","","[608.2999999970198,694.6000000089407]","./assets/img/canyon/memory/38.jpg","[""ArrowDown"",""ArrowRight""]","value training","canyon","30","{""ArrowUp,ArrowLeft"":23,""ArrowUp,ArrowRight"":10,""ArrowDown,ArrowLeft"":8,""ArrowDown,ArrowRight"":30}","true","ArrowDown,ArrowRight","false","","","original","1","36","","",""
"html-keyboard-response","153","876849","0.0-4.0-2.0-1.18","spark_pilot_2","8155","7","9","Female","","","","","","","null","<div style=""font-size:60px;"">+</div>","null","fixation","","","","","","","","","","","37","","",""
"revaluation","154","882855","0.0-4.0-2.0-0.19","spark_pilot_2","8155","7","9","Female","","false","","","","","[787.0999999940395,746.2999999970198]","./assets/img/canyon/memory/33.jpg","[""ArrowDown"",""ArrowRight""]","value training","canyon","30","{""ArrowUp,ArrowLeft"":23,""ArrowUp,ArrowRight"":10,""ArrowDown,ArrowLeft"":8,""ArrowDown,ArrowRight"":30}","true","ArrowDown,ArrowRight","false","","","original","1","38","","",""
"html-keyboard-response","155","883357","0.0-4.0-2.0-1.19","spark_pilot_2","8155","7","9","Female","","","","","","","null","<div style=""font-size:60px;"">+</div>","null","fixation","","","","","","","","","","","39","","",""
"revaluation","156","889361","0.0-4.0-2.0-0.20","spark_pilot_2","8155","7","9","Female","","false","","","","","[593.1000000089407,560.8999999910593]","./assets/img/canyon/memory/10.jpg","[""ArrowDown"",""ArrowRight""]","value training","canyon","30","{""ArrowUp,ArrowLeft"":23,""ArrowUp,ArrowRight"":10,""ArrowDown,ArrowLeft"":8,""ArrowDown,ArrowRight"":30}","true","ArrowDown,ArrowRight","false","","","original","1","40","","",""
"html-keyboard-response","157","889862","0.0-4.0-2.0-1.20","spark_pilot_2","8155","7","9","Female","","","","","","","null","<div style=""font-size:60px;"">+</div>","null","fixation","","","","","","","","","","","41","","",""
"revaluation","158","895873","0.0-4.0-2.0-0.21","spark_pilot_2","8155","7","9","Female","","false","","","","","[808.9000000059605,407.90000000596046]","./assets/img/canyon/memory/1.jpg","[""ArrowDown"",""ArrowRight""]","value training","canyon","30","{""ArrowUp,ArrowLeft"":23,""ArrowUp,ArrowRight"":10,""ArrowDown,ArrowLeft"":8,""ArrowDown,ArrowRight"":30}","true","ArrowDown,ArrowRight","false","","","original","1","42","","",""
"html-keyboard-response","159","896374","0.0-4.0-2.0-1.21","spark_pilot_2","8155","7","9","Female","","","","","","","null","<div style=""font-size:60px;"">+</div>","null","fixation","","","","","","","","","","","43","","",""
"revaluation","160","902393","0.0-4.0-2.0-0.22","spark_pilot_2","8155","7","9","Female","","false","","","","","[544.0999999940395,518.4000000059605]","./assets/img/canyon/memory/3.jpg","[""ArrowDown"",""ArrowRight""]","value training","canyon","30","{""ArrowUp,ArrowLeft"":23,""ArrowUp,ArrowRight"":10,""ArrowDown,ArrowLeft"":8,""ArrowDown,ArrowRight"":30}","true","ArrowDown,ArrowRight","false","","","original","1","44","","",""
"html-keyboard-response","161","902894","0.0-4.0-2.0-1.22","spark_pilot_2","8155","7","9","Female","","","","","","","null","<div style=""font-size:60px;"">+</div>","null","fixation","","","","","","","","","","","45","","",""
"revaluation","162","906897","0.0-4.0-2.0-0.23","spark_pilot_2","8155","7","9","Female","","false","","","","","[1112.699999988079]","./assets/img/canyon/catch/0.jpg","[""spaceBar""]","value training","canyon","0","{""ArrowUp,ArrowLeft"":23,""ArrowUp,ArrowRight"":10,""ArrowDown,ArrowLeft"":8,""ArrowDown,ArrowRight"":30}","true","spaceBar","true","","","original","1","46","","",""
"html-keyboard-response","163","907398","0.0-4.0-2.0-1.23","spark_pilot_2","8155","7","9","Female","","","","","","","null","<div style=""font-size:60px;"">+</div>","null","fixation","","","","","","","","","","","47","","",""
"revaluation","164","913404","0.0-4.0-2.0-0.24","spark_pilot_2","8155","7","9","Female","","false","","","","","[512.5999999940395,535.5]","./assets/img/canyon/memory/25.jpg","[""ArrowDown"",""ArrowRight""]","value training","canyon","30","{""ArrowUp,ArrowLeft"":23,""ArrowUp,ArrowRight"":10,""ArrowDown,ArrowLeft"":8,""ArrowDown,ArrowRight"":30}","true","ArrowDown,ArrowRight","false","","","original","1","48","","",""
"html-keyboard-response","165","913905","0.0-4.0-2.0-1.24","spark_pilot_2","8155","7","9","Female","","","","","","","null","<div style=""font-size:60px;"">+</div>","null","fixation","","","","","","","","","","","49","","",""
"revaluation","166","917908","0.0-4.0-2.0-0.25","spark_pilot_2","8155","7","9","Female","","false","","","","","[829.8000000119209]","./assets/img/canyon/catch/5.jpg","[""spaceBar""]","value training","canyon","0","{""ArrowUp,ArrowLeft"":23,""ArrowUp,ArrowRight"":10,""ArrowDown,ArrowLeft"":8,""ArrowDown,ArrowRight"":30}","true","spaceBar","true","","","original","1","50","","",""
"html-keyboard-response","167","918409","0.0-4.0-2.0-1.25","spark_pilot_2","8155","7","9","Female","","","","","","","null","<div style=""font-size:60px;"">+</div>","null","fixation","","","","","","","","","","","51","","",""
"revaluation","168","924415","0.0-4.0-2.0-0.26","spark_pilot_2","8155","7","9","Female","","false","","","","","[587.9000000059605,594.5999999940395]","./assets/img/canyon/memory/28.jpg","[""ArrowDown"",""ArrowRight""]","value training","canyon","30","{""ArrowUp,ArrowLeft"":23,""ArrowUp,ArrowRight"":10,""ArrowDown,ArrowLeft"":8,""ArrowDown,ArrowRight"":30}","true","ArrowDown,ArrowRight","false","","","original","1","52","","",""
"html-keyboard-response","169","924917","0.0-4.0-2.0-1.26","spark_pilot_2","8155","7","9","Female","","","","","","","null","<div style=""font-size:60px;"">+</div>","null","fixation","","","","","","","","","","","53","","",""
"revaluation","170","930933","0.0-4.0-2.0-0.27","spark_pilot_2","8155","7","9","Female","","false","","","","","[735.7000000029802,597.2000000029802]","./assets/img/canyon/memory/2.jpg","[""ArrowDown"",""ArrowRight""]","value training","canyon","30","{""ArrowUp,ArrowLeft"":23,""ArrowUp,ArrowRight"":10,""ArrowDown,ArrowLeft"":8,""ArrowDown,ArrowRight"":30}","true","ArrowDown,ArrowRight","false","","","original","1","54","","",""
"html-keyboard-response","171","931434","0.0-4.0-2.0-1.27","spark_pilot_2","8155","7","9","Female","","","","","","","null","<div style=""font-size:60px;"">+</div>","null","fixation","","","","","","","","","","","55","","",""
"revaluation","172","937437","0.0-4.0-2.0-0.28","spark_pilot_2","8155","7","9","Female","","false","","","","","[405.29999999701977,523.5]","./assets/img/canyon/memory/16.jpg","[""ArrowDown"",""ArrowRight""]","value training","canyon","30","{""ArrowUp,ArrowLeft"":23,""ArrowUp,ArrowRight"":10,""ArrowDown,ArrowLeft"":8,""ArrowDown,ArrowRight"":30}","true","ArrowDown,ArrowRight","false","","","original","1","56","","",""
"html-keyboard-response","173","937939","0.0-4.0-2.0-1.28","spark_pilot_2","8155","7","9","Female","","","","","","","null","<div style=""font-size:60px;"">+</div>","null","fixation","","","","","","","","","","","57","","",""
"revaluation","174","943943","0.0-4.0-2.0-0.29","spark_pilot_2","8155","7","9","Female","","false","","","","","[724,626.6000000089407]","./assets/img/canyon/memory/32.jpg","[""ArrowDown"",""ArrowRight""]","value training","canyon","30","{""ArrowUp,ArrowLeft"":23,""ArrowUp,ArrowRight"":10,""ArrowDown,ArrowLeft"":8,""ArrowDown,ArrowRight"":30}","true","ArrowDown,ArrowRight","false","","","original","1","58","","",""
"html-keyboard-response","175","944444","0.0-4.0-2.0-1.29","spark_pilot_2","8155","7","9","Female","","","","","","","null","<div style=""font-size:60px;"">+</div>","null","fixation","","","","","","","","","","","59","","",""
"revaluation","176","948448","0.0-4.0-2.0-0.30","spark_pilot_2","8155","7","9","Female","","false","","","","","[843.6000000089407]","./assets/img/canyon/catch/2.jpg","[""spaceBar""]","value training","canyon","0","{""ArrowUp,ArrowLeft"":23,""ArrowUp,ArrowRight"":10,""ArrowDown,ArrowLeft"":8,""ArrowDown,ArrowRight"":30}","true","spaceBar","true","","","original","1","60","","",""
"html-keyboard-response","177","948950","0.0-4.0-2.0-1.30","spark_pilot_2","8155","7","9","Female","","","","","","","null","<div style=""font-size:60px;"">+</div>","null","fixation","","","","","","","","","","","61","","",""
"revaluation","178","954957","0.0-4.0-2.0-0.31","spark_pilot_2","8155","7","9","Female","","false","","","","","[836.7999999970198,667.5]","./assets/img/canyon/memory/12.jpg","[""ArrowDown"",""ArrowRight""]","value training","canyon","30","{""ArrowUp,ArrowLeft"":23,""ArrowUp,ArrowRight"":10,""ArrowDown,ArrowLeft"":8,""ArrowDown,ArrowRight"":30}","true","ArrowDown,ArrowRight","false","","","original","1","62","","",""
"html-keyboard-response","179","955460","0.0-4.0-2.0-1.31","spark_pilot_2","8155","7","9","Female","","","","","","","null","<div style=""font-size:60px;"">+</div>","null","fixation","","","","","","","","","","","63","","",""
"revaluation","180","961464","0.0-4.0-2.0-0.32","spark_pilot_2","8155","7","9","Female","","false","","","","","[418.29999999701977,1801.199999988079]","./assets/img/canyon/memory/34.jpg","[""ArrowDown"",""ArrowRight""]","value training","canyon","30","{""ArrowUp,ArrowLeft"":23,""ArrowUp,ArrowRight"":10,""ArrowDown,ArrowLeft"":8,""ArrowDown,ArrowRight"":30}","true","ArrowDown,ArrowRight","false","","","original","1","64","","",""
"html-keyboard-response","181","961966","0.0-4.0-2.0-1.32","spark_pilot_2","8155","7","9","Female","","","","","","","null","<div style=""font-size:60px;"">+</div>","null","fixation","","","","","","","","","","","65","","",""
"revaluation","182","967982","0.0-4.0-2.0-0.33","spark_pilot_2","8155","7","9","Female","","false","","","","","[535.2999999970198,518.2000000029802]","./assets/img/canyon/memory/41.jpg","[""ArrowDown"",""ArrowRight""]","value training","canyon","30","{""ArrowUp,ArrowLeft"":23,""ArrowUp,ArrowRight"":10,""ArrowDown,ArrowLeft"":8,""ArrowDown,ArrowRight"":30}","true","ArrowDown,ArrowRight","false","","","original","1","66","","",""
"html-keyboard-response","183","968483","0.0-4.0-2.0-1.33","spark_pilot_2","8155","7","9","Female","","","","","","","null","<div style=""font-size:60px;"">+</div>","null","fixation","","","","","","","","","","","67","","",""
"revaluation","184","974488","0.0-4.0-2.0-0.34","spark_pilot_2","8155","7","9","Female","","false","","","","","[463.20000000298023,441.5]","./assets/img/canyon/memory/27.jpg","[""ArrowDown"",""ArrowRight""]","value training","canyon","30","{""ArrowUp,ArrowLeft"":23,""ArrowUp,ArrowRight"":10,""ArrowDown,ArrowLeft"":8,""ArrowDown,ArrowRight"":30}","true","ArrowDown,ArrowRight","false","","","original","1","68","","",""
"html-keyboard-response","185","974989","0.0-4.0-2.0-1.34","spark_pilot_2","8155","7","9","Female","","","","","","","null","<div style=""font-size:60px;"">+</div>","null","fixation","","","","","","","","","","","69","","",""
"revaluation","186","978993","0.0-4.0-2.0-0.35","spark_pilot_2","8155","7","9","Female","","false","","","","","[737.6999999880791]","./assets/img/canyon/catch/3.jpg","[""spaceBar""]","value training","canyon","0","{""ArrowUp,ArrowLeft"":23,""ArrowUp,ArrowRight"":10,""ArrowDown,ArrowLeft"":8,""ArrowDown,ArrowRight"":30}","true","spaceBar","true","","","original","1","70","","",""
"html-keyboard-response","187","979495","0.0-4.0-2.0-1.35","spark_pilot_2","8155","7","9","Female","","","","","","","null","<div style=""font-size:60px;"">+</div>","null","fixation","","","","","","","","","","","71","","",""
"revaluation","188","983498","0.0-4.0-2.0-0.36","spark_pilot_2","8155","7","9","Female","","false","","","","","[679.1000000089407]","./assets/img/canyon/catch/4.jpg","[""spaceBar""]","value training","canyon","0","{""ArrowUp,ArrowLeft"":23,""ArrowUp,ArrowRight"":10,""ArrowDown,ArrowLeft"":8,""ArrowDown,ArrowRight"":30}","true","spaceBar","true","","","original","1","72","","",""
"html-keyboard-response","189","983999","0.0-4.0-2.0-1.36","spark_pilot_2","8155","7","9","Female","","","","","","","null","<div style=""font-size:60px;"">+</div>","null","fixation","","","","","","","","","","","73","","",""
"revaluation","190","990002","0.0-4.0-2.0-0.37","spark_pilot_2","8155","7","9","Female","","false","","","","","[616.2999999970198,727.5]","./assets/img/canyon/memory/41.jpg","[""ArrowDown"",""ArrowRight""]","value training","canyon","30","{""ArrowUp,ArrowLeft"":23,""ArrowUp,ArrowRight"":10,""ArrowDown,ArrowLeft"":8,""ArrowDown,ArrowRight"":30}","true","ArrowDown,ArrowRight","false","","","original","1","74","","",""
"html-keyboard-response","191","990503","0.0-4.0-2.0-1.37","spark_pilot_2","8155","7","9","Female","","","","","","","null","<div style=""font-size:60px;"">+</div>","null","fixation","","","","","","","","","","","75","","",""
"revaluation","192","996508","0.0-4.0-2.0-0.38","spark_pilot_2","8155","7","9","Female","","false","","","","","[1222.7999999970198,846.1000000089407]","./assets/img/canyon/memory/6.jpg","[""ArrowDown"",""ArrowRight""]","value training","canyon","30","{""ArrowUp,ArrowLeft"":23,""ArrowUp,ArrowRight"":10,""ArrowDown,ArrowLeft"":8,""ArrowDown,ArrowRight"":30}","true","ArrowDown,ArrowRight","false","","","original","1","76","","",""
"html-keyboard-response","193","997009","0.0-4.0-2.0-1.38","spark_pilot_2","8155","7","9","Female","","","","","","","null","<div style=""font-size:60px;"">+</div>","null","fixation","","","","","","","","","","","77","","",""
"revaluation","194","1003014","0.0-4.0-2.0-0.39","spark_pilot_2","8155","7","9","Female","","false","","","","","[398.09999999403954,1028.5999999940395]","./assets/img/canyon/memory/1.jpg","[""ArrowDown"",""ArrowRight""]","value training","canyon","30","{""ArrowUp,ArrowLeft"":23,""ArrowUp,ArrowRight"":10,""ArrowDown,ArrowLeft"":8,""ArrowDown,ArrowRight"":30}","true","ArrowDown,ArrowRight","false","","","original","1","78","","",""
"html-keyboard-response","195","1003515","0.0-4.0-2.0-1.39","spark_pilot_2","8155","7","9","Female","","","","","","","null","<div style=""font-size:60px;"">+</div>","null","fixation","","","","","","","","","","","79","","",""
"revaluation","196","1009521","0.0-4.0-2.0-0.40","spark_pilot_2","8155","7","9","Female","","false","","","","","[851.6000000089407,489.79999999701977]","./assets/img/canyon/memory/17.jpg","[""ArrowDown"",""ArrowRight""]","value training","canyon","30","{""ArrowUp,ArrowLeft"":23,""ArrowUp,ArrowRight"":10,""ArrowDown,ArrowLeft"":8,""ArrowDown,ArrowRight"":30}","true","ArrowDown,ArrowRight","false","","","original","1","80","","",""
"html-keyboard-response","197","1010022","0.0-4.0-2.0-1.40","spark_pilot_2","8155","7","9","Female","","","","","","","null","<div style=""font-size:60px;"">+</div>","null","fixation","","","","","","","","","","","81","","",""
"revaluation","198","1016034","0.0-4.0-2.0-0.41","spark_pilot_2","8155","7","9","Female","","false","","","","","[473,598.7000000029802]","./assets/img/canyon/memory/27.jpg","[""ArrowDown"",""ArrowRight""]","value training","canyon","30","{""ArrowUp,ArrowLeft"":23,""ArrowUp,ArrowRight"":10,""ArrowDown,ArrowLeft"":8,""ArrowDown,ArrowRight"":30}","true","ArrowDown,ArrowRight","false","","","original","1","82","","",""
"html-keyboard-response","199","1016536","0.0-4.0-2.0-1.41","spark_pilot_2","8155","7","9","Female","","","","","","","null","<div style=""font-size:60px;"">+</div>","null","fixation","","","","","","","","","","","83","","",""
"revaluation","200","1022538","0.0-4.0-2.0-0.42","spark_pilot_2","8155","7","9","Female","","false","","","","","[502.59999999403954,718.7000000029802]","./assets/img/canyon/memory/0.jpg","[""ArrowDown"",""ArrowRight""]","value training","canyon","30","{""ArrowUp,ArrowLeft"":23,""ArrowUp,ArrowRight"":10,""ArrowDown,ArrowLeft"":8,""ArrowDown,ArrowRight"":30}","true","ArrowDown,ArrowRight","false","","","original","1","84","","",""
"html-keyboard-response","201","1023039","0.0-4.0-2.0-1.42","spark_pilot_2","8155","7","9","Female","","","","","","","null","<div style=""font-size:60px;"">+</div>","null","fixation","","","","","","","","","","","85","","",""
"revaluation","202","1029043","0.0-4.0-2.0-0.43","spark_pilot_2","8155","7","9","Female","","false","","","","","[504.70000000298023,551.2999999970198]","./assets/img/canyon/memory/23.jpg","[""ArrowDown"",""ArrowRight""]","value training","canyon","30","{""ArrowUp,ArrowLeft"":23,""ArrowUp,ArrowRight"":10,""ArrowDown,ArrowLeft"":8,""ArrowDown,ArrowRight"":30}","true","ArrowDown,ArrowRight","false","","","original","1","86","","",""
"html-keyboard-response","203","1029544","0.0-4.0-2.0-1.43","spark_pilot_2","8155","7","9","Female","","","","","","","null","<div style=""font-size:60px;"">+</div>","null","fixation","","","","","","","","","","","87","","",""
"revaluation","204","1035548","0.0-4.0-2.0-0.44","spark_pilot_2","8155","7","9","Female","","false","","","","","[461.90000000596046,629.8999999910593]","./assets/img/canyon/memory/9.jpg","[""ArrowDown"",""ArrowRight""]","value training","canyon","30","{""ArrowUp,ArrowLeft"":23,""ArrowUp,ArrowRight"":10,""ArrowDown,ArrowLeft"":8,""ArrowDown,ArrowRight"":30}","true","ArrowDown,ArrowRight","false","","","original","1","88","","",""
"html-keyboard-response","205","1036050","0.0-4.0-2.0-1.44","spark_pilot_2","8155","7","9","Female","","","","","","","null","<div style=""font-size:60px;"">+</div>","null","fixation","","","","","","","","","","","89","","",""
"revaluation","206","1042061","0.0-4.0-2.0-0.45","spark_pilot_2","8155","7","9","Female","","false","","","","","[427.90000000596046,531.5999999940395]","./assets/img/canyon/memory/17.jpg","[""ArrowDown"",""ArrowRight""]","value training","canyon","30","{""ArrowUp,ArrowLeft"":23,""ArrowUp,ArrowRight"":10,""ArrowDown,ArrowLeft"":8,""ArrowDown,ArrowRight"":30}","true","ArrowDown,ArrowRight","false","","","original","1","90","","",""
"html-keyboard-response","207","1042563","0.0-4.0-2.0-1.45","spark_pilot_2","8155","7","9","Female","","","","","","","null","<div style=""font-size:60px;"">+</div>","null","fixation","","","","","","","","","","","91","","",""
"revaluation","208","1048566","0.0-4.0-2.0-0.46","spark_pilot_2","8155","7","9","Female","","false","","","","","[500.19999998807907,634.2999999970198]","./assets/img/canyon/memory/12.jpg","[""ArrowDown"",""ArrowRight""]","value training","canyon","30","{""ArrowUp,ArrowLeft"":23,""ArrowUp,ArrowRight"":10,""ArrowDown,ArrowLeft"":8,""ArrowDown,ArrowRight"":30}","true","ArrowDown,ArrowRight","false","","","original","1","92","","",""
"html-keyboard-response","209","1049068","0.0-4.0-2.0-1.46","spark_pilot_2","8155","7","9","Female","","","","","","","null","<div style=""font-size:60px;"">+</div>","null","fixation","","","","","","","","","","","93","","",""
"revaluation","210","1053071","0.0-4.0-2.0-0.47","spark_pilot_2","8155","7","9","Female","","false","","","","","[707.6000000089407]","./assets/img/canyon/catch/6.jpg","[""spaceBar""]","value training","canyon","0","{""ArrowUp,ArrowLeft"":23,""ArrowUp,ArrowRight"":10,""ArrowDown,ArrowLeft"":8,""ArrowDown,ArrowRight"":30}","true","spaceBar","true","","","original","1","94","","",""
"html-keyboard-response","211","1053572","0.0-4.0-2.0-1.47","spark_pilot_2","8155","7","9","Female","","","","","","","null","<div style=""font-size:60px;"">+</div>","null","fixation","","","","","","","","","","","95","","",""
"revaluation","212","1059576","0.0-4.0-2.0-0.48","spark_pilot_2","8155","7","9","Female","","false","","","","","[1043.5,617.7999999970198]","./assets/img/canyon/memory/3.jpg","[""ArrowDown"",""ArrowRight""]","value training","canyon","30","{""ArrowUp,ArrowLeft"":23,""ArrowUp,ArrowRight"":10,""ArrowDown,ArrowLeft"":8,""ArrowDown,ArrowRight"":30}","true","ArrowDown,ArrowRight","false","","","original","1","96","","",""
"html-keyboard-response","213","1060077","0.0-4.0-2.0-1.48","spark_pilot_2","8155","7","9","Female","","","","","","","null","<div style=""font-size:60px;"">+</div>","null","fixation","","","","","","","","","","","97","","",""
"revaluation","214","1066097","0.0-4.0-2.0-0.49","spark_pilot_2","8155","7","9","Female","","false","","","","","[689.0999999940395,598.6000000089407]","./assets/img/canyon/memory/2.jpg","[""ArrowDown"",""ArrowRight""]","value training","canyon","30","{""ArrowUp,ArrowLeft"":23,""ArrowUp,ArrowRight"":10,""ArrowDown,ArrowLeft"":8,""ArrowDown,ArrowRight"":30}","true","ArrowDown,ArrowRight","false","","","original","1","98","","",""
"html-keyboard-response","215","1066608","0.0-4.0-2.0-1.49","spark_pilot_2","8155","7","9","Female","","","","","","","null","<div style=""font-size:60px;"">+</div>","null","fixation","","","","","","","","","","","99","","",""
"learning-instructions","216","1087912","0.0-4.0-3.0-0.0","spark_pilot_2","8155","7","9","Female","","","","","","","8147.5999999940395","<p> Now, you will travel with a friend who will choose whether you go up or down first. </p>
            <p> On these turns, you will just see the animal that they found. You will still get to choose which chest to search for treasure.</p>","","instructions","","","","","","","","","","","","","",""
"revaluation","217","1091933","0.0-4.0-4.0-0.0","spark_pilot_2","8155","7","9","Female","","false","","","","","[1004.9000000059605]","./assets/img/canyon/animals/giraffe.jpg","[""ArrowRight""]","revaluation","canyon","30","{""ArrowUp,ArrowLeft"":23,""ArrowUp,ArrowRight"":10,""ArrowDown,ArrowLeft"":8,""ArrowDown,ArrowRight"":30}","true","ArrowDown,ArrowRight","","","","original","1","0","","",""
"html-keyboard-response","218","1092443","0.0-4.0-4.0-1.0","spark_pilot_2","8155","7","9","Female","","","","","","","null","<div style=""font-size:60px;"">+</div>","null","fixation","","","","","","","","","","","1","","",""
"revaluation","219","1096464","0.0-4.0-4.0-0.1","spark_pilot_2","8155","7","9","Female","","false","","","","","[578.1000000089407]","./assets/img/canyon/animals/giraffe.jpg","[""ArrowRight""]","revaluation","canyon","30","{""ArrowUp,ArrowLeft"":23,""ArrowUp,ArrowRight"":10,""ArrowDown,ArrowLeft"":8,""ArrowDown,ArrowRight"":30}","true","ArrowDown,ArrowRight","","","","original","1","2","","",""
"html-keyboard-response","220","1096977","0.0-4.0-4.0-1.1","spark_pilot_2","8155","7","9","Female","","","","","","","null","<div style=""font-size:60px;"">+</div>","null","fixation","","","","","","","","","","","3","","",""
"revaluation","221","1100997","0.0-4.0-4.0-0.2","spark_pilot_2","8155","7","9","Female","","false","","","","","[388.79999999701977]","./assets/img/canyon/animals/giraffe.jpg","[""ArrowRight""]","revaluation","canyon","30","{""ArrowUp,ArrowLeft"":23,""ArrowUp,ArrowRight"":10,""ArrowDown,ArrowLeft"":8,""ArrowDown,ArrowRight"":30}","true","ArrowDown,ArrowRight","","","","original","1","4","","",""
"html-keyboard-response","222","1101506","0.0-4.0-4.0-1.2","spark_pilot_2","8155","7","9","Female","","","","","","","null","<div style=""font-size:60px;"">+</div>","null","fixation","","","","","","","","","","","5","","",""
"revaluation","223","1105521","0.0-4.0-4.0-0.3","spark_pilot_2","8155","7","9","Female","","false","","","","","[517.2000000029802]","./assets/img/canyon/animals/lion.jpg","[""ArrowLeft""]","revaluation","canyon","23","{""ArrowUp,ArrowLeft"":23,""ArrowUp,ArrowRight"":10,""ArrowDown,ArrowLeft"":8,""ArrowDown,ArrowRight"":30}","true","ArrowUp,ArrowLeft","","","","original","1","6","","",""
"html-keyboard-response","224","1106035","0.0-4.0-4.0-1.3","spark_pilot_2","8155","7","9","Female","","","","","","","null","<div style=""font-size:60px;"">+</div>","null","fixation","","","","","","","","","","","7","","",""
"revaluation","225","1110039","0.0-4.0-4.0-0.4","spark_pilot_2","8155","7","9","Female","","false","","","","","[748.7999999970198]","./assets/img/canyon/animals/lion.jpg","[""ArrowLeft""]","revaluation","canyon","23","{""ArrowUp,ArrowLeft"":23,""ArrowUp,ArrowRight"":10,""ArrowDown,ArrowLeft"":8,""ArrowDown,ArrowRight"":30}","true","ArrowUp,ArrowLeft","","","","original","1","8","","",""
"html-keyboard-response","226","1110540","0.0-4.0-4.0-1.4","spark_pilot_2","8155","7","9","Female","","","","","","","null","<div style=""font-size:60px;"">+</div>","null","fixation","","","","","","","","","","","9","","",""
"revaluation","227","1114543","0.0-4.0-4.0-0.5","spark_pilot_2","8155","7","9","Female","","false","","","","","[459.1000000089407]","./assets/img/canyon/animals/giraffe.jpg","[""ArrowRight""]","revaluation","canyon","30","{""ArrowUp,ArrowLeft"":23,""ArrowUp,ArrowRight"":10,""ArrowDown,ArrowLeft"":8,""ArrowDown,ArrowRight"":30}","true","ArrowDown,ArrowRight","","","","original","1","10","","",""
"html-keyboard-response","228","1115043","0.0-4.0-4.0-1.5","spark_pilot_2","8155","7","9","Female","","","","","","","null","<div style=""font-size:60px;"">+</div>","null","fixation","","","","","","","","","","","11","","",""
"revaluation","229","1119046","0.0-4.0-4.0-0.6","spark_pilot_2","8155","7","9","Female","","false","","","","","[507.70000000298023]","./assets/img/canyon/animals/lion.jpg","[""ArrowLeft""]","revaluation","canyon","23","{""ArrowUp,ArrowLeft"":23,""ArrowUp,ArrowRight"":10,""ArrowDown,ArrowLeft"":8,""ArrowDown,ArrowRight"":30}","true","ArrowUp,ArrowLeft","","","","original","1","12","","",""
"html-keyboard-response","230","1119547","0.0-4.0-4.0-1.6","spark_pilot_2","8155","7","9","Female","","","","","","","null","<div style=""font-size:60px;"">+</div>","null","fixation","","","","","","","","","","","13","","",""
"revaluation","231","1123551","0.0-4.0-4.0-0.7","spark_pilot_2","8155","7","9","Female","","false","","","","","[771.7000000029802]","./assets/img/canyon/animals/lion.jpg","[""ArrowRight""]","revaluation","canyon","10","{""ArrowUp,ArrowLeft"":23,""ArrowUp,ArrowRight"":10,""ArrowDown,ArrowLeft"":8,""ArrowDown,ArrowRight"":30}","false","ArrowUp,ArrowRight","","","","original","1","14","","",""
"html-keyboard-response","232","1124053","0.0-4.0-4.0-1.7","spark_pilot_2","8155","7","9","Female","","","","","","","null","<div style=""font-size:60px;"">+</div>","null","fixation","","","","","","","","","","","15","","",""
"revaluation","233","1128058","0.0-4.0-4.0-0.8","spark_pilot_2","8155","7","9","Female","","false","","","","","[767.4000000059605]","./assets/img/canyon/animals/lion.jpg","[""ArrowLeft""]","revaluation","canyon","23","{""ArrowUp,ArrowLeft"":23,""ArrowUp,ArrowRight"":10,""ArrowDown,ArrowLeft"":8,""ArrowDown,ArrowRight"":30}","true","ArrowUp,ArrowLeft","","","","original","1","16","","",""
"html-keyboard-response","234","1128558","0.0-4.0-4.0-1.8","spark_pilot_2","8155","7","9","Female","","","","","","","null","<div style=""font-size:60px;"">+</div>","null","fixation","","","","","","","","","","","17","","",""
"revaluation","235","1132569","0.0-4.0-4.0-0.9","spark_pilot_2","8155","7","9","Female","","false","","","","","[752.8999999910593]","./assets/img/canyon/animals/giraffe.jpg","[""ArrowRight""]","revaluation","canyon","30","{""ArrowUp,ArrowLeft"":23,""ArrowUp,ArrowRight"":10,""ArrowDown,ArrowLeft"":8,""ArrowDown,ArrowRight"":30}","true","ArrowDown,ArrowRight","","","","original","1","18","","",""
"html-keyboard-response","236","1133070","0.0-4.0-4.0-1.9","spark_pilot_2","8155","7","9","Female","","","","","","","null","<div style=""font-size:60px;"">+</div>","null","fixation","","","","","","","","","","","19","","",""
"revaluation","237","1137074","0.0-4.0-4.0-0.10","spark_pilot_2","8155","7","9","Female","","false","","","","","[559.4000000059605]","./assets/img/canyon/animals/giraffe.jpg","[""ArrowRight""]","revaluation","canyon","30","{""ArrowUp,ArrowLeft"":23,""ArrowUp,ArrowRight"":10,""ArrowDown,ArrowLeft"":8,""ArrowDown,ArrowRight"":30}","true","ArrowDown,ArrowRight","","","","original","1","20","","",""
"html-keyboard-response","238","1137580","0.0-4.0-4.0-1.10","spark_pilot_2","8155","7","9","Female","","","","","","","null","<div style=""font-size:60px;"">+</div>","null","fixation","","","","","","","","","","","21","","",""
"revaluation","239","1141597","0.0-4.0-4.0-0.11","spark_pilot_2","8155","7","9","Female","","false","","","","","[546.0999999940395]","./assets/img/canyon/animals/lion.jpg","[""ArrowRight""]","revaluation","canyon","10","{""ArrowUp,ArrowLeft"":23,""ArrowUp,ArrowRight"":10,""ArrowDown,ArrowLeft"":8,""ArrowDown,ArrowRight"":30}","false","ArrowUp,ArrowRight","","","","original","1","22","","",""
"html-keyboard-response","240","1142099","0.0-4.0-4.0-1.11","spark_pilot_2","8155","7","9","Female","","","","","","","null","<div style=""font-size:60px;"">+</div>","null","fixation","","","","","","","","","","","23","","",""
"revaluation","241","1146102","0.0-4.0-4.0-0.12","spark_pilot_2","8155","7","9","Female","","false","","","","","[685.2000000029802]","./assets/img/canyon/animals/giraffe.jpg","[""ArrowLeft""]","revaluation","canyon","8","{""ArrowUp,ArrowLeft"":23,""ArrowUp,ArrowRight"":10,""ArrowDown,ArrowLeft"":8,""ArrowDown,ArrowRight"":30}","false","ArrowDown,ArrowLeft","","","","original","1","24","","",""
"html-keyboard-response","242","1146604","0.0-4.0-4.0-1.12","spark_pilot_2","8155","7","9","Female","","","","","","","null","<div style=""font-size:60px;"">+</div>","null","fixation","","","","","","","","","","","25","","",""
"revaluation","243","1150609","0.0-4.0-4.0-0.13","spark_pilot_2","8155","7","9","Female","","false","","","","","[426.5]","./assets/img/canyon/animals/giraffe.jpg","[""ArrowRight""]","revaluation","canyon","30","{""ArrowUp,ArrowLeft"":23,""ArrowUp,ArrowRight"":10,""ArrowDown,ArrowLeft"":8,""ArrowDown,ArrowRight"":30}","true","ArrowDown,ArrowRight","","","","original","1","26","","",""
"html-keyboard-response","244","1151111","0.0-4.0-4.0-1.13","spark_pilot_2","8155","7","9","Female","","","","","","","null","<div style=""font-size:60px;"">+</div>","null","fixation","","","","","","","","","","","27","","",""
"revaluation","245","1155117","0.0-4.0-4.0-0.14","spark_pilot_2","8155","7","9","Female","","false","","","","","[405.79999999701977]","./assets/img/canyon/animals/lion.jpg","[""ArrowLeft""]","revaluation","canyon","23","{""ArrowUp,ArrowLeft"":23,""ArrowUp,ArrowRight"":10,""ArrowDown,ArrowLeft"":8,""ArrowDown,ArrowRight"":30}","true","ArrowUp,ArrowLeft","","","","original","1","28","","",""
"html-keyboard-response","246","1155618","0.0-4.0-4.0-1.14","spark_pilot_2","8155","7","9","Female","","","","","","","null","<div style=""font-size:60px;"">+</div>","null","fixation","","","","","","","","","","","29","","",""
"revaluation","247","1159623","0.0-4.0-4.0-0.15","spark_pilot_2","8155","7","9","Female","","false","","","","","[483.79999999701977]","./assets/img/canyon/animals/giraffe.jpg","[""ArrowRight""]","revaluation","canyon","30","{""ArrowUp,ArrowLeft"":23,""ArrowUp,ArrowRight"":10,""ArrowDown,ArrowLeft"":8,""ArrowDown,ArrowRight"":30}","true","ArrowDown,ArrowRight","","","","original","1","30","","",""
"html-keyboard-response","248","1160124","0.0-4.0-4.0-1.15","spark_pilot_2","8155","7","9","Female","","","","","","","null","<div style=""font-size:60px;"">+</div>","null","fixation","","","","","","","","","","","31","","",""
"revaluation","249","1164127","0.0-4.0-4.0-0.16","spark_pilot_2","8155","7","9","Female","","false","","","","","[530.8999999910593]","./assets/img/canyon/animals/lion.jpg","[""ArrowRight""]","revaluation","canyon","10","{""ArrowUp,ArrowLeft"":23,""ArrowUp,ArrowRight"":10,""ArrowDown,ArrowLeft"":8,""ArrowDown,ArrowRight"":30}","false","ArrowUp,ArrowRight","","","","original","1","32","","",""
"html-keyboard-response","250","1164629","0.0-4.0-4.0-1.16","spark_pilot_2","8155","7","9","Female","","","","","","","null","<div style=""font-size:60px;"">+</div>","null","fixation","","","","","","","","","","","33","","",""
"revaluation","251","1168631","0.0-4.0-4.0-0.17","spark_pilot_2","8155","7","9","Female","","false","","","","","[491.29999999701977]","./assets/img/canyon/animals/lion.jpg","[""ArrowRight""]","revaluation","canyon","10","{""ArrowUp,ArrowLeft"":23,""ArrowUp,ArrowRight"":10,""ArrowDown,ArrowLeft"":8,""ArrowDown,ArrowRight"":30}","false","ArrowUp,ArrowRight","","","","original","1","34","","",""
"html-keyboard-response","252","1169132","0.0-4.0-4.0-1.17","spark_pilot_2","8155","7","9","Female","","","","","","","null","<div style=""font-size:60px;"">+</div>","null","fixation","","","","","","","","","","","35","","",""
"learning-instructions","253","1184015","0.0-4.0-5.0-0.0","spark_pilot_2","8155","7","9","Female","","","","","","","3215.1000000089407","<p> Time to play the dot game! </p>
            <p> For one minute, click the red dots on the following screen as they appear. </p>
            <p><b> Don't look away, as you will earn bonus for clicking dots</b>. </p>","","instructions","","","","","","","","","","","","","",""
"revaluation","254","1244018","0.0-4.0-6.0-0.0","spark_pilot_2","8155","7","9","Female","","","","","","","[97,99,84,87,133,100]","","","rest","","60","","","","","0","60000","","","","","",""
"learning-instructions","255","1252784","0.0-4.0-7.0-0.0","spark_pilot_2","8155","7","9","Female","","","","","","","2375.7000000029802","<p> You have almost finished this part of the game! </p>
            <p> We are going to ask you to make a few more choices. </p>","","instructions","","","","","","","","","","","","","",""
"learning-instructions","256","1268943","0.0-4.0-7.0-0.1","spark_pilot_2","8155","7","9","Female","","","","","","","2194.9000000059605","<p> First, you need to decide whether to go up or down. When you see each picture, use the arrow keys to make your choice. </p>
            <p><b>You will not see which animal you found, but try to get to the one that will give you the most treasure.</b></p>","","instructions","","","","","","","","","","","","","",""
"revaluation","257","1269952","0.0-4.0-8.0-0.0","spark_pilot_2","8155","7","9","Female","","false","","","","","[1006.8000000119209]","./assets/img/canyon/test/0.jpg","[""ArrowDown""]","first stage test","canyon","0","{""ArrowUp,ArrowLeft"":23,""ArrowUp,ArrowRight"":10,""ArrowDown,ArrowLeft"":8,""ArrowDown,ArrowRight"":30}","true","ArrowDown","false","","","original","1","","","",""
"html-keyboard-response","258","1270458","0.0-4.0-8.0-1.0","spark_pilot_2","8155","7","9","Female","","","","","","","null","<div style=""font-size:60px;"">+</div>","null","fixation","","","","","","","","","","","","","",""
"revaluation","259","1272071","0.0-4.0-8.0-0.1","spark_pilot_2","8155","7","9","Female","","false","","","","","[1611.5999999940395]","./assets/img/canyon/test/3.jpg","[""ArrowDown""]","first stage test","canyon","0","{""ArrowUp,ArrowLeft"":23,""ArrowUp,ArrowRight"":10,""ArrowDown,ArrowLeft"":8,""ArrowDown,ArrowRight"":30}","true","ArrowDown","false","","","original","1","","","",""
"html-keyboard-response","260","1272585","0.0-4.0-8.0-1.1","spark_pilot_2","8155","7","9","Female","","","","","","","null","<div style=""font-size:60px;"">+</div>","null","fixation","","","","","","","","","","","","","",""
"revaluation","261","1272984","0.0-4.0-8.0-0.2","spark_pilot_2","8155","7","9","Female","","false","","","","","[395.29999999701977]","./assets/img/canyon/test/2.jpg","[""ArrowDown""]","first stage test","canyon","0","{""ArrowUp,ArrowLeft"":23,""ArrowUp,ArrowRight"":10,""ArrowDown,ArrowLeft"":8,""ArrowDown,ArrowRight"":30}","true","ArrowDown","false","","","original","1","","","",""
"html-keyboard-response","262","1273490","0.0-4.0-8.0-1.2","spark_pilot_2","8155","7","9","Female","","","","","","","null","<div style=""font-size:60px;"">+</div>","null","fixation","","","","","","","","","","","","","",""
"revaluation","263","1273936","0.0-4.0-8.0-0.3","spark_pilot_2","8155","7","9","Female","","false","","","","","[444.70000000298023]","./assets/img/canyon/test/1.jpg","[""ArrowDown""]","first stage test","canyon","0","{""ArrowUp,ArrowLeft"":23,""ArrowUp,ArrowRight"":10,""ArrowDown,ArrowLeft"":8,""ArrowDown,ArrowRight"":30}","true","ArrowDown","false","","","original","1","","","",""
"html-keyboard-response","264","1274437","0.0-4.0-8.0-1.3","spark_pilot_2","8155","7","9","Female","","","","","","","null","<div style=""font-size:60px;"">+</div>","null","fixation","","","","","","","","","","","","","",""
"learning-instructions","265","1289367","0.0-4.0-9.0-0.0","spark_pilot_2","8155","7","9","Female","","","","","","","3588.8999999910593","<p> Now you will see the animals again and can search their chests for treasure. </p>
            <p> This time, you will not see how much treasure you earned, but you will earn more bonus money for making better choices. </p>","","instructions","","","","","","","","","","","","","",""
"revaluation","266","1290560","0.0-4.0-10.0-0.0","spark_pilot_2","8155","7","9","Female","","false","","","","","[1191.199999988079]","./assets/img/canyon/animals/lion.jpg","[""ArrowRight""]","second stage test","canyon","0","{""ArrowUp,ArrowLeft"":23,""ArrowUp,ArrowRight"":10,""ArrowDown,ArrowLeft"":8,""ArrowDown,ArrowRight"":30}","false","ArrowUp,ArrowRight","","","","original","1","","","",""
"html-keyboard-response","267","1291075","0.0-4.0-10.0-1.0","spark_pilot_2","8155","7","9","Female","","","","","","","null","<div style=""font-size:60px;"">+</div>","null","fixation","","","","","","","","","","","","","",""
"revaluation","268","1291807","0.0-4.0-10.0-0.1","spark_pilot_2","8155","7","9","Female","","false","","","","","[730.0999999940395]","./assets/img/canyon/animals/lion.jpg","[""ArrowLeft""]","second stage test","canyon","0","{""ArrowUp,ArrowLeft"":23,""ArrowUp,ArrowRight"":10,""ArrowDown,ArrowLeft"":8,""ArrowDown,ArrowRight"":30}","true","ArrowUp,ArrowLeft","","","","original","1","","","",""
"html-keyboard-response","269","1292322","0.0-4.0-10.0-1.1","spark_pilot_2","8155","7","9","Female","","","","","","","null","<div style=""font-size:60px;"">+</div>","null","fixation","","","","","","","","","","","","","",""
"revaluation","270","1293048","0.0-4.0-10.0-0.2","spark_pilot_2","8155","7","9","Female","","false","","","","","[723.5999999940395]","./assets/img/canyon/animals/lion.jpg","[""ArrowLeft""]","second stage test","canyon","0","{""ArrowUp,ArrowLeft"":23,""ArrowUp,ArrowRight"":10,""ArrowDown,ArrowLeft"":8,""ArrowDown,ArrowRight"":30}","true","ArrowUp,ArrowLeft","","","","original","1","","","",""
"html-keyboard-response","271","1293549","0.0-4.0-10.0-1.2","spark_pilot_2","8155","7","9","Female","","","","","","","null","<div style=""font-size:60px;"">+</div>","null","fixation","","","","","","","","","","","","","",""
"revaluation","272","1294048","0.0-4.0-10.0-0.3","spark_pilot_2","8155","7","9","Female","","false","","","","","[495.79999999701977]","./assets/img/canyon/animals/lion.jpg","[""ArrowLeft""]","second stage test","canyon","0","{""ArrowUp,ArrowLeft"":23,""ArrowUp,ArrowRight"":10,""ArrowDown,ArrowLeft"":8,""ArrowDown,ArrowRight"":30}","true","ArrowUp,ArrowLeft","","","","original","1","","","",""
"html-keyboard-response","273","1294560","0.0-4.0-10.0-1.3","spark_pilot_2","8155","7","9","Female","","","","","","","null","<div style=""font-size:60px;"">+</div>","null","fixation","","","","","","","","","","","","","",""
"revaluation","274","1295472","0.0-4.0-10.0-0.4","spark_pilot_2","8155","7","9","Female","","false","","","","","[910.7000000029802]","./assets/img/canyon/animals/giraffe.jpg","[""ArrowRight""]","second stage test","canyon","0","{""ArrowUp,ArrowLeft"":23,""ArrowUp,ArrowRight"":10,""ArrowDown,ArrowLeft"":8,""ArrowDown,ArrowRight"":30}","true","ArrowDown,ArrowRight","","","","original","1","","","",""
"html-keyboard-response","275","1295976","0.0-4.0-10.0-1.4","spark_pilot_2","8155","7","9","Female","","","","","","","null","<div style=""font-size:60px;"">+</div>","null","fixation","","","","","","","","","","","","","",""
"revaluation","276","1296553","0.0-4.0-10.0-0.5","spark_pilot_2","8155","7","9","Female","","false","","","","","[575.5]","./assets/img/canyon/animals/giraffe.jpg","[""ArrowRight""]","second stage test","canyon","0","{""ArrowUp,ArrowLeft"":23,""ArrowUp,ArrowRight"":10,""ArrowDown,ArrowLeft"":8,""ArrowDown,ArrowRight"":30}","true","ArrowDown,ArrowRight","","","","original","1","","","",""
"html-keyboard-response","277","1297062","0.0-4.0-10.0-1.5","spark_pilot_2","8155","7","9","Female","","","","","","","null","<div style=""font-size:60px;"">+</div>","null","fixation","","","","","","","","","","","","","",""
"revaluation","278","1297704","0.0-4.0-10.0-0.6","spark_pilot_2","8155","7","9","Female","","false","","","","","[640.5999999940395]","./assets/img/canyon/animals/giraffe.jpg","[""ArrowRight""]","second stage test","canyon","0","{""ArrowUp,ArrowLeft"":23,""ArrowUp,ArrowRight"":10,""ArrowDown,ArrowLeft"":8,""ArrowDown,ArrowRight"":30}","true","ArrowDown,ArrowRight","","","","original","1","","","",""
"html-keyboard-response","279","1298211","0.0-4.0-10.0-1.6","spark_pilot_2","8155","7","9","Female","","","","","","","null","<div style=""font-size:60px;"">+</div>","null","fixation","","","","","","","","","","","","","",""
"revaluation","280","1298832","0.0-4.0-10.0-0.7","spark_pilot_2","8155","7","9","Female","","false","","","","","[618.9000000059605]","./assets/img/canyon/animals/giraffe.jpg","[""ArrowRight""]","second stage test","canyon","0","{""ArrowUp,ArrowLeft"":23,""ArrowUp,ArrowRight"":10,""ArrowDown,ArrowLeft"":8,""ArrowDown,ArrowRight"":30}","true","ArrowDown,ArrowRight","","","","original","1","","","",""
"html-keyboard-response","281","1299348","0.0-4.0-10.0-1.7","spark_pilot_2","8155","7","9","Female","","","","","","","null","<div style=""font-size:60px;"">+</div>","null","fixation","","","","","","","","","","","","","",""
"learning-instructions","282","1305000","0.0-4.0-0.1-0.2","spark_pilot_2","8155","7","9","Female","","","","","","","2950.9000000059605","<p> This time you are searching for treasure in the <b>ocean</b>.</p>","","instructions","","","","","","","","","","","","","",""
"learning-instructions","283","1324249","0.0-4.0-0.1-0.3","spark_pilot_2","8155","7","9","Female","","","","","","","1999.3999999910593","<p><b>New</b> animals with <b>new</b> treasure chests live here. You need to explore to discover where the animal with the best treasure chest is.</p>
                    <p> Like before, once you figure out which animal has the chest with the most treasure, you should try to get to that animal and select that chest! </p>","","instructions","","","","","","","","","","","","","",""
"learning-instructions","284","1344040","0.0-4.0-1.1-0.1","spark_pilot_2","8155","7","9","Female","","","","","","","5061.29999999702","<p> Remember, when you see a picture of the place, use the up and down keys to <b>find an animal</b>.</p>
            <p> When you encounter an animal, you should use the left and right keys to <b>select a treasure chest</b>.</p>
            <p> Don't forget to look out for the robber! </p>","","instructions","","","","","","","","","","","","","",""
"revaluation","285","1348049","0.0-4.0-2.1-0.50","spark_pilot_2","8155","7","9","Female","","false","","","","","[1127.1000000089407]","./assets/img/ocean/catch/1.jpg","[""spaceBar""]","value training","ocean","0","{""ArrowUp,ArrowLeft"":26,""ArrowUp,ArrowRight"":10,""ArrowDown,ArrowLeft"":5,""ArrowDown,ArrowRight"":17}","true","spaceBar","true","","","revaluation","2","0","","",""
"html-keyboard-response","286","1348558","0.0-4.0-2.1-1.50","spark_pilot_2","8155","7","9","Female","","","","","","","null","<div style=""font-size:60px;"">+</div>","null","fixation","","","","","","","","","","","1","","",""
"revaluation","287","1352569","0.0-4.0-2.1-0.51","spark_pilot_2","8155","7","9","Female","","false","","","","","[721]","./assets/img/ocean/catch/4.jpg","[""spaceBar""]","value training","ocean","0","{""ArrowUp,ArrowLeft"":26,""ArrowUp,ArrowRight"":10,""ArrowDown,ArrowLeft"":5,""ArrowDown,ArrowRight"":17}","true","spaceBar","true","","","revaluation","2","2","","",""
"html-keyboard-response","288","1353083","0.0-4.0-2.1-1.51","spark_pilot_2","8155","7","9","Female","","","","","","","null","<div style=""font-size:60px;"">+</div>","null","fixation","","","","","","","","","","","3","","",""
"revaluation","289","1359106","0.0-4.0-2.1-0.52","spark_pilot_2","8155","7","9","Female","","false","","","","","[650.4000000059605,584.4000000059605]","./assets/img/ocean/memory/17.jpg","[""ArrowDown"",""ArrowRight""]","value training","ocean","17","{""ArrowUp,ArrowLeft"":26,""ArrowUp,ArrowRight"":10,""ArrowDown,ArrowLeft"":5,""ArrowDown,ArrowRight"":17}","false","ArrowDown,ArrowRight","false","","","revaluation","2","4","","",""
"html-keyboard-response","290","1359618","0.0-4.0-2.1-1.52","spark_pilot_2","8155","7","9","Female","","","","","","","null","<div style=""font-size:60px;"">+</div>","null","fixation","","","","","","","","","","","5","","",""
"revaluation","291","1365633","0.0-4.0-2.1-0.53","spark_pilot_2","8155","7","9","Female","","false","","","","","[965.2000000029802,457.90000000596046]","./assets/img/ocean/memory/12.jpg","[""ArrowDown"",""ArrowLeft""]","value training","ocean","5","{""ArrowUp,ArrowLeft"":26,""ArrowUp,ArrowRight"":10,""ArrowDown,ArrowLeft"":5,""ArrowDown,ArrowRight"":17}","false","ArrowDown,ArrowLeft","false","","","revaluation","2","6","","",""
"html-keyboard-response","292","1366143","0.0-4.0-2.1-1.53","spark_pilot_2","8155","7","9","Female","","","","","","","null","<div style=""font-size:60px;"">+</div>","null","fixation","","","","","","","","","","","7","","",""
"revaluation","293","1372166","0.0-4.0-2.1-0.54","spark_pilot_2","8155","7","9","Female","","false","","","","","[719.4000000059605,484.69999998807907]","./assets/img/ocean/memory/0.jpg","[""ArrowDown"",""ArrowRight""]","value training","ocean","17","{""ArrowUp,ArrowLeft"":26,""ArrowUp,ArrowRight"":10,""ArrowDown,ArrowLeft"":5,""ArrowDown,ArrowRight"":17}","false","ArrowDown,ArrowRight","false","","","revaluation","2","8","","",""
"html-keyboard-response","294","1372668","0.0-4.0-2.1-1.54","spark_pilot_2","8155","7","9","Female","","","","","","","null","<div style=""font-size:60px;"">+</div>","null","fixation","","","","","","","","","","","9","","",""
"revaluation","295","1378673","0.0-4.0-2.1-0.55","spark_pilot_2","8155","7","9","Female","","false","","","","","[642.7999999970198,505]","./assets/img/ocean/memory/1.jpg","[""ArrowUp"",""ArrowRight""]","value training","ocean","10","{""ArrowUp,ArrowLeft"":26,""ArrowUp,ArrowRight"":10,""ArrowDown,ArrowLeft"":5,""ArrowDown,ArrowRight"":17}","false","ArrowUp,ArrowRight","false","","","revaluation","2","10","","",""
"html-keyboard-response","296","1379174","0.0-4.0-2.1-1.55","spark_pilot_2","8155","7","9","Female","","","","","","","null","<div style=""font-size:60px;"">+</div>","null","fixation","","","","","","","","","","","11","","",""
"revaluation","297","1385188","0.0-4.0-2.1-0.56","spark_pilot_2","8155","7","9","Female","","false","","","","","[904.2000000029802,495.20000000298023]","./assets/img/ocean/memory/10.jpg","[""ArrowUp"",""ArrowLeft""]","value training","ocean","26","{""ArrowUp,ArrowLeft"":26,""ArrowUp,ArrowRight"":10,""ArrowDown,ArrowLeft"":5,""ArrowDown,ArrowRight"":17}","true","ArrowUp,ArrowLeft","false","","","revaluation","2","12","","",""
"html-keyboard-response","298","1385690","0.0-4.0-2.1-1.56","spark_pilot_2","8155","7","9","Female","","","","","","","null","<div style=""font-size:60px;"">+</div>","null","fixation","","","","","","","","","","","13","","",""
"revaluation","299","1391695","0.0-4.0-2.1-0.57","spark_pilot_2","8155","7","9","Female","","false","","","","","[988.2999999970198,861.2999999970198]","./assets/img/ocean/memory/21.jpg","[""ArrowUp"",""ArrowLeft""]","value training","ocean","26","{""ArrowUp,ArrowLeft"":26,""ArrowUp,ArrowRight"":10,""ArrowDown,ArrowLeft"":5,""ArrowDown,ArrowRight"":17}","true","ArrowUp,ArrowLeft","false","","","revaluation","2","14","","",""
"html-keyboard-response","300","1392195","0.0-4.0-2.1-1.57","spark_pilot_2","8155","7","9","Female","","","","","","","null","<div style=""font-size:60px;"">+</div>","null","fixation","","","","","","","","","","","15","","",""
"revaluation","301","1398211","0.0-4.0-2.1-0.58","spark_pilot_2","8155","7","9","Female","","false","","","","","[651.5999999940395,615.1000000089407]","./assets/img/ocean/memory/27.jpg","[""ArrowUp"",""ArrowLeft""]","value training","ocean","26","{""ArrowUp,ArrowLeft"":26,""ArrowUp,ArrowRight"":10,""ArrowDown,ArrowLeft"":5,""ArrowDown,ArrowRight"":17}","true","ArrowUp,ArrowLeft","false","","","revaluation","2","16","","",""
"html-keyboard-response","302","1398713","0.0-4.0-2.1-1.58","spark_pilot_2","8155","7","9","Female","","","","","","","null","<div style=""font-size:60px;"">+</div>","null","fixation","","","","","","","","","","","17","","",""
"revaluation","303","1404724","0.0-4.0-2.1-0.59","spark_pilot_2","8155","7","9","Female","","true","","","","","[587.2999999970198]","./assets/img/ocean/memory/41.jpg","[""ArrowUp""]","value training","ocean","-5","{""ArrowUp,ArrowLeft"":26,""ArrowUp,ArrowRight"":10,""ArrowDown,ArrowLeft"":5,""ArrowDown,ArrowRight"":17}","false","ArrowUp","false","","","revaluation","2","18","","",""
"html-keyboard-response","304","1405236","0.0-4.0-2.1-1.59","spark_pilot_2","8155","7","9","Female","","","","","","","null","<div style=""font-size:60px;"">+</div>","null","fixation","","","","","","","","","","","19","","",""
"revaluation","305","1411241","0.0-4.0-2.1-0.60","spark_pilot_2","8155","7","9","Female","","false","","","","","[658.2000000029802,577.9000000059605]","./assets/img/ocean/memory/21.jpg","[""ArrowUp"",""ArrowLeft""]","value training","ocean","26","{""ArrowUp,ArrowLeft"":26,""ArrowUp,ArrowRight"":10,""ArrowDown,ArrowLeft"":5,""ArrowDown,ArrowRight"":17}","true","ArrowUp,ArrowLeft","false","","","revaluation","2","20","","",""
"html-keyboard-response","306","1411742","0.0-4.0-2.1-1.60","spark_pilot_2","8155","7","9","Female","","","","","","","null","<div style=""font-size:60px;"">+</div>","null","fixation","","","","","","","","","","","21","","",""
