"trial_type","trial_index","time_elapsed","internal_node_id","task_version","subject_id","assigned_condition","age","gender","success","timeout","failed_images","failed_audio","failed_video","browser_interaction","value","rt","stimulus","response","task_part","environment","score","rewardMap","correct","fullState","isCatch","numberMissed","duration","condition","order","trial_num","key_press","ground_truth","bonus"
"pavlovia","0","1124","0.0-0.0","spark_pilot_2","7432","3","18","Female","","","","","","","","","","","","","","","","","","","","","","","","",""
"preload","1","34769","0.0-1.0","spark_pilot_2","7432","3","18","Female","true","false","[]","[]","[]","[{""event"":""fullscreenenter"",""trial"":2,""time"":48215}]","","","","","","","","","","","","","","","","","","",""
"fullscreen","2","49188","0.0-2.0","spark_pilot_2","7432","3","18","Female","true","","","","","","","","","","","","","","","","","","","","","","","",""
"call-function","3","51554","0.0-3.0","spark_pilot_2","7432","3","18","Female","","","","","","","","","","","","","","","","","","","","","","","","",""
"audio-button-response","4","54402","0.0-4.0-0.0-0.0","spark_pilot_2","7432","3","18","Female","","","","","","","","2808","./assets/audio/audiotest/turtle.mp3","2","audio_test","","","","","","","","","","","","","",""
"learning-instructions","5","63001","0.0-4.0-1.0-0.0","spark_pilot_2","7432","3","18","Female","","","","","","","","1642","<p> Welcome! Please remember to stay in fullscreen mode and don't click away from the experiment. </p>","","instructions","","","","","","","","","","","","","",""
"learning-instructions","6","81882","0.0-4.0-1.0-0.1","spark_pilot_2","7432","3","18","Female","","","","","","","","10499","<p> Today you will be playing a game to earn treasure. </p>
            <p> At the end of the experiment, you will earn a bonus based on how much treasure you find. </p>
            <img src='./assets/img/instructions/treasure.jpg' class='instructions-image'>","","instructions","","","","","","","","","","","","","",""
"learning-instructions","7","91213","0.0-4.0-1.0-0.2","spark_pilot_2","7432","3","18","Female","","","","","","","","1096","<p> Animals have hidden treasure in treasure chests. </p>
            <p> You need to first find an animal and then choose which of their treasure chests to search. </p>
            <img src='./assets/img/space/animals/cat.jpg' class='instructions-image'>","","instructions","","","","","","","","","","","","","",""
"learning-instructions","8","106581","0.0-4.0-1.0-0.3","spark_pilot_2","7432","3","18","Female","","","","","","","","2243","<p> In each round, you will search for treasure in a different place. In the real game, there will be two rounds. </p>
            <p> You will begin with a separate, practice round where you will search for treasure in outer space. </p>
            <img src='./assets/img/space/0.jpg' class='instructions-image'>","","instructions","","","","","","","","","","","","","",""
"learning-instructions","9","121130","0.0-4.0-1.0-0.4","spark_pilot_2","7432","3","18","Female","","","","","","","","3159","<p> On every turn, you will see a picture of the place that you are in, but the specific image may be different each time. </p>
            <p> For example, both of these images mean you are in outer space. </p>
            <img src='./assets/img/instructions/outerspace.jpg' class='instructions-image'>","","instructions","","","","","","","","","","","","","",""
"learning-instructions","10","136962","0.0-4.0-1.0-0.5","spark_pilot_2","7432","3","18","Female","","","","","","","","8028","<p> You need to decide which direction to travel in. </p>
            <p> You can choose between going <b>up or down</b> by using the arrow keys. </p>
            <img src='./assets/img/instructions/updown.jpg' class='instructions-image'>","","instructions","","","","","","","","","","","","","",""
"learning-instructions","11","149895","0.0-4.0-1.0-0.6","spark_pilot_2","7432","3","18","Female","","","","","","","","4149","<p> You will have <b>2 seconds</b> to make your choice. </p>
            <p> If you do not make a choice within 2 seconds, you will not find an animal or earn treasure. </p>
            <img src='./assets/img/instructions/2seconds.jpg' class='instructions-image'>","","instructions","","","","","","","","","","","","","",""
"learning-instructions","12","158394","0.0-4.0-1.0-0.7","spark_pilot_2","7432","3","18","Female","","","","","","","","1485","<p> Let’s try practicing that now! </p>
            <p> When you see a picture of the place you are in, press the <b>up</b> key to travel up. </p>
            <img src='./assets/img/instructions/pressUp.jpg' class='instructions-image'>","","instructions","","","","","","","","","","","","","",""
"revaluation","13","162407","0.0-4.0-2.0-0.0","spark_pilot_2","7432","3","18","Female","","false","","","","","","[870]","./assets/img/space/0.jpg","[""ArrowUp""]","first stage practice","space","0","null","null","ArrowUp","false","","","","","","","",""
"html-keyboard-response","14","162909","0.0-4.0-2.0-1.0","spark_pilot_2","7432","3","18","Female","","","","","","","","null","<div style=""font-size:60px;"">+</div>","null","fixation","","","","","","","","","","","","","",""
"revaluation","15","166914","0.0-4.0-2.0-0.1","spark_pilot_2","7432","3","18","Female","","true","","","","","","[]","./assets/img/space/1.jpg","[]","first stage practice","space","-5","null","null","","false","","","","","","","",""
"html-keyboard-response","16","167416","0.0-4.0-2.0-1.1","spark_pilot_2","7432","3","18","Female","","","","","","","","null","<div style=""font-size:60px;"">+</div>","null","fixation","","","","","","","","","","","","","",""
"revaluation","17","171420","0.0-4.0-2.0-0.2","spark_pilot_2","7432","3","18","Female","","false","","","","","","[1813]","./assets/img/space/2.jpg","[""ArrowUp""]","first stage practice","space","0","null","null","ArrowUp","false","","","","","","","",""
"html-keyboard-response","18","171921","0.0-4.0-2.0-1.2","spark_pilot_2","7432","3","18","Female","","","","","","","","null","<div style=""font-size:60px;"">+</div>","null","fixation","","","","","","","","","","","","","",""
"learning-instructions","19","178110","0.0-4.0-3.0-0.0","spark_pilot_2","7432","3","18","Female","","","","","","","","1505","<p> Great job! Now try pressing the <b>down</b> key to travel down. </p>
            <img src='./assets/img/instructions/pressDown.jpg' class='instructions-image'>","","instructions","","","","","","","","","","","","","",""
"revaluation","20","182114","0.0-4.0-4.0-0.0","spark_pilot_2","7432","3","18","Female","","false","","","","","","[530]","./assets/img/space/3.jpg","[""ArrowDown""]","first stage practice","space","0","null","null","ArrowDown","false","","","","","","","",""
"html-keyboard-response","21","182616","0.0-4.0-4.0-1.0","spark_pilot_2","7432","3","18","Female","","","","","","","","null","<div style=""font-size:60px;"">+</div>","null","fixation","","","","","","","","","","","","","",""
"revaluation","22","186621","0.0-4.0-4.0-0.1","spark_pilot_2","7432","3","18","Female","","false","","","","","","[494]","./assets/img/space/4.jpg","[""ArrowDown""]","first stage practice","space","0","null","null","ArrowDown","false","","","","","","","",""
"html-keyboard-response","23","187123","0.0-4.0-4.0-1.1","spark_pilot_2","7432","3","18","Female","","","","","","","","null","<div style=""font-size:60px;"">+</div>","null","fixation","","","","","","","","","","","","","",""
"revaluation","24","191127","0.0-4.0-4.0-0.2","spark_pilot_2","7432","3","18","Female","","false","","","","","","[954]","./assets/img/space/5.jpg","[""ArrowDown""]","first stage practice","space","0","null","null","ArrowDown","false","","","","","","","",""
"html-keyboard-response","25","191629","0.0-4.0-4.0-1.2","spark_pilot_2","7432","3","18","Female","","","","","","","","null","<div style=""font-size:60px;"">+</div>","null","fixation","","","","","","","","","","","","","",""
"learning-instructions","26","202442","0.0-4.0-5.0-0.0","spark_pilot_2","7432","3","18","Female","","","","","","","","986.0000000000291","<p> The animals don’t move, so the animal in the upper part of a place will stay in the upper part of a place, and the animal in the lower part of a place will stay in the lower part of a place. </p>","","instructions","","","","","","","","","","","","","",""
"learning-instructions","27","215324","0.0-4.0-5.0-0.1","spark_pilot_2","7432","3","18","Female","","","","","","","","3778","<p> Each animal has two treasure chests for you to choose from. </p>
            <p> The amount of treasure in each chest can range from <b> 0 to 40 pieces.</b></p>","","instructions","","","","","","","","","","","","","",""
"learning-instructions","28","229606","0.0-4.0-5.0-0.2","spark_pilot_2","7432","3","18","Female","","","","","","","","1105.999999999971","<p> You should decide which chest to search for treasure by using the <b>left</b> and <b>right</b> arrow keys. </p>
            <p><b> Pay attention to which animal is on the screen, as the animals have different treasure chests. </b></p>
            <img src='./assets/img/instructions/leftright.jpg' class='instructions-image'>","","instructions","","","","","","","","","","","","","",""
"learning-instructions","29","236823","0.0-4.0-5.0-0.3","spark_pilot_2","7432","3","18","Female","","","","","","","","872.0000000000291","<p> Let’s try practicing that now. </p>
            <p> When you see an animal, choose which chest to search for treasure. </p>
            <img src='./assets/img/instructions/chooseChest.jpg' class='instructions-image'>","","instructions","","","","","","","","","","","","","",""
"revaluation","30","240830","0.0-4.0-6.0-0.0","spark_pilot_2","7432","3","18","Female","","false","","","","","","[914]","./assets/img/space/animals/rabbit.jpg","[""ArrowRight""]","second stage practice","space","23","{""ArrowUp,ArrowLeft"":3,""ArrowUp,ArrowRight"":36,""ArrowDown,ArrowLeft"":15,""ArrowDown,ArrowRight"":23}","true","ArrowDown,ArrowRight","","","","","","","","",""
"html-keyboard-response","31","241332","0.0-4.0-6.0-1.0","spark_pilot_2","7432","3","18","Female","","","","","","","","null","<div style=""font-size:60px;"">+</div>","null","fixation","","","","","","","","","","","","","",""
"revaluation","32","245337","0.0-4.0-6.0-0.1","spark_pilot_2","7432","3","18","Female","","false","","","","","","[1269.999999999971]","./assets/img/space/animals/cat.jpg","[""ArrowRight""]","second stage practice","space","36","{""ArrowUp,ArrowLeft"":3,""ArrowUp,ArrowRight"":36,""ArrowDown,ArrowLeft"":15,""ArrowDown,ArrowRight"":23}","true","ArrowUp,ArrowRight","","","","","","","","",""
"html-keyboard-response","33","245838","0.0-4.0-6.0-1.1","spark_pilot_2","7432","3","18","Female","","","","","","","","null","<div style=""font-size:60px;"">+</div>","null","fixation","","","","","","","","","","","","","",""
"revaluation","34","249843","0.0-4.0-6.0-0.2","spark_pilot_2","7432","3","18","Female","","false","","","","","","[652.9999999999709]","./assets/img/space/animals/rabbit.jpg","[""ArrowLeft""]","second stage practice","space","15","{""ArrowUp,ArrowLeft"":3,""ArrowUp,ArrowRight"":36,""ArrowDown,ArrowLeft"":15,""ArrowDown,ArrowRight"":23}","false","ArrowDown,ArrowLeft","","","","","","","","",""
"html-keyboard-response","35","250345","0.0-4.0-6.0-1.2","spark_pilot_2","7432","3","18","Female","","","","","","","","null","<div style=""font-size:60px;"">+</div>","null","fixation","","","","","","","","","","","","","",""
"revaluation","36","254350","0.0-4.0-6.0-0.3","spark_pilot_2","7432","3","18","Female","","false","","","","","","[1339]","./assets/img/space/animals/cat.jpg","[""ArrowRight""]","second stage practice","space","36","{""ArrowUp,ArrowLeft"":3,""ArrowUp,ArrowRight"":36,""ArrowDown,ArrowLeft"":15,""ArrowDown,ArrowRight"":23}","true","ArrowUp,ArrowRight","","","","","","","","",""
"html-keyboard-response","37","254851","0.0-4.0-6.0-1.3","spark_pilot_2","7432","3","18","Female","","","","","","","","null","<div style=""font-size:60px;"">+</div>","null","fixation","","","","","","","","","","","","","",""
"learning-instructions","38","279888","0.0-4.0-7.0-0.0","spark_pilot_2","7432","3","18","Female","","","","","","","","8252","<p> Great job. Now let’s try putting it together. </p>
            <p> On each turn, you will first see a picture to remind you of the place you are in, and you need to choose whether to go up or down. </p>
            <p> Then you will see an animal and choose which of its chests to search for treasure. </p>","","instructions","","","","","","","","","","","","","",""
"learning-instructions","39","289336","0.0-4.0-7.0-0.1","spark_pilot_2","7432","3","18","Female","","","","","","","","1213","<p> When you choose whether to go up or down, try to go to the animal with the chest with the most treasure. </p>
            <p> Try practicing that now! </p>","","instructions","","","","","","","","","","","","","",""
"revaluation","40","295341","0.0-4.0-8.0-0.0","spark_pilot_2","7432","3","18","Female","","false","","","","","","[683,983]","./assets/img/space/6.jpg","[""ArrowUp"",""ArrowRight""]","full practice","space","36","{""ArrowUp,ArrowLeft"":3,""ArrowUp,ArrowRight"":36,""ArrowDown,ArrowLeft"":15,""ArrowDown,ArrowRight"":23}","true","ArrowUp,ArrowRight","false","","","","","","","",""
"html-keyboard-response","41","295843","0.0-4.0-8.0-1.0","spark_pilot_2","7432","3","18","Female","","","","","","","","null","<div style=""font-size:60px;"">+</div>","null","fixation","","","","","","","","","","","","","",""
"revaluation","42","301849","0.0-4.0-8.0-0.1","spark_pilot_2","7432","3","18","Female","","false","","","","","","[1016,1610]","./assets/img/space/7.jpg","[""ArrowDown"",""ArrowLeft""]","full practice","space","15","{""ArrowUp,ArrowLeft"":3,""ArrowUp,ArrowRight"":36,""ArrowDown,ArrowLeft"":15,""ArrowDown,ArrowRight"":23}","false","ArrowDown,ArrowLeft","false","","","","","","","",""
"html-keyboard-response","43","302351","0.0-4.0-8.0-1.1","spark_pilot_2","7432","3","18","Female","","","","","","","","null","<div style=""font-size:60px;"">+</div>","null","fixation","","","","","","","","","","","","","",""
"revaluation","44","308357","0.0-4.0-8.0-0.2","spark_pilot_2","7432","3","18","Female","","false","","","","","","[966.9999999999418,635]","./assets/img/space/8.jpg","[""ArrowDown"",""ArrowRight""]","full practice","space","23","{""ArrowUp,ArrowLeft"":3,""ArrowUp,ArrowRight"":36,""ArrowDown,ArrowLeft"":15,""ArrowDown,ArrowRight"":23}","false","ArrowDown,ArrowRight","false","","","","","","","",""
"html-keyboard-response","45","308858","0.0-4.0-8.0-1.2","spark_pilot_2","7432","3","18","Female","","","","","","","","null","<div style=""font-size:60px;"">+</div>","null","fixation","","","","","","","","","","","","","",""
"revaluation","46","314864","0.0-4.0-8.0-0.3","spark_pilot_2","7432","3","18","Female","","false","","","","","","[428,500]","./assets/img/space/9.jpg","[""ArrowUp"",""ArrowRight""]","full practice","space","36","{""ArrowUp,ArrowLeft"":3,""ArrowUp,ArrowRight"":36,""ArrowDown,ArrowLeft"":15,""ArrowDown,ArrowRight"":23}","true","ArrowUp,ArrowRight","false","","","","","","","",""
"html-keyboard-response","47","315366","0.0-4.0-8.0-1.3","spark_pilot_2","7432","3","18","Female","","","","","","","","null","<div style=""font-size:60px;"">+</div>","null","fixation","","","","","","","","","","","","","",""
"revaluation","48","321371","0.0-4.0-8.0-0.4","spark_pilot_2","7432","3","18","Female","","false","","","","","","[444,1032]","./assets/img/space/10.jpg","[""ArrowUp"",""ArrowLeft""]","full practice","space","3","{""ArrowUp,ArrowLeft"":3,""ArrowUp,ArrowRight"":36,""ArrowDown,ArrowLeft"":15,""ArrowDown,ArrowRight"":23}","false","ArrowUp,ArrowLeft","false","","","","","","","",""
"html-keyboard-response","49","321873","0.0-4.0-8.0-1.4","spark_pilot_2","7432","3","18","Female","","","","","","","","null","<div style=""font-size:60px;"">+</div>","null","fixation","","","","","","","","","","","","","",""
"learning-instructions","50","333483","0.0-4.0-9.0-0.0","spark_pilot_2","7432","3","18","Female","","","","","","","","1320.0000000000582","<p> One last thing: sometimes, you will see a robber. The robber can be anywhere in the picture. </p>
            <p> If you do not stop them, you will lose treasure. </p>
            <img src='./assets/img/instructions/robber.jpg' class='instructions-image'>","","instructions","","","","","","","","","","","","","",""
"learning-instructions","51","341217","0.0-4.0-9.0-0.1","spark_pilot_2","7432","3","18","Female","","","","","","","","589.9999999999418","<p> If you see the robber, you should <b>press the space bar</b> rather than using the arrow keys. </p>
            <p> Try practicing that now! </p>","","instructions","","","","","","","","","","","","","",""
"revaluation","52","345221","0.0-4.0-10.0-0.0","spark_pilot_2","7432","3","18","Female","","false","","","","","","[577]","./assets/img/space/catch/0.jpg","[""spaceBar""]","catch practice","space","0","{""ArrowUp,ArrowLeft"":3,""ArrowUp,ArrowRight"":36,""ArrowDown,ArrowLeft"":15,""ArrowDown,ArrowRight"":23}","true","spaceBar","true","","","","","","","",""
"html-keyboard-response","53","345723","0.0-4.0-10.0-1.0","spark_pilot_2","7432","3","18","Female","","","","","","","","null","<div style=""font-size:60px;"">+</div>","null","fixation","","","","","","","","","","","","","",""
"revaluation","54","349727","0.0-4.0-10.0-0.1","spark_pilot_2","7432","3","18","Female","","false","","","","","","[484]","./assets/img/space/catch/1.jpg","[""spaceBar""]","catch practice","space","0","{""ArrowUp,ArrowLeft"":3,""ArrowUp,ArrowRight"":36,""ArrowDown,ArrowLeft"":15,""ArrowDown,ArrowRight"":23}","true","spaceBar","true","","","","","","","",""
"html-keyboard-response","55","350229","0.0-4.0-10.0-1.1","spark_pilot_2","7432","3","18","Female","","","","","","","","null","<div style=""font-size:60px;"">+</div>","null","fixation","","","","","","","","","","","","","",""
"revaluation","56","354233","0.0-4.0-10.0-0.2","spark_pilot_2","7432","3","18","Female","","false","","","","","","[451]","./assets/img/space/catch/2.jpg","[""spaceBar""]","catch practice","space","0","{""ArrowUp,ArrowLeft"":3,""ArrowUp,ArrowRight"":36,""ArrowDown,ArrowLeft"":15,""ArrowDown,ArrowRight"":23}","true","spaceBar","true","","","","","","","",""
"html-keyboard-response","57","354735","0.0-4.0-10.0-1.2","spark_pilot_2","7432","3","18","Female","","","","","","","","null","<div style=""font-size:60px;"">+</div>","null","fixation","","","","","","","","","","","","","",""
"learning-instructions","58","370631","0.0-4.0-11.0-0.0","spark_pilot_2","7432","3","18","Female","","","","","","","","2333.000000000058","<p> After you explore a place to find treasure, it will be time to play a different game. </p>
            <p> During this game, red dots will appear on the screen and fall down slowly. </p>
            <p><b> You must click on them before they reach the bottom. </b></p>
            <img src='./assets/img/instructions/dotGame.jpg' class='instructions-image'>","","instructions","","","","","","","","","","","","","",""
"learning-instructions","59","377914","0.0-4.0-11.0-0.1","spark_pilot_2","7432","3","18","Female","","","","","","","","698","<p> For every dot you click, you will earn additional treasure. </p>
            <p> Let’s try practicing that now. </p>","","instructions","","","","","","","","","","","","","",""
"revaluation","60","392916","0.0-4.0-12.0-0.0","spark_pilot_2","7432","3","18","Female","","","","","","","","[93]","","","rest practice","","10","","","","","0","15000","","","","","",""
"learning-instructions","61","401296","0.0-4.0-13.0-0.0-0.0","spark_pilot_2","7432","3","18","Female","","","","","","","","3155","<p> Now, you will practice a shortened version of the game to get a sense of how it all fits together. </p>","","instructions","","","","","","","","","","","","","",""
"learning-instructions","62","405029","0.0-4.0-13.0-0.0-0.1","spark_pilot_2","7432","3","18","Female","","","","","","","","561.0000000000582","<p>This time you are searching for treasure in outer space.</p>","","instructions","","","","","","","","","","","","","",""
"learning-instructions","63","420444","0.0-4.0-13.0-1.0-0.0","spark_pilot_2","7432","3","18","Female","","","","","","","","669","<p> Remember, when you see a picture of the place, use the up and down keys to <b>find an animal</b>.</p>
            <p> When you encounter an animal, you should use the left and right keys to <b>select a treasure chest</b>.</p>
            <p> Don't forget to look out for the robber! </p>","","instructions","","","","","","","","","","","","","",""
"revaluation","64","426449","0.0-4.0-13.0-2.0-0.0","spark_pilot_2","7432","3","18","Female","","false","","","","","","[786.0000000000582,421]","./assets/img/space/11.jpg","[""ArrowUp"",""ArrowRight""]","practice block","space","36","{""ArrowUp,ArrowLeft"":3,""ArrowUp,ArrowRight"":36,""ArrowDown,ArrowLeft"":15,""ArrowDown,ArrowRight"":23}","true","ArrowUp,ArrowRight","false","","","","","","","",""
"html-keyboard-response","65","426951","0.0-4.0-13.0-2.0-1.0","spark_pilot_2","7432","3","18","Female","","","","","","","","null","<div style=""font-size:60px;"">+</div>","null","fixation","","","","","","","","","","","","","",""
"revaluation","66","432956","0.0-4.0-13.0-2.0-0.1","spark_pilot_2","7432","3","18","Female","","false","","","","","","[693.9999999999418,647]","./assets/img/space/12.jpg","[""ArrowUp"",""ArrowRight""]","practice block","space","36","{""ArrowUp,ArrowLeft"":3,""ArrowUp,ArrowRight"":36,""ArrowDown,ArrowLeft"":15,""ArrowDown,ArrowRight"":23}","true","ArrowUp,ArrowRight","false","","","","","","","",""
"html-keyboard-response","67","433458","0.0-4.0-13.0-2.0-1.1","spark_pilot_2","7432","3","18","Female","","","","","","","","null","<div style=""font-size:60px;"">+</div>","null","fixation","","","","","","","","","","","","","",""
"revaluation","68","439463","0.0-4.0-13.0-2.0-0.2","spark_pilot_2","7432","3","18","Female","","false","","","","","","[1094,618]","./assets/img/space/13.jpg","[""ArrowUp"",""ArrowRight""]","practice block","space","36","{""ArrowUp,ArrowLeft"":3,""ArrowUp,ArrowRight"":36,""ArrowDown,ArrowLeft"":15,""ArrowDown,ArrowRight"":23}","true","ArrowUp,ArrowRight","false","","","","","","","",""
"html-keyboard-response","69","439965","0.0-4.0-13.0-2.0-1.2","spark_pilot_2","7432","3","18","Female","","","","","","","","null","<div style=""font-size:60px;"">+</div>","null","fixation","","","","","","","","","","","","","",""
"revaluation","70","445970","0.0-4.0-13.0-2.0-0.3","spark_pilot_2","7432","3","18","Female","","false","","","","","","[1503,503]","./assets/img/space/14.jpg","[""ArrowUp"",""ArrowRight""]","practice block","space","36","{""ArrowUp,ArrowLeft"":3,""ArrowUp,ArrowRight"":36,""ArrowDown,ArrowLeft"":15,""ArrowDown,ArrowRight"":23}","true","ArrowUp,ArrowRight","false","","","","","","","",""
"html-keyboard-response","71","446472","0.0-4.0-13.0-2.0-1.3","spark_pilot_2","7432","3","18","Female","","","","","","","","null","<div style=""font-size:60px;"">+</div>","null","fixation","","","","","","","","","","","","","",""
"revaluation","72","452477","0.0-4.0-13.0-2.0-0.4","spark_pilot_2","7432","3","18","Female","","false","","","","","","[1864,1050]","./assets/img/space/11.jpg","[""ArrowUp"",""ArrowRight""]","practice block","space","36","{""ArrowUp,ArrowLeft"":3,""ArrowUp,ArrowRight"":36,""ArrowDown,ArrowLeft"":15,""ArrowDown,ArrowRight"":23}","true","ArrowUp,ArrowRight","false","","","","","","","",""
"html-keyboard-response","73","452979","0.0-4.0-13.0-2.0-1.4","spark_pilot_2","7432","3","18","Female","","","","","","","","null","<div style=""font-size:60px;"">+</div>","null","fixation","","","","","","","","","","","","","",""
"revaluation","74","458984","0.0-4.0-13.0-2.0-0.5","spark_pilot_2","7432","3","18","Female","","false","","","","","","[1389.9999999999418,1189]","./assets/img/space/12.jpg","[""ArrowUp"",""ArrowRight""]","practice block","space","36","{""ArrowUp,ArrowLeft"":3,""ArrowUp,ArrowRight"":36,""ArrowDown,ArrowLeft"":15,""ArrowDown,ArrowRight"":23}","true","ArrowUp,ArrowRight","false","","","","","","","",""
"html-keyboard-response","75","459486","0.0-4.0-13.0-2.0-1.5","spark_pilot_2","7432","3","18","Female","","","","","","","","null","<div style=""font-size:60px;"">+</div>","null","fixation","","","","","","","","","","","","","",""
"revaluation","76","465491","0.0-4.0-13.0-2.0-0.6","spark_pilot_2","7432","3","18","Female","","false","","","","","","[1307,373]","./assets/img/space/13.jpg","[""ArrowUp"",""ArrowRight""]","practice block","space","36","{""ArrowUp,ArrowLeft"":3,""ArrowUp,ArrowRight"":36,""ArrowDown,ArrowLeft"":15,""ArrowDown,ArrowRight"":23}","true","ArrowUp,ArrowRight","false","","","","","","","",""
"html-keyboard-response","77","465993","0.0-4.0-13.0-2.0-1.6","spark_pilot_2","7432","3","18","Female","","","","","","","","null","<div style=""font-size:60px;"">+</div>","null","fixation","","","","","","","","","","","","","",""
"revaluation","78","471998","0.0-4.0-13.0-2.0-0.7","spark_pilot_2","7432","3","18","Female","","false","","","","","","[1200,447]","./assets/img/space/14.jpg","[""ArrowUp"",""ArrowRight""]","practice block","space","36","{""ArrowUp,ArrowLeft"":3,""ArrowUp,ArrowRight"":36,""ArrowDown,ArrowLeft"":15,""ArrowDown,ArrowRight"":23}","true","ArrowUp,ArrowRight","false","","","","","","","",""
"html-keyboard-response","79","472500","0.0-4.0-13.0-2.0-1.7","spark_pilot_2","7432","3","18","Female","","","","","","","","null","<div style=""font-size:60px;"">+</div>","null","fixation","","","","","","","","","","","","","",""
"revaluation","80","476504","0.0-4.0-13.0-2.0-0.8","spark_pilot_2","7432","3","18","Female","","false","","","","","","[605]","./assets/img/space/catch/3.jpg","[""spaceBar""]","practice block","space","0","{""ArrowUp,ArrowLeft"":3,""ArrowUp,ArrowRight"":36,""ArrowDown,ArrowLeft"":15,""ArrowDown,ArrowRight"":23}","true","spaceBar","true","","","","","","","",""
"html-keyboard-response","81","477005","0.0-4.0-13.0-2.0-1.8","spark_pilot_2","7432","3","18","Female","","","","","","","","null","<div style=""font-size:60px;"">+</div>","null","fixation","","","","","","","","","","","","","",""
"learning-instructions","82","491407","0.0-4.0-13.0-3.0-0.0","spark_pilot_2","7432","3","18","Female","","","","","","","","1512","<p> Now, you will travel with a friend who will choose whether you go up or down first. </p>
            <p> On these turns, you will just see the animal that they found. You will still get to choose which chest to search for treasure.</p>","","instructions","","","","","","","","","","","","","",""
"revaluation","83","495411","0.0-4.0-13.0-4.0-0.0","spark_pilot_2","7432","3","18","Female","","false","","","","","","[1202]","./assets/img/space/animals/rabbit.jpg","[""ArrowRight""]","practice block","space","23","{""ArrowUp,ArrowLeft"":3,""ArrowUp,ArrowRight"":36,""ArrowDown,ArrowLeft"":15,""ArrowDown,ArrowRight"":23}","true","ArrowDown,ArrowRight","","","","","","","","",""
"html-keyboard-response","84","495912","0.0-4.0-13.0-4.0-1.0","spark_pilot_2","7432","3","18","Female","","","","","","","","null","<div style=""font-size:60px;"">+</div>","null","fixation","","","","","","","","","","","","","",""
"revaluation","85","499916","0.0-4.0-13.0-4.0-0.1","spark_pilot_2","7432","3","18","Female","","false","","","","","","[879.9999999999418]","./assets/img/space/animals/cat.jpg","[""ArrowRight""]","practice block","space","36","{""ArrowUp,ArrowLeft"":3,""ArrowUp,ArrowRight"":36,""ArrowDown,ArrowLeft"":15,""ArrowDown,ArrowRight"":23}","true","ArrowUp,ArrowRight","","","","","","","","",""
"html-keyboard-response","86","500418","0.0-4.0-13.0-4.0-1.1","spark_pilot_2","7432","3","18","Female","","","","","","","","null","<div style=""font-size:60px;"">+</div>","null","fixation","","","","","","","","","","","","","",""
"revaluation","87","504422","0.0-4.0-13.0-4.0-0.2","spark_pilot_2","7432","3","18","Female","","false","","","","","","[917]","./assets/img/space/animals/rabbit.jpg","[""ArrowRight""]","practice block","space","23","{""ArrowUp,ArrowLeft"":3,""ArrowUp,ArrowRight"":36,""ArrowDown,ArrowLeft"":15,""ArrowDown,ArrowRight"":23}","true","ArrowDown,ArrowRight","","","","","","","","",""
"html-keyboard-response","88","504923","0.0-4.0-13.0-4.0-1.2","spark_pilot_2","7432","3","18","Female","","","","","","","","null","<div style=""font-size:60px;"">+</div>","null","fixation","","","","","","","","","","","","","",""
"revaluation","89","508927","0.0-4.0-13.0-4.0-0.3","spark_pilot_2","7432","3","18","Female","","false","","","","","","[625]","./assets/img/space/animals/cat.jpg","[""ArrowRight""]","practice block","space","36","{""ArrowUp,ArrowLeft"":3,""ArrowUp,ArrowRight"":36,""ArrowDown,ArrowLeft"":15,""ArrowDown,ArrowRight"":23}","true","ArrowUp,ArrowRight","","","","","","","","",""
"html-keyboard-response","90","509429","0.0-4.0-13.0-4.0-1.3","spark_pilot_2","7432","3","18","Female","","","","","","","","null","<div style=""font-size:60px;"">+</div>","null","fixation","","","","","","","","","","","","","",""
"learning-instructions","91","517639","0.0-4.0-13.0-5.0-0.0","spark_pilot_2","7432","3","18","Female","","","","","","","","865","<p> Time to play the dot game! </p>
            <p> For 15 seconds, click the red dots on the following screen as they appear. </p>","","instructions","","","","","","","","","","","","","",""
"revaluation","92","532641","0.0-4.0-13.0-6.0-0.0","spark_pilot_2","7432","3","18","Female","","","","","","","","[80]","","","rest practice","","10","","","","","0","15000","","","","","",""
"learning-instructions","93","540371","0.0-4.0-13.0-7.0-0.0","spark_pilot_2","7432","3","18","Female","","","","","","","","1620","<p> You have almost finished this part of the game! </p>
            <p> We are going to ask you to make a few more choices. </p>","","instructions","","","","","","","","","","","","","",""
"learning-instructions","94","557886","0.0-4.0-13.0-7.0-0.1","spark_pilot_2","7432","3","18","Female","","","","","","","","1605","<p> First, you need to decide whether to go up or down. When you see each picture, use the arrow keys to make your choice. </p>
            <p><b>You will not see which animal you found, but try to get to the one that will give you the most treasure.</b></p>","","instructions","","","","","","","","","","","","","",""
"revaluation","95","558911","0.0-4.0-13.0-8.0","spark_pilot_2","7432","3","18","Female","","false","","","","","","[1023]","./assets/img/space/15.jpg","[""ArrowUp""]","practice block","space","0","{""ArrowUp,ArrowLeft"":3,""ArrowUp,ArrowRight"":36,""ArrowDown,ArrowLeft"":15,""ArrowDown,ArrowRight"":23}","true","ArrowUp","false","","","","","","","",""
"html-keyboard-response","96","559413","0.0-4.0-13.0-9.0","spark_pilot_2","7432","3","18","Female","","","","","","","","null","<div style=""font-size:60px;"">+</div>","null","fixation","","","","","","","","","","","","","",""
"learning-instructions","97","571685","0.0-4.0-13.0-10.0-0.0","spark_pilot_2","7432","3","18","Female","","","","","","","","916","<p> Now you will see the animals again and can search their chests for treasure. </p>
            <p> This time, you will not see how much treasure you earned, but you will earn more bonus money for making better choices. </p>","","instructions","","","","","","","","","","","","","",""
"revaluation","98","572542","0.0-4.0-13.0-11.0-0.0","spark_pilot_2","7432","3","18","Female","","false","","","","","","[855]","./assets/img/space/animals/cat.jpg","[""ArrowRight""]","practice block","space","0","{""ArrowUp,ArrowLeft"":3,""ArrowUp,ArrowRight"":36,""ArrowDown,ArrowLeft"":15,""ArrowDown,ArrowRight"":23}","true","ArrowUp,ArrowRight","","","","","","","","",""
"html-keyboard-response","99","573044","0.0-4.0-13.0-11.0-1.0","spark_pilot_2","7432","3","18","Female","","","","","","","","null","<div style=""font-size:60px;"">+</div>","null","fixation","","","","","","","","","","","","","",""
"revaluation","100","574384","0.0-4.0-13.0-11.0-0.1","spark_pilot_2","7432","3","18","Female","","false","","","","","","[1338]","./assets/img/space/animals/rabbit.jpg","[""ArrowRight""]","practice block","space","0","{""ArrowUp,ArrowLeft"":3,""ArrowUp,ArrowRight"":36,""ArrowDown,ArrowLeft"":15,""ArrowDown,ArrowRight"":23}","true","ArrowDown,ArrowRight","","","","","","","","",""
"html-keyboard-response","101","574886","0.0-4.0-13.0-11.0-1.1","spark_pilot_2","7432","3","18","Female","","","","","","","","null","<div style=""font-size:60px;"">+</div>","null","fixation","","","","","","","","","","","","","",""
"learning-instructions","102","580185","0.0-4.0-14.0-0.0","spark_pilot_2","7432","3","18","Female","","","","","","","","736","<p> Before you start, we're going to ask you a few questions about how the game works. </p>","","instructions","","","","","","","","","","","","","",""
"comp-q","103","586901","0.0-4.0-15.0-0.0-0.0","spark_pilot_2","7432","3","18","Female","","","","","","","","1147.9999999998836","<p> <b> True or False? </b> </p>
            <p> There can be 50 pieces of treasure in a given animal's chest. </p>","1","comp_question","","","","true","","","","","","","","","",""
"comp-q","104","594617","0.0-4.0-15.0-0.0-1.0","spark_pilot_2","7432","3","18","Female","","","","","","","","1078","<p> <b> That's right! </b> The amount of treasure in each chest can range from 0 to 40 pieces. </p>","0","comp_answer","","","","","","","","","","","","","",""
"comp-q","105","604633","0.0-4.0-15.0-0.1-0.1","spark_pilot_2","7432","3","18","Female","","","","","","","","1913","<p> <b> True or False? </b> </p><p> In this game, all animals have the same amount of treasure in their left and right chests. </p>","1","comp_question","","","","true","","","","","","","","","",""
"comp-q","106","611616","0.0-4.0-15.0-0.1-1.1","spark_pilot_2","7432","3","18","Female","","","","","","","","1770","<p> <b> That's right! </b> Animals have different amounts of treasure in their treasure chests. </p>","0","comp_answer","","","","","","","","","","","","","",""
"comp-q","107","619232","0.0-4.0-15.0-0.2-0.2","spark_pilot_2","7432","3","18","Female","","","","","","","","953","<p> <b> True or False? </b> </p><p> The same animal will always be there if you go up in the same place. </p>","0","comp_question","","","","true","","","","","","","","","",""
"comp-q","108","626849","0.0-4.0-15.0-0.2-1.2","spark_pilot_2","7432","3","18","Female","","","","","","","","1187","<p> <b> That's right! </b> One animal lives in the upper part and one lives in the lower part of every place. </p>","0","comp_answer","","","","","","","","","","","","","",""
"comp-q","109","633098","0.0-4.0-15.0-0.3-0.3","spark_pilot_2","7432","3","18","Female","","","","","","","","741","<p> <b> True or False? </b> </p><p> If you see a different picture, it means you are in a new place. </p>","0","comp_question","","","","false","","","","","","","","","",""
"comp-q","110","648531","0.0-4.0-15.0-0.3-1.3","spark_pilot_2","7432","3","18","Female","","","","","","","","4362.000000000116","<p> <b>Incorrect.</b> Lots of different images may show the same place. For example,  you may see three different images that all remind you that you are in outer space. </p>","0","comp_answer","","","","","","","","","","","","","",""
"comp-q","111","655697","0.0-4.0-15.0-0.4-0.4","spark_pilot_2","7432","3","18","Female","","","","","","","","1665","<p> <b> True or False? </b> </p><p> If you see a different picture, it means you are in a new place. </p>","1","comp_question","","","","true","","","","","","","","","",""
"comp-q","112","667730","0.0-4.0-15.0-0.4-1.4","spark_pilot_2","7432","3","18","Female","","","","","","","","831","<p> <b> That's right! </b> Lots of different images may show the same place. For example,  you may see three different images that all remind you that you are in outer space. </p>","0","comp_answer","","","","","","","","","","","","","",""
"learning-instructions","113","680079","0.0-4.0-16.0-0.0","spark_pilot_2","7432","3","18","Female","","","","","","","","2519","<p> Good job. Remember to do your best because the amount of treasure you earn will be converted into bonus money. </p>
            <p> It’s time to start the real game! </p>","","instructions","","","","","","","","","","","","","",""
"learning-instructions","114","683495","0.0-5.0-0.0-0.0","spark_pilot_2","7432","3","18","Female","","","","","","","","725.0000000001164","<p> This time you are searching for treasure in the <b>ocean</b>.</p>","","instructions","","","","","","","","","","","","","",""
"learning-instructions","115","701627","0.0-5.0-0.0-0.1","spark_pilot_2","7432","3","18","Female","","","","","","","","868","<p><b>New</b> animals with <b>new</b> treasure chests live here. You need to explore to discover where the animal with the best treasure chest is.</p>
                    <p> Like before, once you figure out which animal has the chest with the most treasure, you should try to get to that animal and select that chest! </p>","","instructions","","","","","","","","","","","","","",""
"learning-instructions","116","717676","0.0-5.0-1.0-0.0","spark_pilot_2","7432","3","18","Female","","","","","","","","1317","<p> Remember, when you see a picture of the place, use the up and down keys to <b>find an animal</b>.</p>
            <p> When you encounter an animal, you should use the left and right keys to <b>select a treasure chest</b>.</p>
            <p> Don't forget to look out for the robber! </p>","","instructions","","","","","","","","","","","","","",""
"revaluation","117","723682","0.0-5.0-2.0-0.0","spark_pilot_2","7432","3","18","Female","","false","","","","","","[1149.9999999998836,714.0000000001164]","./assets/img/ocean/memory/36.jpg","[""ArrowDown"",""ArrowLeft""]","value training","ocean","8","{""ArrowUp,ArrowLeft"":23,""ArrowUp,ArrowRight"":10,""ArrowDown,ArrowLeft"":8,""ArrowDown,ArrowRight"":30}","false","ArrowDown,ArrowLeft","false","","","original","1","0","","",""
"html-keyboard-response","118","724185","0.0-5.0-2.0-1.0","spark_pilot_2","7432","3","18","Female","","","","","","","","null","<div style=""font-size:60px;"">+</div>","null","fixation","","","","","","","","","","","1","","",""
"revaluation","119","730190","0.0-5.0-2.0-0.1","spark_pilot_2","7432","3","18","Female","","false","","","","","","[528,637]","./assets/img/ocean/memory/16.jpg","[""ArrowUp"",""ArrowRight""]","value training","ocean","10","{""ArrowUp,ArrowLeft"":23,""ArrowUp,ArrowRight"":10,""ArrowDown,ArrowLeft"":8,""ArrowDown,ArrowRight"":30}","false","ArrowUp,ArrowRight","false","","","original","1","2","","",""
"html-keyboard-response","120","730692","0.0-5.0-2.0-1.1","spark_pilot_2","7432","3","18","Female","","","","","","","","null","<div style=""font-size:60px;"">+</div>","null","fixation","","","","","","","","","","","3","","",""
"revaluation","121","736697","0.0-5.0-2.0-0.2","spark_pilot_2","7432","3","18","Female","","false","","","","","","[1151,627.0000000001164]","./assets/img/ocean/memory/41.jpg","[""ArrowDown"",""ArrowRight""]","value training","ocean","30","{""ArrowUp,ArrowLeft"":23,""ArrowUp,ArrowRight"":10,""ArrowDown,ArrowLeft"":8,""ArrowDown,ArrowRight"":30}","true","ArrowDown,ArrowRight","false","","","original","1","4","","",""
"html-keyboard-response","122","737198","0.0-5.0-2.0-1.2","spark_pilot_2","7432","3","18","Female","","","","","","","","null","<div style=""font-size:60px;"">+</div>","null","fixation","","","","","","","","","","","5","","",""
"revaluation","123","743204","0.0-5.0-2.0-0.3","spark_pilot_2","7432","3","18","Female","","false","","","","","","[605,812.9999999998836]","./assets/img/ocean/memory/30.jpg","[""ArrowUp"",""ArrowLeft""]","value training","ocean","23","{""ArrowUp,ArrowLeft"":23,""ArrowUp,ArrowRight"":10,""ArrowDown,ArrowLeft"":8,""ArrowDown,ArrowRight"":30}","false","ArrowUp,ArrowLeft","false","","","original","1","6","","",""
"html-keyboard-response","124","743705","0.0-5.0-2.0-1.3","spark_pilot_2","7432","3","18","Female","","","","","","","","null","<div style=""font-size:60px;"">+</div>","null","fixation","","","","","","","","","","","7","","",""
"revaluation","125","747709","0.0-5.0-2.0-0.4","spark_pilot_2","7432","3","18","Female","","false","","","","","","[739.0000000001164]","./assets/img/ocean/catch/7.jpg","[""spaceBar""]","value training","ocean","0","{""ArrowUp,ArrowLeft"":23,""ArrowUp,ArrowRight"":10,""ArrowDown,ArrowLeft"":8,""ArrowDown,ArrowRight"":30}","true","spaceBar","true","","","original","1","8","","",""
"html-keyboard-response","126","748211","0.0-5.0-2.0-1.4","spark_pilot_2","7432","3","18","Female","","","","","","","","null","<div style=""font-size:60px;"">+</div>","null","fixation","","","","","","","","","","","9","","",""
"revaluation","127","754216","0.0-5.0-2.0-0.5","spark_pilot_2","7432","3","18","Female","","false","","","","","","[442,491]","./assets/img/ocean/memory/19.jpg","[""ArrowDown"",""ArrowRight""]","value training","ocean","30","{""ArrowUp,ArrowLeft"":23,""ArrowUp,ArrowRight"":10,""ArrowDown,ArrowLeft"":8,""ArrowDown,ArrowRight"":30}","true","ArrowDown,ArrowRight","false","","","original","1","10","","",""
"html-keyboard-response","128","754718","0.0-5.0-2.0-1.5","spark_pilot_2","7432","3","18","Female","","","","","","","","null","<div style=""font-size:60px;"">+</div>","null","fixation","","","","","","","","","","","11","","",""
"revaluation","129","760723","0.0-5.0-2.0-0.6","spark_pilot_2","7432","3","18","Female","","false","","","","","","[880,400]","./assets/img/ocean/memory/40.jpg","[""ArrowDown"",""ArrowRight""]","value training","ocean","30","{""ArrowUp,ArrowLeft"":23,""ArrowUp,ArrowRight"":10,""ArrowDown,ArrowLeft"":8,""ArrowDown,ArrowRight"":30}","true","ArrowDown,ArrowRight","false","","","original","1","12","","",""
"html-keyboard-response","130","761225","0.0-5.0-2.0-1.6","spark_pilot_2","7432","3","18","Female","","","","","","","","null","<div style=""font-size:60px;"">+</div>","null","fixation","","","","","","","","","","","13","","",""
"revaluation","131","767231","0.0-5.0-2.0-0.7","spark_pilot_2","7432","3","18","Female","","false","","","","","","[1012,397]","./assets/img/ocean/memory/27.jpg","[""ArrowDown"",""ArrowRight""]","value training","ocean","30","{""ArrowUp,ArrowLeft"":23,""ArrowUp,ArrowRight"":10,""ArrowDown,ArrowLeft"":8,""ArrowDown,ArrowRight"":30}","true","ArrowDown,ArrowRight","false","","","original","1","14","","",""
"html-keyboard-response","132","767732","0.0-5.0-2.0-1.7","spark_pilot_2","7432","3","18","Female","","","","","","","","null","<div style=""font-size:60px;"">+</div>","null","fixation","","","","","","","","","","","15","","",""
"revaluation","133","773738","0.0-5.0-2.0-0.8","spark_pilot_2","7432","3","18","Female","","false","","","","","","[861.0000000001164,396]","./assets/img/ocean/memory/13.jpg","[""ArrowDown"",""ArrowRight""]","value training","ocean","30","{""ArrowUp,ArrowLeft"":23,""ArrowUp,ArrowRight"":10,""ArrowDown,ArrowLeft"":8,""ArrowDown,ArrowRight"":30}","true","ArrowDown,ArrowRight","false","","","original","1","16","","",""
"html-keyboard-response","134","774240","0.0-5.0-2.0-1.8","spark_pilot_2","7432","3","18","Female","","","","","","","","null","<div style=""font-size:60px;"">+</div>","null","fixation","","","","","","","","","","","17","","",""
"revaluation","135","780245","0.0-5.0-2.0-0.9","spark_pilot_2","7432","3","18","Female","","false","","","","","","[984,419]","./assets/img/ocean/memory/33.jpg","[""ArrowDown"",""ArrowRight""]","value training","ocean","30","{""ArrowUp,ArrowLeft"":23,""ArrowUp,ArrowRight"":10,""ArrowDown,ArrowLeft"":8,""ArrowDown,ArrowRight"":30}","true","ArrowDown,ArrowRight","false","","","original","1","18","","",""
"html-keyboard-response","136","780747","0.0-5.0-2.0-1.9","spark_pilot_2","7432","3","18","Female","","","","","","","","null","<div style=""font-size:60px;"">+</div>","null","fixation","","","","","","","","","","","19","","",""
"revaluation","137","786752","0.0-5.0-2.0-0.10","spark_pilot_2","7432","3","18","Female","","false","","","","","","[897.9999999998836,517]","./assets/img/ocean/memory/9.jpg","[""ArrowDown"",""ArrowRight""]","value training","ocean","30","{""ArrowUp,ArrowLeft"":23,""ArrowUp,ArrowRight"":10,""ArrowDown,ArrowLeft"":8,""ArrowDown,ArrowRight"":30}","true","ArrowDown,ArrowRight","false","","","original","1","20","","",""
"html-keyboard-response","138","787254","0.0-5.0-2.0-1.10","spark_pilot_2","7432","3","18","Female","","","","","","","","null","<div style=""font-size:60px;"">+</div>","null","fixation","","","","","","","","","","","21","","",""
"revaluation","139","793259","0.0-5.0-2.0-0.11","spark_pilot_2","7432","3","18","Female","","false","","","","","","[855,443]","./assets/img/ocean/memory/30.jpg","[""ArrowDown"",""ArrowRight""]","value training","ocean","30","{""ArrowUp,ArrowLeft"":23,""ArrowUp,ArrowRight"":10,""ArrowDown,ArrowLeft"":8,""ArrowDown,ArrowRight"":30}","true","ArrowDown,ArrowRight","false","","","original","1","22","","",""
"html-keyboard-response","140","793761","0.0-5.0-2.0-1.11","spark_pilot_2","7432","3","18","Female","","","","","","","","null","<div style=""font-size:60px;"">+</div>","null","fixation","","","","","","","","","","","23","","",""
"revaluation","141","799766","0.0-5.0-2.0-0.12","spark_pilot_2","7432","3","18","Female","","false","","","","","","[936,437]","./assets/img/ocean/memory/25.jpg","[""ArrowDown"",""ArrowRight""]","value training","ocean","30","{""ArrowUp,ArrowLeft"":23,""ArrowUp,ArrowRight"":10,""ArrowDown,ArrowLeft"":8,""ArrowDown,ArrowRight"":30}","true","ArrowDown,ArrowRight","false","","","original","1","24","","",""
"html-keyboard-response","142","800268","0.0-5.0-2.0-1.12","spark_pilot_2","7432","3","18","Female","","","","","","","","null","<div style=""font-size:60px;"">+</div>","null","fixation","","","","","","","","","","","25","","",""
"revaluation","143","806273","0.0-5.0-2.0-0.13","spark_pilot_2","7432","3","18","Female","","false","","","","","","[969,655.0000000001164]","./assets/img/ocean/memory/32.jpg","[""ArrowDown"",""ArrowRight""]","value training","ocean","30","{""ArrowUp,ArrowLeft"":23,""ArrowUp,ArrowRight"":10,""ArrowDown,ArrowLeft"":8,""ArrowDown,ArrowRight"":30}","true","ArrowDown,ArrowRight","false","","","original","1","26","","",""
"html-keyboard-response","144","806775","0.0-5.0-2.0-1.13","spark_pilot_2","7432","3","18","Female","","","","","","","","null","<div style=""font-size:60px;"">+</div>","null","fixation","","","","","","","","","","","27","","",""
"revaluation","145","812780","0.0-5.0-2.0-0.14","spark_pilot_2","7432","3","18","Female","","false","","","","","","[1039.9999999998836,662.0000000001164]","./assets/img/ocean/memory/25.jpg","[""ArrowDown"",""ArrowRight""]","value training","ocean","30","{""ArrowUp,ArrowLeft"":23,""ArrowUp,ArrowRight"":10,""ArrowDown,ArrowLeft"":8,""ArrowDown,ArrowRight"":30}","true","ArrowDown,ArrowRight","false","","","original","1","28","","",""
"html-keyboard-response","146","813282","0.0-5.0-2.0-1.14","spark_pilot_2","7432","3","18","Female","","","","","","","","null","<div style=""font-size:60px;"">+</div>","null","fixation","","","","","","","","","","","29","","",""
"revaluation","147","819287","0.0-5.0-2.0-0.15","spark_pilot_2","7432","3","18","Female","","false","","","","","","[829.0000000001164,387]","./assets/img/ocean/memory/39.jpg","[""ArrowDown"",""ArrowRight""]","value training","ocean","30","{""ArrowUp,ArrowLeft"":23,""ArrowUp,ArrowRight"":10,""ArrowDown,ArrowLeft"":8,""ArrowDown,ArrowRight"":30}","true","ArrowDown,ArrowRight","false","","","original","1","30","","",""
"html-keyboard-response","148","819789","0.0-5.0-2.0-1.15","spark_pilot_2","7432","3","18","Female","","","","","","","","null","<div style=""font-size:60px;"">+</div>","null","fixation","","","","","","","","","","","31","","",""
"revaluation","149","825793","0.0-5.0-2.0-0.16","spark_pilot_2","7432","3","18","Female","","false","","","","","","[828.9999999998836,427.0000000001164]","./assets/img/ocean/memory/27.jpg","[""ArrowDown"",""ArrowRight""]","value training","ocean","30","{""ArrowUp,ArrowLeft"":23,""ArrowUp,ArrowRight"":10,""ArrowDown,ArrowLeft"":8,""ArrowDown,ArrowRight"":30}","true","ArrowDown,ArrowRight","false","","","original","1","32","","",""
"html-keyboard-response","150","826295","0.0-5.0-2.0-1.16","spark_pilot_2","7432","3","18","Female","","","","","","","","null","<div style=""font-size:60px;"">+</div>","null","fixation","","","","","","","","","","","33","","",""
"revaluation","151","832300","0.0-5.0-2.0-0.17","spark_pilot_2","7432","3","18","Female","","false","","","","","","[1001,438]","./assets/img/ocean/memory/26.jpg","[""ArrowDown"",""ArrowRight""]","value training","ocean","30","{""ArrowUp,ArrowLeft"":23,""ArrowUp,ArrowRight"":10,""ArrowDown,ArrowLeft"":8,""ArrowDown,ArrowRight"":30}","true","ArrowDown,ArrowRight","false","","","original","1","34","","",""
"html-keyboard-response","152","832802","0.0-5.0-2.0-1.17","spark_pilot_2","7432","3","18","Female","","","","","","","","null","<div style=""font-size:60px;"">+</div>","null","fixation","","","","","","","","","","","35","","",""
"revaluation","153","838806","0.0-5.0-2.0-0.18","spark_pilot_2","7432","3","18","Female","","false","","","","","","[1071,617]","./assets/img/ocean/memory/34.jpg","[""ArrowDown"",""ArrowRight""]","value training","ocean","30","{""ArrowUp,ArrowLeft"":23,""ArrowUp,ArrowRight"":10,""ArrowDown,ArrowLeft"":8,""ArrowDown,ArrowRight"":30}","true","ArrowDown,ArrowRight","false","","","original","1","36","","",""
"html-keyboard-response","154","839308","0.0-5.0-2.0-1.18","spark_pilot_2","7432","3","18","Female","","","","","","","","null","<div style=""font-size:60px;"">+</div>","null","fixation","","","","","","","","","","","37","","",""
"revaluation","155","845313","0.0-5.0-2.0-0.19","spark_pilot_2","7432","3","18","Female","","false","","","","","","[1266,514.0000000001164]","./assets/img/ocean/memory/38.jpg","[""ArrowDown"",""ArrowRight""]","value training","ocean","30","{""ArrowUp,ArrowLeft"":23,""ArrowUp,ArrowRight"":10,""ArrowDown,ArrowLeft"":8,""ArrowDown,ArrowRight"":30}","true","ArrowDown,ArrowRight","false","","","original","1","38","","",""
"html-keyboard-response","156","845815","0.0-5.0-2.0-1.19","spark_pilot_2","7432","3","18","Female","","","","","","","","null","<div style=""font-size:60px;"">+</div>","null","fixation","","","","","","","","","","","39","","",""
"revaluation","157","849819","0.0-5.0-2.0-0.20","spark_pilot_2","7432","3","18","Female","","false","","","","","","[611]","./assets/img/ocean/catch/3.jpg","[""spaceBar""]","value training","ocean","0","{""ArrowUp,ArrowLeft"":23,""ArrowUp,ArrowRight"":10,""ArrowDown,ArrowLeft"":8,""ArrowDown,ArrowRight"":30}","true","spaceBar","true","","","original","1","40","","",""
"html-keyboard-response","158","850321","0.0-5.0-2.0-1.20","spark_pilot_2","7432","3","18","Female","","","","","","","","null","<div style=""font-size:60px;"">+</div>","null","fixation","","","","","","","","","","","41","","",""
"revaluation","159","856326","0.0-5.0-2.0-0.21","spark_pilot_2","7432","3","18","Female","","false","","","","","","[758,406.9999999998836]","./assets/img/ocean/memory/40.jpg","[""ArrowDown"",""ArrowRight""]","value training","ocean","30","{""ArrowUp,ArrowLeft"":23,""ArrowUp,ArrowRight"":10,""ArrowDown,ArrowLeft"":8,""ArrowDown,ArrowRight"":30}","true","ArrowDown,ArrowRight","false","","","original","1","42","","",""
"html-keyboard-response","160","856828","0.0-5.0-2.0-1.21","spark_pilot_2","7432","3","18","Female","","","","","","","","null","<div style=""font-size:60px;"">+</div>","null","fixation","","","","","","","","","","","43","","",""
"revaluation","161","862833","0.0-5.0-2.0-0.22","spark_pilot_2","7432","3","18","Female","","false","","","","","","[718,372]","./assets/img/ocean/memory/41.jpg","[""ArrowDown"",""ArrowRight""]","value training","ocean","30","{""ArrowUp,ArrowLeft"":23,""ArrowUp,ArrowRight"":10,""ArrowDown,ArrowLeft"":8,""ArrowDown,ArrowRight"":30}","true","ArrowDown,ArrowRight","false","","","original","1","44","","",""
"html-keyboard-response","162","863335","0.0-5.0-2.0-1.22","spark_pilot_2","7432","3","18","Female","","","","","","","","null","<div style=""font-size:60px;"">+</div>","null","fixation","","","","","","","","","","","45","","",""
"revaluation","163","869340","0.0-5.0-2.0-0.23","spark_pilot_2","7432","3","18","Female","","false","","","","","","[773,404]","./assets/img/ocean/memory/12.jpg","[""ArrowDown"",""ArrowRight""]","value training","ocean","30","{""ArrowUp,ArrowLeft"":23,""ArrowUp,ArrowRight"":10,""ArrowDown,ArrowLeft"":8,""ArrowDown,ArrowRight"":30}","true","ArrowDown,ArrowRight","false","","","original","1","46","","",""
"html-keyboard-response","164","869841","0.0-5.0-2.0-1.23","spark_pilot_2","7432","3","18","Female","","","","","","","","null","<div style=""font-size:60px;"">+</div>","null","fixation","","","","","","","","","","","47","","",""
"revaluation","165","875847","0.0-5.0-2.0-0.24","spark_pilot_2","7432","3","18","Female","","false","","","","","","[630,380]","./assets/img/ocean/memory/12.jpg","[""ArrowDown"",""ArrowRight""]","value training","ocean","30","{""ArrowUp,ArrowLeft"":23,""ArrowUp,ArrowRight"":10,""ArrowDown,ArrowLeft"":8,""ArrowDown,ArrowRight"":30}","true","ArrowDown,ArrowRight","false","","","original","1","48","","",""
"html-keyboard-response","166","876348","0.0-5.0-2.0-1.24","spark_pilot_2","7432","3","18","Female","","","","","","","","null","<div style=""font-size:60px;"">+</div>","null","fixation","","","","","","","","","","","49","","",""
"revaluation","167","882354","0.0-5.0-2.0-0.25","spark_pilot_2","7432","3","18","Female","","false","","","","","","[859,802]","./assets/img/ocean/memory/28.jpg","[""ArrowDown"",""ArrowRight""]","value training","ocean","30","{""ArrowUp,ArrowLeft"":23,""ArrowUp,ArrowRight"":10,""ArrowDown,ArrowLeft"":8,""ArrowDown,ArrowRight"":30}","true","ArrowDown,ArrowRight","false","","","original","1","50","","",""
"html-keyboard-response","168","882855","0.0-5.0-2.0-1.25","spark_pilot_2","7432","3","18","Female","","","","","","","","null","<div style=""font-size:60px;"">+</div>","null","fixation","","","","","","","","","","","51","","",""
"revaluation","169","888860","0.0-5.0-2.0-0.26","spark_pilot_2","7432","3","18","Female","","false","","","","","","[833,390]","./assets/img/ocean/memory/35.jpg","[""ArrowDown"",""ArrowRight""]","value training","ocean","30","{""ArrowUp,ArrowLeft"":23,""ArrowUp,ArrowRight"":10,""ArrowDown,ArrowLeft"":8,""ArrowDown,ArrowRight"":30}","true","ArrowDown,ArrowRight","false","","","original","1","52","","",""
"html-keyboard-response","170","889361","0.0-5.0-2.0-1.26","spark_pilot_2","7432","3","18","Female","","","","","","","","null","<div style=""font-size:60px;"">+</div>","null","fixation","","","","","","","","","","","53","","",""
"revaluation","171","895366","0.0-5.0-2.0-0.27","spark_pilot_2","7432","3","18","Female","","false","","","","","","[713,631]","./assets/img/ocean/memory/35.jpg","[""ArrowDown"",""ArrowRight""]","value training","ocean","30","{""ArrowUp,ArrowLeft"":23,""ArrowUp,ArrowRight"":10,""ArrowDown,ArrowLeft"":8,""ArrowDown,ArrowRight"":30}","true","ArrowDown,ArrowRight","false","","","original","1","54","","",""
"html-keyboard-response","172","895868","0.0-5.0-2.0-1.27","spark_pilot_2","7432","3","18","Female","","","","","","","","null","<div style=""font-size:60px;"">+</div>","null","fixation","","","","","","","","","","","55","","",""
"revaluation","173","901872","0.0-5.0-2.0-0.28","spark_pilot_2","7432","3","18","Female","","false","","","","","","[747.0000000001164,464]","./assets/img/ocean/memory/36.jpg","[""ArrowDown"",""ArrowRight""]","value training","ocean","30","{""ArrowUp,ArrowLeft"":23,""ArrowUp,ArrowRight"":10,""ArrowDown,ArrowLeft"":8,""ArrowDown,ArrowRight"":30}","true","ArrowDown,ArrowRight","false","","","original","1","56","","",""
"html-keyboard-response","174","902374","0.0-5.0-2.0-1.28","spark_pilot_2","7432","3","18","Female","","","","","","","","null","<div style=""font-size:60px;"">+</div>","null","fixation","","","","","","","","","","","57","","",""
"revaluation","175","908379","0.0-5.0-2.0-0.29","spark_pilot_2","7432","3","18","Female","","false","","","","","","[744,400.9999999998836]","./assets/img/ocean/memory/17.jpg","[""ArrowDown"",""ArrowRight""]","value training","ocean","30","{""ArrowUp,ArrowLeft"":23,""ArrowUp,ArrowRight"":10,""ArrowDown,ArrowLeft"":8,""ArrowDown,ArrowRight"":30}","true","ArrowDown,ArrowRight","false","","","original","1","58","","",""
"html-keyboard-response","176","908881","0.0-5.0-2.0-1.29","spark_pilot_2","7432","3","18","Female","","","","","","","","null","<div style=""font-size:60px;"">+</div>","null","fixation","","","","","","","","","","","59","","",""
"revaluation","177","914885","0.0-5.0-2.0-0.30","spark_pilot_2","7432","3","18","Female","","false","","","","","","[725,379]","./assets/img/ocean/memory/26.jpg","[""ArrowDown"",""ArrowRight""]","value training","ocean","30","{""ArrowUp,ArrowLeft"":23,""ArrowUp,ArrowRight"":10,""ArrowDown,ArrowLeft"":8,""ArrowDown,ArrowRight"":30}","true","ArrowDown,ArrowRight","false","","","original","1","60","","",""
"html-keyboard-response","178","915387","0.0-5.0-2.0-1.30","spark_pilot_2","7432","3","18","Female","","","","","","","","null","<div style=""font-size:60px;"">+</div>","null","fixation","","","","","","","","","","","61","","",""
"revaluation","179","919391","0.0-5.0-2.0-0.31","spark_pilot_2","7432","3","18","Female","","false","","","","","","[908]","./assets/img/ocean/catch/1.jpg","[""spaceBar""]","value training","ocean","0","{""ArrowUp,ArrowLeft"":23,""ArrowUp,ArrowRight"":10,""ArrowDown,ArrowLeft"":8,""ArrowDown,ArrowRight"":30}","true","spaceBar","true","","","original","1","62","","",""
"html-keyboard-response","180","919892","0.0-5.0-2.0-1.31","spark_pilot_2","7432","3","18","Female","","","","","","","","null","<div style=""font-size:60px;"">+</div>","null","fixation","","","","","","","","","","","63","","",""
"revaluation","181","925897","0.0-5.0-2.0-0.32","spark_pilot_2","7432","3","18","Female","","false","","","","","","[793,587]","./assets/img/ocean/memory/33.jpg","[""ArrowDown"",""ArrowRight""]","value training","ocean","30","{""ArrowUp,ArrowLeft"":23,""ArrowUp,ArrowRight"":10,""ArrowDown,ArrowLeft"":8,""ArrowDown,ArrowRight"":30}","true","ArrowDown,ArrowRight","false","","","original","1","64","","",""
"html-keyboard-response","182","926399","0.0-5.0-2.0-1.32","spark_pilot_2","7432","3","18","Female","","","","","","","","null","<div style=""font-size:60px;"">+</div>","null","fixation","","","","","","","","","","","65","","",""
"revaluation","183","932404","0.0-5.0-2.0-0.33","spark_pilot_2","7432","3","18","Female","","false","","","","","","[819,567]","./assets/img/ocean/memory/38.jpg","[""ArrowDown"",""ArrowRight""]","value training","ocean","30","{""ArrowUp,ArrowLeft"":23,""ArrowUp,ArrowRight"":10,""ArrowDown,ArrowLeft"":8,""ArrowDown,ArrowRight"":30}","true","ArrowDown,ArrowRight","false","","","original","1","66","","",""
"html-keyboard-response","184","932906","0.0-5.0-2.0-1.33","spark_pilot_2","7432","3","18","Female","","","","","","","","null","<div style=""font-size:60px;"">+</div>","null","fixation","","","","","","","","","","","67","","",""
"revaluation","185","938911","0.0-5.0-2.0-0.34","spark_pilot_2","7432","3","18","Female","","false","","","","","","[684.0000000001164,776.9999999998836]","./assets/img/ocean/memory/37.jpg","[""ArrowDown"",""ArrowRight""]","value training","ocean","30","{""ArrowUp,ArrowLeft"":23,""ArrowUp,ArrowRight"":10,""ArrowDown,ArrowLeft"":8,""ArrowDown,ArrowRight"":30}","true","ArrowDown,ArrowRight","false","","","original","1","68","","",""
"html-keyboard-response","186","939413","0.0-5.0-2.0-1.34","spark_pilot_2","7432","3","18","Female","","","","","","","","null","<div style=""font-size:60px;"">+</div>","null","fixation","","","","","","","","","","","69","","",""
"revaluation","187","945417","0.0-5.0-2.0-0.35","spark_pilot_2","7432","3","18","Female","","false","","","","","","[613,708]","./assets/img/ocean/memory/34.jpg","[""ArrowDown"",""ArrowRight""]","value training","ocean","30","{""ArrowUp,ArrowLeft"":23,""ArrowUp,ArrowRight"":10,""ArrowDown,ArrowLeft"":8,""ArrowDown,ArrowRight"":30}","true","ArrowDown,ArrowRight","false","","","original","1","70","","",""
"html-keyboard-response","188","945919","0.0-5.0-2.0-1.35","spark_pilot_2","7432","3","18","Female","","","","","","","","null","<div style=""font-size:60px;"">+</div>","null","fixation","","","","","","","","","","","71","","",""
"revaluation","189","951924","0.0-5.0-2.0-0.36","spark_pilot_2","7432","3","18","Female","","false","","","","","","[611,657]","./assets/img/ocean/memory/17.jpg","[""ArrowDown"",""ArrowRight""]","value training","ocean","30","{""ArrowUp,ArrowLeft"":23,""ArrowUp,ArrowRight"":10,""ArrowDown,ArrowLeft"":8,""ArrowDown,ArrowRight"":30}","true","ArrowDown,ArrowRight","false","","","original","1","72","","",""
"html-keyboard-response","190","952426","0.0-5.0-2.0-1.36","spark_pilot_2","7432","3","18","Female","","","","","","","","null","<div style=""font-size:60px;"">+</div>","null","fixation","","","","","","","","","","","73","","",""
"revaluation","191","958431","0.0-5.0-2.0-0.37","spark_pilot_2","7432","3","18","Female","","false","","","","","","[651,422]","./assets/img/ocean/memory/37.jpg","[""ArrowDown"",""ArrowRight""]","value training","ocean","30","{""ArrowUp,ArrowLeft"":23,""ArrowUp,ArrowRight"":10,""ArrowDown,ArrowLeft"":8,""ArrowDown,ArrowRight"":30}","true","ArrowDown,ArrowRight","false","","","original","1","74","","",""
"html-keyboard-response","192","958933","0.0-5.0-2.0-1.37","spark_pilot_2","7432","3","18","Female","","","","","","","","null","<div style=""font-size:60px;"">+</div>","null","fixation","","","","","","","","","","","75","","",""
"revaluation","193","964938","0.0-5.0-2.0-0.38","spark_pilot_2","7432","3","18","Female","","false","","","","","","[633,444]","./assets/img/ocean/memory/13.jpg","[""ArrowDown"",""ArrowRight""]","value training","ocean","30","{""ArrowUp,ArrowLeft"":23,""ArrowUp,ArrowRight"":10,""ArrowDown,ArrowLeft"":8,""ArrowDown,ArrowRight"":30}","true","ArrowDown,ArrowRight","false","","","original","1","76","","",""
"html-keyboard-response","194","965440","0.0-5.0-2.0-1.38","spark_pilot_2","7432","3","18","Female","","","","","","","","null","<div style=""font-size:60px;"">+</div>","null","fixation","","","","","","","","","","","77","","",""
"revaluation","195","969443","0.0-5.0-2.0-0.39","spark_pilot_2","7432","3","18","Female","","false","","","","","","[793.9999999998836]","./assets/img/ocean/catch/4.jpg","[""spaceBar""]","value training","ocean","0","{""ArrowUp,ArrowLeft"":23,""ArrowUp,ArrowRight"":10,""ArrowDown,ArrowLeft"":8,""ArrowDown,ArrowRight"":30}","true","spaceBar","true","","","original","1","78","","",""
"html-keyboard-response","196","969944","0.0-5.0-2.0-1.39","spark_pilot_2","7432","3","18","Female","","","","","","","","null","<div style=""font-size:60px;"">+</div>","null","fixation","","","","","","","","","","","79","","",""
"revaluation","197","973948","0.0-5.0-2.0-0.40","spark_pilot_2","7432","3","18","Female","","false","","","","","","[625]","./assets/img/ocean/catch/2.jpg","[""spaceBar""]","value training","ocean","0","{""ArrowUp,ArrowLeft"":23,""ArrowUp,ArrowRight"":10,""ArrowDown,ArrowLeft"":8,""ArrowDown,ArrowRight"":30}","true","spaceBar","true","","","original","1","80","","",""
"html-keyboard-response","198","974450","0.0-5.0-2.0-1.40","spark_pilot_2","7432","3","18","Female","","","","","","","","null","<div style=""font-size:60px;"">+</div>","null","fixation","","","","","","","","","","","81","","",""
"revaluation","199","980454","0.0-5.0-2.0-0.41","spark_pilot_2","7432","3","18","Female","","false","","","","","","[933,686.0000000001164]","./assets/img/ocean/memory/9.jpg","[""ArrowDown"",""ArrowRight""]","value training","ocean","30","{""ArrowUp,ArrowLeft"":23,""ArrowUp,ArrowRight"":10,""ArrowDown,ArrowLeft"":8,""ArrowDown,ArrowRight"":30}","true","ArrowDown,ArrowRight","false","","","original","1","82","","",""
"html-keyboard-response","200","980956","0.0-5.0-2.0-1.41","spark_pilot_2","7432","3","18","Female","","","","","","","","null","<div style=""font-size:60px;"">+</div>","null","fixation","","","","","","","","","","","83","","",""
"revaluation","201","984960","0.0-5.0-2.0-0.42","spark_pilot_2","7432","3","18","Female","","false","","","","","","[680]","./assets/img/ocean/catch/6.jpg","[""spaceBar""]","value training","ocean","0","{""ArrowUp,ArrowLeft"":23,""ArrowUp,ArrowRight"":10,""ArrowDown,ArrowLeft"":8,""ArrowDown,ArrowRight"":30}","true","spaceBar","true","","","original","1","84","","",""
"html-keyboard-response","202","985462","0.0-5.0-2.0-1.42","spark_pilot_2","7432","3","18","Female","","","","","","","","null","<div style=""font-size:60px;"">+</div>","null","fixation","","","","","","","","","","","85","","",""
"revaluation","203","989466","0.0-5.0-2.0-0.43","spark_pilot_2","7432","3","18","Female","","false","","","","","","[628]","./assets/img/ocean/catch/5.jpg","[""spaceBar""]","value training","ocean","0","{""ArrowUp,ArrowLeft"":23,""ArrowUp,ArrowRight"":10,""ArrowDown,ArrowLeft"":8,""ArrowDown,ArrowRight"":30}","true","spaceBar","true","","","original","1","86","","",""
"html-keyboard-response","204","989967","0.0-5.0-2.0-1.43","spark_pilot_2","7432","3","18","Female","","","","","","","","null","<div style=""font-size:60px;"">+</div>","null","fixation","","","","","","","","","","","87","","",""
"revaluation","205","995972","0.0-5.0-2.0-0.44","spark_pilot_2","7432","3","18","Female","","false","","","","","","[1049.0000000001164,514]","./assets/img/ocean/memory/19.jpg","[""ArrowDown"",""ArrowRight""]","value training","ocean","30","{""ArrowUp,ArrowLeft"":23,""ArrowUp,ArrowRight"":10,""ArrowDown,ArrowLeft"":8,""ArrowDown,ArrowRight"":30}","true","ArrowDown,ArrowRight","false","","","original","1","88","","",""
"html-keyboard-response","206","996474","0.0-5.0-2.0-1.44","spark_pilot_2","7432","3","18","Female","","","","","","","","null","<div style=""font-size:60px;"">+</div>","null","fixation","","","","","","","","","","","89","","",""
"revaluation","207","1002479","0.0-5.0-2.0-0.45","spark_pilot_2","7432","3","18","Female","","false","","","","","","[798,444]","./assets/img/ocean/memory/32.jpg","[""ArrowDown"",""ArrowRight""]","value training","ocean","30","{""ArrowUp,ArrowLeft"":23,""ArrowUp,ArrowRight"":10,""ArrowDown,ArrowLeft"":8,""ArrowDown,ArrowRight"":30}","true","ArrowDown,ArrowRight","false","","","original","1","90","","",""
"html-keyboard-response","208","1002981","0.0-5.0-2.0-1.45","spark_pilot_2","7432","3","18","Female","","","","","","","","null","<div style=""font-size:60px;"">+</div>","null","fixation","","","","","","","","","","","91","","",""
"revaluation","209","1008986","0.0-5.0-2.0-0.46","spark_pilot_2","7432","3","18","Female","","false","","","","","","[841,366.9999999998836]","./assets/img/ocean/memory/28.jpg","[""ArrowDown"",""ArrowRight""]","value training","ocean","30","{""ArrowUp,ArrowLeft"":23,""ArrowUp,ArrowRight"":10,""ArrowDown,ArrowLeft"":8,""ArrowDown,ArrowRight"":30}","true","ArrowDown,ArrowRight","false","","","original","1","92","","",""
"html-keyboard-response","210","1009488","0.0-5.0-2.0-1.46","spark_pilot_2","7432","3","18","Female","","","","","","","","null","<div style=""font-size:60px;"">+</div>","null","fixation","","","","","","","","","","","93","","",""
"revaluation","211","1013491","0.0-5.0-2.0-0.47","spark_pilot_2","7432","3","18","Female","","false","","","","","","[701.0000000001164]","./assets/img/ocean/catch/0.jpg","[""spaceBar""]","value training","ocean","0","{""ArrowUp,ArrowLeft"":23,""ArrowUp,ArrowRight"":10,""ArrowDown,ArrowLeft"":8,""ArrowDown,ArrowRight"":30}","true","spaceBar","true","","","original","1","94","","",""
"html-keyboard-response","212","1013993","0.0-5.0-2.0-1.47","spark_pilot_2","7432","3","18","Female","","","","","","","","null","<div style=""font-size:60px;"">+</div>","null","fixation","","","","","","","","","","","95","","",""
"revaluation","213","1019998","0.0-5.0-2.0-0.48","spark_pilot_2","7432","3","18","Female","","false","","","","","","[1001,679]","./assets/img/ocean/memory/16.jpg","[""ArrowDown"",""ArrowRight""]","value training","ocean","30","{""ArrowUp,ArrowLeft"":23,""ArrowUp,ArrowRight"":10,""ArrowDown,ArrowLeft"":8,""ArrowDown,ArrowRight"":30}","true","ArrowDown,ArrowRight","false","","","original","1","96","","",""
"html-keyboard-response","214","1020499","0.0-5.0-2.0-1.48","spark_pilot_2","7432","3","18","Female","","","","","","","","null","<div style=""font-size:60px;"">+</div>","null","fixation","","","","","","","","","","","97","","",""
"revaluation","215","1026504","0.0-5.0-2.0-0.49","spark_pilot_2","7432","3","18","Female","","false","","","","","","[966,688.9999999998836]","./assets/img/ocean/memory/39.jpg","[""ArrowDown"",""ArrowRight""]","value training","ocean","30","{""ArrowUp,ArrowLeft"":23,""ArrowUp,ArrowRight"":10,""ArrowDown,ArrowLeft"":8,""ArrowDown,ArrowRight"":30}","true","ArrowDown,ArrowRight","false","","","original","1","98","","",""
"html-keyboard-response","216","1027005","0.0-5.0-2.0-1.49","spark_pilot_2","7432","3","18","Female","","","","","","","","null","<div style=""font-size:60px;"">+</div>","null","fixation","","","","","","","","","","","99","","",""
"learning-instructions","217","1041241","0.0-5.0-3.0-0.0","spark_pilot_2","7432","3","18","Female","","","","","","","","1354","<p> Now, you will travel with a friend who will choose whether you go up or down first. </p>
            <p> On these turns, you will just see the animal that they found. You will still get to choose which chest to search for treasure.</p>","","instructions","","","","","","","","","","","","","",""
"revaluation","218","1045245","0.0-5.0-4.0-0.0","spark_pilot_2","7432","3","18","Female","","false","","","","","","[980.9999999998836]","./assets/img/ocean/animals/seahorse.jpg","[""ArrowRight""]","revaluation","ocean","30","{""ArrowUp,ArrowLeft"":23,""ArrowUp,ArrowRight"":10,""ArrowDown,ArrowLeft"":8,""ArrowDown,ArrowRight"":30}","true","ArrowDown,ArrowRight","","","","original","1","0","","",""
"html-keyboard-response","219","1045748","0.0-5.0-4.0-1.0","spark_pilot_2","7432","3","18","Female","","","","","","","","null","<div style=""font-size:60px;"">+</div>","null","fixation","","","","","","","","","","","1","","",""
"revaluation","220","1049752","0.0-5.0-4.0-0.1","spark_pilot_2","7432","3","18","Female","","false","","","","","","[1519.9999999998836]","./assets/img/ocean/animals/octopus.jpg","[""ArrowRight""]","revaluation","ocean","10","{""ArrowUp,ArrowLeft"":23,""ArrowUp,ArrowRight"":10,""ArrowDown,ArrowLeft"":8,""ArrowDown,ArrowRight"":30}","false","ArrowUp,ArrowRight","","","","original","1","2","","",""
"html-keyboard-response","221","1050253","0.0-5.0-4.0-1.1","spark_pilot_2","7432","3","18","Female","","","","","","","","null","<div style=""font-size:60px;"">+</div>","null","fixation","","","","","","","","","","","3","","",""
"revaluation","222","1054256","0.0-5.0-4.0-0.2","spark_pilot_2","7432","3","18","Female","","false","","","","","","[767]","./assets/img/ocean/animals/octopus.jpg","[""ArrowLeft""]","revaluation","ocean","23","{""ArrowUp,ArrowLeft"":23,""ArrowUp,ArrowRight"":10,""ArrowDown,ArrowLeft"":8,""ArrowDown,ArrowRight"":30}","true","ArrowUp,ArrowLeft","","","","original","1","4","","",""
"html-keyboard-response","223","1054758","0.0-5.0-4.0-1.2","spark_pilot_2","7432","3","18","Female","","","","","","","","null","<div style=""font-size:60px;"">+</div>","null","fixation","","","","","","","","","","","5","","",""
"revaluation","224","1058761","0.0-5.0-4.0-0.3","spark_pilot_2","7432","3","18","Female","","false","","","","","","[653]","./assets/img/ocean/animals/octopus.jpg","[""ArrowLeft""]","revaluation","ocean","23","{""ArrowUp,ArrowLeft"":23,""ArrowUp,ArrowRight"":10,""ArrowDown,ArrowLeft"":8,""ArrowDown,ArrowRight"":30}","true","ArrowUp,ArrowLeft","","","","original","1","6","","",""
"html-keyboard-response","225","1059263","0.0-5.0-4.0-1.3","spark_pilot_2","7432","3","18","Female","","","","","","","","null","<div style=""font-size:60px;"">+</div>","null","fixation","","","","","","","","","","","7","","",""
"revaluation","226","1063267","0.0-5.0-4.0-0.4","spark_pilot_2","7432","3","18","Female","","false","","","","","","[569]","./assets/img/ocean/animals/seahorse.jpg","[""ArrowRight""]","revaluation","ocean","30","{""ArrowUp,ArrowLeft"":23,""ArrowUp,ArrowRight"":10,""ArrowDown,ArrowLeft"":8,""ArrowDown,ArrowRight"":30}","true","ArrowDown,ArrowRight","","","","original","1","8","","",""
"html-keyboard-response","227","1063769","0.0-5.0-4.0-1.4","spark_pilot_2","7432","3","18","Female","","","","","","","","null","<div style=""font-size:60px;"">+</div>","null","fixation","","","","","","","","","","","9","","",""
"revaluation","228","1067773","0.0-5.0-4.0-0.5","spark_pilot_2","7432","3","18","Female","","false","","","","","","[474]","./assets/img/ocean/animals/octopus.jpg","[""ArrowLeft""]","revaluation","ocean","23","{""ArrowUp,ArrowLeft"":23,""ArrowUp,ArrowRight"":10,""ArrowDown,ArrowLeft"":8,""ArrowDown,ArrowRight"":30}","true","ArrowUp,ArrowLeft","","","","original","1","10","","",""
"html-keyboard-response","229","1068275","0.0-5.0-4.0-1.5","spark_pilot_2","7432","3","18","Female","","","","","","","","null","<div style=""font-size:60px;"">+</div>","null","fixation","","","","","","","","","","","11","","",""
"revaluation","230","1072278","0.0-5.0-4.0-0.6","spark_pilot_2","7432","3","18","Female","","false","","","","","","[721]","./assets/img/ocean/animals/seahorse.jpg","[""ArrowRight""]","revaluation","ocean","30","{""ArrowUp,ArrowLeft"":23,""ArrowUp,ArrowRight"":10,""ArrowDown,ArrowLeft"":8,""ArrowDown,ArrowRight"":30}","true","ArrowDown,ArrowRight","","","","original","1","12","","",""
"html-keyboard-response","231","1072780","0.0-5.0-4.0-1.6","spark_pilot_2","7432","3","18","Female","","","","","","","","null","<div style=""font-size:60px;"">+</div>","null","fixation","","","","","","","","","","","13","","",""
"revaluation","232","1076784","0.0-5.0-4.0-0.7","spark_pilot_2","7432","3","18","Female","","false","","","","","","[796]","./assets/img/ocean/animals/seahorse.jpg","[""ArrowRight""]","revaluation","ocean","30","{""ArrowUp,ArrowLeft"":23,""ArrowUp,ArrowRight"":10,""ArrowDown,ArrowLeft"":8,""ArrowDown,ArrowRight"":30}","true","ArrowDown,ArrowRight","","","","original","1","14","","",""
"html-keyboard-response","233","1077285","0.0-5.0-4.0-1.7","spark_pilot_2","7432","3","18","Female","","","","","","","","null","<div style=""font-size:60px;"">+</div>","null","fixation","","","","","","","","","","","15","","",""
"revaluation","234","1081289","0.0-5.0-4.0-0.8","spark_pilot_2","7432","3","18","Female","","false","","","","","","[732]","./assets/img/ocean/animals/octopus.jpg","[""ArrowLeft""]","revaluation","ocean","23","{""ArrowUp,ArrowLeft"":23,""ArrowUp,ArrowRight"":10,""ArrowDown,ArrowLeft"":8,""ArrowDown,ArrowRight"":30}","true","ArrowUp,ArrowLeft","","","","original","1","16","","",""
"html-keyboard-response","235","1081791","0.0-5.0-4.0-1.8","spark_pilot_2","7432","3","18","Female","","","","","","","","null","<div style=""font-size:60px;"">+</div>","null","fixation","","","","","","","","","","","17","","",""
"revaluation","236","1085795","0.0-5.0-4.0-0.9","spark_pilot_2","7432","3","18","Female","","false","","","","","","[700]","./assets/img/ocean/animals/seahorse.jpg","[""ArrowRight""]","revaluation","ocean","30","{""ArrowUp,ArrowLeft"":23,""ArrowUp,ArrowRight"":10,""ArrowDown,ArrowLeft"":8,""ArrowDown,ArrowRight"":30}","true","ArrowDown,ArrowRight","","","","original","1","18","","",""
"html-keyboard-response","237","1086297","0.0-5.0-4.0-1.9","spark_pilot_2","7432","3","18","Female","","","","","","","","null","<div style=""font-size:60px;"">+</div>","null","fixation","","","","","","","","","","","19","","",""
"revaluation","238","1090301","0.0-5.0-4.0-0.10","spark_pilot_2","7432","3","18","Female","","false","","","","","","[560]","./assets/img/ocean/animals/octopus.jpg","[""ArrowLeft""]","revaluation","ocean","23","{""ArrowUp,ArrowLeft"":23,""ArrowUp,ArrowRight"":10,""ArrowDown,ArrowLeft"":8,""ArrowDown,ArrowRight"":30}","true","ArrowUp,ArrowLeft","","","","original","1","20","","",""
"html-keyboard-response","239","1090803","0.0-5.0-4.0-1.10","spark_pilot_2","7432","3","18","Female","","","","","","","","null","<div style=""font-size:60px;"">+</div>","null","fixation","","","","","","","","","","","21","","",""
"revaluation","240","1094806","0.0-5.0-4.0-0.11","spark_pilot_2","7432","3","18","Female","","false","","","","","","[526]","./assets/img/ocean/animals/seahorse.jpg","[""ArrowRight""]","revaluation","ocean","30","{""ArrowUp,ArrowLeft"":23,""ArrowUp,ArrowRight"":10,""ArrowDown,ArrowLeft"":8,""ArrowDown,ArrowRight"":30}","true","ArrowDown,ArrowRight","","","","original","1","22","","",""
"html-keyboard-response","241","1095308","0.0-5.0-4.0-1.11","spark_pilot_2","7432","3","18","Female","","","","","","","","null","<div style=""font-size:60px;"">+</div>","null","fixation","","","","","","","","","","","23","","",""
"revaluation","242","1099312","0.0-5.0-4.0-0.12","spark_pilot_2","7432","3","18","Female","","false","","","","","","[778]","./assets/img/ocean/animals/seahorse.jpg","[""ArrowRight""]","revaluation","ocean","30","{""ArrowUp,ArrowLeft"":23,""ArrowUp,ArrowRight"":10,""ArrowDown,ArrowLeft"":8,""ArrowDown,ArrowRight"":30}","true","ArrowDown,ArrowRight","","","","original","1","24","","",""
"html-keyboard-response","243","1099813","0.0-5.0-4.0-1.12","spark_pilot_2","7432","3","18","Female","","","","","","","","null","<div style=""font-size:60px;"">+</div>","null","fixation","","","","","","","","","","","25","","",""
"revaluation","244","1103818","0.0-5.0-4.0-0.13","spark_pilot_2","7432","3","18","Female","","false","","","","","","[612.9999999997672]","./assets/img/ocean/animals/octopus.jpg","[""ArrowLeft""]","revaluation","ocean","23","{""ArrowUp,ArrowLeft"":23,""ArrowUp,ArrowRight"":10,""ArrowDown,ArrowLeft"":8,""ArrowDown,ArrowRight"":30}","true","ArrowUp,ArrowLeft","","","","original","1","26","","",""
"html-keyboard-response","245","1104320","0.0-5.0-4.0-1.13","spark_pilot_2","7432","3","18","Female","","","","","","","","null","<div style=""font-size:60px;"">+</div>","null","fixation","","","","","","","","","","","27","","",""
"revaluation","246","1108324","0.0-5.0-4.0-0.14","spark_pilot_2","7432","3","18","Female","","false","","","","","","[676]","./assets/img/ocean/animals/octopus.jpg","[""ArrowLeft""]","revaluation","ocean","23","{""ArrowUp,ArrowLeft"":23,""ArrowUp,ArrowRight"":10,""ArrowDown,ArrowLeft"":8,""ArrowDown,ArrowRight"":30}","true","ArrowUp,ArrowLeft","","","","original","1","28","","",""
"html-keyboard-response","247","1108826","0.0-5.0-4.0-1.14","spark_pilot_2","7432","3","18","Female","","","","","","","","null","<div style=""font-size:60px;"">+</div>","null","fixation","","","","","","","","","","","29","","",""
"revaluation","248","1112830","0.0-5.0-4.0-0.15","spark_pilot_2","7432","3","18","Female","","false","","","","","","[1029]","./assets/img/ocean/animals/seahorse.jpg","[""ArrowRight""]","revaluation","ocean","30","{""ArrowUp,ArrowLeft"":23,""ArrowUp,ArrowRight"":10,""ArrowDown,ArrowLeft"":8,""ArrowDown,ArrowRight"":30}","true","ArrowDown,ArrowRight","","","","original","1","30","","",""
"html-keyboard-response","249","1113332","0.0-5.0-4.0-1.15","spark_pilot_2","7432","3","18","Female","","","","","","","","null","<div style=""font-size:60px;"">+</div>","null","fixation","","","","","","","","","","","31","","",""
"revaluation","250","1117336","0.0-5.0-4.0-0.16","spark_pilot_2","7432","3","18","Female","","false","","","","","","[464]","./assets/img/ocean/animals/octopus.jpg","[""ArrowLeft""]","revaluation","ocean","23","{""ArrowUp,ArrowLeft"":23,""ArrowUp,ArrowRight"":10,""ArrowDown,ArrowLeft"":8,""ArrowDown,ArrowRight"":30}","true","ArrowUp,ArrowLeft","","","","original","1","32","","",""
"html-keyboard-response","251","1117838","0.0-5.0-4.0-1.16","spark_pilot_2","7432","3","18","Female","","","","","","","","null","<div style=""font-size:60px;"">+</div>","null","fixation","","","","","","","","","","","33","","",""
"revaluation","252","1121842","0.0-5.0-4.0-0.17","spark_pilot_2","7432","3","18","Female","","false","","","","","","[504]","./assets/img/ocean/animals/seahorse.jpg","[""ArrowRight""]","revaluation","ocean","30","{""ArrowUp,ArrowLeft"":23,""ArrowUp,ArrowRight"":10,""ArrowDown,ArrowLeft"":8,""ArrowDown,ArrowRight"":30}","true","ArrowDown,ArrowRight","","","","original","1","34","","",""
"html-keyboard-response","253","1122343","0.0-5.0-4.0-1.17","spark_pilot_2","7432","3","18","Female","","","","","","","","null","<div style=""font-size:60px;"">+</div>","null","fixation","","","","","","","","","","","35","","",""
"learning-instructions","254","1135134","0.0-5.0-5.0-0.0","spark_pilot_2","7432","3","18","Female","","","","","","","","1491","<p> Time to play the dot game! </p>
            <p> For one minute, click the red dots on the following screen as they appear. </p>
            <p><b> Don't look away, as you will earn bonus for clicking dots</b>. </p>","","instructions","","","","","","","","","","","","","",""
"revaluation","255","1195135","0.0-5.0-6.0-0.0","spark_pilot_2","7432","3","18","Female","","","","","","","","[64,59,40,51,75,64,51]","","","rest","","70","","","","","0","60000","","","","","",""
"learning-instructions","256","1202430","0.0-5.0-7.0-0.0","spark_pilot_2","7432","3","18","Female","","","","","","","","1193","<p> You have almost finished this part of the game! </p>
            <p> We are going to ask you to make a few more choices. </p>","","instructions","","","","","","","","","","","","","",""
"learning-instructions","257","1218529","0.0-5.0-7.0-0.1","spark_pilot_2","7432","3","18","Female","","","","","","","","2128.999999999767","<p> First, you need to decide whether to go up or down. When you see each picture, use the arrow keys to make your choice. </p>
            <p><b>You will not see which animal you found, but try to get to the one that will give you the most treasure.</b></p>","","instructions","","","","","","","","","","","","","",""
"revaluation","258","1219741","0.0-5.0-8.0-0.0","spark_pilot_2","7432","3","18","Female","","false","","","","","","[1211]","./assets/img/ocean/test/0.jpg","[""ArrowDown""]","first stage test","ocean","0","{""ArrowUp,ArrowLeft"":23,""ArrowUp,ArrowRight"":10,""ArrowDown,ArrowLeft"":8,""ArrowDown,ArrowRight"":30}","true","ArrowDown","false","","","original","1","","","",""
"html-keyboard-response","259","1220243","0.0-5.0-8.0-1.0","spark_pilot_2","7432","3","18","Female","","","","","","","","null","<div style=""font-size:60px;"">+</div>","null","fixation","","","","","","","","","","","","","",""
"revaluation","260","1220861","0.0-5.0-8.0-0.1","spark_pilot_2","7432","3","18","Female","","false","","","","","","[616.0000000002328]","./assets/img/ocean/test/2.jpg","[""ArrowDown""]","first stage test","ocean","0","{""ArrowUp,ArrowLeft"":23,""ArrowUp,ArrowRight"":10,""ArrowDown,ArrowLeft"":8,""ArrowDown,ArrowRight"":30}","true","ArrowDown","false","","","original","1","","","",""
"html-keyboard-response","261","1221363","0.0-5.0-8.0-1.1","spark_pilot_2","7432","3","18","Female","","","","","","","","null","<div style=""font-size:60px;"">+</div>","null","fixation","","","","","","","","","","","","","",""
"revaluation","262","1221939","0.0-5.0-8.0-0.2","spark_pilot_2","7432","3","18","Female","","false","","","","","","[574]","./assets/img/ocean/test/3.jpg","[""ArrowDown""]","first stage test","ocean","0","{""ArrowUp,ArrowLeft"":23,""ArrowUp,ArrowRight"":10,""ArrowDown,ArrowLeft"":8,""ArrowDown,ArrowRight"":30}","true","ArrowDown","false","","","original","1","","","",""
"html-keyboard-response","263","1222441","0.0-5.0-8.0-1.2","spark_pilot_2","7432","3","18","Female","","","","","","","","null","<div style=""font-size:60px;"">+</div>","null","fixation","","","","","","","","","","","","","",""
"revaluation","264","1222930","0.0-5.0-8.0-0.3","spark_pilot_2","7432","3","18","Female","","false","","","","","","[487]","./assets/img/ocean/test/1.jpg","[""ArrowDown""]","first stage test","ocean","0","{""ArrowUp,ArrowLeft"":23,""ArrowUp,ArrowRight"":10,""ArrowDown,ArrowLeft"":8,""ArrowDown,ArrowRight"":30}","true","ArrowDown","false","","","original","1","","","",""
"html-keyboard-response","265","1223432","0.0-5.0-8.0-1.3","spark_pilot_2","7432","3","18","Female","","","","","","","","null","<div style=""font-size:60px;"">+</div>","null","fixation","","","","","","","","","","","","","",""
"learning-instructions","266","1235778","0.0-5.0-9.0-0.0","spark_pilot_2","7432","3","18","Female","","","","","","","","1005","<p> Now you will see the animals again and can search their chests for treasure. </p>
            <p> This time, you will not see how much treasure you earned, but you will earn more bonus money for making better choices. </p>","","instructions","","","","","","","","","","","","","",""
"revaluation","267","1236567","0.0-5.0-10.0-0.0","spark_pilot_2","7432","3","18","Female","","false","","","","","","[787]","./assets/img/ocean/animals/octopus.jpg","[""ArrowLeft""]","second stage test","ocean","0","{""ArrowUp,ArrowLeft"":23,""ArrowUp,ArrowRight"":10,""ArrowDown,ArrowLeft"":8,""ArrowDown,ArrowRight"":30}","true","ArrowUp,ArrowLeft","","","","original","1","","","",""
"html-keyboard-response","268","1237069","0.0-5.0-10.0-1.0","spark_pilot_2","7432","3","18","Female","","","","","","","","null","<div style=""font-size:60px;"">+</div>","null","fixation","","","","","","","","","","","","","",""
"revaluation","269","1237483","0.0-5.0-10.0-0.1","spark_pilot_2","7432","3","18","Female","","false","","","","","","[414]","./assets/img/ocean/animals/octopus.jpg","[""ArrowLeft""]","second stage test","ocean","0","{""ArrowUp,ArrowLeft"":23,""ArrowUp,ArrowRight"":10,""ArrowDown,ArrowLeft"":8,""ArrowDown,ArrowRight"":30}","true","ArrowUp,ArrowLeft","","","","original","1","","","",""
"html-keyboard-response","270","1237985","0.0-5.0-10.0-1.1","spark_pilot_2","7432","3","18","Female","","","","","","","","null","<div style=""font-size:60px;"">+</div>","null","fixation","","","","","","","","","","","","","",""
"revaluation","271","1238347","0.0-5.0-10.0-0.2","spark_pilot_2","7432","3","18","Female","","false","","","","","","[360]","./assets/img/ocean/animals/octopus.jpg","[""ArrowLeft""]","second stage test","ocean","0","{""ArrowUp,ArrowLeft"":23,""ArrowUp,ArrowRight"":10,""ArrowDown,ArrowLeft"":8,""ArrowDown,ArrowRight"":30}","true","ArrowUp,ArrowLeft","","","","original","1","","","",""
"html-keyboard-response","272","1238848","0.0-5.0-10.0-1.2","spark_pilot_2","7432","3","18","Female","","","","","","","","null","<div style=""font-size:60px;"">+</div>","null","fixation","","","","","","","","","","","","","",""
"revaluation","273","1239188","0.0-5.0-10.0-0.3","spark_pilot_2","7432","3","18","Female","","false","","","","","","[337.00000000023283]","./assets/img/ocean/animals/octopus.jpg","[""ArrowLeft""]","second stage test","ocean","0","{""ArrowUp,ArrowLeft"":23,""ArrowUp,ArrowRight"":10,""ArrowDown,ArrowLeft"":8,""ArrowDown,ArrowRight"":30}","true","ArrowUp,ArrowLeft","","","","original","1","","","",""
"html-keyboard-response","274","1239690","0.0-5.0-10.0-1.3","spark_pilot_2","7432","3","18","Female","","","","","","","","null","<div style=""font-size:60px;"">+</div>","null","fixation","","","","","","","","","","","","","",""
"revaluation","275","1240105","0.0-5.0-10.0-0.4","spark_pilot_2","7432","3","18","Female","","false","","","","","","[413]","./assets/img/ocean/animals/seahorse.jpg","[""ArrowRight""]","second stage test","ocean","0","{""ArrowUp,ArrowLeft"":23,""ArrowUp,ArrowRight"":10,""ArrowDown,ArrowLeft"":8,""ArrowDown,ArrowRight"":30}","true","ArrowDown,ArrowRight","","","","original","1","","","",""
"html-keyboard-response","276","1240606","0.0-5.0-10.0-1.4","spark_pilot_2","7432","3","18","Female","","","","","","","","null","<div style=""font-size:60px;"">+</div>","null","fixation","","","","","","","","","","","","","",""
"revaluation","277","1240917","0.0-5.0-10.0-0.5","spark_pilot_2","7432","3","18","Female","","false","","","","","","[309]","./assets/img/ocean/animals/seahorse.jpg","[""ArrowRight""]","second stage test","ocean","0","{""ArrowUp,ArrowLeft"":23,""ArrowUp,ArrowRight"":10,""ArrowDown,ArrowLeft"":8,""ArrowDown,ArrowRight"":30}","true","ArrowDown,ArrowRight","","","","original","1","","","",""
"html-keyboard-response","278","1241418","0.0-5.0-10.0-1.5","spark_pilot_2","7432","3","18","Female","","","","","","","","null","<div style=""font-size:60px;"">+</div>","null","fixation","","","","","","","","","","","","","",""
"revaluation","279","1241754","0.0-5.0-10.0-0.6","spark_pilot_2","7432","3","18","Female","","false","","","","","","[335]","./assets/img/ocean/animals/seahorse.jpg","[""ArrowRight""]","second stage test","ocean","0","{""ArrowUp,ArrowLeft"":23,""ArrowUp,ArrowRight"":10,""ArrowDown,ArrowLeft"":8,""ArrowDown,ArrowRight"":30}","true","ArrowDown,ArrowRight","","","","original","1","","","",""
"html-keyboard-response","280","1242256","0.0-5.0-10.0-1.6","spark_pilot_2","7432","3","18","Female","","","","","","","","null","<div style=""font-size:60px;"">+</div>","null","fixation","","","","","","","","","","","","","",""
"revaluation","281","1242589","0.0-5.0-10.0-0.7","spark_pilot_2","7432","3","18","Female","","false","","","","","","[332]","./assets/img/ocean/animals/seahorse.jpg","[""ArrowRight""]","second stage test","ocean","0","{""ArrowUp,ArrowLeft"":23,""ArrowUp,ArrowRight"":10,""ArrowDown,ArrowLeft"":8,""ArrowDown,ArrowRight"":30}","true","ArrowDown,ArrowRight","","","","original","1","","","",""
"html-keyboard-response","282","1243091","0.0-5.0-10.0-1.7","spark_pilot_2","7432","3","18","Female","","","","","","","","null","<div style=""font-size:60px;"">+</div>","null","fixation","","","","","","","","","","","","","",""
"learning-instructions","283","1252310","0.0-5.0-0.1-0.2","spark_pilot_2","7432","3","18","Female","","","","","","","","6466","<p> This time you are searching for treasure in the <b>canyon</b>.</p>","","instructions","","","","","","","","","","","","","",""
"learning-instructions","284","1272174","0.0-5.0-0.1-0.3","spark_pilot_2","7432","3","18","Female","","","","","","","","2611.999999999767","<p><b>New</b> animals with <b>new</b> treasure chests live here. You need to explore to discover where the animal with the best treasure chest is.</p>
                    <p> Like before, once you figure out which animal has the chest with the most treasure, you should try to get to that animal and select that chest! </p>","","instructions","","","","","","","","","","","","","",""
"learning-instructions","285","1287958","0.0-5.0-1.1-0.1","spark_pilot_2","7432","3","18","Female","","","","","","","","1052","<p> Remember, when you see a picture of the place, use the up and down keys to <b>find an animal</b>.</p>
            <p> When you encounter an animal, you should use the left and right keys to <b>select a treasure chest</b>.</p>
            <p> Don't forget to look out for the robber! </p>","","instructions","","","","","","","","","","","","","",""
"revaluation","286","1293962","0.0-5.0-2.1-0.50","spark_pilot_2","7432","3","18","Female","","false","","","","","","[871.0000000002328,710]","./assets/img/canyon/memory/27.jpg","[""ArrowDown"",""ArrowLeft""]","value training","canyon","5","{""ArrowUp,ArrowLeft"":26,""ArrowUp,ArrowRight"":10,""ArrowDown,ArrowLeft"":5,""ArrowDown,ArrowRight"":17}","false","ArrowDown,ArrowLeft","false","","","revaluation","2","0","","",""
"html-keyboard-response","287","1294464","0.0-5.0-2.1-1.50","spark_pilot_2","7432","3","18","Female","","","","","","","","null","<div style=""font-size:60px;"">+</div>","null","fixation","","","","","","","","","","","1","","",""
"revaluation","288","1300468","0.0-5.0-2.1-0.51","spark_pilot_2","7432","3","18","Female","","false","","","","","","[839.9999999997672,911]","./assets/img/canyon/memory/40.jpg","[""ArrowUp"",""ArrowLeft""]","value training","canyon","26","{""ArrowUp,ArrowLeft"":26,""ArrowUp,ArrowRight"":10,""ArrowDown,ArrowLeft"":5,""ArrowDown,ArrowRight"":17}","true","ArrowUp,ArrowLeft","false","","","revaluation","2","2","","",""
"html-keyboard-response","289","1300970","0.0-5.0-2.1-1.51","spark_pilot_2","7432","3","18","Female","","","","","","","","null","<div style=""font-size:60px;"">+</div>","null","fixation","","","","","","","","","","","3","","",""
"revaluation","290","1304974","0.0-5.0-2.1-0.52","spark_pilot_2","7432","3","18","Female","","false","","","","","","[784]","./assets/img/canyon/catch/7.jpg","[""spaceBar""]","value training","canyon","0","{""ArrowUp,ArrowLeft"":26,""ArrowUp,ArrowRight"":10,""ArrowDown,ArrowLeft"":5,""ArrowDown,ArrowRight"":17}","true","spaceBar","true","","","revaluation","2","4","","",""
"html-keyboard-response","291","1305476","0.0-5.0-2.1-1.52","spark_pilot_2","7432","3","18","Female","","","","","","","","null","<div style=""font-size:60px;"">+</div>","null","fixation","","","","","","","","","","","5","","",""
"revaluation","292","1311481","0.0-5.0-2.1-0.53","spark_pilot_2","7432","3","18","Female","","false","","","","","","[653,298]","./assets/img/canyon/memory/37.jpg","[""ArrowUp"",""ArrowRight""]","value training","canyon","10","{""ArrowUp,ArrowLeft"":26,""ArrowUp,ArrowRight"":10,""ArrowDown,ArrowLeft"":5,""ArrowDown,ArrowRight"":17}","false","ArrowUp,ArrowRight","false","","","revaluation","2","6","","",""
"html-keyboard-response","293","1311983","0.0-5.0-2.1-1.53","spark_pilot_2","7432","3","18","Female","","","","","","","","null","<div style=""font-size:60px;"">+</div>","null","fixation","","","","","","","","","","","7","","",""
"revaluation","294","1317988","0.0-5.0-2.1-0.54","spark_pilot_2","7432","3","18","Female","","false","","","","","","[943.9999999997672,567.0000000002328]","./assets/img/canyon/memory/41.jpg","[""ArrowDown"",""ArrowRight""]","value training","canyon","17","{""ArrowUp,ArrowLeft"":26,""ArrowUp,ArrowRight"":10,""ArrowDown,ArrowLeft"":5,""ArrowDown,ArrowRight"":17}","false","ArrowDown,ArrowRight","false","","","revaluation","2","8","","",""
"html-keyboard-response","295","1318490","0.0-5.0-2.1-1.54","spark_pilot_2","7432","3","18","Female","","","","","","","","null","<div style=""font-size:60px;"">+</div>","null","fixation","","","","","","","","","","","9","","",""
"revaluation","296","1324493","0.0-5.0-2.1-0.55","spark_pilot_2","7432","3","18","Female","","false","","","","","","[909,401]","./assets/img/canyon/memory/13.jpg","[""ArrowUp"",""ArrowLeft""]","value training","canyon","26","{""ArrowUp,ArrowLeft"":26,""ArrowUp,ArrowRight"":10,""ArrowDown,ArrowLeft"":5,""ArrowDown,ArrowRight"":17}","true","ArrowUp,ArrowLeft","false","","","revaluation","2","10","","",""
"html-keyboard-response","297","1324995","0.0-5.0-2.1-1.55","spark_pilot_2","7432","3","18","Female","","","","","","","","null","<div style=""font-size:60px;"">+</div>","null","fixation","","","","","","","","","","","11","","",""
"revaluation","298","1331000","0.0-5.0-2.1-0.56","spark_pilot_2","7432","3","18","Female","","false","","","","","","[773,418]","./assets/img/canyon/memory/30.jpg","[""ArrowUp"",""ArrowLeft""]","value training","canyon","26","{""ArrowUp,ArrowLeft"":26,""ArrowUp,ArrowRight"":10,""ArrowDown,ArrowLeft"":5,""ArrowDown,ArrowRight"":17}","true","ArrowUp,ArrowLeft","false","","","revaluation","2","12","","",""
"html-keyboard-response","299","1331501","0.0-5.0-2.1-1.56","spark_pilot_2","7432","3","18","Female","","","","","","","","null","<div style=""font-size:60px;"">+</div>","null","fixation","","","","","","","","","","","13","","",""
"revaluation","300","1337505","0.0-5.0-2.1-0.57","spark_pilot_2","7432","3","18","Female","","false","","","","","","[651.9999999997672,300]","./assets/img/canyon/memory/17.jpg","[""ArrowUp"",""ArrowLeft""]","value training","canyon","26","{""ArrowUp,ArrowLeft"":26,""ArrowUp,ArrowRight"":10,""ArrowDown,ArrowLeft"":5,""ArrowDown,ArrowRight"":17}","true","ArrowUp,ArrowLeft","false","","","revaluation","2","14","","",""
"html-keyboard-response","301","1338007","0.0-5.0-2.1-1.57","spark_pilot_2","7432","3","18","Female","","","","","","","","null","<div style=""font-size:60px;"">+</div>","null","fixation","","","","","","","","","","","15","","",""
"revaluation","302","1344012","0.0-5.0-2.1-0.58","spark_pilot_2","7432","3","18","Female","","false","","","","","","[1018,366]","./assets/img/canyon/memory/32.jpg","[""ArrowUp"",""ArrowLeft""]","value training","canyon","26","{""ArrowUp,ArrowLeft"":26,""ArrowUp,ArrowRight"":10,""ArrowDown,ArrowLeft"":5,""ArrowDown,ArrowRight"":17}","true","ArrowUp,ArrowLeft","false","","","revaluation","2","16","","",""
"html-keyboard-response","303","1344514","0.0-5.0-2.1-1.58","spark_pilot_2","7432","3","18","Female","","","","","","","","null","<div style=""font-size:60px;"">+</div>","null","fixation","","","","","","","","","","","17","","",""
"revaluation","304","1350519","0.0-5.0-2.1-0.59","spark_pilot_2","7432","3","18","Female","","false","","","","","","[665,406]","./assets/img/canyon/memory/32.jpg","[""ArrowUp"",""ArrowLeft""]","value training","canyon","26","{""ArrowUp,ArrowLeft"":26,""ArrowUp,ArrowRight"":10,""ArrowDown,ArrowLeft"":5,""ArrowDown,ArrowRight"":17}","true","ArrowUp,ArrowLeft","false","","","revaluation","2","18","","",""
"html-keyboard-response","305","1351020","0.0-5.0-2.1-1.59","spark_pilot_2","7432","3","18","Female","","","","","","","","null","<div style=""font-size:60px;"">+</div>","null","fixation","","","","","","","","","","","19","","",""
"revaluation","306","1357025","0.0-5.0-2.1-0.60","spark_pilot_2","7432","3","18","Female","","false","","","","","","[533.9999999997672,414]","./assets/img/canyon/memory/38.jpg","[""ArrowUp"",""ArrowLeft""]","value training","canyon","26","{""ArrowUp,ArrowLeft"":26,""ArrowUp,ArrowRight"":10,""ArrowDown,ArrowLeft"":5,""ArrowDown,ArrowRight"":17}","true","ArrowUp,ArrowLeft","false","","","revaluation","2","20","","",""
"html-keyboard-response","307","1357527","0.0-5.0-2.1-1.60","spark_pilot_2","7432","3","18","Female","","","","","","","","null","<div style=""font-size:60px;"">+</div>","null","fixation","","","","","","","","","","","21","","",""
"revaluation","308","1363532","0.0-5.0-2.1-0.61","spark_pilot_2","7432","3","18","Female","","false","","","","","","[564,346]","./assets/img/canyon/memory/19.jpg","[""ArrowUp"",""ArrowLeft""]","value training","canyon","26","{""ArrowUp,ArrowLeft"":26,""ArrowUp,ArrowRight"":10,""ArrowDown,ArrowLeft"":5,""ArrowDown,ArrowRight"":17}","true","ArrowUp,ArrowLeft","false","","","revaluation","2","22","","",""
"html-keyboard-response","309","1364034","0.0-5.0-2.1-1.61","spark_pilot_2","7432","3","18","Female","","","","","","","","null","<div style=""font-size:60px;"">+</div>","null","fixation","","","","","","","","","","","23","","",""
