"trial_type","trial_index","time_elapsed","internal_node_id","task_version","subject_id","assigned_condition","age","gender","success","timeout","failed_images","failed_audio","failed_video","browser_interaction","rt","stimulus","response","task_part","environment","score","rewardMap","correct","fullState","isCatch","numberMissed","duration","condition","order","trial_num","key_press","ground_truth","bonus"
"pavlovia","0","2098","0.0-0.0","spark_pilot_2","7414","2","17","Female","","","","","","","","","","","","","","","","","","","","","","","",""
"preload","1","42351","0.0-1.0","spark_pilot_2","7414","2","17","Female","true","false","[]","[]","[]","[{""event"":""fullscreenenter"",""trial"":2,""time"":73226}]","","","","","","","","","","","","","","","","","",""
"fullscreen","2","74188","0.0-2.0","spark_pilot_2","7414","2","17","Female","true","","","","","","","","","","","","","","","","","","","","","","",""
"audio-button-response","3","75918","0.0-3.0-0.0-0.0","spark_pilot_2","7414","2","17","Female","","","","","","","1696","./assets/audio/audiotest/turtle.mp3","2","audio_test","","","","","","","","","","","","","",""
"learning-instructions","4","86806","0.0-3.0-1.0-0.0","spark_pilot_2","7414","2","17","Female","","","","","","","3886.5","<p> Welcome! Please remember to stay in fullscreen mode and don't click away from the experiment. </p>","","instructions","","","","","","","","","","","","","",""
"learning-instructions","5","97850","0.0-3.0-1.0-0.1","spark_pilot_2","7414","2","17","Female","","","","","","","2604.0999999940395","<p> Today you will be playing a game to earn treasure. </p>
            <p> At the end of the experiment, you will earn a bonus based on how much treasure you find. </p>
            <img src='./assets/img/instructions/treasure.jpg' class='instructions-image'>","","instructions","","","","","","","","","","","","","",""
"learning-instructions","6","109969","0.0-3.0-1.0-0.2","spark_pilot_2","7414","2","17","Female","","","","","","","3831.5","<p> Animals have hidden treasure in treasure chests. </p>
            <p> You need to first find an animal and then choose which of their treasure chests to search. </p>
            <img src='./assets/img/space/animals/cat.jpg' class='instructions-image'>","","instructions","","","","","","","","","","","","","",""
"learning-instructions","7","125023","0.0-3.0-1.0-0.3","spark_pilot_2","7414","2","17","Female","","","","","","","1862.9000000059605","<p> In each round, you will search for treasure in a different place. In the real game, there will be two rounds. </p>
            <p> You will begin with a separate, practice round where you will search for treasure in outer space. </p>
            <img src='./assets/img/space/0.jpg' class='instructions-image'>","","instructions","","","","","","","","","","","","","",""
"learning-instructions","8","138342","0.0-3.0-1.0-0.4","spark_pilot_2","7414","2","17","Female","","","","","","","1880.2000000029802","<p> On every turn, you will see a picture of the place that you are in, but the specific image may be different each time. </p>
            <p> For example, both of these images mean you are in outer space. </p>
            <img src='./assets/img/instructions/outerspace.jpg' class='instructions-image'>","","instructions","","","","","","","","","","","","","",""
"learning-instructions","9","147797","0.0-3.0-1.0-0.5","spark_pilot_2","7414","2","17","Female","","","","","","","1595.6000000089407","<p> You need to decide which direction to travel in. </p>
            <p> You can choose between going <b>up or down</b> by using the arrow keys. </p>
            <img src='./assets/img/instructions/updown.jpg' class='instructions-image'>","","instructions","","","","","","","","","","","","","",""
"learning-instructions","10","157776","0.0-3.0-1.0-0.6","spark_pilot_2","7414","2","17","Female","","","","","","","1142.8999999910593","<p> You will have <b>2 seconds</b> to make your choice. </p>
            <p> If you do not make a choice within 2 seconds, you will not find an animal or earn treasure. </p>
            <img src='./assets/img/instructions/2seconds.jpg' class='instructions-image'>","","instructions","","","","","","","","","","","","","",""
"learning-instructions","11","165880","0.0-3.0-1.0-0.7","spark_pilot_2","7414","2","17","Female","","","","","","","1043.5","<p> Let’s try practicing that now! </p>
            <p> When you see a picture of the place you are in, press the <b>up</b> key to travel up. </p>
            <img src='./assets/img/instructions/pressUp.jpg' class='instructions-image'>","","instructions","","","","","","","","","","","","","",""
"revaluation","12","169919","0.0-3.0-2.0-0.0","spark_pilot_2","7414","2","17","Female","","false","","","","","[1135.8999999910593]","./assets/img/space/0.jpg","[""ArrowUp""]","first stage practice","space","0","null","null","ArrowUp","false","","","","","","","",""
"html-keyboard-response","13","170429","0.0-3.0-2.0-1.0","spark_pilot_2","7414","2","17","Female","","","","","","","null","<div style=""font-size:60px;"">+</div>","null","fixation","","","","","","","","","","","","","",""
"revaluation","14","174454","0.0-3.0-2.0-0.1","spark_pilot_2","7414","2","17","Female","","false","","","","","[993.1000000089407]","./assets/img/space/1.jpg","[""ArrowUp""]","first stage practice","space","0","null","null","ArrowUp","false","","","","","","","",""
"html-keyboard-response","15","174964","0.0-3.0-2.0-1.1","spark_pilot_2","7414","2","17","Female","","","","","","","null","<div style=""font-size:60px;"">+</div>","null","fixation","","","","","","","","","","","","","",""
"revaluation","16","178990","0.0-3.0-2.0-0.2","spark_pilot_2","7414","2","17","Female","","false","","","","","[337.30000001192093]","./assets/img/space/2.jpg","[""ArrowUp""]","first stage practice","space","0","null","null","ArrowUp","false","","","","","","","",""
"html-keyboard-response","17","179492","0.0-3.0-2.0-1.2","spark_pilot_2","7414","2","17","Female","","","","","","","null","<div style=""font-size:60px;"">+</div>","null","fixation","","","","","","","","","","","","","",""
"learning-instructions","18","186473","0.0-3.0-3.0-0.0","spark_pilot_2","7414","2","17","Female","","","","","","","2267.4000000059605","<p> Great job! Now try pressing the <b>down</b> key to travel down. </p>
            <img src='./assets/img/instructions/pressDown.jpg' class='instructions-image'>","","instructions","","","","","","","","","","","","","",""
"revaluation","19","190485","0.0-3.0-4.0-0.0","spark_pilot_2","7414","2","17","Female","","false","","","","","[665.2999999970198]","./assets/img/space/3.jpg","[""ArrowDown""]","first stage practice","space","0","null","null","ArrowDown","false","","","","","","","",""
"html-keyboard-response","20","190988","0.0-3.0-4.0-1.0","spark_pilot_2","7414","2","17","Female","","","","","","","null","<div style=""font-size:60px;"">+</div>","null","fixation","","","","","","","","","","","","","",""
"revaluation","21","195013","0.0-3.0-4.0-0.1","spark_pilot_2","7414","2","17","Female","","false","","","","","[456.20000000298023]","./assets/img/space/4.jpg","[""ArrowDown""]","first stage practice","space","0","null","null","ArrowDown","false","","","","","","","",""
"html-keyboard-response","22","195516","0.0-3.0-4.0-1.1","spark_pilot_2","7414","2","17","Female","","","","","","","null","<div style=""font-size:60px;"">+</div>","null","fixation","","","","","","","","","","","","","",""
"revaluation","23","199541","0.0-3.0-4.0-0.2","spark_pilot_2","7414","2","17","Female","","false","","","","","[457.1000000089407]","./assets/img/space/5.jpg","[""ArrowDown""]","first stage practice","space","0","null","null","ArrowDown","false","","","","","","","",""
"html-keyboard-response","24","200044","0.0-3.0-4.0-1.2","spark_pilot_2","7414","2","17","Female","","","","","","","null","<div style=""font-size:60px;"">+</div>","null","fixation","","","","","","","","","","","","","",""
"learning-instructions","25","214351","0.0-3.0-5.0-0.0","spark_pilot_2","7414","2","17","Female","","","","","","","4439.199999988079","<p> The animals don’t move, so the animal in the upper part of a place will stay in the upper part of a place, and the animal in the lower part of a place will stay in the lower part of a place. </p>","","instructions","","","","","","","","","","","","","",""
"learning-instructions","26","224684","0.0-3.0-5.0-0.1","spark_pilot_2","7414","2","17","Female","","","","","","","1171.4000000059605","<p> Each animal has two treasure chests for you to choose from. </p>
            <p> The amount of treasure in each chest can range from <b> 0 to 40 pieces.</b></p>","","instructions","","","","","","","","","","","","","",""
"learning-instructions","27","236446","0.0-3.0-5.0-0.2","spark_pilot_2","7414","2","17","Female","","","","","","","548.7999999970198","<p> You should decide which chest to search for treasure by using the <b>left</b> and <b>right</b> arrow keys. </p>
            <p><b> Pay attention to which animal is on the screen, as the animals have different treasure chests. </b></p>
            <img src='./assets/img/instructions/leftright.jpg' class='instructions-image'>","","instructions","","","","","","","","","","","","","",""
"learning-instructions","28","243460","0.0-3.0-5.0-0.3","spark_pilot_2","7414","2","17","Female","","","","","","","630.5","<p> Let’s try practicing that now. </p>
            <p> When you see an animal, choose which chest to search for treasure. </p>
            <img src='./assets/img/instructions/chooseChest.jpg' class='instructions-image'>","","instructions","","","","","","","","","","","","","",""
"revaluation","29","247478","0.0-3.0-6.0-0.0","spark_pilot_2","7414","2","17","Female","","false","","","","","[1311.2000000029802]","./assets/img/space/animals/cat.jpg","[""ArrowLeft""]","second stage practice","space","3","{""ArrowUp,ArrowLeft"":3,""ArrowUp,ArrowRight"":36,""ArrowDown,ArrowLeft"":15,""ArrowDown,ArrowRight"":23}","false","ArrowUp,ArrowLeft","","","","","","","","",""
"html-keyboard-response","30","247989","0.0-3.0-6.0-1.0","spark_pilot_2","7414","2","17","Female","","","","","","","null","<div style=""font-size:60px;"">+</div>","null","fixation","","","","","","","","","","","","","",""
"revaluation","31","252005","0.0-3.0-6.0-0.1","spark_pilot_2","7414","2","17","Female","","false","","","","","[1244.5]","./assets/img/space/animals/rabbit.jpg","[""ArrowRight""]","second stage practice","space","23","{""ArrowUp,ArrowLeft"":3,""ArrowUp,ArrowRight"":36,""ArrowDown,ArrowLeft"":15,""ArrowDown,ArrowRight"":23}","true","ArrowDown,ArrowRight","","","","","","","","",""
"html-keyboard-response","32","252509","0.0-3.0-6.0-1.1","spark_pilot_2","7414","2","17","Female","","","","","","","null","<div style=""font-size:60px;"">+</div>","null","fixation","","","","","","","","","","","","","",""
"revaluation","33","256533","0.0-3.0-6.0-0.2","spark_pilot_2","7414","2","17","Female","","true","","","","","[]","./assets/img/space/animals/cat.jpg","[]","second stage practice","space","-5","{""ArrowUp,ArrowLeft"":3,""ArrowUp,ArrowRight"":36,""ArrowDown,ArrowLeft"":15,""ArrowDown,ArrowRight"":23}","false","ArrowUp","","","","","","","","",""
"html-keyboard-response","34","257044","0.0-3.0-6.0-1.2","spark_pilot_2","7414","2","17","Female","","","","","","","null","<div style=""font-size:60px;"">+</div>","null","fixation","","","","","","","","","","","","","",""
"revaluation","35","261062","0.0-3.0-6.0-0.3","spark_pilot_2","7414","2","17","Female","","false","","","","","[1303.7999999970198]","./assets/img/space/animals/rabbit.jpg","[""ArrowLeft""]","second stage practice","space","15","{""ArrowUp,ArrowLeft"":3,""ArrowUp,ArrowRight"":36,""ArrowDown,ArrowLeft"":15,""ArrowDown,ArrowRight"":23}","false","ArrowDown,ArrowLeft","","","","","","","","",""
"html-keyboard-response","36","261564","0.0-3.0-6.0-1.3","spark_pilot_2","7414","2","17","Female","","","","","","","null","<div style=""font-size:60px;"">+</div>","null","fixation","","","","","","","","","","","","","",""
"learning-instructions","37","280702","0.0-3.0-7.0-0.0","spark_pilot_2","7414","2","17","Female","","","","","","","2288.4000000059605","<p> Great job. Now let’s try putting it together. </p>
            <p> On each turn, you will first see a picture to remind you of the place you are in, and you need to choose whether to go up or down. </p>
            <p> Then you will see an animal and choose which of its chests to search for treasure. </p>","","instructions","","","","","","","","","","","","","",""
"learning-instructions","38","289615","0.0-3.0-7.0-0.1","spark_pilot_2","7414","2","17","Female","","","","","","","630.2999999970198","<p> When you choose whether to go up or down, try to go to the animal with the chest with the most treasure. </p>
            <p> Try practicing that now! </p>","","instructions","","","","","","","","","","","","","",""
"revaluation","39","295637","0.0-3.0-8.0-0.0","spark_pilot_2","7414","2","17","Female","","false","","","","","[1160.3999999910593,740.2999999970198]","./assets/img/space/6.jpg","[""ArrowUp"",""ArrowLeft""]","full practice","space","3","{""ArrowUp,ArrowLeft"":3,""ArrowUp,ArrowRight"":36,""ArrowDown,ArrowLeft"":15,""ArrowDown,ArrowRight"":23}","false","ArrowUp,ArrowLeft","false","","","","","","","",""
"html-keyboard-response","40","296140","0.0-3.0-8.0-1.0","spark_pilot_2","7414","2","17","Female","","","","","","","null","<div style=""font-size:60px;"">+</div>","null","fixation","","","","","","","","","","","","","",""
"revaluation","41","302165","0.0-3.0-8.0-0.1","spark_pilot_2","7414","2","17","Female","","false","","","","","[663.2000000029802,403.3999999910593]","./assets/img/space/7.jpg","[""ArrowDown"",""ArrowRight""]","full practice","space","23","{""ArrowUp,ArrowLeft"":3,""ArrowUp,ArrowRight"":36,""ArrowDown,ArrowLeft"":15,""ArrowDown,ArrowRight"":23}","false","ArrowDown,ArrowRight","false","","","","","","","",""
"html-keyboard-response","42","302668","0.0-3.0-8.0-1.1","spark_pilot_2","7414","2","17","Female","","","","","","","null","<div style=""font-size:60px;"">+</div>","null","fixation","","","","","","","","","","","","","",""
"revaluation","43","308693","0.0-3.0-8.0-0.2","spark_pilot_2","7414","2","17","Female","","false","","","","","[797.5,587.6000000089407]","./assets/img/space/8.jpg","[""ArrowDown"",""ArrowLeft""]","full practice","space","15","{""ArrowUp,ArrowLeft"":3,""ArrowUp,ArrowRight"":36,""ArrowDown,ArrowLeft"":15,""ArrowDown,ArrowRight"":23}","false","ArrowDown,ArrowLeft","false","","","","","","","",""
"html-keyboard-response","44","309196","0.0-3.0-8.0-1.2","spark_pilot_2","7414","2","17","Female","","","","","","","null","<div style=""font-size:60px;"">+</div>","null","fixation","","","","","","","","","","","","","",""
"revaluation","45","315221","0.0-3.0-8.0-0.3","spark_pilot_2","7414","2","17","Female","","false","","","","","[463.09999999403954,545.7999999970198]","./assets/img/space/9.jpg","[""ArrowUp"",""ArrowRight""]","full practice","space","36","{""ArrowUp,ArrowLeft"":3,""ArrowUp,ArrowRight"":36,""ArrowDown,ArrowLeft"":15,""ArrowDown,ArrowRight"":23}","true","ArrowUp,ArrowRight","false","","","","","","","",""
"html-keyboard-response","46","315724","0.0-3.0-8.0-1.3","spark_pilot_2","7414","2","17","Female","","","","","","","null","<div style=""font-size:60px;"">+</div>","null","fixation","","","","","","","","","","","","","",""
"revaluation","47","321749","0.0-3.0-8.0-0.4","spark_pilot_2","7414","2","17","Female","","false","","","","","[854.0999999940395,606]","./assets/img/space/10.jpg","[""ArrowUp"",""ArrowRight""]","full practice","space","36","{""ArrowUp,ArrowLeft"":3,""ArrowUp,ArrowRight"":36,""ArrowDown,ArrowLeft"":15,""ArrowDown,ArrowRight"":23}","true","ArrowUp,ArrowRight","false","","","","","","","",""
"html-keyboard-response","48","322252","0.0-3.0-8.0-1.4","spark_pilot_2","7414","2","17","Female","","","","","","","null","<div style=""font-size:60px;"">+</div>","null","fixation","","","","","","","","","","","","","",""
"learning-instructions","49","334744","0.0-3.0-9.0-0.0","spark_pilot_2","7414","2","17","Female","","","","","","","2097.300000011921","<p> One last thing: sometimes, you will see a robber. The robber can be anywhere in the picture. </p>
            <p> If you do not stop them, you will lose treasure. </p>
            <img src='./assets/img/instructions/robber.jpg' class='instructions-image'>","","instructions","","","","","","","","","","","","","",""
"learning-instructions","50","342681","0.0-3.0-9.0-0.1","spark_pilot_2","7414","2","17","Female","","","","","","","743.2999999970198","<p> If you see the robber, you should <b>press the space bar</b> rather than using the arrow keys. </p>
            <p> Try practicing that now! </p>","","instructions","","","","","","","","","","","","","",""
"revaluation","51","346701","0.0-3.0-10.0-0.0","spark_pilot_2","7414","2","17","Female","","false","","","","","[748.5999999940395]","./assets/img/space/catch/0.jpg","[""spaceBar""]","catch practice","space","0","{""ArrowUp,ArrowLeft"":3,""ArrowUp,ArrowRight"":36,""ArrowDown,ArrowLeft"":15,""ArrowDown,ArrowRight"":23}","true","spaceBar","true","","","","","","","",""
"html-keyboard-response","52","347205","0.0-3.0-10.0-1.0","spark_pilot_2","7414","2","17","Female","","","","","","","null","<div style=""font-size:60px;"">+</div>","null","fixation","","","","","","","","","","","","","",""
"revaluation","53","351221","0.0-3.0-10.0-0.1","spark_pilot_2","7414","2","17","Female","","false","","","","","[674.5]","./assets/img/space/catch/1.jpg","[""spaceBar""]","catch practice","space","0","{""ArrowUp,ArrowLeft"":3,""ArrowUp,ArrowRight"":36,""ArrowDown,ArrowLeft"":15,""ArrowDown,ArrowRight"":23}","true","spaceBar","true","","","","","","","",""
"html-keyboard-response","54","351725","0.0-3.0-10.0-1.1","spark_pilot_2","7414","2","17","Female","","","","","","","null","<div style=""font-size:60px;"">+</div>","null","fixation","","","","","","","","","","","","","",""
"revaluation","55","355741","0.0-3.0-10.0-0.2","spark_pilot_2","7414","2","17","Female","","false","","","","","[614]","./assets/img/space/catch/2.jpg","[""spaceBar""]","catch practice","space","0","{""ArrowUp,ArrowLeft"":3,""ArrowUp,ArrowRight"":36,""ArrowDown,ArrowLeft"":15,""ArrowDown,ArrowRight"":23}","true","spaceBar","true","","","","","","","",""
"html-keyboard-response","56","356244","0.0-3.0-10.0-1.2","spark_pilot_2","7414","2","17","Female","","","","","","","null","<div style=""font-size:60px;"">+</div>","null","fixation","","","","","","","","","","","","","",""
"learning-instructions","57","371785","0.0-3.0-11.0-0.0","spark_pilot_2","7414","2","17","Female","","","","","","","1902.9000000059605","<p> After you explore a place to find treasure, it will be time to play a different game. </p>
            <p> During this game, red dots will appear on the screen and fall down slowly. </p>
            <p><b> You must click on them before they reach the bottom. </b></p>
            <img src='./assets/img/instructions/dotGame.jpg' class='instructions-image'>","","instructions","","","","","","","","","","","","","",""
"learning-instructions","58","378768","0.0-3.0-11.0-0.1","spark_pilot_2","7414","2","17","Female","","","","","","","1279.800000011921","<p> For every dot you click, you will earn additional treasure. </p>
            <p> Let’s try practicing that now. </p>","","instructions","","","","","","","","","","","","","",""
"revaluation","59","393782","0.0-3.0-12.0-0.0","spark_pilot_2","7414","2","17","Female","","","","","","","[131]","","","rest practice","","10","","","","","0","15000","","","","","",""
"learning-instructions","60","401547","0.0-3.0-13.0-0.0-0.0","spark_pilot_2","7414","2","17","Female","","","","","","","2479","<p> Now, you will practice a shortened version of the game to get a sense of how it all fits together. </p>","","instructions","","","","","","","","","","","","","",""
"learning-instructions","61","405565","0.0-3.0-13.0-0.0-0.1","spark_pilot_2","7414","2","17","Female","","","","","","","811.2000000029802","<p>This time you are searching for treasure in outer space.</p>","","instructions","","","","","","","","","","","","","",""
"learning-instructions","62","421184","0.0-3.0-13.0-1.0-0.0","spark_pilot_2","7414","2","17","Female","","","","","","","815","<p> Remember, when you see a picture of the place, use the up and down keys to <b>find an animal</b>.</p>
            <p> When you encounter an animal, you should use the left and right keys to <b>select a treasure chest</b>.</p>
            <p> Don't forget to look out for the robber! </p>","","instructions","","","","","","","","","","","","","",""
"revaluation","63","427214","0.0-3.0-13.0-2.0-0.0","spark_pilot_2","7414","2","17","Female","","false","","","","","[984.2000000029802,564.9000000059605]","./assets/img/space/11.jpg","[""ArrowUp"",""ArrowRight""]","practice block","space","36","{""ArrowUp,ArrowLeft"":3,""ArrowUp,ArrowRight"":36,""ArrowDown,ArrowLeft"":15,""ArrowDown,ArrowRight"":23}","true","ArrowUp,ArrowRight","false","","","","","","","",""
"html-keyboard-response","64","427724","0.0-3.0-13.0-2.0-1.0","spark_pilot_2","7414","2","17","Female","","","","","","","null","<div style=""font-size:60px;"">+</div>","null","fixation","","","","","","","","","","","","","",""
"revaluation","65","433757","0.0-3.0-13.0-2.0-0.1","spark_pilot_2","7414","2","17","Female","","false","","","","","[841.6000000089407,474.69999998807907]","./assets/img/space/12.jpg","[""ArrowUp"",""ArrowRight""]","practice block","space","36","{""ArrowUp,ArrowLeft"":3,""ArrowUp,ArrowRight"":36,""ArrowDown,ArrowLeft"":15,""ArrowDown,ArrowRight"":23}","true","ArrowUp,ArrowRight","false","","","","","","","",""
"html-keyboard-response","66","434260","0.0-3.0-13.0-2.0-1.1","spark_pilot_2","7414","2","17","Female","","","","","","","null","<div style=""font-size:60px;"">+</div>","null","fixation","","","","","","","","","","","","","",""
"revaluation","67","440285","0.0-3.0-13.0-2.0-0.2","spark_pilot_2","7414","2","17","Female","","false","","","","","[1245,642.0999999940395]","./assets/img/space/13.jpg","[""ArrowDown"",""ArrowRight""]","practice block","space","23","{""ArrowUp,ArrowLeft"":3,""ArrowUp,ArrowRight"":36,""ArrowDown,ArrowLeft"":15,""ArrowDown,ArrowRight"":23}","false","ArrowDown,ArrowRight","false","","","","","","","",""
"html-keyboard-response","68","440788","0.0-3.0-13.0-2.0-1.2","spark_pilot_2","7414","2","17","Female","","","","","","","null","<div style=""font-size:60px;"">+</div>","null","fixation","","","","","","","","","","","","","",""
"revaluation","69","446821","0.0-3.0-13.0-2.0-0.3","spark_pilot_2","7414","2","17","Female","","false","","","","","[1033.5999999940395,479.29999999701977]","./assets/img/space/14.jpg","[""ArrowUp"",""ArrowRight""]","practice block","space","36","{""ArrowUp,ArrowLeft"":3,""ArrowUp,ArrowRight"":36,""ArrowDown,ArrowLeft"":15,""ArrowDown,ArrowRight"":23}","true","ArrowUp,ArrowRight","false","","","","","","","",""
"html-keyboard-response","70","447324","0.0-3.0-13.0-2.0-1.3","spark_pilot_2","7414","2","17","Female","","","","","","","null","<div style=""font-size:60px;"">+</div>","null","fixation","","","","","","","","","","","","","",""
"revaluation","71","453349","0.0-3.0-13.0-2.0-0.4","spark_pilot_2","7414","2","17","Female","","false","","","","","[1176.699999988079,546.2999999970198]","./assets/img/space/11.jpg","[""ArrowUp"",""ArrowRight""]","practice block","space","36","{""ArrowUp,ArrowLeft"":3,""ArrowUp,ArrowRight"":36,""ArrowDown,ArrowLeft"":15,""ArrowDown,ArrowRight"":23}","true","ArrowUp,ArrowRight","false","","","","","","","",""
"html-keyboard-response","72","453852","0.0-3.0-13.0-2.0-1.4","spark_pilot_2","7414","2","17","Female","","","","","","","null","<div style=""font-size:60px;"">+</div>","null","fixation","","","","","","","","","","","","","",""
"revaluation","73","459877","0.0-3.0-13.0-2.0-0.5","spark_pilot_2","7414","2","17","Female","","false","","","","","[948.7999999970198,315.79999999701977]","./assets/img/space/12.jpg","[""ArrowUp"",""ArrowRight""]","practice block","space","36","{""ArrowUp,ArrowLeft"":3,""ArrowUp,ArrowRight"":36,""ArrowDown,ArrowLeft"":15,""ArrowDown,ArrowRight"":23}","true","ArrowUp,ArrowRight","false","","","","","","","",""
"html-keyboard-response","74","460380","0.0-3.0-13.0-2.0-1.5","spark_pilot_2","7414","2","17","Female","","","","","","","null","<div style=""font-size:60px;"">+</div>","null","fixation","","","","","","","","","","","","","",""
"revaluation","75","466413","0.0-3.0-13.0-2.0-0.6","spark_pilot_2","7414","2","17","Female","","false","","","","","[1171.1000000089407,465.59999999403954]","./assets/img/space/13.jpg","[""ArrowUp"",""ArrowRight""]","practice block","space","36","{""ArrowUp,ArrowLeft"":3,""ArrowUp,ArrowRight"":36,""ArrowDown,ArrowLeft"":15,""ArrowDown,ArrowRight"":23}","true","ArrowUp,ArrowRight","false","","","","","","","",""
"html-keyboard-response","76","466916","0.0-3.0-13.0-2.0-1.6","spark_pilot_2","7414","2","17","Female","","","","","","","null","<div style=""font-size:60px;"">+</div>","null","fixation","","","","","","","","","","","","","",""
"revaluation","77","472941","0.0-3.0-13.0-2.0-0.7","spark_pilot_2","7414","2","17","Female","","false","","","","","[529.5,354]","./assets/img/space/14.jpg","[""ArrowUp"",""ArrowRight""]","practice block","space","36","{""ArrowUp,ArrowLeft"":3,""ArrowUp,ArrowRight"":36,""ArrowDown,ArrowLeft"":15,""ArrowDown,ArrowRight"":23}","true","ArrowUp,ArrowRight","false","","","","","","","",""
"html-keyboard-response","78","473444","0.0-3.0-13.0-2.0-1.7","spark_pilot_2","7414","2","17","Female","","","","","","","null","<div style=""font-size:60px;"">+</div>","null","fixation","","","","","","","","","","","","","",""
"revaluation","79","477469","0.0-3.0-13.0-2.0-0.8","spark_pilot_2","7414","2","17","Female","","false","","","","","[1372.800000011921]","./assets/img/space/catch/3.jpg","[""spaceBar""]","practice block","space","0","{""ArrowUp,ArrowLeft"":3,""ArrowUp,ArrowRight"":36,""ArrowDown,ArrowLeft"":15,""ArrowDown,ArrowRight"":23}","true","spaceBar","true","","","","","","","",""
"html-keyboard-response","80","477972","0.0-3.0-13.0-2.0-1.8","spark_pilot_2","7414","2","17","Female","","","","","","","null","<div style=""font-size:60px;"">+</div>","null","fixation","","","","","","","","","","","","","",""
"learning-instructions","81","492747","0.0-3.0-13.0-3.0-0.0","spark_pilot_2","7414","2","17","Female","","","","","","","1812.4000000059605","<p> Now, you will travel with a friend who will choose whether you go up or down first. </p>
            <p> On these turns, you will just see the animal that they found. You will still get to choose which chest to search for treasure.</p>","","instructions","","","","","","","","","","","","","",""
"revaluation","82","496765","0.0-3.0-13.0-4.0-0.0","spark_pilot_2","7414","2","17","Female","","false","","","","","[890]","./assets/img/space/animals/cat.jpg","[""ArrowRight""]","practice block","space","36","{""ArrowUp,ArrowLeft"":3,""ArrowUp,ArrowRight"":36,""ArrowDown,ArrowLeft"":15,""ArrowDown,ArrowRight"":23}","true","ArrowUp,ArrowRight","","","","","","","","",""
"html-keyboard-response","83","497269","0.0-3.0-13.0-4.0-1.0","spark_pilot_2","7414","2","17","Female","","","","","","","null","<div style=""font-size:60px;"">+</div>","null","fixation","","","","","","","","","","","","","",""
"revaluation","84","501285","0.0-3.0-13.0-4.0-0.1","spark_pilot_2","7414","2","17","Female","","false","","","","","[625]","./assets/img/space/animals/cat.jpg","[""ArrowRight""]","practice block","space","36","{""ArrowUp,ArrowLeft"":3,""ArrowUp,ArrowRight"":36,""ArrowDown,ArrowLeft"":15,""ArrowDown,ArrowRight"":23}","true","ArrowUp,ArrowRight","","","","","","","","",""
"html-keyboard-response","85","501789","0.0-3.0-13.0-4.0-1.1","spark_pilot_2","7414","2","17","Female","","","","","","","null","<div style=""font-size:60px;"">+</div>","null","fixation","","","","","","","","","","","","","",""
"revaluation","86","505805","0.0-3.0-13.0-4.0-0.2","spark_pilot_2","7414","2","17","Female","","false","","","","","[877.4000000059605]","./assets/img/space/animals/rabbit.jpg","[""ArrowLeft""]","practice block","space","15","{""ArrowUp,ArrowLeft"":3,""ArrowUp,ArrowRight"":36,""ArrowDown,ArrowLeft"":15,""ArrowDown,ArrowRight"":23}","false","ArrowDown,ArrowLeft","","","","","","","","",""
"html-keyboard-response","87","506308","0.0-3.0-13.0-4.0-1.2","spark_pilot_2","7414","2","17","Female","","","","","","","null","<div style=""font-size:60px;"">+</div>","null","fixation","","","","","","","","","","","","","",""
"revaluation","88","510333","0.0-3.0-13.0-4.0-0.3","spark_pilot_2","7414","2","17","Female","","false","","","","","[346.5]","./assets/img/space/animals/rabbit.jpg","[""ArrowRight""]","practice block","space","23","{""ArrowUp,ArrowLeft"":3,""ArrowUp,ArrowRight"":36,""ArrowDown,ArrowLeft"":15,""ArrowDown,ArrowRight"":23}","true","ArrowDown,ArrowRight","","","","","","","","",""
"html-keyboard-response","89","510838","0.0-3.0-13.0-4.0-1.3","spark_pilot_2","7414","2","17","Female","","","","","","","null","<div style=""font-size:60px;"">+</div>","null","fixation","","","","","","","","","","","","","",""
"learning-instructions","90","519745","0.0-3.0-13.0-5.0-0.0","spark_pilot_2","7414","2","17","Female","","","","","","","1514.3999999910593","<p> Time to play the dot game! </p>
            <p> For 15 seconds, click the red dots on the following screen as they appear. </p>","","instructions","","","","","","","","","","","","","",""
"revaluation","91","534749","0.0-3.0-13.0-6.0-0.0","spark_pilot_2","7414","2","17","Female","","","","","","","[133]","","","rest practice","","10","","","","","0","15000","","","","","",""
"learning-instructions","92","542465","0.0-3.0-13.0-7.0-0.0","spark_pilot_2","7414","2","17","Female","","","","","","","1566","<p> You have almost finished this part of the game! </p>
            <p> We are going to ask you to make a few more choices. </p>","","instructions","","","","","","","","","","","","","",""
"learning-instructions","93","558668","0.0-3.0-13.0-7.0-0.1","spark_pilot_2","7414","2","17","Female","","","","","","","2165.0999999940395","<p> First, you need to decide whether to go up or down. When you see each picture, use the arrow keys to make your choice. </p>
            <p><b>You will not see which animal you found, but try to get to the one that will give you the most treasure.</b></p>","","instructions","","","","","","","","","","","","","",""
"revaluation","94","559835","0.0-3.0-13.0-8.0","spark_pilot_2","7414","2","17","Female","","false","","","","","[1160.5]","./assets/img/space/15.jpg","[""ArrowUp""]","practice block","space","0","{""ArrowUp,ArrowLeft"":3,""ArrowUp,ArrowRight"":36,""ArrowDown,ArrowLeft"":15,""ArrowDown,ArrowRight"":23}","true","ArrowUp","false","","","","","","","",""
"html-keyboard-response","95","560340","0.0-3.0-13.0-9.0","spark_pilot_2","7414","2","17","Female","","","","","","","null","<div style=""font-size:60px;"">+</div>","null","fixation","","","","","","","","","","","","","",""
"learning-instructions","96","574445","0.0-3.0-13.0-10.0-0.0","spark_pilot_2","7414","2","17","Female","","","","","","","2688.2999999970198","<p> Now you will see the animals again and can search their chests for treasure. </p>
            <p> This time, you will not see how much treasure you earned, but you will earn more bonus money for making better choices. </p>","","instructions","","","","","","","","","","","","","",""
"revaluation","97","575239","0.0-3.0-13.0-11.0-0.0","spark_pilot_2","7414","2","17","Female","","false","","","","","[788.5999999940395]","./assets/img/space/animals/cat.jpg","[""ArrowRight""]","practice block","space","0","{""ArrowUp,ArrowLeft"":3,""ArrowUp,ArrowRight"":36,""ArrowDown,ArrowLeft"":15,""ArrowDown,ArrowRight"":23}","true","ArrowUp,ArrowRight","","","","","","","","",""
"html-keyboard-response","98","575748","0.0-3.0-13.0-11.0-1.0","spark_pilot_2","7414","2","17","Female","","","","","","","null","<div style=""font-size:60px;"">+</div>","null","fixation","","","","","","","","","","","","","",""
"revaluation","99","576889","0.0-3.0-13.0-11.0-0.1","spark_pilot_2","7414","2","17","Female","","false","","","","","[1134.5999999940395]","./assets/img/space/animals/rabbit.jpg","[""ArrowRight""]","practice block","space","0","{""ArrowUp,ArrowLeft"":3,""ArrowUp,ArrowRight"":36,""ArrowDown,ArrowLeft"":15,""ArrowDown,ArrowRight"":23}","true","ArrowDown,ArrowRight","","","","","","","","",""
"html-keyboard-response","100","577396","0.0-3.0-13.0-11.0-1.1","spark_pilot_2","7414","2","17","Female","","","","","","","null","<div style=""font-size:60px;"">+</div>","null","fixation","","","","","","","","","","","","","",""
"learning-instructions","101","608539","0.0-3.0-14.0-0.0","spark_pilot_2","7414","2","17","Female","","","","","","","26542.10000000894","<p> Before you start, we're going to ask you a few questions about how the game works. </p>","","instructions","","","","","","","","","","","","","",""
"comp-q","102","615267","0.0-3.0-15.0-0.0-0.0","spark_pilot_2","7414","2","17","Female","","","","","","","1104.699999988079","<p> <b> True or False? </b> </p>
            <p> There can be 50 pieces of treasure in a given animal's chest. </p>","0","comp_question","","","","false","","","","","","","","","",""
"comp-q","103","623228","0.0-3.0-15.0-0.0-1.0","spark_pilot_2","7414","2","17","Female","","","","","","","1401.7999999970198","<p> <b>Incorrect.</b> The amount of treasure in each chest can range from 0 to 40 pieces. </p>","0","comp_answer","","","","","","","","","","","","","",""
"comp-q","104","629732","0.0-3.0-15.0-0.1-0.1","spark_pilot_2","7414","2","17","Female","","","","","","","930","<p> <b> True or False? </b> </p>
            <p> There can be 50 pieces of treasure in a given animal's chest. </p>","1","comp_question","","","","true","","","","","","","","","",""
"comp-q","105","637811","0.0-3.0-15.0-0.1-1.1","spark_pilot_2","7414","2","17","Female","","","","","","","1361.3999999910593","<p> <b> That's right! </b> The amount of treasure in each chest can range from 0 to 40 pieces. </p>","0","comp_answer","","","","","","","","","","","","","",""
"comp-q","106","645688","0.0-3.0-15.0-0.2-0.2","spark_pilot_2","7414","2","17","Female","","","","","","","735.9000000059605","<p> <b> True or False? </b> </p><p> In this game, all animals have the same amount of treasure in their left and right chests. </p>","1","comp_question","","","","true","","","","","","","","","",""
"comp-q","107","652582","0.0-3.0-15.0-0.2-1.2","spark_pilot_2","7414","2","17","Female","","","","","","","1635.5999999940395","<p> <b> That's right! </b> Animals have different amounts of treasure in their treasure chests. </p>","0","comp_answer","","","","","","","","","","","","","",""
"comp-q","108","659934","0.0-3.0-15.0-0.3-0.3","spark_pilot_2","7414","2","17","Female","","","","","","","1478.5","<p> <b> True or False? </b> </p><p> The same animal will always be there if you go up in the same place. </p>","1","comp_question","","","","false","","","","","","","","","",""
"comp-q","109","667737","0.0-3.0-15.0-0.3-1.3","spark_pilot_2","7414","2","17","Female","","","","","","","1473.7000000029802","<p> <b>Incorrect.</b> One animal lives in the upper part and one lives in the lower part of every place. </p>","0","comp_answer","","","","","","","","","","","","","",""
"comp-q","110","674487","0.0-3.0-15.0-0.4-0.4","spark_pilot_2","7414","2","17","Female","","","","","","","927.2999999970198","<p> <b> True or False? </b> </p><p> The same animal will always be there if you go up in the same place. </p>","0","comp_question","","","","true","","","","","","","","","",""
"comp-q","111","685015","0.0-3.0-15.0-0.4-1.4","spark_pilot_2","7414","2","17","Female","","","","","","","4052","<p> <b> That's right! </b> One animal lives in the upper part and one lives in the lower part of every place. </p>","0","comp_answer","","","","","","","","","","","","","",""
"comp-q","112","692303","0.0-3.0-15.0-0.5-0.5","spark_pilot_2","7414","2","17","Female","","","","","","","1740.6000000089407","<p> <b> True or False? </b> </p><p> If you see a different picture, it means you are in a new place. </p>","1","comp_question","","","","true","","","","","","","","","",""
"comp-q","113","704824","0.0-3.0-15.0-0.5-1.5","spark_pilot_2","7414","2","17","Female","","","","","","","1249.2000000029802","<p> <b> That's right! </b> Lots of different images may show the same place. For example,  you may see three different images that all remind you that you are in outer space. </p>","0","comp_answer","","","","","","","","","","","","","",""
"learning-instructions","114","716343","0.0-3.0-16.0-0.0","spark_pilot_2","7414","2","17","Female","","","","","","","1642.0999999940395","<p> Good job. Remember to do your best because the amount of treasure you earn will be converted into bonus money. </p>
            <p> It’s time to start the real game! </p>","","instructions","","","","","","","","","","","","","",""
"learning-instructions","115","720050","0.0-4.0-0.0-0.0","spark_pilot_2","7414","2","17","Female","","","","","","","975.2999999970198","<p> This time you are searching for treasure in the <b>ocean</b>.</p>","","instructions","","","","","","","","","","","","","",""
"learning-instructions","116","739326","0.0-4.0-0.0-0.1","spark_pilot_2","7414","2","17","Female","","","","","","","1937.199999988079","<p><b>New</b> animals with <b>new</b> treasure chests live here. You need to explore to discover where the animal with the best treasure chest is.</p>
                    <p> Like before, once you figure out which animal has the chest with the most treasure, you should try to get to that animal and select that chest! </p>","","instructions","","","","","","","","","","","","","",""
"learning-instructions","117","755073","0.0-4.0-1.0-0.0","spark_pilot_2","7414","2","17","Female","","","","","","","1011.1000000089407","<p> Remember, when you see a picture of the place, use the up and down keys to <b>find an animal</b>.</p>
            <p> When you encounter an animal, you should use the left and right keys to <b>select a treasure chest</b>.</p>
            <p> Don't forget to look out for the robber! </p>","","instructions","","","","","","","","","","","","","",""
"revaluation","118","761101","0.0-4.0-2.0-0.0","spark_pilot_2","7414","2","17","Female","","false","","","","","[1289.5,717.2999999970198]","./assets/img/ocean/memory/5.jpg","[""ArrowUp"",""ArrowRight""]","value training","ocean","10","{""ArrowUp,ArrowLeft"":23,""ArrowUp,ArrowRight"":10,""ArrowDown,ArrowLeft"":8,""ArrowDown,ArrowRight"":30}","false","ArrowUp,ArrowRight","false","","","revaluation","1","0","","",""
"html-keyboard-response","119","761612","0.0-4.0-2.0-1.0","spark_pilot_2","7414","2","17","Female","","","","","","","null","<div style=""font-size:60px;"">+</div>","null","fixation","","","","","","","","","","","1","","",""
"revaluation","120","767637","0.0-4.0-2.0-0.1","spark_pilot_2","7414","2","17","Female","","false","","","","","[421.79999999701977,763.7999999970198]","./assets/img/ocean/memory/19.jpg","[""ArrowUp"",""ArrowLeft""]","value training","ocean","23","{""ArrowUp,ArrowLeft"":23,""ArrowUp,ArrowRight"":10,""ArrowDown,ArrowLeft"":8,""ArrowDown,ArrowRight"":30}","false","ArrowUp,ArrowLeft","false","","","revaluation","1","2","","",""
"html-keyboard-response","121","768148","0.0-4.0-2.0-1.1","spark_pilot_2","7414","2","17","Female","","","","","","","null","<div style=""font-size:60px;"">+</div>","null","fixation","","","","","","","","","","","3","","",""
"revaluation","122","774173","0.0-4.0-2.0-0.2","spark_pilot_2","7414","2","17","Female","","false","","","","","[420,811.2999999970198]","./assets/img/ocean/memory/11.jpg","[""ArrowDown"",""ArrowLeft""]","value training","ocean","8","{""ArrowUp,ArrowLeft"":23,""ArrowUp,ArrowRight"":10,""ArrowDown,ArrowLeft"":8,""ArrowDown,ArrowRight"":30}","false","ArrowDown,ArrowLeft","false","","","revaluation","1","4","","",""
"html-keyboard-response","123","774676","0.0-4.0-2.0-1.2","spark_pilot_2","7414","2","17","Female","","","","","","","null","<div style=""font-size:60px;"">+</div>","null","fixation","","","","","","","","","","","5","","",""
"revaluation","124","778693","0.0-4.0-2.0-0.3","spark_pilot_2","7414","2","17","Female","","false","","","","","[510.3999999910593]","./assets/img/ocean/catch/5.jpg","[""ArrowDown""]","value training","ocean","-10","{""ArrowUp,ArrowLeft"":23,""ArrowUp,ArrowRight"":10,""ArrowDown,ArrowLeft"":8,""ArrowDown,ArrowRight"":30}","false","ArrowDown","true","","","revaluation","1","6","","",""
"html-keyboard-response","125","779196","0.0-4.0-2.0-1.3","spark_pilot_2","7414","2","17","Female","","","","","","","null","<div style=""font-size:60px;"">+</div>","null","fixation","","","","","","","","","","","7","","",""
"revaluation","126","785222","0.0-4.0-2.0-0.4","spark_pilot_2","7414","2","17","Female","","false","","","","","[1269.9000000059605,438.29999999701977]","./assets/img/ocean/memory/4.jpg","[""ArrowUp"",""ArrowRight""]","value training","ocean","10","{""ArrowUp,ArrowLeft"":23,""ArrowUp,ArrowRight"":10,""ArrowDown,ArrowLeft"":8,""ArrowDown,ArrowRight"":30}","false","ArrowUp,ArrowRight","false","","","revaluation","1","8","","",""
"html-keyboard-response","127","785724","0.0-4.0-2.0-1.4","spark_pilot_2","7414","2","17","Female","","","","","","","null","<div style=""font-size:60px;"">+</div>","null","fixation","","","","","","","","","","","9","","",""
"revaluation","128","789741","0.0-4.0-2.0-0.5","spark_pilot_2","7414","2","17","Female","","false","","","","","[1191]","./assets/img/ocean/catch/6.jpg","[""spaceBar""]","value training","ocean","0","{""ArrowUp,ArrowLeft"":23,""ArrowUp,ArrowRight"":10,""ArrowDown,ArrowLeft"":8,""ArrowDown,ArrowRight"":30}","true","spaceBar","true","","","revaluation","1","10","","",""
"html-keyboard-response","129","790244","0.0-4.0-2.0-1.5","spark_pilot_2","7414","2","17","Female","","","","","","","null","<div style=""font-size:60px;"">+</div>","null","fixation","","","","","","","","","","","11","","",""
"revaluation","130","796269","0.0-4.0-2.0-0.6","spark_pilot_2","7414","2","17","Female","","false","","","","","[483,377.90000000596046]","./assets/img/ocean/memory/27.jpg","[""ArrowUp"",""ArrowLeft""]","value training","ocean","23","{""ArrowUp,ArrowLeft"":23,""ArrowUp,ArrowRight"":10,""ArrowDown,ArrowLeft"":8,""ArrowDown,ArrowRight"":30}","false","ArrowUp,ArrowLeft","false","","","revaluation","1","12","","",""
"html-keyboard-response","131","796772","0.0-4.0-2.0-1.6","spark_pilot_2","7414","2","17","Female","","","","","","","null","<div style=""font-size:60px;"">+</div>","null","fixation","","","","","","","","","","","13","","",""
"revaluation","132","802797","0.0-4.0-2.0-0.7","spark_pilot_2","7414","2","17","Female","","false","","","","","[702.5999999940395,529.7999999970198]","./assets/img/ocean/memory/31.jpg","[""ArrowDown"",""ArrowRight""]","value training","ocean","30","{""ArrowUp,ArrowLeft"":23,""ArrowUp,ArrowRight"":10,""ArrowDown,ArrowLeft"":8,""ArrowDown,ArrowRight"":30}","true","ArrowDown,ArrowRight","false","","","revaluation","1","14","","",""
"html-keyboard-response","133","803300","0.0-4.0-2.0-1.7","spark_pilot_2","7414","2","17","Female","","","","","","","null","<div style=""font-size:60px;"">+</div>","null","fixation","","","","","","","","","","","15","","",""
"revaluation","134","809325","0.0-4.0-2.0-0.8","spark_pilot_2","7414","2","17","Female","","false","","","","","[1013,565.7999999970198]","./assets/img/ocean/memory/37.jpg","[""ArrowUp"",""ArrowLeft""]","value training","ocean","23","{""ArrowUp,ArrowLeft"":23,""ArrowUp,ArrowRight"":10,""ArrowDown,ArrowLeft"":8,""ArrowDown,ArrowRight"":30}","false","ArrowUp,ArrowLeft","false","","","revaluation","1","16","","",""
"html-keyboard-response","135","809828","0.0-4.0-2.0-1.8","spark_pilot_2","7414","2","17","Female","","","","","","","null","<div style=""font-size:60px;"">+</div>","null","fixation","","","","","","","","","","","17","","",""
"revaluation","136","815853","0.0-4.0-2.0-0.9","spark_pilot_2","7414","2","17","Female","","false","","","","","[657.1000000089407,342.8999999910593]","./assets/img/ocean/memory/39.jpg","[""ArrowDown"",""ArrowRight""]","value training","ocean","30","{""ArrowUp,ArrowLeft"":23,""ArrowUp,ArrowRight"":10,""ArrowDown,ArrowLeft"":8,""ArrowDown,ArrowRight"":30}","true","ArrowDown,ArrowRight","false","","","revaluation","1","18","","",""
"html-keyboard-response","137","816356","0.0-4.0-2.0-1.9","spark_pilot_2","7414","2","17","Female","","","","","","","null","<div style=""font-size:60px;"">+</div>","null","fixation","","","","","","","","","","","19","","",""
"revaluation","138","822381","0.0-4.0-2.0-0.10","spark_pilot_2","7414","2","17","Female","","false","","","","","[524,311.29999999701977]","./assets/img/ocean/memory/27.jpg","[""ArrowDown"",""ArrowRight""]","value training","ocean","30","{""ArrowUp,ArrowLeft"":23,""ArrowUp,ArrowRight"":10,""ArrowDown,ArrowLeft"":8,""ArrowDown,ArrowRight"":30}","true","ArrowDown,ArrowRight","false","","","revaluation","1","20","","",""
"html-keyboard-response","139","822884","0.0-4.0-2.0-1.10","spark_pilot_2","7414","2","17","Female","","","","","","","null","<div style=""font-size:60px;"">+</div>","null","fixation","","","","","","","","","","","21","","",""
"revaluation","140","828909","0.0-4.0-2.0-0.11","spark_pilot_2","7414","2","17","Female","","false","","","","","[838.5,413.19999998807907]","./assets/img/ocean/memory/20.jpg","[""ArrowDown"",""ArrowRight""]","value training","ocean","30","{""ArrowUp,ArrowLeft"":23,""ArrowUp,ArrowRight"":10,""ArrowDown,ArrowLeft"":8,""ArrowDown,ArrowRight"":30}","true","ArrowDown,ArrowRight","false","","","revaluation","1","22","","",""
"html-keyboard-response","141","829412","0.0-4.0-2.0-1.11","spark_pilot_2","7414","2","17","Female","","","","","","","null","<div style=""font-size:60px;"">+</div>","null","fixation","","","","","","","","","","","23","","",""
"revaluation","142","835437","0.0-4.0-2.0-0.12","spark_pilot_2","7414","2","17","Female","","false","","","","","[594.4000000059605,314.90000000596046]","./assets/img/ocean/memory/29.jpg","[""ArrowDown"",""ArrowRight""]","value training","ocean","30","{""ArrowUp,ArrowLeft"":23,""ArrowUp,ArrowRight"":10,""ArrowDown,ArrowLeft"":8,""ArrowDown,ArrowRight"":30}","true","ArrowDown,ArrowRight","false","","","revaluation","1","24","","",""
"html-keyboard-response","143","835940","0.0-4.0-2.0-1.12","spark_pilot_2","7414","2","17","Female","","","","","","","null","<div style=""font-size:60px;"">+</div>","null","fixation","","","","","","","","","","","25","","",""
"revaluation","144","841965","0.0-4.0-2.0-0.13","spark_pilot_2","7414","2","17","Female","","false","","","","","[599.4000000059605,432]","./assets/img/ocean/memory/21.jpg","[""ArrowDown"",""ArrowRight""]","value training","ocean","30","{""ArrowUp,ArrowLeft"":23,""ArrowUp,ArrowRight"":10,""ArrowDown,ArrowLeft"":8,""ArrowDown,ArrowRight"":30}","true","ArrowDown,ArrowRight","false","","","revaluation","1","26","","",""
"html-keyboard-response","145","842468","0.0-4.0-2.0-1.13","spark_pilot_2","7414","2","17","Female","","","","","","","null","<div style=""font-size:60px;"">+</div>","null","fixation","","","","","","","","","","","27","","",""
"revaluation","146","848493","0.0-4.0-2.0-0.14","spark_pilot_2","7414","2","17","Female","","false","","","","","[632.0999999940395,259.6000000089407]","./assets/img/ocean/memory/22.jpg","[""ArrowDown"",""ArrowRight""]","value training","ocean","30","{""ArrowUp,ArrowLeft"":23,""ArrowUp,ArrowRight"":10,""ArrowDown,ArrowLeft"":8,""ArrowDown,ArrowRight"":30}","true","ArrowDown,ArrowRight","false","","","revaluation","1","28","","",""
"html-keyboard-response","147","848996","0.0-4.0-2.0-1.14","spark_pilot_2","7414","2","17","Female","","","","","","","null","<div style=""font-size:60px;"">+</div>","null","fixation","","","","","","","","","","","29","","",""
"revaluation","148","855021","0.0-4.0-2.0-0.15","spark_pilot_2","7414","2","17","Female","","false","","","","","[654.2999999970198,293.59999999403954]","./assets/img/ocean/memory/11.jpg","[""ArrowDown"",""ArrowRight""]","value training","ocean","30","{""ArrowUp,ArrowLeft"":23,""ArrowUp,ArrowRight"":10,""ArrowDown,ArrowLeft"":8,""ArrowDown,ArrowRight"":30}","true","ArrowDown,ArrowRight","false","","","revaluation","1","30","","",""
"html-keyboard-response","149","855524","0.0-4.0-2.0-1.15","spark_pilot_2","7414","2","17","Female","","","","","","","null","<div style=""font-size:60px;"">+</div>","null","fixation","","","","","","","","","","","31","","",""
"revaluation","150","861557","0.0-4.0-2.0-0.16","spark_pilot_2","7414","2","17","Female","","false","","","","","[635.7000000029802,308.40000000596046]","./assets/img/ocean/memory/4.jpg","[""ArrowDown"",""ArrowRight""]","value training","ocean","30","{""ArrowUp,ArrowLeft"":23,""ArrowUp,ArrowRight"":10,""ArrowDown,ArrowLeft"":8,""ArrowDown,ArrowRight"":30}","true","ArrowDown,ArrowRight","false","","","revaluation","1","32","","",""
"html-keyboard-response","151","862060","0.0-4.0-2.0-1.16","spark_pilot_2","7414","2","17","Female","","","","","","","null","<div style=""font-size:60px;"">+</div>","null","fixation","","","","","","","","","","","33","","",""
"revaluation","152","868085","0.0-4.0-2.0-0.17","spark_pilot_2","7414","2","17","Female","","false","","","","","[580.7000000029802,386.90000000596046]","./assets/img/ocean/memory/9.jpg","[""ArrowDown"",""ArrowRight""]","value training","ocean","30","{""ArrowUp,ArrowLeft"":23,""ArrowUp,ArrowRight"":10,""ArrowDown,ArrowLeft"":8,""ArrowDown,ArrowRight"":30}","true","ArrowDown,ArrowRight","false","","","revaluation","1","34","","",""
"html-keyboard-response","153","868588","0.0-4.0-2.0-1.17","spark_pilot_2","7414","2","17","Female","","","","","","","null","<div style=""font-size:60px;"">+</div>","null","fixation","","","","","","","","","","","35","","",""
"revaluation","154","874613","0.0-4.0-2.0-0.18","spark_pilot_2","7414","2","17","Female","","false","","","","","[867.9000000059605,491.79999999701977]","./assets/img/ocean/memory/0.jpg","[""ArrowDown"",""ArrowRight""]","value training","ocean","30","{""ArrowUp,ArrowLeft"":23,""ArrowUp,ArrowRight"":10,""ArrowDown,ArrowLeft"":8,""ArrowDown,ArrowRight"":30}","true","ArrowDown,ArrowRight","false","","","revaluation","1","36","","",""
"html-keyboard-response","155","875116","0.0-4.0-2.0-1.18","spark_pilot_2","7414","2","17","Female","","","","","","","null","<div style=""font-size:60px;"">+</div>","null","fixation","","","","","","","","","","","37","","",""
"revaluation","156","881141","0.0-4.0-2.0-0.19","spark_pilot_2","7414","2","17","Female","","false","","","","","[650.6999999880791,380.09999999403954]","./assets/img/ocean/memory/41.jpg","[""ArrowDown"",""ArrowRight""]","value training","ocean","30","{""ArrowUp,ArrowLeft"":23,""ArrowUp,ArrowRight"":10,""ArrowDown,ArrowLeft"":8,""ArrowDown,ArrowRight"":30}","true","ArrowDown,ArrowRight","false","","","revaluation","1","38","","",""
"html-keyboard-response","157","881644","0.0-4.0-2.0-1.19","spark_pilot_2","7414","2","17","Female","","","","","","","null","<div style=""font-size:60px;"">+</div>","null","fixation","","","","","","","","","","","39","","",""
"revaluation","158","887669","0.0-4.0-2.0-0.20","spark_pilot_2","7414","2","17","Female","","false","","","","","[558.3999999910593,265]","./assets/img/ocean/memory/31.jpg","[""ArrowDown"",""ArrowRight""]","value training","ocean","30","{""ArrowUp,ArrowLeft"":23,""ArrowUp,ArrowRight"":10,""ArrowDown,ArrowLeft"":8,""ArrowDown,ArrowRight"":30}","true","ArrowDown,ArrowRight","false","","","revaluation","1","40","","",""
"html-keyboard-response","159","888172","0.0-4.0-2.0-1.20","spark_pilot_2","7414","2","17","Female","","","","","","","null","<div style=""font-size:60px;"">+</div>","null","fixation","","","","","","","","","","","41","","",""
"revaluation","160","894197","0.0-4.0-2.0-0.21","spark_pilot_2","7414","2","17","Female","","false","","","","","[507.79999999701977,297.79999999701977]","./assets/img/ocean/memory/18.jpg","[""ArrowDown"",""ArrowRight""]","value training","ocean","30","{""ArrowUp,ArrowLeft"":23,""ArrowUp,ArrowRight"":10,""ArrowDown,ArrowLeft"":8,""ArrowDown,ArrowRight"":30}","true","ArrowDown,ArrowRight","false","","","revaluation","1","42","","",""
"html-keyboard-response","161","894700","0.0-4.0-2.0-1.21","spark_pilot_2","7414","2","17","Female","","","","","","","null","<div style=""font-size:60px;"">+</div>","null","fixation","","","","","","","","","","","43","","",""
"revaluation","162","900725","0.0-4.0-2.0-0.22","spark_pilot_2","7414","2","17","Female","","false","","","","","[470.79999999701977,410.1000000089407]","./assets/img/ocean/memory/26.jpg","[""ArrowDown"",""ArrowRight""]","value training","ocean","30","{""ArrowUp,ArrowLeft"":23,""ArrowUp,ArrowRight"":10,""ArrowDown,ArrowLeft"":8,""ArrowDown,ArrowRight"":30}","true","ArrowDown,ArrowRight","false","","","revaluation","1","44","","",""
"html-keyboard-response","163","901228","0.0-4.0-2.0-1.22","spark_pilot_2","7414","2","17","Female","","","","","","","null","<div style=""font-size:60px;"">+</div>","null","fixation","","","","","","","","","","","45","","",""
"revaluation","164","907261","0.0-4.0-2.0-0.23","spark_pilot_2","7414","2","17","Female","","false","","","","","[539.3999999910593,257.20000000298023]","./assets/img/ocean/memory/0.jpg","[""ArrowDown"",""ArrowRight""]","value training","ocean","30","{""ArrowUp,ArrowLeft"":23,""ArrowUp,ArrowRight"":10,""ArrowDown,ArrowLeft"":8,""ArrowDown,ArrowRight"":30}","true","ArrowDown,ArrowRight","false","","","revaluation","1","46","","",""
"html-keyboard-response","165","907764","0.0-4.0-2.0-1.23","spark_pilot_2","7414","2","17","Female","","","","","","","null","<div style=""font-size:60px;"">+</div>","null","fixation","","","","","","","","","","","47","","",""
"revaluation","166","913789","0.0-4.0-2.0-0.24","spark_pilot_2","7414","2","17","Female","","false","","","","","[856.8999999910593,411.8999999910593]","./assets/img/ocean/memory/19.jpg","[""ArrowDown"",""ArrowRight""]","value training","ocean","30","{""ArrowUp,ArrowLeft"":23,""ArrowUp,ArrowRight"":10,""ArrowDown,ArrowLeft"":8,""ArrowDown,ArrowRight"":30}","true","ArrowDown,ArrowRight","false","","","revaluation","1","48","","",""
"html-keyboard-response","167","914292","0.0-4.0-2.0-1.24","spark_pilot_2","7414","2","17","Female","","","","","","","null","<div style=""font-size:60px;"">+</div>","null","fixation","","","","","","","","","","","49","","",""
"revaluation","168","920317","0.0-4.0-2.0-0.25","spark_pilot_2","7414","2","17","Female","","false","","","","","[522.3999999910593,456.29999999701977]","./assets/img/ocean/memory/12.jpg","[""ArrowDown"",""ArrowRight""]","value training","ocean","30","{""ArrowUp,ArrowLeft"":23,""ArrowUp,ArrowRight"":10,""ArrowDown,ArrowLeft"":8,""ArrowDown,ArrowRight"":30}","true","ArrowDown,ArrowRight","false","","","revaluation","1","50","","",""
"html-keyboard-response","169","920820","0.0-4.0-2.0-1.25","spark_pilot_2","7414","2","17","Female","","","","","","","null","<div style=""font-size:60px;"">+</div>","null","fixation","","","","","","","","","","","51","","",""
"revaluation","170","926845","0.0-4.0-2.0-0.26","spark_pilot_2","7414","2","17","Female","","false","","","","","[548.9000000059605,469]","./assets/img/ocean/memory/39.jpg","[""ArrowDown"",""ArrowRight""]","value training","ocean","30","{""ArrowUp,ArrowLeft"":23,""ArrowUp,ArrowRight"":10,""ArrowDown,ArrowLeft"":8,""ArrowDown,ArrowRight"":30}","true","ArrowDown,ArrowRight","false","","","revaluation","1","52","","",""
"html-keyboard-response","171","927348","0.0-4.0-2.0-1.26","spark_pilot_2","7414","2","17","Female","","","","","","","null","<div style=""font-size:60px;"">+</div>","null","fixation","","","","","","","","","","","53","","",""
"revaluation","172","931373","0.0-4.0-2.0-0.27","spark_pilot_2","7414","2","17","Female","","false","","","","","[570.3999999910593]","./assets/img/ocean/catch/1.jpg","[""spaceBar""]","value training","ocean","0","{""ArrowUp,ArrowLeft"":23,""ArrowUp,ArrowRight"":10,""ArrowDown,ArrowLeft"":8,""ArrowDown,ArrowRight"":30}","true","spaceBar","true","","","revaluation","1","54","","",""
"html-keyboard-response","173","931876","0.0-4.0-2.0-1.27","spark_pilot_2","7414","2","17","Female","","","","","","","null","<div style=""font-size:60px;"">+</div>","null","fixation","","","","","","","","","","","55","","",""
"revaluation","174","937901","0.0-4.0-2.0-0.28","spark_pilot_2","7414","2","17","Female","","false","","","","","[505.09999999403954,436.90000000596046]","./assets/img/ocean/memory/18.jpg","[""ArrowDown"",""ArrowRight""]","value training","ocean","30","{""ArrowUp,ArrowLeft"":23,""ArrowUp,ArrowRight"":10,""ArrowDown,ArrowLeft"":8,""ArrowDown,ArrowRight"":30}","true","ArrowDown,ArrowRight","false","","","revaluation","1","56","","",""
"html-keyboard-response","175","938404","0.0-4.0-2.0-1.28","spark_pilot_2","7414","2","17","Female","","","","","","","null","<div style=""font-size:60px;"">+</div>","null","fixation","","","","","","","","","","","57","","",""
"revaluation","176","944429","0.0-4.0-2.0-0.29","spark_pilot_2","7414","2","17","Female","","false","","","","","[513.5,368.59999999403954]","./assets/img/ocean/memory/41.jpg","[""ArrowDown"",""ArrowRight""]","value training","ocean","30","{""ArrowUp,ArrowLeft"":23,""ArrowUp,ArrowRight"":10,""ArrowDown,ArrowLeft"":8,""ArrowDown,ArrowRight"":30}","true","ArrowDown,ArrowRight","false","","","revaluation","1","58","","",""
"html-keyboard-response","177","944932","0.0-4.0-2.0-1.29","spark_pilot_2","7414","2","17","Female","","","","","","","null","<div style=""font-size:60px;"">+</div>","null","fixation","","","","","","","","","","","59","","",""
"revaluation","178","950957","0.0-4.0-2.0-0.30","spark_pilot_2","7414","2","17","Female","","false","","","","","[733.0999999940395,402.20000000298023]","./assets/img/ocean/memory/15.jpg","[""ArrowDown"",""ArrowRight""]","value training","ocean","30","{""ArrowUp,ArrowLeft"":23,""ArrowUp,ArrowRight"":10,""ArrowDown,ArrowLeft"":8,""ArrowDown,ArrowRight"":30}","true","ArrowDown,ArrowRight","false","","","revaluation","1","60","","",""
"html-keyboard-response","179","951460","0.0-4.0-2.0-1.30","spark_pilot_2","7414","2","17","Female","","","","","","","null","<div style=""font-size:60px;"">+</div>","null","fixation","","","","","","","","","","","61","","",""
"revaluation","180","957485","0.0-4.0-2.0-0.31","spark_pilot_2","7414","2","17","Female","","false","","","","","[573,375.5]","./assets/img/ocean/memory/12.jpg","[""ArrowDown"",""ArrowRight""]","value training","ocean","30","{""ArrowUp,ArrowLeft"":23,""ArrowUp,ArrowRight"":10,""ArrowDown,ArrowLeft"":8,""ArrowDown,ArrowRight"":30}","true","ArrowDown,ArrowRight","false","","","revaluation","1","62","","",""
"html-keyboard-response","181","957988","0.0-4.0-2.0-1.31","spark_pilot_2","7414","2","17","Female","","","","","","","null","<div style=""font-size:60px;"">+</div>","null","fixation","","","","","","","","","","","63","","",""
"revaluation","182","962005","0.0-4.0-2.0-0.32","spark_pilot_2","7414","2","17","Female","","false","","","","","[498.1000000089407]","./assets/img/ocean/catch/2.jpg","[""spaceBar""]","value training","ocean","0","{""ArrowUp,ArrowLeft"":23,""ArrowUp,ArrowRight"":10,""ArrowDown,ArrowLeft"":8,""ArrowDown,ArrowRight"":30}","true","spaceBar","true","","","revaluation","1","64","","",""
"html-keyboard-response","183","962508","0.0-4.0-2.0-1.32","spark_pilot_2","7414","2","17","Female","","","","","","","null","<div style=""font-size:60px;"">+</div>","null","fixation","","","","","","","","","","","65","","",""
"revaluation","184","968533","0.0-4.0-2.0-0.33","spark_pilot_2","7414","2","17","Female","","false","","","","","[398.6000000089407,576.6999999880791]","./assets/img/ocean/memory/7.jpg","[""ArrowDown"",""ArrowRight""]","value training","ocean","30","{""ArrowUp,ArrowLeft"":23,""ArrowUp,ArrowRight"":10,""ArrowDown,ArrowLeft"":8,""ArrowDown,ArrowRight"":30}","true","ArrowDown,ArrowRight","false","","","revaluation","1","66","","",""
"html-keyboard-response","185","969036","0.0-4.0-2.0-1.33","spark_pilot_2","7414","2","17","Female","","","","","","","null","<div style=""font-size:60px;"">+</div>","null","fixation","","","","","","","","","","","67","","",""
"revaluation","186","973053","0.0-4.0-2.0-0.34","spark_pilot_2","7414","2","17","Female","","false","","","","","[766]","./assets/img/ocean/catch/0.jpg","[""spaceBar""]","value training","ocean","0","{""ArrowUp,ArrowLeft"":23,""ArrowUp,ArrowRight"":10,""ArrowDown,ArrowLeft"":8,""ArrowDown,ArrowRight"":30}","true","spaceBar","true","","","revaluation","1","68","","",""
"html-keyboard-response","187","973556","0.0-4.0-2.0-1.34","spark_pilot_2","7414","2","17","Female","","","","","","","null","<div style=""font-size:60px;"">+</div>","null","fixation","","","","","","","","","","","69","","",""
"revaluation","188","979581","0.0-4.0-2.0-0.35","spark_pilot_2","7414","2","17","Female","","false","","","","","[1094.0999999940395,442.69999998807907]","./assets/img/ocean/memory/20.jpg","[""ArrowDown"",""ArrowRight""]","value training","ocean","30","{""ArrowUp,ArrowLeft"":23,""ArrowUp,ArrowRight"":10,""ArrowDown,ArrowLeft"":8,""ArrowDown,ArrowRight"":30}","true","ArrowDown,ArrowRight","false","","","revaluation","1","70","","",""
"html-keyboard-response","189","980084","0.0-4.0-2.0-1.35","spark_pilot_2","7414","2","17","Female","","","","","","","null","<div style=""font-size:60px;"">+</div>","null","fixation","","","","","","","","","","","71","","",""
"revaluation","190","986109","0.0-4.0-2.0-0.36","spark_pilot_2","7414","2","17","Female","","false","","","","","[1247.7999999970198,501.59999999403954]","./assets/img/ocean/memory/14.jpg","[""ArrowDown"",""ArrowRight""]","value training","ocean","30","{""ArrowUp,ArrowLeft"":23,""ArrowUp,ArrowRight"":10,""ArrowDown,ArrowLeft"":8,""ArrowDown,ArrowRight"":30}","true","ArrowDown,ArrowRight","false","","","revaluation","1","72","","",""
"html-keyboard-response","191","986612","0.0-4.0-2.0-1.36","spark_pilot_2","7414","2","17","Female","","","","","","","null","<div style=""font-size:60px;"">+</div>","null","fixation","","","","","","","","","","","73","","",""
"revaluation","192","992645","0.0-4.0-2.0-0.37","spark_pilot_2","7414","2","17","Female","","false","","","","","[631,332.59999999403954]","./assets/img/ocean/memory/15.jpg","[""ArrowDown"",""ArrowRight""]","value training","ocean","30","{""ArrowUp,ArrowLeft"":23,""ArrowUp,ArrowRight"":10,""ArrowDown,ArrowLeft"":8,""ArrowDown,ArrowRight"":30}","true","ArrowDown,ArrowRight","false","","","revaluation","1","74","","",""
"html-keyboard-response","193","993148","0.0-4.0-2.0-1.37","spark_pilot_2","7414","2","17","Female","","","","","","","null","<div style=""font-size:60px;"">+</div>","null","fixation","","","","","","","","","","","75","","",""
"revaluation","194","999173","0.0-4.0-2.0-0.38","spark_pilot_2","7414","2","17","Female","","false","","","","","[1164.5,442.8999999910593]","./assets/img/ocean/memory/14.jpg","[""ArrowDown"",""ArrowRight""]","value training","ocean","30","{""ArrowUp,ArrowLeft"":23,""ArrowUp,ArrowRight"":10,""ArrowDown,ArrowLeft"":8,""ArrowDown,ArrowRight"":30}","true","ArrowDown,ArrowRight","false","","","revaluation","1","76","","",""
"html-keyboard-response","195","999676","0.0-4.0-2.0-1.38","spark_pilot_2","7414","2","17","Female","","","","","","","null","<div style=""font-size:60px;"">+</div>","null","fixation","","","","","","","","","","","77","","",""
"revaluation","196","1005701","0.0-4.0-2.0-0.39","spark_pilot_2","7414","2","17","Female","","false","","","","","[491.5,401.69999998807907]","./assets/img/ocean/memory/5.jpg","[""ArrowDown"",""ArrowRight""]","value training","ocean","30","{""ArrowUp,ArrowLeft"":23,""ArrowUp,ArrowRight"":10,""ArrowDown,ArrowLeft"":8,""ArrowDown,ArrowRight"":30}","true","ArrowDown,ArrowRight","false","","","revaluation","1","78","","",""
"html-keyboard-response","197","1006204","0.0-4.0-2.0-1.39","spark_pilot_2","7414","2","17","Female","","","","","","","null","<div style=""font-size:60px;"">+</div>","null","fixation","","","","","","","","","","","79","","",""
"revaluation","198","1012229","0.0-4.0-2.0-0.40","spark_pilot_2","7414","2","17","Female","","false","","","","","[518.5999999940395,428.09999999403954]","./assets/img/ocean/memory/37.jpg","[""ArrowDown"",""ArrowRight""]","value training","ocean","30","{""ArrowUp,ArrowLeft"":23,""ArrowUp,ArrowRight"":10,""ArrowDown,ArrowLeft"":8,""ArrowDown,ArrowRight"":30}","true","ArrowDown,ArrowRight","false","","","revaluation","1","80","","",""
"html-keyboard-response","199","1012732","0.0-4.0-2.0-1.40","spark_pilot_2","7414","2","17","Female","","","","","","","null","<div style=""font-size:60px;"">+</div>","null","fixation","","","","","","","","","","","81","","",""
"revaluation","200","1018757","0.0-4.0-2.0-0.41","spark_pilot_2","7414","2","17","Female","","false","","","","","[490,332.3999999910593]","./assets/img/ocean/memory/7.jpg","[""ArrowDown"",""ArrowRight""]","value training","ocean","30","{""ArrowUp,ArrowLeft"":23,""ArrowUp,ArrowRight"":10,""ArrowDown,ArrowLeft"":8,""ArrowDown,ArrowRight"":30}","true","ArrowDown,ArrowRight","false","","","revaluation","1","82","","",""
"html-keyboard-response","201","1019260","0.0-4.0-2.0-1.41","spark_pilot_2","7414","2","17","Female","","","","","","","null","<div style=""font-size:60px;"">+</div>","null","fixation","","","","","","","","","","","83","","",""
"revaluation","202","1025285","0.0-4.0-2.0-0.42","spark_pilot_2","7414","2","17","Female","","false","","","","","[502.8999999910593,430]","./assets/img/ocean/memory/9.jpg","[""ArrowDown"",""ArrowRight""]","value training","ocean","30","{""ArrowUp,ArrowLeft"":23,""ArrowUp,ArrowRight"":10,""ArrowDown,ArrowLeft"":8,""ArrowDown,ArrowRight"":30}","true","ArrowDown,ArrowRight","false","","","revaluation","1","84","","",""
"html-keyboard-response","203","1025788","0.0-4.0-2.0-1.42","spark_pilot_2","7414","2","17","Female","","","","","","","null","<div style=""font-size:60px;"">+</div>","null","fixation","","","","","","","","","","","85","","",""
"revaluation","204","1031813","0.0-4.0-2.0-0.43","spark_pilot_2","7414","2","17","Female","","false","","","","","[511.09999999403954,440.8999999910593]","./assets/img/ocean/memory/21.jpg","[""ArrowDown"",""ArrowRight""]","value training","ocean","30","{""ArrowUp,ArrowLeft"":23,""ArrowUp,ArrowRight"":10,""ArrowDown,ArrowLeft"":8,""ArrowDown,ArrowRight"":30}","true","ArrowDown,ArrowRight","false","","","revaluation","1","86","","",""
"html-keyboard-response","205","1032316","0.0-4.0-2.0-1.43","spark_pilot_2","7414","2","17","Female","","","","","","","null","<div style=""font-size:60px;"">+</div>","null","fixation","","","","","","","","","","","87","","",""
"revaluation","206","1038341","0.0-4.0-2.0-0.44","spark_pilot_2","7414","2","17","Female","","false","","","","","[467.8999999910593,372.59999999403954]","./assets/img/ocean/memory/26.jpg","[""ArrowDown"",""ArrowRight""]","value training","ocean","30","{""ArrowUp,ArrowLeft"":23,""ArrowUp,ArrowRight"":10,""ArrowDown,ArrowLeft"":8,""ArrowDown,ArrowRight"":30}","true","ArrowDown,ArrowRight","false","","","revaluation","1","88","","",""
"html-keyboard-response","207","1038844","0.0-4.0-2.0-1.44","spark_pilot_2","7414","2","17","Female","","","","","","","null","<div style=""font-size:60px;"">+</div>","null","fixation","","","","","","","","","","","89","","",""
"revaluation","208","1042861","0.0-4.0-2.0-0.45","spark_pilot_2","7414","2","17","Female","","false","","","","","[896.9000000059605]","./assets/img/ocean/catch/7.jpg","[""spaceBar""]","value training","ocean","0","{""ArrowUp,ArrowLeft"":23,""ArrowUp,ArrowRight"":10,""ArrowDown,ArrowLeft"":8,""ArrowDown,ArrowRight"":30}","true","spaceBar","true","","","revaluation","1","90","","",""
"html-keyboard-response","209","1043364","0.0-4.0-2.0-1.45","spark_pilot_2","7414","2","17","Female","","","","","","","null","<div style=""font-size:60px;"">+</div>","null","fixation","","","","","","","","","","","91","","",""
"revaluation","210","1047381","0.0-4.0-2.0-0.46","spark_pilot_2","7414","2","17","Female","","false","","","","","[819.2000000029802]","./assets/img/ocean/catch/3.jpg","[""spaceBar""]","value training","ocean","0","{""ArrowUp,ArrowLeft"":23,""ArrowUp,ArrowRight"":10,""ArrowDown,ArrowLeft"":8,""ArrowDown,ArrowRight"":30}","true","spaceBar","true","","","revaluation","1","92","","",""
"html-keyboard-response","211","1047884","0.0-4.0-2.0-1.46","spark_pilot_2","7414","2","17","Female","","","","","","","null","<div style=""font-size:60px;"">+</div>","null","fixation","","","","","","","","","","","93","","",""
"revaluation","212","1051901","0.0-4.0-2.0-0.47","spark_pilot_2","7414","2","17","Female","","false","","","","","[921.5]","./assets/img/ocean/catch/4.jpg","[""spaceBar""]","value training","ocean","0","{""ArrowUp,ArrowLeft"":23,""ArrowUp,ArrowRight"":10,""ArrowDown,ArrowLeft"":8,""ArrowDown,ArrowRight"":30}","true","spaceBar","true","","","revaluation","1","94","","",""
"html-keyboard-response","213","1052405","0.0-4.0-2.0-1.47","spark_pilot_2","7414","2","17","Female","","","","","","","null","<div style=""font-size:60px;"">+</div>","null","fixation","","","","","","","","","","","95","","",""
"revaluation","214","1058436","0.0-4.0-2.0-0.48","spark_pilot_2","7414","2","17","Female","","false","","","","","[1363.2999999970198,460.19999998807907]","./assets/img/ocean/memory/29.jpg","[""ArrowDown"",""ArrowRight""]","value training","ocean","30","{""ArrowUp,ArrowLeft"":23,""ArrowUp,ArrowRight"":10,""ArrowDown,ArrowLeft"":8,""ArrowDown,ArrowRight"":30}","true","ArrowDown,ArrowRight","false","","","revaluation","1","96","","",""
"html-keyboard-response","215","1058940","0.0-4.0-2.0-1.48","spark_pilot_2","7414","2","17","Female","","","","","","","null","<div style=""font-size:60px;"">+</div>","null","fixation","","","","","","","","","","","97","","",""
"revaluation","216","1064965","0.0-4.0-2.0-0.49","spark_pilot_2","7414","2","17","Female","","false","","","","","[553.7000000029802,280.79999999701977]","./assets/img/ocean/memory/22.jpg","[""ArrowDown"",""ArrowRight""]","value training","ocean","30","{""ArrowUp,ArrowLeft"":23,""ArrowUp,ArrowRight"":10,""ArrowDown,ArrowLeft"":8,""ArrowDown,ArrowRight"":30}","true","ArrowDown,ArrowRight","false","","","revaluation","1","98","","",""
"html-keyboard-response","217","1065468","0.0-4.0-2.0-1.49","spark_pilot_2","7414","2","17","Female","","","","","","","null","<div style=""font-size:60px;"">+</div>","null","fixation","","","","","","","","","","","99","","",""
"learning-instructions","218","1081206","0.0-4.0-3.0-0.0","spark_pilot_2","7414","2","17","Female","","","","","","","2850.2000000029802","<p> Now, you will travel with a friend who will choose whether you go up or down first. </p>
            <p> On these turns, you will just see the animal that they found. You will still get to choose which chest to search for treasure.</p>","","instructions","","","","","","","","","","","","","",""
"revaluation","219","1085221","0.0-4.0-4.0-0.0","spark_pilot_2","7414","2","17","Female","","false","","","","","[1297.6000000089407]","./assets/img/ocean/animals/seahorse.jpg","[""ArrowRight""]","revaluation","ocean","15","{""ArrowUp,ArrowLeft"":27,""ArrowUp,ArrowRight"":15,""ArrowDown,ArrowLeft"":21,""ArrowDown,ArrowRight"":7}","false","ArrowUp,ArrowRight","","","","revaluation","1","0","","",""
"html-keyboard-response","220","1085733","0.0-4.0-4.0-1.0","spark_pilot_2","7414","2","17","Female","","","","","","","null","<div style=""font-size:60px;"">+</div>","null","fixation","","","","","","","","","","","1","","",""
"revaluation","221","1089749","0.0-4.0-4.0-0.1","spark_pilot_2","7414","2","17","Female","","false","","","","","[1152.7000000029802]","./assets/img/ocean/animals/octopus.jpg","[""ArrowRight""]","revaluation","ocean","7","{""ArrowUp,ArrowLeft"":27,""ArrowUp,ArrowRight"":15,""ArrowDown,ArrowLeft"":21,""ArrowDown,ArrowRight"":7}","false","ArrowDown,ArrowRight","","","","revaluation","1","2","","",""
"html-keyboard-response","222","1090252","0.0-4.0-4.0-1.1","spark_pilot_2","7414","2","17","Female","","","","","","","null","<div style=""font-size:60px;"">+</div>","null","fixation","","","","","","","","","","","3","","",""
"revaluation","223","1094269","0.0-4.0-4.0-0.2","spark_pilot_2","7414","2","17","Female","","false","","","","","[429]","./assets/img/ocean/animals/octopus.jpg","[""ArrowLeft""]","revaluation","ocean","21","{""ArrowUp,ArrowLeft"":27,""ArrowUp,ArrowRight"":15,""ArrowDown,ArrowLeft"":21,""ArrowDown,ArrowRight"":7}","true","ArrowDown,ArrowLeft","","","","revaluation","1","4","","",""
"html-keyboard-response","224","1094772","0.0-4.0-4.0-1.2","spark_pilot_2","7414","2","17","Female","","","","","","","null","<div style=""font-size:60px;"">+</div>","null","fixation","","","","","","","","","","","5","","",""
"revaluation","225","1098789","0.0-4.0-4.0-0.3","spark_pilot_2","7414","2","17","Female","","false","","","","","[812.8999999910593]","./assets/img/ocean/animals/octopus.jpg","[""ArrowLeft""]","revaluation","ocean","21","{""ArrowUp,ArrowLeft"":27,""ArrowUp,ArrowRight"":15,""ArrowDown,ArrowLeft"":21,""ArrowDown,ArrowRight"":7}","true","ArrowDown,ArrowLeft","","","","revaluation","1","6","","",""
"html-keyboard-response","226","1099292","0.0-4.0-4.0-1.3","spark_pilot_2","7414","2","17","Female","","","","","","","null","<div style=""font-size:60px;"">+</div>","null","fixation","","","","","","","","","","","7","","",""
"revaluation","227","1103309","0.0-4.0-4.0-0.4","spark_pilot_2","7414","2","17","Female","","false","","","","","[1094.5]","./assets/img/ocean/animals/seahorse.jpg","[""ArrowLeft""]","revaluation","ocean","27","{""ArrowUp,ArrowLeft"":27,""ArrowUp,ArrowRight"":15,""ArrowDown,ArrowLeft"":21,""ArrowDown,ArrowRight"":7}","true","ArrowUp,ArrowLeft","","","","revaluation","1","8","","",""
"html-keyboard-response","228","1103812","0.0-4.0-4.0-1.4","spark_pilot_2","7414","2","17","Female","","","","","","","null","<div style=""font-size:60px;"">+</div>","null","fixation","","","","","","","","","","","9","","",""
"revaluation","229","1107837","0.0-4.0-4.0-0.5","spark_pilot_2","7414","2","17","Female","","false","","","","","[482.90000000596046]","./assets/img/ocean/animals/octopus.jpg","[""ArrowLeft""]","revaluation","ocean","21","{""ArrowUp,ArrowLeft"":27,""ArrowUp,ArrowRight"":15,""ArrowDown,ArrowLeft"":21,""ArrowDown,ArrowRight"":7}","true","ArrowDown,ArrowLeft","","","","revaluation","1","10","","",""
"html-keyboard-response","230","1108340","0.0-4.0-4.0-1.5","spark_pilot_2","7414","2","17","Female","","","","","","","null","<div style=""font-size:60px;"">+</div>","null","fixation","","","","","","","","","","","11","","",""
"revaluation","231","1112357","0.0-4.0-4.0-0.6","spark_pilot_2","7414","2","17","Female","","false","","","","","[565.2000000029802]","./assets/img/ocean/animals/octopus.jpg","[""ArrowLeft""]","revaluation","ocean","21","{""ArrowUp,ArrowLeft"":27,""ArrowUp,ArrowRight"":15,""ArrowDown,ArrowLeft"":21,""ArrowDown,ArrowRight"":7}","true","ArrowDown,ArrowLeft","","","","revaluation","1","12","","",""
"html-keyboard-response","232","1112860","0.0-4.0-4.0-1.6","spark_pilot_2","7414","2","17","Female","","","","","","","null","<div style=""font-size:60px;"">+</div>","null","fixation","","","","","","","","","","","13","","",""
"revaluation","233","1116877","0.0-4.0-4.0-0.7","spark_pilot_2","7414","2","17","Female","","false","","","","","[442.8999999910593]","./assets/img/ocean/animals/octopus.jpg","[""ArrowLeft""]","revaluation","ocean","21","{""ArrowUp,ArrowLeft"":27,""ArrowUp,ArrowRight"":15,""ArrowDown,ArrowLeft"":21,""ArrowDown,ArrowRight"":7}","true","ArrowDown,ArrowLeft","","","","revaluation","1","14","","",""
"html-keyboard-response","234","1117380","0.0-4.0-4.0-1.7","spark_pilot_2","7414","2","17","Female","","","","","","","null","<div style=""font-size:60px;"">+</div>","null","fixation","","","","","","","","","","","15","","",""
"revaluation","235","1121397","0.0-4.0-4.0-0.8","spark_pilot_2","7414","2","17","Female","","false","","","","","[400.90000000596046]","./assets/img/ocean/animals/octopus.jpg","[""ArrowLeft""]","revaluation","ocean","21","{""ArrowUp,ArrowLeft"":27,""ArrowUp,ArrowRight"":15,""ArrowDown,ArrowLeft"":21,""ArrowDown,ArrowRight"":7}","true","ArrowDown,ArrowLeft","","","","revaluation","1","16","","",""
"html-keyboard-response","236","1121900","0.0-4.0-4.0-1.8","spark_pilot_2","7414","2","17","Female","","","","","","","null","<div style=""font-size:60px;"">+</div>","null","fixation","","","","","","","","","","","17","","",""
"revaluation","237","1125917","0.0-4.0-4.0-0.9","spark_pilot_2","7414","2","17","Female","","false","","","","","[341.19999998807907]","./assets/img/ocean/animals/octopus.jpg","[""ArrowLeft""]","revaluation","ocean","21","{""ArrowUp,ArrowLeft"":27,""ArrowUp,ArrowRight"":15,""ArrowDown,ArrowLeft"":21,""ArrowDown,ArrowRight"":7}","true","ArrowDown,ArrowLeft","","","","revaluation","1","18","","",""
"html-keyboard-response","238","1126420","0.0-4.0-4.0-1.9","spark_pilot_2","7414","2","17","Female","","","","","","","null","<div style=""font-size:60px;"">+</div>","null","fixation","","","","","","","","","","","19","","",""
"revaluation","239","1130437","0.0-4.0-4.0-0.10","spark_pilot_2","7414","2","17","Female","","false","","","","","[363.19999998807907]","./assets/img/ocean/animals/octopus.jpg","[""ArrowLeft""]","revaluation","ocean","21","{""ArrowUp,ArrowLeft"":27,""ArrowUp,ArrowRight"":15,""ArrowDown,ArrowLeft"":21,""ArrowDown,ArrowRight"":7}","true","ArrowDown,ArrowLeft","","","","revaluation","1","20","","",""
"html-keyboard-response","240","1130940","0.0-4.0-4.0-1.10","spark_pilot_2","7414","2","17","Female","","","","","","","null","<div style=""font-size:60px;"">+</div>","null","fixation","","","","","","","","","","","21","","",""
"revaluation","241","1134957","0.0-4.0-4.0-0.11","spark_pilot_2","7414","2","17","Female","","false","","","","","[1098]","./assets/img/ocean/animals/seahorse.jpg","[""ArrowLeft""]","revaluation","ocean","27","{""ArrowUp,ArrowLeft"":27,""ArrowUp,ArrowRight"":15,""ArrowDown,ArrowLeft"":21,""ArrowDown,ArrowRight"":7}","true","ArrowUp,ArrowLeft","","","","revaluation","1","22","","",""
"html-keyboard-response","242","1135460","0.0-4.0-4.0-1.11","spark_pilot_2","7414","2","17","Female","","","","","","","null","<div style=""font-size:60px;"">+</div>","null","fixation","","","","","","","","","","","23","","",""
"revaluation","243","1139477","0.0-4.0-4.0-0.12","spark_pilot_2","7414","2","17","Female","","false","","","","","[563.2999999970198]","./assets/img/ocean/animals/seahorse.jpg","[""ArrowLeft""]","revaluation","ocean","27","{""ArrowUp,ArrowLeft"":27,""ArrowUp,ArrowRight"":15,""ArrowDown,ArrowLeft"":21,""ArrowDown,ArrowRight"":7}","true","ArrowUp,ArrowLeft","","","","revaluation","1","24","","",""
"html-keyboard-response","244","1139980","0.0-4.0-4.0-1.12","spark_pilot_2","7414","2","17","Female","","","","","","","null","<div style=""font-size:60px;"">+</div>","null","fixation","","","","","","","","","","","25","","",""
"revaluation","245","1143997","0.0-4.0-4.0-0.13","spark_pilot_2","7414","2","17","Female","","false","","","","","[341.8999999910593]","./assets/img/ocean/animals/seahorse.jpg","[""ArrowLeft""]","revaluation","ocean","27","{""ArrowUp,ArrowLeft"":27,""ArrowUp,ArrowRight"":15,""ArrowDown,ArrowLeft"":21,""ArrowDown,ArrowRight"":7}","true","ArrowUp,ArrowLeft","","","","revaluation","1","26","","",""
"html-keyboard-response","246","1144500","0.0-4.0-4.0-1.13","spark_pilot_2","7414","2","17","Female","","","","","","","null","<div style=""font-size:60px;"">+</div>","null","fixation","","","","","","","","","","","27","","",""
"revaluation","247","1148517","0.0-4.0-4.0-0.14","spark_pilot_2","7414","2","17","Female","","false","","","","","[332.3999999910593]","./assets/img/ocean/animals/seahorse.jpg","[""ArrowLeft""]","revaluation","ocean","27","{""ArrowUp,ArrowLeft"":27,""ArrowUp,ArrowRight"":15,""ArrowDown,ArrowLeft"":21,""ArrowDown,ArrowRight"":7}","true","ArrowUp,ArrowLeft","","","","revaluation","1","28","","",""
"html-keyboard-response","248","1149020","0.0-4.0-4.0-1.14","spark_pilot_2","7414","2","17","Female","","","","","","","null","<div style=""font-size:60px;"">+</div>","null","fixation","","","","","","","","","","","29","","",""
"revaluation","249","1153037","0.0-4.0-4.0-0.15","spark_pilot_2","7414","2","17","Female","","false","","","","","[328.70000000298023]","./assets/img/ocean/animals/seahorse.jpg","[""ArrowLeft""]","revaluation","ocean","27","{""ArrowUp,ArrowLeft"":27,""ArrowUp,ArrowRight"":15,""ArrowDown,ArrowLeft"":21,""ArrowDown,ArrowRight"":7}","true","ArrowUp,ArrowLeft","","","","revaluation","1","30","","",""
"html-keyboard-response","250","1153540","0.0-4.0-4.0-1.15","spark_pilot_2","7414","2","17","Female","","","","","","","null","<div style=""font-size:60px;"">+</div>","null","fixation","","","","","","","","","","","31","","",""
"revaluation","251","1157557","0.0-4.0-4.0-0.16","spark_pilot_2","7414","2","17","Female","","false","","","","","[368.6000000089407]","./assets/img/ocean/animals/seahorse.jpg","[""ArrowLeft""]","revaluation","ocean","27","{""ArrowUp,ArrowLeft"":27,""ArrowUp,ArrowRight"":15,""ArrowDown,ArrowLeft"":21,""ArrowDown,ArrowRight"":7}","true","ArrowUp,ArrowLeft","","","","revaluation","1","32","","",""
"html-keyboard-response","252","1158060","0.0-4.0-4.0-1.16","spark_pilot_2","7414","2","17","Female","","","","","","","null","<div style=""font-size:60px;"">+</div>","null","fixation","","","","","","","","","","","33","","",""
"revaluation","253","1162077","0.0-4.0-4.0-0.17","spark_pilot_2","7414","2","17","Female","","false","","","","","[831]","./assets/img/ocean/animals/seahorse.jpg","[""ArrowLeft""]","revaluation","ocean","27","{""ArrowUp,ArrowLeft"":27,""ArrowUp,ArrowRight"":15,""ArrowDown,ArrowLeft"":21,""ArrowDown,ArrowRight"":7}","true","ArrowUp,ArrowLeft","","","","revaluation","1","34","","",""
"html-keyboard-response","254","1162580","0.0-4.0-4.0-1.17","spark_pilot_2","7414","2","17","Female","","","","","","","null","<div style=""font-size:60px;"">+</div>","null","fixation","","","","","","","","","","","35","","",""
"learning-instructions","255","1176122","0.0-4.0-5.0-0.0","spark_pilot_2","7414","2","17","Female","","","","","","","2067.800000011921","<p> Time to play the dot game! </p>
            <p> For one minute, click the red dots on the following screen as they appear. </p>
            <p><b> Don't look away, as you will earn bonus for clicking dots</b>. </p>","","instructions","","","","","","","","","","","","","",""
"revaluation","256","1236125","0.0-4.0-6.0-0.0","spark_pilot_2","7414","2","17","Female","","","","","","","[71,84,97,96,115,73]","","","rest","","60","","","","","0","60000","","","","","",""
"learning-instructions","257","1246672","0.0-4.0-7.0-0.0","spark_pilot_2","7414","2","17","Female","","","","","","","4452.399999991059","<p> You have almost finished this part of the game! </p>
            <p> We are going to ask you to make a few more choices. </p>","","instructions","","","","","","","","","","","","","",""
"learning-instructions","258","1268633","0.0-4.0-7.0-0.1","spark_pilot_2","7414","2","17","Female","","","","","","","7992.100000008941","<p> First, you need to decide whether to go up or down. When you see each picture, use the arrow keys to make your choice. </p>
            <p><b>You will not see which animal you found, but try to get to the one that will give you the most treasure.</b></p>","","instructions","","","","","","","","","","","","","",""
"revaluation","259","1269673","0.0-4.0-8.0-0.0","spark_pilot_2","7414","2","17","Female","","false","","","","","[1033.9000000059605]","./assets/img/ocean/test/1.jpg","[""ArrowDown""]","first stage test","ocean","0","{""ArrowUp,ArrowLeft"":27,""ArrowUp,ArrowRight"":15,""ArrowDown,ArrowLeft"":21,""ArrowDown,ArrowRight"":7}","false","ArrowDown","false","","","revaluation","1","","","",""
"html-keyboard-response","260","1270180","0.0-4.0-8.0-1.0","spark_pilot_2","7414","2","17","Female","","","","","","","null","<div style=""font-size:60px;"">+</div>","null","fixation","","","","","","","","","","","","","",""
"revaluation","261","1272158","0.0-4.0-8.0-0.1","spark_pilot_2","7414","2","17","Female","","false","","","","","[1970.7000000029802]","./assets/img/ocean/test/3.jpg","[""ArrowDown""]","first stage test","ocean","0","{""ArrowUp,ArrowLeft"":27,""ArrowUp,ArrowRight"":15,""ArrowDown,ArrowLeft"":21,""ArrowDown,ArrowRight"":7}","false","ArrowDown","false","","","revaluation","1","","","",""
"html-keyboard-response","262","1272661","0.0-4.0-8.0-1.1","spark_pilot_2","7414","2","17","Female","","","","","","","null","<div style=""font-size:60px;"">+</div>","null","fixation","","","","","","","","","","","","","",""
"revaluation","263","1273169","0.0-4.0-8.0-0.2","spark_pilot_2","7414","2","17","Female","","false","","","","","[501.29999999701977]","./assets/img/ocean/test/0.jpg","[""ArrowUp""]","first stage test","ocean","0","{""ArrowUp,ArrowLeft"":27,""ArrowUp,ArrowRight"":15,""ArrowDown,ArrowLeft"":21,""ArrowDown,ArrowRight"":7}","true","ArrowUp","false","","","revaluation","1","","","",""
"html-keyboard-response","264","1273676","0.0-4.0-8.0-1.2","spark_pilot_2","7414","2","17","Female","","","","","","","null","<div style=""font-size:60px;"">+</div>","null","fixation","","","","","","","","","","","","","",""
"revaluation","265","1274515","0.0-4.0-8.0-0.3","spark_pilot_2","7414","2","17","Female","","false","","","","","[831.8000000119209]","./assets/img/ocean/test/2.jpg","[""ArrowDown""]","first stage test","ocean","0","{""ArrowUp,ArrowLeft"":27,""ArrowUp,ArrowRight"":15,""ArrowDown,ArrowLeft"":21,""ArrowDown,ArrowRight"":7}","false","ArrowDown","false","","","revaluation","1","","","",""
"html-keyboard-response","266","1275020","0.0-4.0-8.0-1.3","spark_pilot_2","7414","2","17","Female","","","","","","","null","<div style=""font-size:60px;"">+</div>","null","fixation","","","","","","","","","","","","","",""
"learning-instructions","267","1289280","0.0-4.0-9.0-0.0","spark_pilot_2","7414","2","17","Female","","","","","","","2910.7000000029802","<p> Now you will see the animals again and can search their chests for treasure. </p>
            <p> This time, you will not see how much treasure you earned, but you will earn more bonus money for making better choices. </p>","","instructions","","","","","","","","","","","","","",""
"revaluation","268","1290914","0.0-4.0-10.0-0.0","spark_pilot_2","7414","2","17","Female","","false","","","","","[1631]","./assets/img/ocean/animals/seahorse.jpg","[""ArrowLeft""]","second stage test","ocean","0","{""ArrowUp,ArrowLeft"":27,""ArrowUp,ArrowRight"":15,""ArrowDown,ArrowLeft"":21,""ArrowDown,ArrowRight"":7}","true","ArrowUp,ArrowLeft","","","","revaluation","1","","","",""
"html-keyboard-response","269","1291420","0.0-4.0-10.0-1.0","spark_pilot_2","7414","2","17","Female","","","","","","","null","<div style=""font-size:60px;"">+</div>","null","fixation","","","","","","","","","","","","","",""
"revaluation","270","1293112","0.0-4.0-10.0-0.1","spark_pilot_2","7414","2","17","Female","","false","","","","","[1684]","./assets/img/ocean/animals/seahorse.jpg","[""ArrowLeft""]","second stage test","ocean","0","{""ArrowUp,ArrowLeft"":27,""ArrowUp,ArrowRight"":15,""ArrowDown,ArrowLeft"":21,""ArrowDown,ArrowRight"":7}","true","ArrowUp,ArrowLeft","","","","revaluation","1","","","",""
"html-keyboard-response","271","1293621","0.0-4.0-10.0-1.1","spark_pilot_2","7414","2","17","Female","","","","","","","null","<div style=""font-size:60px;"">+</div>","null","fixation","","","","","","","","","","","","","",""
"revaluation","272","1295335","0.0-4.0-10.0-0.2","spark_pilot_2","7414","2","17","Female","","false","","","","","[1706.8999999910593]","./assets/img/ocean/animals/seahorse.jpg","[""ArrowLeft""]","second stage test","ocean","0","{""ArrowUp,ArrowLeft"":27,""ArrowUp,ArrowRight"":15,""ArrowDown,ArrowLeft"":21,""ArrowDown,ArrowRight"":7}","true","ArrowUp,ArrowLeft","","","","revaluation","1","","","",""
"html-keyboard-response","273","1295845","0.0-4.0-10.0-1.2","spark_pilot_2","7414","2","17","Female","","","","","","","null","<div style=""font-size:60px;"">+</div>","null","fixation","","","","","","","","","","","","","",""
"revaluation","274","1297171","0.0-4.0-10.0-0.3","spark_pilot_2","7414","2","17","Female","","false","","","","","[1318.5]","./assets/img/ocean/animals/seahorse.jpg","[""ArrowLeft""]","second stage test","ocean","0","{""ArrowUp,ArrowLeft"":27,""ArrowUp,ArrowRight"":15,""ArrowDown,ArrowLeft"":21,""ArrowDown,ArrowRight"":7}","true","ArrowUp,ArrowLeft","","","","revaluation","1","","","",""
"html-keyboard-response","275","1297676","0.0-4.0-10.0-1.3","spark_pilot_2","7414","2","17","Female","","","","","","","null","<div style=""font-size:60px;"">+</div>","null","fixation","","","","","","","","","","","","","",""
"revaluation","276","1298951","0.0-4.0-10.0-0.4","spark_pilot_2","7414","2","17","Female","","false","","","","","[1267.1000000089407]","./assets/img/ocean/animals/octopus.jpg","[""ArrowRight""]","second stage test","ocean","0","{""ArrowUp,ArrowLeft"":27,""ArrowUp,ArrowRight"":15,""ArrowDown,ArrowLeft"":21,""ArrowDown,ArrowRight"":7}","false","ArrowDown,ArrowRight","","","","revaluation","1","","","",""
"html-keyboard-response","277","1299460","0.0-4.0-10.0-1.4","spark_pilot_2","7414","2","17","Female","","","","","","","null","<div style=""font-size:60px;"">+</div>","null","fixation","","","","","","","","","","","","","",""
"revaluation","278","1300641","0.0-4.0-10.0-0.5","spark_pilot_2","7414","2","17","Female","","false","","","","","[1173.5999999940395]","./assets/img/ocean/animals/octopus.jpg","[""ArrowRight""]","second stage test","ocean","0","{""ArrowUp,ArrowLeft"":27,""ArrowUp,ArrowRight"":15,""ArrowDown,ArrowLeft"":21,""ArrowDown,ArrowRight"":7}","false","ArrowDown,ArrowRight","","","","revaluation","1","","","",""
"html-keyboard-response","279","1301148","0.0-4.0-10.0-1.5","spark_pilot_2","7414","2","17","Female","","","","","","","null","<div style=""font-size:60px;"">+</div>","null","fixation","","","","","","","","","","","","","",""
"revaluation","280","1302304","0.0-4.0-10.0-0.6","spark_pilot_2","7414","2","17","Female","","false","","","","","[1148.0999999940395]","./assets/img/ocean/animals/octopus.jpg","[""ArrowRight""]","second stage test","ocean","0","{""ArrowUp,ArrowLeft"":27,""ArrowUp,ArrowRight"":15,""ArrowDown,ArrowLeft"":21,""ArrowDown,ArrowRight"":7}","false","ArrowDown,ArrowRight","","","","revaluation","1","","","",""
"html-keyboard-response","281","1302812","0.0-4.0-10.0-1.6","spark_pilot_2","7414","2","17","Female","","","","","","","null","<div style=""font-size:60px;"">+</div>","null","fixation","","","","","","","","","","","","","",""
"revaluation","282","1303833","0.0-4.0-10.0-0.7","spark_pilot_2","7414","2","17","Female","","false","","","","","[1012.7999999970198]","./assets/img/ocean/animals/octopus.jpg","[""ArrowRight""]","second stage test","ocean","0","{""ArrowUp,ArrowLeft"":27,""ArrowUp,ArrowRight"":15,""ArrowDown,ArrowLeft"":21,""ArrowDown,ArrowRight"":7}","false","ArrowDown,ArrowRight","","","","revaluation","1","","","",""
"html-keyboard-response","283","1304341","0.0-4.0-10.0-1.7","spark_pilot_2","7414","2","17","Female","","","","","","","null","<div style=""font-size:60px;"">+</div>","null","fixation","","","","","","","","","","","","","",""
"learning-instructions","284","1309112","0.0-4.0-0.1-0.2","spark_pilot_2","7414","2","17","Female","","","","","","","1985.7000000029802","<p> This time you are searching for treasure in the <b>canyon</b>.</p>","","instructions","","","","","","","","","","","","","",""
"learning-instructions","285","1327396","0.0-4.0-0.1-0.3","spark_pilot_2","7414","2","17","Female","","","","","","","1028","<p><b>New</b> animals with <b>new</b> treasure chests live here. You need to explore to discover where the animal with the best treasure chest is.</p>
                    <p> Like before, once you figure out which animal has the chest with the most treasure, you should try to get to that animal and select that chest! </p>","","instructions","","","","","","","","","","","","","",""
"learning-instructions","286","1343042","0.0-4.0-1.1-0.1","spark_pilot_2","7414","2","17","Female","","","","","","","917.6000000089407","<p> Remember, when you see a picture of the place, use the up and down keys to <b>find an animal</b>.</p>
            <p> When you encounter an animal, you should use the left and right keys to <b>select a treasure chest</b>.</p>
            <p> Don't forget to look out for the robber! </p>","","instructions","","","","","","","","","","","","","",""
"revaluation","287","1349069","0.0-4.0-2.1-0.50","spark_pilot_2","7414","2","17","Female","","false","","","","","[881.8999999910593,795.2999999970198]","./assets/img/canyon/memory/27.jpg","[""ArrowUp"",""ArrowRight""]","value training","canyon","10","{""ArrowUp,ArrowLeft"":26,""ArrowUp,ArrowRight"":10,""ArrowDown,ArrowLeft"":5,""ArrowDown,ArrowRight"":17}","false","ArrowUp,ArrowRight","false","","","original","2","0","","",""
"html-keyboard-response","288","1349572","0.0-4.0-2.1-1.50","spark_pilot_2","7414","2","17","Female","","","","","","","null","<div style=""font-size:60px;"">+</div>","null","fixation","","","","","","","","","","","1","","",""
"revaluation","289","1353589","0.0-4.0-2.1-0.51","spark_pilot_2","7414","2","17","Female","","false","","","","","[938.7999999970198]","./assets/img/canyon/catch/5.jpg","[""spaceBar""]","value training","canyon","0","{""ArrowUp,ArrowLeft"":26,""ArrowUp,ArrowRight"":10,""ArrowDown,ArrowLeft"":5,""ArrowDown,ArrowRight"":17}","true","spaceBar","true","","","original","2","2","","",""
"html-keyboard-response","290","1354092","0.0-4.0-2.1-1.51","spark_pilot_2","7414","2","17","Female","","","","","","","null","<div style=""font-size:60px;"">+</div>","null","fixation","","","","","","","","","","","3","","",""
"revaluation","291","1360118","0.0-4.0-2.1-0.52","spark_pilot_2","7414","2","17","Female","","false","","","","","[466.29999999701977,275.79999999701977]","./assets/img/canyon/memory/15.jpg","[""ArrowUp"",""ArrowLeft""]","value training","canyon","26","{""ArrowUp,ArrowLeft"":26,""ArrowUp,ArrowRight"":10,""ArrowDown,ArrowLeft"":5,""ArrowDown,ArrowRight"":17}","true","ArrowUp,ArrowLeft","false","","","original","2","4","","",""
"html-keyboard-response","292","1360629","0.0-4.0-2.1-1.52","spark_pilot_2","7414","2","17","Female","","","","","","","null","<div style=""font-size:60px;"">+</div>","null","fixation","","","","","","","","","","","5","","",""
"revaluation","293","1366653","0.0-4.0-2.1-0.53","spark_pilot_2","7414","2","17","Female","","false","","","","","[754.7999999970198,857.5]","./assets/img/canyon/memory/41.jpg","[""ArrowDown"",""ArrowRight""]","value training","canyon","17","{""ArrowUp,ArrowLeft"":26,""ArrowUp,ArrowRight"":10,""ArrowDown,ArrowLeft"":5,""ArrowDown,ArrowRight"":17}","false","ArrowDown,ArrowRight","false","","","original","2","6","","",""
"html-keyboard-response","294","1367156","0.0-4.0-2.1-1.53","spark_pilot_2","7414","2","17","Female","","","","","","","null","<div style=""font-size:60px;"">+</div>","null","fixation","","","","","","","","","","","7","","",""
"revaluation","295","1373181","0.0-4.0-2.1-0.54","spark_pilot_2","7414","2","17","Female","","false","","","","","[684.2000000029802,341.1000000089407]","./assets/img/canyon/memory/9.jpg","[""ArrowDown"",""ArrowLeft""]","value training","canyon","5","{""ArrowUp,ArrowLeft"":26,""ArrowUp,ArrowRight"":10,""ArrowDown,ArrowLeft"":5,""ArrowDown,ArrowRight"":17}","false","ArrowDown,ArrowLeft","false","","","original","2","8","","",""
"html-keyboard-response","296","1373684","0.0-4.0-2.1-1.54","spark_pilot_2","7414","2","17","Female","","","","","","","null","<div style=""font-size:60px;"">+</div>","null","fixation","","","","","","","","","","","9","","",""
"revaluation","297","1379709","0.0-4.0-2.1-0.55","spark_pilot_2","7414","2","17","Female","","false","","","","","[520.9000000059605,432.70000000298023]","./assets/img/canyon/memory/5.jpg","[""ArrowUp"",""ArrowRight""]","value training","canyon","10","{""ArrowUp,ArrowLeft"":26,""ArrowUp,ArrowRight"":10,""ArrowDown,ArrowLeft"":5,""ArrowDown,ArrowRight"":17}","false","ArrowUp,ArrowRight","false","","","original","2","10","","",""
"html-keyboard-response","298","1380212","0.0-4.0-2.1-1.55","spark_pilot_2","7414","2","17","Female","","","","","","","null","<div style=""font-size:60px;"">+</div>","null","fixation","","","","","","","","","","","11","","",""
"revaluation","299","1386237","0.0-4.0-2.1-0.56","spark_pilot_2","7414","2","17","Female","","false","","","","","[560.8000000119209,280.79999999701977]","./assets/img/canyon/memory/21.jpg","[""ArrowUp"",""ArrowLeft""]","value training","canyon","26","{""ArrowUp,ArrowLeft"":26,""ArrowUp,ArrowRight"":10,""ArrowDown,ArrowLeft"":5,""ArrowDown,ArrowRight"":17}","true","ArrowUp,ArrowLeft","false","","","original","2","12","","",""
"html-keyboard-response","300","1386740","0.0-4.0-2.1-1.56","spark_pilot_2","7414","2","17","Female","","","","","","","null","<div style=""font-size:60px;"">+</div>","null","fixation","","","","","","","","","","","13","","",""
"revaluation","301","1392765","0.0-4.0-2.1-0.57","spark_pilot_2","7414","2","17","Female","","false","","","","","[647.5999999940395,1430.2000000029802]","./assets/img/canyon/memory/15.jpg","[""ArrowDown"",""ArrowRight""]","value training","canyon","17","{""ArrowUp,ArrowLeft"":26,""ArrowUp,ArrowRight"":10,""ArrowDown,ArrowLeft"":5,""ArrowDown,ArrowRight"":17}","false","ArrowDown,ArrowRight","false","","","original","2","14","","",""
"html-keyboard-response","302","1393268","0.0-4.0-2.1-1.57","spark_pilot_2","7414","2","17","Female","","","","","","","null","<div style=""font-size:60px;"">+</div>","null","fixation","","","","","","","","","","","15","","",""
"revaluation","303","1399293","0.0-4.0-2.1-0.58","spark_pilot_2","7414","2","17","Female","","false","","","","","[452.40000000596046,282.79999999701977]","./assets/img/canyon/memory/9.jpg","[""ArrowUp"",""ArrowLeft""]","value training","canyon","26","{""ArrowUp,ArrowLeft"":26,""ArrowUp,ArrowRight"":10,""ArrowDown,ArrowLeft"":5,""ArrowDown,ArrowRight"":17}","true","ArrowUp,ArrowLeft","false","","","original","2","16","","",""
"html-keyboard-response","304","1399796","0.0-4.0-2.1-1.58","spark_pilot_2","7414","2","17","Female","","","","","","","null","<div style=""font-size:60px;"">+</div>","null","fixation","","","","","","","","","","","17","","",""
"revaluation","305","1405821","0.0-4.0-2.1-0.59","spark_pilot_2","7414","2","17","Female","","false","","","","","[564.7000000029802,353.6000000089407]","./assets/img/canyon/memory/14.jpg","[""ArrowUp"",""ArrowLeft""]","value training","canyon","26","{""ArrowUp,ArrowLeft"":26,""ArrowUp,ArrowRight"":10,""ArrowDown,ArrowLeft"":5,""ArrowDown,ArrowRight"":17}","true","ArrowUp,ArrowLeft","false","","","original","2","18","","",""
