"trial_type","trial_index","time_elapsed","internal_node_id","task_version","subject_id","assigned_condition","age","gender","success","timeout","failed_images","failed_audio","failed_video","browser_interaction","rt","stimulus","response","task_part","environment","score","rewardMap","correct","fullState","isCatch","numberMissed","duration","condition","order","trial_num","key_press","ground_truth","bonus"
"pavlovia","0","1311","0.0-0.0","spark_pilot_2","7316","2","12","Male","","","","","","","","","","","","","","","","","","","","","","","",""
"preload","1","8022","0.0-1.0","spark_pilot_2","7316","2","12","Male","true","false","[]","[]","[]","[{""event"":""fullscreenenter"",""trial"":2,""time"":9932}]","","","","","","","","","","","","","","","","","",""
"fullscreen","2","10918","0.0-2.0","spark_pilot_2","7316","2","12","Male","true","","","","","","","","","","","","","","","","","","","","","","",""
"audio-button-response","3","12792","0.0-3.0-0.0-0.0","spark_pilot_2","7316","2","12","Male","","","","","","","1861","./assets/audio/audiotest/turtle.mp3","2","audio_test","","","","","","","","","","","","","",""
"learning-instructions","4","22483","0.0-3.0-1.0-0.0","spark_pilot_2","7316","2","12","Male","","","","","","","2694","<p> Welcome! Please remember to stay in fullscreen mode and don't click away from the experiment. </p>","","instructions","","","","","","","","","","","","","",""
"learning-instructions","5","33104","0.0-3.0-1.0-0.1","spark_pilot_2","7316","2","12","Male","","","","","","","2190.599999964237","<p> Today you will be playing a game to earn treasure. </p>
            <p> At the end of the experiment, you will earn a bonus based on how much treasure you find. </p>
            <img src='./assets/img/instructions/treasure.jpg' class='instructions-image'>","","instructions","","","","","","","","","","","","","",""
"learning-instructions","6","45644","0.0-3.0-1.0-0.2","spark_pilot_2","7316","2","12","Male","","","","","","","4256.900000035763","<p> Animals have hidden treasure in treasure chests. </p>
            <p> You need to first find an animal and then choose which of their treasure chests to search. </p>
            <img src='./assets/img/space/animals/cat.jpg' class='instructions-image'>","","instructions","","","","","","","","","","","","","",""
"learning-instructions","7","61853","0.0-3.0-1.0-0.3","spark_pilot_2","7316","2","12","Male","","","","","","","3031.100000023842","<p> In each round, you will search for treasure in a different place. In the real game, there will be two rounds. </p>
            <p> You will begin with a separate, practice round where you will search for treasure in outer space. </p>
            <img src='./assets/img/space/0.jpg' class='instructions-image'>","","instructions","","","","","","","","","","","","","",""
"learning-instructions","8","74493","0.0-3.0-1.0-0.4","spark_pilot_2","7316","2","12","Male","","","","","","","1203.5","<p> On every turn, you will see a picture of the place that you are in, but the specific image may be different each time. </p>
            <p> For example, both of these images mean you are in outer space. </p>
            <img src='./assets/img/instructions/outerspace.jpg' class='instructions-image'>","","instructions","","","","","","","","","","","","","",""
"learning-instructions","9","86758","0.0-3.0-1.0-0.5","spark_pilot_2","7316","2","12","Male","","","","","","","4433.199999988079","<p> You need to decide which direction to travel in. </p>
            <p> You can choose between going <b>up or down</b> by using the arrow keys. </p>
            <img src='./assets/img/instructions/updown.jpg' class='instructions-image'>","","instructions","","","","","","","","","","","","","",""
"learning-instructions","10","97820","0.0-3.0-1.0-0.6","spark_pilot_2","7316","2","12","Male","","","","","","","2232.400000035763","<p> You will have <b>2 seconds</b> to make your choice. </p>
            <p> If you do not make a choice within 2 seconds, you will not find an animal or earn treasure. </p>
            <img src='./assets/img/instructions/2seconds.jpg' class='instructions-image'>","","instructions","","","","","","","","","","","","","",""
"learning-instructions","11","106674","0.0-3.0-1.0-0.7","spark_pilot_2","7316","2","12","Male","","","","","","","1800.9000000357628","<p> Let’s try practicing that now! </p>
            <p> When you see a picture of the place you are in, press the <b>up</b> key to travel up. </p>
            <img src='./assets/img/instructions/pressUp.jpg' class='instructions-image'>","","instructions","","","","","","","","","","","","","",""
"revaluation","12","110698","0.0-3.0-2.0-0.0","spark_pilot_2","7316","2","12","Male","","true","","","","","[]","./assets/img/space/0.jpg","[]","first stage practice","space","-5","null","null","","false","","","","","","","",""
"html-keyboard-response","13","111207","0.0-3.0-2.0-1.0","spark_pilot_2","7316","2","12","Male","","","","","","","null","<div style=""font-size:60px;"">+</div>","null","fixation","","","","","","","","","","","","","",""
"revaluation","14","115212","0.0-3.0-2.0-0.1","spark_pilot_2","7316","2","12","Male","","false","","","","","[661.5]","./assets/img/space/1.jpg","[""ArrowUp""]","first stage practice","space","0","null","null","ArrowUp","false","","","","","","","",""
"html-keyboard-response","15","115716","0.0-3.0-2.0-1.1","spark_pilot_2","7316","2","12","Male","","","","","","","null","<div style=""font-size:60px;"">+</div>","null","fixation","","","","","","","","","","","","","",""
"revaluation","16","119727","0.0-3.0-2.0-0.2","spark_pilot_2","7316","2","12","Male","","false","","","","","[1602.699999988079]","./assets/img/space/2.jpg","[""ArrowUp""]","first stage practice","space","0","null","null","ArrowUp","false","","","","","","","",""
"html-keyboard-response","17","120228","0.0-3.0-2.0-1.2","spark_pilot_2","7316","2","12","Male","","","","","","","null","<div style=""font-size:60px;"">+</div>","null","fixation","","","","","","","","","","","","","",""
"learning-instructions","18","127242","0.0-3.0-3.0-0.0","spark_pilot_2","7316","2","12","Male","","","","","","","2285.599999964237","<p> Great job! Now try pressing the <b>down</b> key to travel down. </p>
            <img src='./assets/img/instructions/pressDown.jpg' class='instructions-image'>","","instructions","","","","","","","","","","","","","",""
"revaluation","19","131255","0.0-3.0-4.0-0.0","spark_pilot_2","7316","2","12","Male","","true","","","","","[]","./assets/img/space/3.jpg","[]","first stage practice","space","-5","null","null","","false","","","","","","","",""
"html-keyboard-response","20","131766","0.0-3.0-4.0-1.0","spark_pilot_2","7316","2","12","Male","","","","","","","null","<div style=""font-size:60px;"">+</div>","null","fixation","","","","","","","","","","","","","",""
"revaluation","21","135782","0.0-3.0-4.0-0.1","spark_pilot_2","7316","2","12","Male","","false","","","","","[655.5]","./assets/img/space/4.jpg","[""ArrowDown""]","first stage practice","space","0","null","null","ArrowDown","false","","","","","","","",""
"html-keyboard-response","22","136283","0.0-3.0-4.0-1.1","spark_pilot_2","7316","2","12","Male","","","","","","","null","<div style=""font-size:60px;"">+</div>","null","fixation","","","","","","","","","","","","","",""
"revaluation","23","140299","0.0-3.0-4.0-0.2","spark_pilot_2","7316","2","12","Male","","false","","","","","[576.8000000119209]","./assets/img/space/5.jpg","[""ArrowDown""]","first stage practice","space","0","null","null","ArrowDown","false","","","","","","","",""
"html-keyboard-response","24","140805","0.0-3.0-4.0-1.2","spark_pilot_2","7316","2","12","Male","","","","","","","null","<div style=""font-size:60px;"">+</div>","null","fixation","","","","","","","","","","","","","",""
"learning-instructions","25","152574","0.0-3.0-5.0-0.0","spark_pilot_2","7316","2","12","Male","","","","","","","1896.5","<p> The animals don’t move, so the animal in the upper part of a place will stay in the upper part of a place, and the animal in the lower part of a place will stay in the lower part of a place. </p>","","instructions","","","","","","","","","","","","","",""
"learning-instructions","26","163678","0.0-3.0-5.0-0.1","spark_pilot_2","7316","2","12","Male","","","","","","","1950.699999988079","<p> Each animal has two treasure chests for you to choose from. </p>
            <p> The amount of treasure in each chest can range from <b> 0 to 40 pieces.</b></p>","","instructions","","","","","","","","","","","","","",""
"learning-instructions","27","176577","0.0-3.0-5.0-0.2","spark_pilot_2","7316","2","12","Male","","","","","","","1692.4000000357628","<p> You should decide which chest to search for treasure by using the <b>left</b> and <b>right</b> arrow keys. </p>
            <p><b> Pay attention to which animal is on the screen, as the animals have different treasure chests. </b></p>
            <img src='./assets/img/instructions/leftright.jpg' class='instructions-image'>","","instructions","","","","","","","","","","","","","",""
"learning-instructions","28","184400","0.0-3.0-5.0-0.3","spark_pilot_2","7316","2","12","Male","","","","","","","1446.199999988079","<p> Let’s try practicing that now. </p>
            <p> When you see an animal, choose which chest to search for treasure. </p>
            <img src='./assets/img/instructions/chooseChest.jpg' class='instructions-image'>","","instructions","","","","","","","","","","","","","",""
"revaluation","29","188423","0.0-3.0-6.0-0.0","spark_pilot_2","7316","2","12","Male","","false","","","","","[1639.800000011921]","./assets/img/space/animals/rabbit.jpg","[""ArrowRight""]","second stage practice","space","23","{""ArrowUp,ArrowLeft"":3,""ArrowUp,ArrowRight"":36,""ArrowDown,ArrowLeft"":15,""ArrowDown,ArrowRight"":23}","true","ArrowDown,ArrowRight","","","","","","","","",""
"html-keyboard-response","30","188931","0.0-3.0-6.0-1.0","spark_pilot_2","7316","2","12","Male","","","","","","","null","<div style=""font-size:60px;"">+</div>","null","fixation","","","","","","","","","","","","","",""
"revaluation","31","192948","0.0-3.0-6.0-0.1","spark_pilot_2","7316","2","12","Male","","false","","","","","[855.6999999880791]","./assets/img/space/animals/rabbit.jpg","[""ArrowRight""]","second stage practice","space","23","{""ArrowUp,ArrowLeft"":3,""ArrowUp,ArrowRight"":36,""ArrowDown,ArrowLeft"":15,""ArrowDown,ArrowRight"":23}","true","ArrowDown,ArrowRight","","","","","","","","",""
"html-keyboard-response","32","193450","0.0-3.0-6.0-1.1","spark_pilot_2","7316","2","12","Male","","","","","","","null","<div style=""font-size:60px;"">+</div>","null","fixation","","","","","","","","","","","","","",""
"revaluation","33","197467","0.0-3.0-6.0-0.2","spark_pilot_2","7316","2","12","Male","","false","","","","","[968.8000000119209]","./assets/img/space/animals/cat.jpg","[""ArrowLeft""]","second stage practice","space","3","{""ArrowUp,ArrowLeft"":3,""ArrowUp,ArrowRight"":36,""ArrowDown,ArrowLeft"":15,""ArrowDown,ArrowRight"":23}","false","ArrowUp,ArrowLeft","","","","","","","","",""
"html-keyboard-response","34","197971","0.0-3.0-6.0-1.2","spark_pilot_2","7316","2","12","Male","","","","","","","null","<div style=""font-size:60px;"">+</div>","null","fixation","","","","","","","","","","","","","",""
"revaluation","35","201988","0.0-3.0-6.0-0.3","spark_pilot_2","7316","2","12","Male","","false","","","","","[435.0999999642372]","./assets/img/space/animals/cat.jpg","[""ArrowRight""]","second stage practice","space","36","{""ArrowUp,ArrowLeft"":3,""ArrowUp,ArrowRight"":36,""ArrowDown,ArrowLeft"":15,""ArrowDown,ArrowRight"":23}","true","ArrowUp,ArrowRight","","","","","","","","",""
"html-keyboard-response","36","202491","0.0-3.0-6.0-1.3","spark_pilot_2","7316","2","12","Male","","","","","","","null","<div style=""font-size:60px;"">+</div>","null","fixation","","","","","","","","","","","","","",""
"learning-instructions","37","221975","0.0-3.0-7.0-0.0","spark_pilot_2","7316","2","12","Male","","","","","","","2632","<p> Great job. Now let’s try putting it together. </p>
            <p> On each turn, you will first see a picture to remind you of the place you are in, and you need to choose whether to go up or down. </p>
            <p> Then you will see an animal and choose which of its chests to search for treasure. </p>","","instructions","","","","","","","","","","","","","",""
"learning-instructions","38","231704","0.0-3.0-7.0-0.1","spark_pilot_2","7316","2","12","Male","","","","","","","1452","<p> When you choose whether to go up or down, try to go to the animal with the chest with the most treasure. </p>
            <p> Try practicing that now! </p>","","instructions","","","","","","","","","","","","","",""
"revaluation","39","237722","0.0-3.0-8.0-0.0","spark_pilot_2","7316","2","12","Male","","false","","","","","[1539.4000000357628,1165.3999999761581]","./assets/img/space/6.jpg","[""ArrowDown"",""ArrowRight""]","full practice","space","23","{""ArrowUp,ArrowLeft"":3,""ArrowUp,ArrowRight"":36,""ArrowDown,ArrowLeft"":15,""ArrowDown,ArrowRight"":23}","false","ArrowDown,ArrowRight","false","","","","","","","",""
"html-keyboard-response","40","238226","0.0-3.0-8.0-1.0","spark_pilot_2","7316","2","12","Male","","","","","","","null","<div style=""font-size:60px;"">+</div>","null","fixation","","","","","","","","","","","","","",""
"revaluation","41","244250","0.0-3.0-8.0-0.1","spark_pilot_2","7316","2","12","Male","","false","","","","","[569.1000000238419,737.8999999761581]","./assets/img/space/7.jpg","[""ArrowUp"",""ArrowRight""]","full practice","space","36","{""ArrowUp,ArrowLeft"":3,""ArrowUp,ArrowRight"":36,""ArrowDown,ArrowLeft"":15,""ArrowDown,ArrowRight"":23}","true","ArrowUp,ArrowRight","false","","","","","","","",""
"html-keyboard-response","42","244753","0.0-3.0-8.0-1.1","spark_pilot_2","7316","2","12","Male","","","","","","","null","<div style=""font-size:60px;"">+</div>","null","fixation","","","","","","","","","","","","","",""
"revaluation","43","250767","0.0-3.0-8.0-0.2","spark_pilot_2","7316","2","12","Male","","false","","","","","[1303.3999999761581,1334.6000000238419]","./assets/img/space/8.jpg","[""ArrowUp"",""ArrowRight""]","full practice","space","36","{""ArrowUp,ArrowLeft"":3,""ArrowUp,ArrowRight"":36,""ArrowDown,ArrowLeft"":15,""ArrowDown,ArrowRight"":23}","true","ArrowUp,ArrowRight","false","","","","","","","",""
"html-keyboard-response","44","251274","0.0-3.0-8.0-1.2","spark_pilot_2","7316","2","12","Male","","","","","","","null","<div style=""font-size:60px;"">+</div>","null","fixation","","","","","","","","","","","","","",""
"revaluation","45","257293","0.0-3.0-8.0-0.3","spark_pilot_2","7316","2","12","Male","","false","","","","","[959.4000000357628,888.8999999761581]","./assets/img/space/9.jpg","[""ArrowUp"",""ArrowLeft""]","full practice","space","3","{""ArrowUp,ArrowLeft"":3,""ArrowUp,ArrowRight"":36,""ArrowDown,ArrowLeft"":15,""ArrowDown,ArrowRight"":23}","false","ArrowUp,ArrowLeft","false","","","","","","","",""
"html-keyboard-response","46","257805","0.0-3.0-8.0-1.3","spark_pilot_2","7316","2","12","Male","","","","","","","null","<div style=""font-size:60px;"">+</div>","null","fixation","","","","","","","","","","","","","",""
"revaluation","47","263830","0.0-3.0-8.0-0.4","spark_pilot_2","7316","2","12","Male","","false","","","","","[848.4000000357628,713.8000000119209]","./assets/img/space/10.jpg","[""ArrowDown"",""ArrowRight""]","full practice","space","23","{""ArrowUp,ArrowLeft"":3,""ArrowUp,ArrowRight"":36,""ArrowDown,ArrowLeft"":15,""ArrowDown,ArrowRight"":23}","false","ArrowDown,ArrowRight","false","","","","","","","",""
"html-keyboard-response","48","264336","0.0-3.0-8.0-1.4","spark_pilot_2","7316","2","12","Male","","","","","","","null","<div style=""font-size:60px;"">+</div>","null","fixation","","","","","","","","","","","","","",""
"learning-instructions","49","276699","0.0-3.0-9.0-0.0","spark_pilot_2","7316","2","12","Male","","","","","","","2001.800000011921","<p> One last thing: sometimes, you will see a robber. The robber can be anywhere in the picture. </p>
            <p> If you do not stop them, you will lose treasure. </p>
            <img src='./assets/img/instructions/robber.jpg' class='instructions-image'>","","instructions","","","","","","","","","","","","","",""
"learning-instructions","50","286790","0.0-3.0-9.0-0.1","spark_pilot_2","7316","2","12","Male","","","","","","","2909","<p> If you see the robber, you should <b>press the space bar</b> rather than using the arrow keys. </p>
            <p> Try practicing that now! </p>","","instructions","","","","","","","","","","","","","",""
"revaluation","51","290804","0.0-3.0-10.0-0.0","spark_pilot_2","7316","2","12","Male","","false","","","","","[1164.2000000476837]","./assets/img/space/catch/0.jpg","[""ArrowDown""]","catch practice","space","-10","{""ArrowUp,ArrowLeft"":3,""ArrowUp,ArrowRight"":36,""ArrowDown,ArrowLeft"":15,""ArrowDown,ArrowRight"":23}","false","ArrowDown","true","","","","","","","",""
"html-keyboard-response","52","291311","0.0-3.0-10.0-1.0","spark_pilot_2","7316","2","12","Male","","","","","","","null","<div style=""font-size:60px;"">+</div>","null","fixation","","","","","","","","","","","","","",""
"revaluation","53","295330","0.0-3.0-10.0-0.1","spark_pilot_2","7316","2","12","Male","","false","","","","","[1260.0999999642372]","./assets/img/space/catch/1.jpg","[""spaceBar""]","catch practice","space","0","{""ArrowUp,ArrowLeft"":3,""ArrowUp,ArrowRight"":36,""ArrowDown,ArrowLeft"":15,""ArrowDown,ArrowRight"":23}","true","spaceBar","true","","","","","","","",""
"html-keyboard-response","54","295837","0.0-3.0-10.0-1.1","spark_pilot_2","7316","2","12","Male","","","","","","","null","<div style=""font-size:60px;"">+</div>","null","fixation","","","","","","","","","","","","","",""
"revaluation","55","299857","0.0-3.0-10.0-0.2","spark_pilot_2","7316","2","12","Male","","false","","","","","[776.8000000119209]","./assets/img/space/catch/2.jpg","[""spaceBar""]","catch practice","space","0","{""ArrowUp,ArrowLeft"":3,""ArrowUp,ArrowRight"":36,""ArrowDown,ArrowLeft"":15,""ArrowDown,ArrowRight"":23}","true","spaceBar","true","","","","","","","",""
"html-keyboard-response","56","300361","0.0-3.0-10.0-1.2","spark_pilot_2","7316","2","12","Male","","","","","","","null","<div style=""font-size:60px;"">+</div>","null","fixation","","","","","","","","","","","","","",""
"learning-instructions","57","315536","0.0-3.0-11.0-0.0","spark_pilot_2","7316","2","12","Male","","","","","","","1218.5","<p> After you explore a place to find treasure, it will be time to play a different game. </p>
            <p> During this game, red dots will appear on the screen and fall down slowly. </p>
            <p><b> You must click on them before they reach the bottom. </b></p>
            <img src='./assets/img/instructions/dotGame.jpg' class='instructions-image'>","","instructions","","","","","","","","","","","","","",""
"learning-instructions","58","322530","0.0-3.0-11.0-0.1","spark_pilot_2","7316","2","12","Male","","","","","","","1302.300000011921","<p> For every dot you click, you will earn additional treasure. </p>
            <p> Let’s try practicing that now. </p>","","instructions","","","","","","","","","","","","","",""
"revaluation","59","337544","0.0-3.0-12.0-0.0","spark_pilot_2","7316","2","12","Male","","","","","","","[90]","","","rest practice","","10","","","","","0","15000","","","","","",""
"learning-instructions","60","344377","0.0-3.0-13.0-0.0-0.0","spark_pilot_2","7316","2","12","Male","","","","","","","1560.199999988079","<p> Now, you will practice a shortened version of the game to get a sense of how it all fits together. </p>","","instructions","","","","","","","","","","","","","",""
"learning-instructions","61","348557","0.0-3.0-13.0-0.0-0.1","spark_pilot_2","7316","2","12","Male","","","","","","","978.0999999642372","<p>This time you are searching for treasure in outer space.</p>","","instructions","","","","","","","","","","","","","",""
"learning-instructions","62","367368","0.0-3.0-13.0-1.0-0.0","spark_pilot_2","7316","2","12","Male","","","","","","","4014.900000035763","<p> Remember, when you see a picture of the place, use the up and down keys to <b>find an animal</b>.</p>
            <p> When you encounter an animal, you should use the left and right keys to <b>select a treasure chest</b>.</p>
            <p> Don't forget to look out for the robber! </p>","","instructions","","","","","","","","","","","","","",""
"revaluation","63","373390","0.0-3.0-13.0-2.0-0.0","spark_pilot_2","7316","2","12","Male","","false","","","","","[1280.5,680.1000000238419]","./assets/img/space/11.jpg","[""ArrowDown"",""ArrowRight""]","practice block","space","23","{""ArrowUp,ArrowLeft"":3,""ArrowUp,ArrowRight"":36,""ArrowDown,ArrowLeft"":15,""ArrowDown,ArrowRight"":23}","false","ArrowDown,ArrowRight","false","","","","","","","",""
"html-keyboard-response","64","373894","0.0-3.0-13.0-2.0-1.0","spark_pilot_2","7316","2","12","Male","","","","","","","null","<div style=""font-size:60px;"">+</div>","null","fixation","","","","","","","","","","","","","",""
"revaluation","65","379914","0.0-3.0-13.0-2.0-0.1","spark_pilot_2","7316","2","12","Male","","false","","","","","[1448.5,899.8999999761581]","./assets/img/space/12.jpg","[""ArrowDown"",""ArrowRight""]","practice block","space","23","{""ArrowUp,ArrowLeft"":3,""ArrowUp,ArrowRight"":36,""ArrowDown,ArrowLeft"":15,""ArrowDown,ArrowRight"":23}","false","ArrowDown,ArrowRight","false","","","","","","","",""
"html-keyboard-response","66","380422","0.0-3.0-13.0-2.0-1.1","spark_pilot_2","7316","2","12","Male","","","","","","","null","<div style=""font-size:60px;"">+</div>","null","fixation","","","","","","","","","","","","","",""
"revaluation","67","386437","0.0-3.0-13.0-2.0-0.2","spark_pilot_2","7316","2","12","Male","","false","","","","","[1320.0999999642372,908.5]","./assets/img/space/13.jpg","[""ArrowDown"",""ArrowRight""]","practice block","space","23","{""ArrowUp,ArrowLeft"":3,""ArrowUp,ArrowRight"":36,""ArrowDown,ArrowLeft"":15,""ArrowDown,ArrowRight"":23}","false","ArrowDown,ArrowRight","false","","","","","","","",""
"html-keyboard-response","68","386942","0.0-3.0-13.0-2.0-1.2","spark_pilot_2","7316","2","12","Male","","","","","","","null","<div style=""font-size:60px;"">+</div>","null","fixation","","","","","","","","","","","","","",""
"revaluation","69","392958","0.0-3.0-13.0-2.0-0.3","spark_pilot_2","7316","2","12","Male","","false","","","","","[1035,683.3000000119209]","./assets/img/space/14.jpg","[""ArrowDown"",""ArrowRight""]","practice block","space","23","{""ArrowUp,ArrowLeft"":3,""ArrowUp,ArrowRight"":36,""ArrowDown,ArrowLeft"":15,""ArrowDown,ArrowRight"":23}","false","ArrowDown,ArrowRight","false","","","","","","","",""
"html-keyboard-response","70","393464","0.0-3.0-13.0-2.0-1.3","spark_pilot_2","7316","2","12","Male","","","","","","","null","<div style=""font-size:60px;"">+</div>","null","fixation","","","","","","","","","","","","","",""
"revaluation","71","399483","0.0-3.0-13.0-2.0-0.4","spark_pilot_2","7316","2","12","Male","","false","","","","","[819.8000000119209,809.3000000119209]","./assets/img/space/11.jpg","[""ArrowDown"",""ArrowRight""]","practice block","space","23","{""ArrowUp,ArrowLeft"":3,""ArrowUp,ArrowRight"":36,""ArrowDown,ArrowLeft"":15,""ArrowDown,ArrowRight"":23}","false","ArrowDown,ArrowRight","false","","","","","","","",""
"html-keyboard-response","72","399992","0.0-3.0-13.0-2.0-1.4","spark_pilot_2","7316","2","12","Male","","","","","","","null","<div style=""font-size:60px;"">+</div>","null","fixation","","","","","","","","","","","","","",""
"revaluation","73","406008","0.0-3.0-13.0-2.0-0.5","spark_pilot_2","7316","2","12","Male","","false","","","","","[1461.0999999642372,1334.699999988079]","./assets/img/space/12.jpg","[""ArrowDown"",""ArrowRight""]","practice block","space","23","{""ArrowUp,ArrowLeft"":3,""ArrowUp,ArrowRight"":36,""ArrowDown,ArrowLeft"":15,""ArrowDown,ArrowRight"":23}","false","ArrowDown,ArrowRight","false","","","","","","","",""
"html-keyboard-response","74","406520","0.0-3.0-13.0-2.0-1.5","spark_pilot_2","7316","2","12","Male","","","","","","","null","<div style=""font-size:60px;"">+</div>","null","fixation","","","","","","","","","","","","","",""
"revaluation","75","412536","0.0-3.0-13.0-2.0-0.6","spark_pilot_2","7316","2","12","Male","","false","","","","","[751.4000000357628,1312.1000000238419]","./assets/img/space/13.jpg","[""ArrowDown"",""ArrowRight""]","practice block","space","23","{""ArrowUp,ArrowLeft"":3,""ArrowUp,ArrowRight"":36,""ArrowDown,ArrowLeft"":15,""ArrowDown,ArrowRight"":23}","false","ArrowDown,ArrowRight","false","","","","","","","",""
"html-keyboard-response","76","413048","0.0-3.0-13.0-2.0-1.6","spark_pilot_2","7316","2","12","Male","","","","","","","null","<div style=""font-size:60px;"">+</div>","null","fixation","","","","","","","","","","","","","",""
"revaluation","77","419069","0.0-3.0-13.0-2.0-0.7","spark_pilot_2","7316","2","12","Male","","false","","","","","[1716.4000000357628,670.8999999761581]","./assets/img/space/14.jpg","[""ArrowDown"",""ArrowRight""]","practice block","space","23","{""ArrowUp,ArrowLeft"":3,""ArrowUp,ArrowRight"":36,""ArrowDown,ArrowLeft"":15,""ArrowDown,ArrowRight"":23}","false","ArrowDown,ArrowRight","false","","","","","","","",""
"html-keyboard-response","78","419575","0.0-3.0-13.0-2.0-1.7","spark_pilot_2","7316","2","12","Male","","","","","","","null","<div style=""font-size:60px;"">+</div>","null","fixation","","","","","","","","","","","","","",""
"revaluation","79","423698","0.0-3.0-13.0-2.0-0.8","spark_pilot_2","7316","2","12","Male","","false","","","","","[1354.7000000476837]","./assets/img/space/catch/3.jpg","[""spaceBar""]","practice block","space","0","{""ArrowUp,ArrowLeft"":3,""ArrowUp,ArrowRight"":36,""ArrowDown,ArrowLeft"":15,""ArrowDown,ArrowRight"":23}","true","spaceBar","true","","","","","","","",""
"html-keyboard-response","80","424202","0.0-3.0-13.0-2.0-1.8","spark_pilot_2","7316","2","12","Male","","","","","","","null","<div style=""font-size:60px;"">+</div>","null","fixation","","","","","","","","","","","","","",""
"learning-instructions","81","439425","0.0-3.0-13.0-3.0-0.0","spark_pilot_2","7316","2","12","Male","","","","","","","2222.7999999523163","<p> Now, you will travel with a friend who will choose whether you go up or down first. </p>
            <p> On these turns, you will just see the animal that they found. You will still get to choose which chest to search for treasure.</p>","","instructions","","","","","","","","","","","","","",""
"revaluation","82","443440","0.0-3.0-13.0-4.0-0.0","spark_pilot_2","7316","2","12","Male","","false","","","","","[1252.199999988079]","./assets/img/space/animals/cat.jpg","[""ArrowRight""]","practice block","space","36","{""ArrowUp,ArrowLeft"":3,""ArrowUp,ArrowRight"":36,""ArrowDown,ArrowLeft"":15,""ArrowDown,ArrowRight"":23}","true","ArrowUp,ArrowRight","","","","","","","","",""
"html-keyboard-response","83","443946","0.0-3.0-13.0-4.0-1.0","spark_pilot_2","7316","2","12","Male","","","","","","","null","<div style=""font-size:60px;"">+</div>","null","fixation","","","","","","","","","","","","","",""
"revaluation","84","447963","0.0-3.0-13.0-4.0-0.1","spark_pilot_2","7316","2","12","Male","","false","","","","","[463.69999998807907]","./assets/img/space/animals/cat.jpg","[""ArrowLeft""]","practice block","space","3","{""ArrowUp,ArrowLeft"":3,""ArrowUp,ArrowRight"":36,""ArrowDown,ArrowLeft"":15,""ArrowDown,ArrowRight"":23}","false","ArrowUp,ArrowLeft","","","","","","","","",""
"html-keyboard-response","85","448469","0.0-3.0-13.0-4.0-1.1","spark_pilot_2","7316","2","12","Male","","","","","","","null","<div style=""font-size:60px;"">+</div>","null","fixation","","","","","","","","","","","","","",""
"revaluation","86","452486","0.0-3.0-13.0-4.0-0.2","spark_pilot_2","7316","2","12","Male","","false","","","","","[576.5]","./assets/img/space/animals/rabbit.jpg","[""ArrowRight""]","practice block","space","23","{""ArrowUp,ArrowLeft"":3,""ArrowUp,ArrowRight"":36,""ArrowDown,ArrowLeft"":15,""ArrowDown,ArrowRight"":23}","true","ArrowDown,ArrowRight","","","","","","","","",""
"html-keyboard-response","87","452989","0.0-3.0-13.0-4.0-1.2","spark_pilot_2","7316","2","12","Male","","","","","","","null","<div style=""font-size:60px;"">+</div>","null","fixation","","","","","","","","","","","","","",""
"revaluation","88","457006","0.0-3.0-13.0-4.0-0.3","spark_pilot_2","7316","2","12","Male","","false","","","","","[438]","./assets/img/space/animals/rabbit.jpg","[""ArrowRight""]","practice block","space","23","{""ArrowUp,ArrowLeft"":3,""ArrowUp,ArrowRight"":36,""ArrowDown,ArrowLeft"":15,""ArrowDown,ArrowRight"":23}","true","ArrowDown,ArrowRight","","","","","","","","",""
"html-keyboard-response","89","457513","0.0-3.0-13.0-4.0-1.3","spark_pilot_2","7316","2","12","Male","","","","","","","null","<div style=""font-size:60px;"">+</div>","null","fixation","","","","","","","","","","","","","",""
"learning-instructions","90","466326","0.0-3.0-13.0-5.0-0.0","spark_pilot_2","7316","2","12","Male","","","","","","","1423.1000000238419","<p> Time to play the dot game! </p>
            <p> For 15 seconds, click the red dots on the following screen as they appear. </p>","","instructions","","","","","","","","","","","","","",""
"revaluation","91","481333","0.0-3.0-13.0-6.0-0.0","spark_pilot_2","7316","2","12","Male","","","","","","","[95]","","","rest practice","","10","","","","","0","15000","","","","","",""
"learning-instructions","92","489100","0.0-3.0-13.0-7.0-0.0","spark_pilot_2","7316","2","12","Male","","","","","","","1627.6000000238419","<p> You have almost finished this part of the game! </p>
            <p> We are going to ask you to make a few more choices. </p>","","instructions","","","","","","","","","","","","","",""
"learning-instructions","93","505238","0.0-3.0-13.0-7.0-0.1","spark_pilot_2","7316","2","12","Male","","","","","","","2096.899999976158","<p> First, you need to decide whether to go up or down. When you see each picture, use the arrow keys to make your choice. </p>
            <p><b>You will not see which animal you found, but try to get to the one that will give you the most treasure.</b></p>","","instructions","","","","","","","","","","","","","",""
"revaluation","94","506420","0.0-3.0-13.0-8.0","spark_pilot_2","7316","2","12","Male","","false","","","","","[1179.0999999642372]","./assets/img/space/15.jpg","[""ArrowDown""]","practice block","space","0","{""ArrowUp,ArrowLeft"":3,""ArrowUp,ArrowRight"":36,""ArrowDown,ArrowLeft"":15,""ArrowDown,ArrowRight"":23}","false","ArrowDown","false","","","","","","","",""
"html-keyboard-response","95","506927","0.0-3.0-13.0-9.0","spark_pilot_2","7316","2","12","Male","","","","","","","null","<div style=""font-size:60px;"">+</div>","null","fixation","","","","","","","","","","","","","",""
"learning-instructions","96","520993","0.0-3.0-13.0-10.0-0.0","spark_pilot_2","7316","2","12","Male","","","","","","","2662.099999964237","<p> Now you will see the animals again and can search their chests for treasure. </p>
            <p> This time, you will not see how much treasure you earned, but you will earn more bonus money for making better choices. </p>","","instructions","","","","","","","","","","","","","",""
"revaluation","97","522469","0.0-3.0-13.0-11.0-0.0","spark_pilot_2","7316","2","12","Male","","false","","","","","[1474.699999988079]","./assets/img/space/animals/cat.jpg","[""ArrowRight""]","practice block","space","0","{""ArrowUp,ArrowLeft"":3,""ArrowUp,ArrowRight"":36,""ArrowDown,ArrowLeft"":15,""ArrowDown,ArrowRight"":23}","true","ArrowUp,ArrowRight","","","","","","","","",""
"html-keyboard-response","98","522972","0.0-3.0-13.0-11.0-1.0","spark_pilot_2","7316","2","12","Male","","","","","","","null","<div style=""font-size:60px;"">+</div>","null","fixation","","","","","","","","","","","","","",""
"revaluation","99","523784","0.0-3.0-13.0-11.0-0.1","spark_pilot_2","7316","2","12","Male","","false","","","","","[809.1000000238419]","./assets/img/space/animals/rabbit.jpg","[""ArrowLeft""]","practice block","space","0","{""ArrowUp,ArrowLeft"":3,""ArrowUp,ArrowRight"":36,""ArrowDown,ArrowLeft"":15,""ArrowDown,ArrowRight"":23}","false","ArrowDown,ArrowLeft","","","","","","","","",""
"html-keyboard-response","100","524285","0.0-3.0-13.0-11.0-1.1","spark_pilot_2","7316","2","12","Male","","","","","","","null","<div style=""font-size:60px;"">+</div>","null","fixation","","","","","","","","","","","","","",""
"learning-instructions","101","530774","0.0-3.0-14.0-0.0","spark_pilot_2","7316","2","12","Male","","","","","","","1895.3999999761581","<p> Before you start, we're going to ask you a few questions about how the game works. </p>","","instructions","","","","","","","","","","","","","",""
"comp-q","102","537581","0.0-3.0-15.0-0.0-0.0","spark_pilot_2","7316","2","12","Male","","","","","","","1196.8999999761581","<p> <b> True or False? </b> </p>
            <p> There can be 50 pieces of treasure in a given animal's chest. </p>","1","comp_question","","","","true","","","","","","","","","",""
"comp-q","103","545861","0.0-3.0-15.0-0.0-1.0","spark_pilot_2","7316","2","12","Male","","","","","","","1605.800000011921","<p> <b> That's right! </b> The amount of treasure in each chest can range from 0 to 40 pieces. </p>","0","comp_answer","","","","","","","","","","","","","",""
"comp-q","104","554641","0.0-3.0-15.0-0.1-0.1","spark_pilot_2","7316","2","12","Male","","","","","","","1640.199999988079","<p> <b> True or False? </b> </p><p> In this game, all animals have the same amount of treasure in their left and right chests. </p>","1","comp_question","","","","true","","","","","","","","","",""
"comp-q","105","561811","0.0-3.0-15.0-0.1-1.1","spark_pilot_2","7316","2","12","Male","","","","","","","1919.800000011921","<p> <b> That's right! </b> Animals have different amounts of treasure in their treasure chests. </p>","0","comp_answer","","","","","","","","","","","","","",""
"comp-q","106","568750","0.0-3.0-15.0-0.2-0.2","spark_pilot_2","7316","2","12","Male","","","","","","","1077.2999999523163","<p> <b> True or False? </b> </p><p> The same animal will always be there if you go up in the same place. </p>","0","comp_question","","","","true","","","","","","","","","",""
"comp-q","107","576359","0.0-3.0-15.0-0.2-1.2","spark_pilot_2","7316","2","12","Male","","","","","","","1145","<p> <b> That's right! </b> One animal lives in the upper part and one lives in the lower part of every place. </p>","0","comp_answer","","","","","","","","","","","","","",""
"comp-q","108","582804","0.0-3.0-15.0-0.3-0.3","spark_pilot_2","7316","2","12","Male","","","","","","","902.3999999761581","<p> <b> True or False? </b> </p><p> If you see a different picture, it means you are in a new place. </p>","0","comp_question","","","","false","","","","","","","","","",""
"comp-q","109","594960","0.0-3.0-15.0-0.3-1.3","spark_pilot_2","7316","2","12","Male","","","","","","","1036.800000011921","<p> <b>Incorrect.</b> Lots of different images may show the same place. For example,  you may see three different images that all remind you that you are in outer space. </p>","0","comp_answer","","","","","","","","","","","","","",""
"comp-q","110","601332","0.0-3.0-15.0-0.4-0.4","spark_pilot_2","7316","2","12","Male","","","","","","","870.5","<p> <b> True or False? </b> </p><p> If you see a different picture, it means you are in a new place. </p>","0","comp_question","","","","false","","","","","","","","","",""
"comp-q","111","613864","0.0-3.0-15.0-0.4-1.4","spark_pilot_2","7316","2","12","Male","","","","","","","1472.5","<p> <b>Incorrect.</b> Lots of different images may show the same place. For example,  you may see three different images that all remind you that you are in outer space. </p>","0","comp_answer","","","","","","","","","","","","","",""
"comp-q","112","620671","0.0-3.0-15.0-0.5-0.5","spark_pilot_2","7316","2","12","Male","","","","","","","1302.8999999761581","<p> <b> True or False? </b> </p><p> If you see a different picture, it means you are in a new place. </p>","1","comp_question","","","","true","","","","","","","","","",""
"comp-q","113","633854","0.0-3.0-15.0-0.5-1.5","spark_pilot_2","7316","2","12","Male","","","","","","","1548.699999988079","<p> <b> That's right! </b> Lots of different images may show the same place. For example,  you may see three different images that all remind you that you are in outer space. </p>","0","comp_answer","","","","","","","","","","","","","",""
"learning-instructions","114","645553","0.0-3.0-16.0-0.0","spark_pilot_2","7316","2","12","Male","","","","","","","1829","<p> Good job. Remember to do your best because the amount of treasure you earn will be converted into bonus money. </p>
            <p> It’s time to start the real game! </p>","","instructions","","","","","","","","","","","","","",""
"learning-instructions","115","649576","0.0-4.0-0.0-0.0","spark_pilot_2","7316","2","12","Male","","","","","","","1303.4000000357628","<p> This time you are searching for treasure in the <b>ocean</b>.</p>","","instructions","","","","","","","","","","","","","",""
"learning-instructions","116","668622","0.0-4.0-0.0-0.1","spark_pilot_2","7316","2","12","Male","","","","","","","1720.8999999761581","<p><b>New</b> animals with <b>new</b> treasure chests live here. You need to explore to discover where the animal with the best treasure chest is.</p>
                    <p> Like before, once you figure out which animal has the chest with the most treasure, you should try to get to that animal and select that chest! </p>","","instructions","","","","","","","","","","","","","",""
"learning-instructions","117","685152","0.0-4.0-1.0-0.0","spark_pilot_2","7316","2","12","Male","","","","","","","1797.5","<p> Remember, when you see a picture of the place, use the up and down keys to <b>find an animal</b>.</p>
            <p> When you encounter an animal, you should use the left and right keys to <b>select a treasure chest</b>.</p>
            <p> Don't forget to look out for the robber! </p>","","instructions","","","","","","","","","","","","","",""
"revaluation","118","691170","0.0-4.0-2.0-0.0","spark_pilot_2","7316","2","12","Male","","false","","","","","[1181.800000011921,1254.699999988079]","./assets/img/ocean/memory/19.jpg","[""ArrowDown"",""ArrowRight""]","value training","ocean","30","{""ArrowUp,ArrowLeft"":23,""ArrowUp,ArrowRight"":10,""ArrowDown,ArrowLeft"":8,""ArrowDown,ArrowRight"":30}","true","ArrowDown,ArrowRight","false","","","revaluation","1","0","","",""
"html-keyboard-response","119","691683","0.0-4.0-2.0-1.0","spark_pilot_2","7316","2","12","Male","","","","","","","null","<div style=""font-size:60px;"">+</div>","null","fixation","","","","","","","","","","","1","","",""
"revaluation","120","697691","0.0-4.0-2.0-0.1","spark_pilot_2","7316","2","12","Male","","false","","","","","[1017.4000000357628,738.5]","./assets/img/ocean/memory/25.jpg","[""ArrowDown"",""ArrowRight""]","value training","ocean","30","{""ArrowUp,ArrowLeft"":23,""ArrowUp,ArrowRight"":10,""ArrowDown,ArrowLeft"":8,""ArrowDown,ArrowRight"":30}","true","ArrowDown,ArrowRight","false","","","revaluation","1","2","","",""
"html-keyboard-response","121","698198","0.0-4.0-2.0-1.1","spark_pilot_2","7316","2","12","Male","","","","","","","null","<div style=""font-size:60px;"">+</div>","null","fixation","","","","","","","","","","","3","","",""
"revaluation","122","704205","0.0-4.0-2.0-0.2","spark_pilot_2","7316","2","12","Male","","false","","","","","[1804.8999999761581,853.4000000357628]","./assets/img/ocean/memory/35.jpg","[""ArrowDown"",""ArrowRight""]","value training","ocean","30","{""ArrowUp,ArrowLeft"":23,""ArrowUp,ArrowRight"":10,""ArrowDown,ArrowLeft"":8,""ArrowDown,ArrowRight"":30}","true","ArrowDown,ArrowRight","false","","","revaluation","1","4","","",""
"html-keyboard-response","123","704717","0.0-4.0-2.0-1.2","spark_pilot_2","7316","2","12","Male","","","","","","","null","<div style=""font-size:60px;"">+</div>","null","fixation","","","","","","","","","","","5","","",""
"revaluation","124","710739","0.0-4.0-2.0-0.3","spark_pilot_2","7316","2","12","Male","","false","","","","","[1002.1000000238419,935.6999999880791]","./assets/img/ocean/memory/16.jpg","[""ArrowUp"",""ArrowRight""]","value training","ocean","10","{""ArrowUp,ArrowLeft"":23,""ArrowUp,ArrowRight"":10,""ArrowDown,ArrowLeft"":8,""ArrowDown,ArrowRight"":30}","false","ArrowUp,ArrowRight","false","","","revaluation","1","6","","",""
"html-keyboard-response","125","711242","0.0-4.0-2.0-1.3","spark_pilot_2","7316","2","12","Male","","","","","","","null","<div style=""font-size:60px;"">+</div>","null","fixation","","","","","","","","","","","7","","",""
"revaluation","126","717262","0.0-4.0-2.0-0.4","spark_pilot_2","7316","2","12","Male","","false","","","","","[1210,1256.699999988079]","./assets/img/ocean/memory/15.jpg","[""ArrowDown"",""ArrowRight""]","value training","ocean","30","{""ArrowUp,ArrowLeft"":23,""ArrowUp,ArrowRight"":10,""ArrowDown,ArrowLeft"":8,""ArrowDown,ArrowRight"":30}","true","ArrowDown,ArrowRight","false","","","revaluation","1","8","","",""
"html-keyboard-response","127","717770","0.0-4.0-2.0-1.4","spark_pilot_2","7316","2","12","Male","","","","","","","null","<div style=""font-size:60px;"">+</div>","null","fixation","","","","","","","","","","","9","","",""
"revaluation","128","723786","0.0-4.0-2.0-0.5","spark_pilot_2","7316","2","12","Male","","false","","","","","[1753.3999999761581,1016.8999999761581]","./assets/img/ocean/memory/20.jpg","[""ArrowDown"",""ArrowRight""]","value training","ocean","30","{""ArrowUp,ArrowLeft"":23,""ArrowUp,ArrowRight"":10,""ArrowDown,ArrowLeft"":8,""ArrowDown,ArrowRight"":30}","true","ArrowDown,ArrowRight","false","","","revaluation","1","10","","",""
"html-keyboard-response","129","724292","0.0-4.0-2.0-1.5","spark_pilot_2","7316","2","12","Male","","","","","","","null","<div style=""font-size:60px;"">+</div>","null","fixation","","","","","","","","","","","11","","",""
"revaluation","130","730314","0.0-4.0-2.0-0.6","spark_pilot_2","7316","2","12","Male","","false","","","","","[1098.5,881]","./assets/img/ocean/memory/25.jpg","[""ArrowDown"",""ArrowRight""]","value training","ocean","30","{""ArrowUp,ArrowLeft"":23,""ArrowUp,ArrowRight"":10,""ArrowDown,ArrowLeft"":8,""ArrowDown,ArrowRight"":30}","true","ArrowDown,ArrowRight","false","","","revaluation","1","12","","",""
"html-keyboard-response","131","730820","0.0-4.0-2.0-1.6","spark_pilot_2","7316","2","12","Male","","","","","","","null","<div style=""font-size:60px;"">+</div>","null","fixation","","","","","","","","","","","13","","",""
"revaluation","132","736836","0.0-4.0-2.0-0.7","spark_pilot_2","7316","2","12","Male","","false","","","","","[963.1000000238419,953.6999999880791]","./assets/img/ocean/memory/12.jpg","[""ArrowDown"",""ArrowRight""]","value training","ocean","30","{""ArrowUp,ArrowLeft"":23,""ArrowUp,ArrowRight"":10,""ArrowDown,ArrowLeft"":8,""ArrowDown,ArrowRight"":30}","true","ArrowDown,ArrowRight","false","","","revaluation","1","14","","",""
"html-keyboard-response","133","737347","0.0-4.0-2.0-1.7","spark_pilot_2","7316","2","12","Male","","","","","","","null","<div style=""font-size:60px;"">+</div>","null","fixation","","","","","","","","","","","15","","",""
"revaluation","134","743381","0.0-4.0-2.0-0.8","spark_pilot_2","7316","2","12","Male","","false","","","","","[1269.2999999523163,896.8000000119209]","./assets/img/ocean/memory/2.jpg","[""ArrowUp"",""ArrowLeft""]","value training","ocean","23","{""ArrowUp,ArrowLeft"":23,""ArrowUp,ArrowRight"":10,""ArrowDown,ArrowLeft"":8,""ArrowDown,ArrowRight"":30}","false","ArrowUp,ArrowLeft","false","","","revaluation","1","16","","",""
"html-keyboard-response","135","743892","0.0-4.0-2.0-1.8","spark_pilot_2","7316","2","12","Male","","","","","","","null","<div style=""font-size:60px;"">+</div>","null","fixation","","","","","","","","","","","17","","",""
"revaluation","136","747897","0.0-4.0-2.0-0.9","spark_pilot_2","7316","2","12","Male","","false","","","","","[1690.7999999523163]","./assets/img/ocean/catch/3.jpg","[""spaceBar""]","value training","ocean","0","{""ArrowUp,ArrowLeft"":23,""ArrowUp,ArrowRight"":10,""ArrowDown,ArrowLeft"":8,""ArrowDown,ArrowRight"":30}","true","spaceBar","true","","","revaluation","1","18","","",""
"html-keyboard-response","137","748403","0.0-4.0-2.0-1.9","spark_pilot_2","7316","2","12","Male","","","","","","","null","<div style=""font-size:60px;"">+</div>","null","fixation","","","","","","","","","","","19","","",""
"revaluation","138","754421","0.0-4.0-2.0-0.10","spark_pilot_2","7316","2","12","Male","","false","","","","","[965.1000000238419,920.8000000119209]","./assets/img/ocean/memory/18.jpg","[""ArrowDown"",""ArrowRight""]","value training","ocean","30","{""ArrowUp,ArrowLeft"":23,""ArrowUp,ArrowRight"":10,""ArrowDown,ArrowLeft"":8,""ArrowDown,ArrowRight"":30}","true","ArrowDown,ArrowRight","false","","","revaluation","1","20","","",""
"html-keyboard-response","139","754932","0.0-4.0-2.0-1.10","spark_pilot_2","7316","2","12","Male","","","","","","","null","<div style=""font-size:60px;"">+</div>","null","fixation","","","","","","","","","","","21","","",""
"revaluation","140","760953","0.0-4.0-2.0-0.11","spark_pilot_2","7316","2","12","Male","","false","","","","","[1017.3000000119209,819.5999999642372]","./assets/img/ocean/memory/19.jpg","[""ArrowDown"",""ArrowRight""]","value training","ocean","30","{""ArrowUp,ArrowLeft"":23,""ArrowUp,ArrowRight"":10,""ArrowDown,ArrowLeft"":8,""ArrowDown,ArrowRight"":30}","true","ArrowDown,ArrowRight","false","","","revaluation","1","22","","",""
"html-keyboard-response","141","761458","0.0-4.0-2.0-1.11","spark_pilot_2","7316","2","12","Male","","","","","","","null","<div style=""font-size:60px;"">+</div>","null","fixation","","","","","","","","","","","23","","",""
"revaluation","142","767476","0.0-4.0-2.0-0.12","spark_pilot_2","7316","2","12","Male","","false","","","","","[1589.5,915]","./assets/img/ocean/memory/21.jpg","[""ArrowDown"",""ArrowRight""]","value training","ocean","30","{""ArrowUp,ArrowLeft"":23,""ArrowUp,ArrowRight"":10,""ArrowDown,ArrowLeft"":8,""ArrowDown,ArrowRight"":30}","true","ArrowDown,ArrowRight","false","","","revaluation","1","24","","",""
"html-keyboard-response","143","767988","0.0-4.0-2.0-1.12","spark_pilot_2","7316","2","12","Male","","","","","","","null","<div style=""font-size:60px;"">+</div>","null","fixation","","","","","","","","","","","25","","",""
"revaluation","144","774009","0.0-4.0-2.0-0.13","spark_pilot_2","7316","2","12","Male","","false","","","","","[1038,1019.0999999642372]","./assets/img/ocean/memory/30.jpg","[""ArrowDown"",""ArrowRight""]","value training","ocean","30","{""ArrowUp,ArrowLeft"":23,""ArrowUp,ArrowRight"":10,""ArrowDown,ArrowLeft"":8,""ArrowDown,ArrowRight"":30}","true","ArrowDown,ArrowRight","false","","","revaluation","1","26","","",""
"html-keyboard-response","145","774516","0.0-4.0-2.0-1.13","spark_pilot_2","7316","2","12","Male","","","","","","","null","<div style=""font-size:60px;"">+</div>","null","fixation","","","","","","","","","","","27","","",""
"revaluation","146","778521","0.0-4.0-2.0-0.14","spark_pilot_2","7316","2","12","Male","","false","","","","","[1173.9000000357628]","./assets/img/ocean/catch/5.jpg","[""ArrowDown""]","value training","ocean","-10","{""ArrowUp,ArrowLeft"":23,""ArrowUp,ArrowRight"":10,""ArrowDown,ArrowLeft"":8,""ArrowDown,ArrowRight"":30}","false","ArrowDown","true","","","revaluation","1","28","","",""
"html-keyboard-response","147","779026","0.0-4.0-2.0-1.14","spark_pilot_2","7316","2","12","Male","","","","","","","null","<div style=""font-size:60px;"">+</div>","null","fixation","","","","","","","","","","","29","","",""
"revaluation","148","785044","0.0-4.0-2.0-0.15","spark_pilot_2","7316","2","12","Male","","false","","","","","[988.4000000357628,805.7000000476837]","./assets/img/ocean/memory/38.jpg","[""ArrowDown"",""ArrowRight""]","value training","ocean","30","{""ArrowUp,ArrowLeft"":23,""ArrowUp,ArrowRight"":10,""ArrowDown,ArrowLeft"":8,""ArrowDown,ArrowRight"":30}","true","ArrowDown,ArrowRight","false","","","revaluation","1","30","","",""
"html-keyboard-response","149","785553","0.0-4.0-2.0-1.15","spark_pilot_2","7316","2","12","Male","","","","","","","null","<div style=""font-size:60px;"">+</div>","null","fixation","","","","","","","","","","","31","","",""
"revaluation","150","791576","0.0-4.0-2.0-0.16","spark_pilot_2","7316","2","12","Male","","false","","","","","[971.3000000119209,1271]","./assets/img/ocean/memory/12.jpg","[""ArrowUp"",""ArrowRight""]","value training","ocean","10","{""ArrowUp,ArrowLeft"":23,""ArrowUp,ArrowRight"":10,""ArrowDown,ArrowLeft"":8,""ArrowDown,ArrowRight"":30}","false","ArrowUp,ArrowRight","false","","","revaluation","1","32","","",""
"html-keyboard-response","151","792083","0.0-4.0-2.0-1.16","spark_pilot_2","7316","2","12","Male","","","","","","","null","<div style=""font-size:60px;"">+</div>","null","fixation","","","","","","","","","","","33","","",""
"revaluation","152","798092","0.0-4.0-2.0-0.17","spark_pilot_2","7316","2","12","Male","","false","","","","","[1397.0999999642372,958]","./assets/img/ocean/memory/1.jpg","[""ArrowDown"",""ArrowRight""]","value training","ocean","30","{""ArrowUp,ArrowLeft"":23,""ArrowUp,ArrowRight"":10,""ArrowDown,ArrowLeft"":8,""ArrowDown,ArrowRight"":30}","true","ArrowDown,ArrowRight","false","","","revaluation","1","34","","",""
"html-keyboard-response","153","798601","0.0-4.0-2.0-1.17","spark_pilot_2","7316","2","12","Male","","","","","","","null","<div style=""font-size:60px;"">+</div>","null","fixation","","","","","","","","","","","35","","",""
"revaluation","154","804625","0.0-4.0-2.0-0.18","spark_pilot_2","7316","2","12","Male","","false","","","","","[1107.6000000238419,937.5]","./assets/img/ocean/memory/4.jpg","[""ArrowUp"",""ArrowRight""]","value training","ocean","10","{""ArrowUp,ArrowLeft"":23,""ArrowUp,ArrowRight"":10,""ArrowDown,ArrowLeft"":8,""ArrowDown,ArrowRight"":30}","false","ArrowUp,ArrowRight","false","","","revaluation","1","36","","",""
"html-keyboard-response","155","805128","0.0-4.0-2.0-1.18","spark_pilot_2","7316","2","12","Male","","","","","","","null","<div style=""font-size:60px;"">+</div>","null","fixation","","","","","","","","","","","37","","",""
"revaluation","156","809148","0.0-4.0-2.0-0.19","spark_pilot_2","7316","2","12","Male","","true","","","","","[]","./assets/img/ocean/memory/26.jpg","[]","value training","ocean","-5","{""ArrowUp,ArrowLeft"":23,""ArrowUp,ArrowRight"":10,""ArrowDown,ArrowLeft"":8,""ArrowDown,ArrowRight"":30}","false","","false","","","revaluation","1","38","","",""
"html-keyboard-response","157","809657","0.0-4.0-2.0-1.19","spark_pilot_2","7316","2","12","Male","","","","","","","null","<div style=""font-size:60px;"">+</div>","null","fixation","","","","","","","","","","","39","","",""
"revaluation","158","815684","0.0-4.0-2.0-0.20","spark_pilot_2","7316","2","12","Male","","false","","","","","[1466.300000011921,1085]","./assets/img/ocean/memory/0.jpg","[""ArrowUp"",""ArrowRight""]","value training","ocean","10","{""ArrowUp,ArrowLeft"":23,""ArrowUp,ArrowRight"":10,""ArrowDown,ArrowLeft"":8,""ArrowDown,ArrowRight"":30}","false","ArrowUp,ArrowRight","false","","","revaluation","1","40","","",""
"html-keyboard-response","159","816195","0.0-4.0-2.0-1.20","spark_pilot_2","7316","2","12","Male","","","","","","","null","<div style=""font-size:60px;"">+</div>","null","fixation","","","","","","","","","","","41","","",""
"revaluation","160","822217","0.0-4.0-2.0-0.21","spark_pilot_2","7316","2","12","Male","","false","","","","","[1387.300000011921,1045.8999999761581]","./assets/img/ocean/memory/26.jpg","[""ArrowDown"",""ArrowRight""]","value training","ocean","30","{""ArrowUp,ArrowLeft"":23,""ArrowUp,ArrowRight"":10,""ArrowDown,ArrowLeft"":8,""ArrowDown,ArrowRight"":30}","true","ArrowDown,ArrowRight","false","","","revaluation","1","42","","",""
"html-keyboard-response","161","822723","0.0-4.0-2.0-1.21","spark_pilot_2","7316","2","12","Male","","","","","","","null","<div style=""font-size:60px;"">+</div>","null","fixation","","","","","","","","","","","43","","",""
"revaluation","162","828739","0.0-4.0-2.0-0.22","spark_pilot_2","7316","2","12","Male","","false","","","","","[877.4000000357628,792.9000000357628]","./assets/img/ocean/memory/13.jpg","[""ArrowUp"",""ArrowRight""]","value training","ocean","10","{""ArrowUp,ArrowLeft"":23,""ArrowUp,ArrowRight"":10,""ArrowDown,ArrowLeft"":8,""ArrowDown,ArrowRight"":30}","false","ArrowUp,ArrowRight","false","","","revaluation","1","44","","",""
"html-keyboard-response","163","829244","0.0-4.0-2.0-1.22","spark_pilot_2","7316","2","12","Male","","","","","","","null","<div style=""font-size:60px;"">+</div>","null","fixation","","","","","","","","","","","45","","",""
"revaluation","164","835260","0.0-4.0-2.0-0.23","spark_pilot_2","7316","2","12","Male","","false","","","","","[1646.9000000357628,977.5]","./assets/img/ocean/memory/35.jpg","[""ArrowDown"",""ArrowRight""]","value training","ocean","30","{""ArrowUp,ArrowLeft"":23,""ArrowUp,ArrowRight"":10,""ArrowDown,ArrowLeft"":8,""ArrowDown,ArrowRight"":30}","true","ArrowDown,ArrowRight","false","","","revaluation","1","46","","",""
"html-keyboard-response","165","835768","0.0-4.0-2.0-1.23","spark_pilot_2","7316","2","12","Male","","","","","","","null","<div style=""font-size:60px;"">+</div>","null","fixation","","","","","","","","","","","47","","",""
"revaluation","166","839784","0.0-4.0-2.0-0.24","spark_pilot_2","7316","2","12","Male","","false","","","","","[1271]","./assets/img/ocean/catch/1.jpg","[""spaceBar""]","value training","ocean","0","{""ArrowUp,ArrowLeft"":23,""ArrowUp,ArrowRight"":10,""ArrowDown,ArrowLeft"":8,""ArrowDown,ArrowRight"":30}","true","spaceBar","true","","","revaluation","1","48","","",""
"html-keyboard-response","167","840291","0.0-4.0-2.0-1.24","spark_pilot_2","7316","2","12","Male","","","","","","","null","<div style=""font-size:60px;"">+</div>","null","fixation","","","","","","","","","","","49","","",""
"revaluation","168","846307","0.0-4.0-2.0-0.25","spark_pilot_2","7316","2","12","Male","","false","","","","","[1013.1999999880791,1162]","./assets/img/ocean/memory/1.jpg","[""ArrowDown"",""ArrowRight""]","value training","ocean","30","{""ArrowUp,ArrowLeft"":23,""ArrowUp,ArrowRight"":10,""ArrowDown,ArrowLeft"":8,""ArrowDown,ArrowRight"":30}","true","ArrowDown,ArrowRight","false","","","revaluation","1","50","","",""
"html-keyboard-response","169","846818","0.0-4.0-2.0-1.25","spark_pilot_2","7316","2","12","Male","","","","","","","null","<div style=""font-size:60px;"">+</div>","null","fixation","","","","","","","","","","","51","","",""
"revaluation","170","852835","0.0-4.0-2.0-0.26","spark_pilot_2","7316","2","12","Male","","false","","","","","[1721.800000011921,1650.5]","./assets/img/ocean/memory/30.jpg","[""ArrowDown"",""ArrowRight""]","value training","ocean","30","{""ArrowUp,ArrowLeft"":23,""ArrowUp,ArrowRight"":10,""ArrowDown,ArrowLeft"":8,""ArrowDown,ArrowRight"":30}","true","ArrowDown,ArrowRight","false","","","revaluation","1","52","","",""
"html-keyboard-response","171","853337","0.0-4.0-2.0-1.26","spark_pilot_2","7316","2","12","Male","","","","","","","null","<div style=""font-size:60px;"">+</div>","null","fixation","","","","","","","","","","","53","","",""
"revaluation","172","859353","0.0-4.0-2.0-0.27","spark_pilot_2","7316","2","12","Male","","false","","","","","[870,790]","./assets/img/ocean/memory/5.jpg","[""ArrowDown"",""ArrowRight""]","value training","ocean","30","{""ArrowUp,ArrowLeft"":23,""ArrowUp,ArrowRight"":10,""ArrowDown,ArrowLeft"":8,""ArrowDown,ArrowRight"":30}","true","ArrowDown,ArrowRight","false","","","revaluation","1","54","","",""
"html-keyboard-response","173","859858","0.0-4.0-2.0-1.27","spark_pilot_2","7316","2","12","Male","","","","","","","null","<div style=""font-size:60px;"">+</div>","null","fixation","","","","","","","","","","","55","","",""
"revaluation","174","865875","0.0-4.0-2.0-0.28","spark_pilot_2","7316","2","12","Male","","false","","","","","[1180.699999988079,923.5]","./assets/img/ocean/memory/24.jpg","[""ArrowDown"",""ArrowRight""]","value training","ocean","30","{""ArrowUp,ArrowLeft"":23,""ArrowUp,ArrowRight"":10,""ArrowDown,ArrowLeft"":8,""ArrowDown,ArrowRight"":30}","true","ArrowDown,ArrowRight","false","","","revaluation","1","56","","",""
"html-keyboard-response","175","866381","0.0-4.0-2.0-1.28","spark_pilot_2","7316","2","12","Male","","","","","","","null","<div style=""font-size:60px;"">+</div>","null","fixation","","","","","","","","","","","57","","",""
"revaluation","176","872397","0.0-4.0-2.0-0.29","spark_pilot_2","7316","2","12","Male","","false","","","","","[1544.199999988079,1298.699999988079]","./assets/img/ocean/memory/21.jpg","[""ArrowDown"",""ArrowRight""]","value training","ocean","30","{""ArrowUp,ArrowLeft"":23,""ArrowUp,ArrowRight"":10,""ArrowDown,ArrowLeft"":8,""ArrowDown,ArrowRight"":30}","true","ArrowDown,ArrowRight","false","","","revaluation","1","58","","",""
"html-keyboard-response","177","872904","0.0-4.0-2.0-1.29","spark_pilot_2","7316","2","12","Male","","","","","","","null","<div style=""font-size:60px;"">+</div>","null","fixation","","","","","","","","","","","59","","",""
"revaluation","178","878920","0.0-4.0-2.0-0.30","spark_pilot_2","7316","2","12","Male","","false","","","","","[1361.699999988079,1119]","./assets/img/ocean/memory/24.jpg","[""ArrowDown"",""ArrowRight""]","value training","ocean","30","{""ArrowUp,ArrowLeft"":23,""ArrowUp,ArrowRight"":10,""ArrowDown,ArrowLeft"":8,""ArrowDown,ArrowRight"":30}","true","ArrowDown,ArrowRight","false","","","revaluation","1","60","","",""
"html-keyboard-response","179","879426","0.0-4.0-2.0-1.30","spark_pilot_2","7316","2","12","Male","","","","","","","null","<div style=""font-size:60px;"">+</div>","null","fixation","","","","","","","","","","","61","","",""
"revaluation","180","885448","0.0-4.0-2.0-0.31","spark_pilot_2","7316","2","12","Male","","false","","","","","[1029.699999988079,854.8999999761581]","./assets/img/ocean/memory/4.jpg","[""ArrowDown"",""ArrowRight""]","value training","ocean","30","{""ArrowUp,ArrowLeft"":23,""ArrowUp,ArrowRight"":10,""ArrowDown,ArrowLeft"":8,""ArrowDown,ArrowRight"":30}","true","ArrowDown,ArrowRight","false","","","revaluation","1","62","","",""
"html-keyboard-response","181","885954","0.0-4.0-2.0-1.31","spark_pilot_2","7316","2","12","Male","","","","","","","null","<div style=""font-size:60px;"">+</div>","null","fixation","","","","","","","","","","","63","","",""
"revaluation","182","891970","0.0-4.0-2.0-0.32","spark_pilot_2","7316","2","12","Male","","false","","","","","[867.8999999761581,912]","./assets/img/ocean/memory/38.jpg","[""ArrowDown"",""ArrowRight""]","value training","ocean","30","{""ArrowUp,ArrowLeft"":23,""ArrowUp,ArrowRight"":10,""ArrowDown,ArrowLeft"":8,""ArrowDown,ArrowRight"":30}","true","ArrowDown,ArrowRight","false","","","revaluation","1","64","","",""
"html-keyboard-response","183","892481","0.0-4.0-2.0-1.32","spark_pilot_2","7316","2","12","Male","","","","","","","null","<div style=""font-size:60px;"">+</div>","null","fixation","","","","","","","","","","","65","","",""
"revaluation","184","896498","0.0-4.0-2.0-0.33","spark_pilot_2","7316","2","12","Male","","false","","","","","[993.1000000238419]","./assets/img/ocean/catch/2.jpg","[""spaceBar""]","value training","ocean","0","{""ArrowUp,ArrowLeft"":23,""ArrowUp,ArrowRight"":10,""ArrowDown,ArrowLeft"":8,""ArrowDown,ArrowRight"":30}","true","spaceBar","true","","","revaluation","1","66","","",""
"html-keyboard-response","185","897005","0.0-4.0-2.0-1.33","spark_pilot_2","7316","2","12","Male","","","","","","","null","<div style=""font-size:60px;"">+</div>","null","fixation","","","","","","","","","","","67","","",""
"revaluation","186","903026","0.0-4.0-2.0-0.34","spark_pilot_2","7316","2","12","Male","","false","","","","","[1331.6000000238419,746.1999999880791]","./assets/img/ocean/memory/13.jpg","[""ArrowDown"",""ArrowRight""]","value training","ocean","30","{""ArrowUp,ArrowLeft"":23,""ArrowUp,ArrowRight"":10,""ArrowDown,ArrowLeft"":8,""ArrowDown,ArrowRight"":30}","true","ArrowDown,ArrowRight","false","","","revaluation","1","68","","",""
"html-keyboard-response","187","903527","0.0-4.0-2.0-1.34","spark_pilot_2","7316","2","12","Male","","","","","","","null","<div style=""font-size:60px;"">+</div>","null","fixation","","","","","","","","","","","69","","",""
"revaluation","188","909553","0.0-4.0-2.0-0.35","spark_pilot_2","7316","2","12","Male","","false","","","","","[1444.2999999523163,979.1000000238419]","./assets/img/ocean/memory/20.jpg","[""ArrowDown"",""ArrowRight""]","value training","ocean","30","{""ArrowUp,ArrowLeft"":23,""ArrowUp,ArrowRight"":10,""ArrowDown,ArrowLeft"":8,""ArrowDown,ArrowRight"":30}","true","ArrowDown,ArrowRight","false","","","revaluation","1","70","","",""
"html-keyboard-response","189","910056","0.0-4.0-2.0-1.35","spark_pilot_2","7316","2","12","Male","","","","","","","null","<div style=""font-size:60px;"">+</div>","null","fixation","","","","","","","","","","","71","","",""
"revaluation","190","916071","0.0-4.0-2.0-0.36","spark_pilot_2","7316","2","12","Male","","false","","","","","[1044.2999999523163,736.5]","./assets/img/ocean/memory/0.jpg","[""ArrowUp"",""ArrowRight""]","value training","ocean","10","{""ArrowUp,ArrowLeft"":23,""ArrowUp,ArrowRight"":10,""ArrowDown,ArrowLeft"":8,""ArrowDown,ArrowRight"":30}","false","ArrowUp,ArrowRight","false","","","revaluation","1","72","","",""
"html-keyboard-response","191","916578","0.0-4.0-2.0-1.36","spark_pilot_2","7316","2","12","Male","","","","","","","null","<div style=""font-size:60px;"">+</div>","null","fixation","","","","","","","","","","","73","","",""
"revaluation","192","922588","0.0-4.0-2.0-0.37","spark_pilot_2","7316","2","12","Male","","false","","","","","[1022.1999999880791,943.8999999761581]","./assets/img/ocean/memory/3.jpg","[""ArrowDown"",""ArrowRight""]","value training","ocean","30","{""ArrowUp,ArrowLeft"":23,""ArrowUp,ArrowRight"":10,""ArrowDown,ArrowLeft"":8,""ArrowDown,ArrowRight"":30}","true","ArrowDown,ArrowRight","false","","","revaluation","1","74","","",""
"html-keyboard-response","193","923095","0.0-4.0-2.0-1.37","spark_pilot_2","7316","2","12","Male","","","","","","","null","<div style=""font-size:60px;"">+</div>","null","fixation","","","","","","","","","","","75","","",""
"revaluation","194","927106","0.0-4.0-2.0-0.38","spark_pilot_2","7316","2","12","Male","","false","","","","","[1032.2000000476837]","./assets/img/ocean/catch/4.jpg","[""ArrowUp""]","value training","ocean","-10","{""ArrowUp,ArrowLeft"":23,""ArrowUp,ArrowRight"":10,""ArrowDown,ArrowLeft"":8,""ArrowDown,ArrowRight"":30}","false","ArrowUp","true","","","revaluation","1","76","","",""
"html-keyboard-response","195","927618","0.0-4.0-2.0-1.38","spark_pilot_2","7316","2","12","Male","","","","","","","null","<div style=""font-size:60px;"">+</div>","null","fixation","","","","","","","","","","","77","","",""
"revaluation","196","931634","0.0-4.0-2.0-0.39","spark_pilot_2","7316","2","12","Male","","false","","","","","[1502.699999988079]","./assets/img/ocean/catch/7.jpg","[""spaceBar""]","value training","ocean","0","{""ArrowUp,ArrowLeft"":23,""ArrowUp,ArrowRight"":10,""ArrowDown,ArrowLeft"":8,""ArrowDown,ArrowRight"":30}","true","spaceBar","true","","","revaluation","1","78","","",""
"html-keyboard-response","197","932136","0.0-4.0-2.0-1.39","spark_pilot_2","7316","2","12","Male","","","","","","","null","<div style=""font-size:60px;"">+</div>","null","fixation","","","","","","","","","","","79","","",""
"revaluation","198","938162","0.0-4.0-2.0-0.40","spark_pilot_2","7316","2","12","Male","","false","","","","","[1288.800000011921,911.6000000238419]","./assets/img/ocean/memory/2.jpg","[""ArrowUp"",""ArrowRight""]","value training","ocean","10","{""ArrowUp,ArrowLeft"":23,""ArrowUp,ArrowRight"":10,""ArrowDown,ArrowLeft"":8,""ArrowDown,ArrowRight"":30}","false","ArrowUp,ArrowRight","false","","","revaluation","1","80","","",""
"html-keyboard-response","199","938665","0.0-4.0-2.0-1.40","spark_pilot_2","7316","2","12","Male","","","","","","","null","<div style=""font-size:60px;"">+</div>","null","fixation","","","","","","","","","","","81","","",""
"revaluation","200","944682","0.0-4.0-2.0-0.41","spark_pilot_2","7316","2","12","Male","","false","","","","","[1033.5,714.3999999761581]","./assets/img/ocean/memory/15.jpg","[""ArrowUp"",""ArrowRight""]","value training","ocean","10","{""ArrowUp,ArrowLeft"":23,""ArrowUp,ArrowRight"":10,""ArrowDown,ArrowLeft"":8,""ArrowDown,ArrowRight"":30}","false","ArrowUp,ArrowRight","false","","","revaluation","1","82","","",""
"html-keyboard-response","201","945194","0.0-4.0-2.0-1.41","spark_pilot_2","7316","2","12","Male","","","","","","","null","<div style=""font-size:60px;"">+</div>","null","fixation","","","","","","","","","","","83","","",""
"revaluation","202","951205","0.0-4.0-2.0-0.42","spark_pilot_2","7316","2","12","Male","","false","","","","","[969.8000000119209,985]","./assets/img/ocean/memory/39.jpg","[""ArrowDown"",""ArrowRight""]","value training","ocean","30","{""ArrowUp,ArrowLeft"":23,""ArrowUp,ArrowRight"":10,""ArrowDown,ArrowLeft"":8,""ArrowDown,ArrowRight"":30}","true","ArrowDown,ArrowRight","false","","","revaluation","1","84","","",""
"html-keyboard-response","203","951714","0.0-4.0-2.0-1.42","spark_pilot_2","7316","2","12","Male","","","","","","","null","<div style=""font-size:60px;"">+</div>","null","fixation","","","","","","","","","","","85","","",""
"revaluation","204","957722","0.0-4.0-2.0-0.43","spark_pilot_2","7316","2","12","Male","","false","","","","","[1296.5,1085.9000000357628]","./assets/img/ocean/memory/3.jpg","[""ArrowUp"",""ArrowLeft""]","value training","ocean","23","{""ArrowUp,ArrowLeft"":23,""ArrowUp,ArrowRight"":10,""ArrowDown,ArrowLeft"":8,""ArrowDown,ArrowRight"":30}","false","ArrowUp,ArrowLeft","false","","","revaluation","1","86","","",""
"html-keyboard-response","205","958231","0.0-4.0-2.0-1.43","spark_pilot_2","7316","2","12","Male","","","","","","","null","<div style=""font-size:60px;"">+</div>","null","fixation","","","","","","","","","","","87","","",""
"revaluation","206","962248","0.0-4.0-2.0-0.44","spark_pilot_2","7316","2","12","Male","","false","","","","","[1305.300000011921]","./assets/img/ocean/catch/0.jpg","[""spaceBar""]","value training","ocean","0","{""ArrowUp,ArrowLeft"":23,""ArrowUp,ArrowRight"":10,""ArrowDown,ArrowLeft"":8,""ArrowDown,ArrowRight"":30}","true","spaceBar","true","","","revaluation","1","88","","",""
"html-keyboard-response","207","962753","0.0-4.0-2.0-1.44","spark_pilot_2","7316","2","12","Male","","","","","","","null","<div style=""font-size:60px;"">+</div>","null","fixation","","","","","","","","","","","89","","",""
"revaluation","208","968770","0.0-4.0-2.0-0.45","spark_pilot_2","7316","2","12","Male","","false","","","","","[1008.3000000119209,678.2999999523163]","./assets/img/ocean/memory/16.jpg","[""ArrowUp"",""ArrowRight""]","value training","ocean","10","{""ArrowUp,ArrowLeft"":23,""ArrowUp,ArrowRight"":10,""ArrowDown,ArrowLeft"":8,""ArrowDown,ArrowRight"":30}","false","ArrowUp,ArrowRight","false","","","revaluation","1","90","","",""
"html-keyboard-response","209","969278","0.0-4.0-2.0-1.45","spark_pilot_2","7316","2","12","Male","","","","","","","null","<div style=""font-size:60px;"">+</div>","null","fixation","","","","","","","","","","","91","","",""
"revaluation","210","975303","0.0-4.0-2.0-0.46","spark_pilot_2","7316","2","12","Male","","false","","","","","[776.1999999880791,783.3000000119209]","./assets/img/ocean/memory/18.jpg","[""ArrowUp"",""ArrowRight""]","value training","ocean","10","{""ArrowUp,ArrowLeft"":23,""ArrowUp,ArrowRight"":10,""ArrowDown,ArrowLeft"":8,""ArrowDown,ArrowRight"":30}","false","ArrowUp,ArrowRight","false","","","revaluation","1","92","","",""
"html-keyboard-response","211","975809","0.0-4.0-2.0-1.46","spark_pilot_2","7316","2","12","Male","","","","","","","null","<div style=""font-size:60px;"">+</div>","null","fixation","","","","","","","","","","","93","","",""
"revaluation","212","981831","0.0-4.0-2.0-0.47","spark_pilot_2","7316","2","12","Male","","false","","","","","[1411,947.6999999880791]","./assets/img/ocean/memory/5.jpg","[""ArrowDown"",""ArrowRight""]","value training","ocean","30","{""ArrowUp,ArrowLeft"":23,""ArrowUp,ArrowRight"":10,""ArrowDown,ArrowLeft"":8,""ArrowDown,ArrowRight"":30}","true","ArrowDown,ArrowRight","false","","","revaluation","1","94","","",""
"html-keyboard-response","213","982337","0.0-4.0-2.0-1.47","spark_pilot_2","7316","2","12","Male","","","","","","","null","<div style=""font-size:60px;"">+</div>","null","fixation","","","","","","","","","","","95","","",""
"revaluation","214","986353","0.0-4.0-2.0-0.48","spark_pilot_2","7316","2","12","Male","","false","","","","","[1406]","./assets/img/ocean/catch/6.jpg","[""spaceBar""]","value training","ocean","0","{""ArrowUp,ArrowLeft"":23,""ArrowUp,ArrowRight"":10,""ArrowDown,ArrowLeft"":8,""ArrowDown,ArrowRight"":30}","true","spaceBar","true","","","revaluation","1","96","","",""
"html-keyboard-response","215","986865","0.0-4.0-2.0-1.48","spark_pilot_2","7316","2","12","Male","","","","","","","null","<div style=""font-size:60px;"">+</div>","null","fixation","","","","","","","","","","","97","","",""
"revaluation","216","992887","0.0-4.0-2.0-0.49","spark_pilot_2","7316","2","12","Male","","false","","","","","[793.9000000357628,693.5]","./assets/img/ocean/memory/39.jpg","[""ArrowUp"",""ArrowRight""]","value training","ocean","10","{""ArrowUp,ArrowLeft"":23,""ArrowUp,ArrowRight"":10,""ArrowDown,ArrowLeft"":8,""ArrowDown,ArrowRight"":30}","false","ArrowUp,ArrowRight","false","","","revaluation","1","98","","",""
"html-keyboard-response","217","993390","0.0-4.0-2.0-1.49","spark_pilot_2","7316","2","12","Male","","","","","","","null","<div style=""font-size:60px;"">+</div>","null","fixation","","","","","","","","","","","99","","",""
"learning-instructions","218","1011785","0.0-4.0-3.0-0.0","spark_pilot_2","7316","2","12","Male","","","","","","","5471.899999976158","<p> Now, you will travel with a friend who will choose whether you go up or down first. </p>
            <p> On these turns, you will just see the animal that they found. You will still get to choose which chest to search for treasure.</p>","","instructions","","","","","","","","","","","","","",""
"revaluation","219","1015798","0.0-4.0-4.0-0.0","spark_pilot_2","7316","2","12","Male","","true","","","","","[]","./assets/img/ocean/animals/octopus.jpg","[]","revaluation","ocean","-5","{""ArrowUp,ArrowLeft"":27,""ArrowUp,ArrowRight"":15,""ArrowDown,ArrowLeft"":21,""ArrowDown,ArrowRight"":7}","false","ArrowDown","","","","revaluation","1","0","","",""
"html-keyboard-response","220","1016302","0.0-4.0-4.0-1.0","spark_pilot_2","7316","2","12","Male","","","","","","","null","<div style=""font-size:60px;"">+</div>","null","fixation","","","","","","","","","","","1","","",""
"revaluation","221","1020314","0.0-4.0-4.0-0.1","spark_pilot_2","7316","2","12","Male","","false","","","","","[1322.199999988079]","./assets/img/ocean/animals/seahorse.jpg","[""ArrowRight""]","revaluation","ocean","15","{""ArrowUp,ArrowLeft"":27,""ArrowUp,ArrowRight"":15,""ArrowDown,ArrowLeft"":21,""ArrowDown,ArrowRight"":7}","false","ArrowUp,ArrowRight","","","","revaluation","1","2","","",""
"html-keyboard-response","222","1020824","0.0-4.0-4.0-1.1","spark_pilot_2","7316","2","12","Male","","","","","","","null","<div style=""font-size:60px;"">+</div>","null","fixation","","","","","","","","","","","3","","",""
"revaluation","223","1024839","0.0-4.0-4.0-0.2","spark_pilot_2","7316","2","12","Male","","true","","","","","[]","./assets/img/ocean/animals/seahorse.jpg","[]","revaluation","ocean","-5","{""ArrowUp,ArrowLeft"":27,""ArrowUp,ArrowRight"":15,""ArrowDown,ArrowLeft"":21,""ArrowDown,ArrowRight"":7}","false","ArrowUp","","","","revaluation","1","4","","",""
"html-keyboard-response","224","1025343","0.0-4.0-4.0-1.2","spark_pilot_2","7316","2","12","Male","","","","","","","null","<div style=""font-size:60px;"">+</div>","null","fixation","","","","","","","","","","","5","","",""
"revaluation","225","1029354","0.0-4.0-4.0-0.3","spark_pilot_2","7316","2","12","Male","","false","","","","","[1173.6000000238419]","./assets/img/ocean/animals/octopus.jpg","[""ArrowRight""]","revaluation","ocean","7","{""ArrowUp,ArrowLeft"":27,""ArrowUp,ArrowRight"":15,""ArrowDown,ArrowLeft"":21,""ArrowDown,ArrowRight"":7}","false","ArrowDown,ArrowRight","","","","revaluation","1","6","","",""
"html-keyboard-response","226","1029863","0.0-4.0-4.0-1.3","spark_pilot_2","7316","2","12","Male","","","","","","","null","<div style=""font-size:60px;"">+</div>","null","fixation","","","","","","","","","","","7","","",""
"revaluation","227","1033880","0.0-4.0-4.0-0.4","spark_pilot_2","7316","2","12","Male","","false","","","","","[644.6999999880791]","./assets/img/ocean/animals/octopus.jpg","[""ArrowRight""]","revaluation","ocean","7","{""ArrowUp,ArrowLeft"":27,""ArrowUp,ArrowRight"":15,""ArrowDown,ArrowLeft"":21,""ArrowDown,ArrowRight"":7}","false","ArrowDown,ArrowRight","","","","revaluation","1","8","","",""
"html-keyboard-response","228","1034387","0.0-4.0-4.0-1.4","spark_pilot_2","7316","2","12","Male","","","","","","","null","<div style=""font-size:60px;"">+</div>","null","fixation","","","","","","","","","","","9","","",""
"revaluation","229","1038399","0.0-4.0-4.0-0.5","spark_pilot_2","7316","2","12","Male","","false","","","","","[1747.699999988079]","./assets/img/ocean/animals/octopus.jpg","[""ArrowRight""]","revaluation","ocean","7","{""ArrowUp,ArrowLeft"":27,""ArrowUp,ArrowRight"":15,""ArrowDown,ArrowLeft"":21,""ArrowDown,ArrowRight"":7}","false","ArrowDown,ArrowRight","","","","revaluation","1","10","","",""
"html-keyboard-response","230","1038905","0.0-4.0-4.0-1.5","spark_pilot_2","7316","2","12","Male","","","","","","","null","<div style=""font-size:60px;"">+</div>","null","fixation","","","","","","","","","","","11","","",""
"revaluation","231","1042911","0.0-4.0-4.0-0.6","spark_pilot_2","7316","2","12","Male","","false","","","","","[920.1999999880791]","./assets/img/ocean/animals/seahorse.jpg","[""ArrowRight""]","revaluation","ocean","15","{""ArrowUp,ArrowLeft"":27,""ArrowUp,ArrowRight"":15,""ArrowDown,ArrowLeft"":21,""ArrowDown,ArrowRight"":7}","false","ArrowUp,ArrowRight","","","","revaluation","1","12","","",""
"html-keyboard-response","232","1043417","0.0-4.0-4.0-1.6","spark_pilot_2","7316","2","12","Male","","","","","","","null","<div style=""font-size:60px;"">+</div>","null","fixation","","","","","","","","","","","13","","",""
"revaluation","233","1047427","0.0-4.0-4.0-0.7","spark_pilot_2","7316","2","12","Male","","false","","","","","[784]","./assets/img/ocean/animals/seahorse.jpg","[""ArrowRight""]","revaluation","ocean","15","{""ArrowUp,ArrowLeft"":27,""ArrowUp,ArrowRight"":15,""ArrowDown,ArrowLeft"":21,""ArrowDown,ArrowRight"":7}","false","ArrowUp,ArrowRight","","","","revaluation","1","14","","",""
"html-keyboard-response","234","1047934","0.0-4.0-4.0-1.7","spark_pilot_2","7316","2","12","Male","","","","","","","null","<div style=""font-size:60px;"">+</div>","null","fixation","","","","","","","","","","","15","","",""
"revaluation","235","1051949","0.0-4.0-4.0-0.8","spark_pilot_2","7316","2","12","Male","","false","","","","","[1682.5999999642372]","./assets/img/ocean/animals/octopus.jpg","[""ArrowRight""]","revaluation","ocean","7","{""ArrowUp,ArrowLeft"":27,""ArrowUp,ArrowRight"":15,""ArrowDown,ArrowLeft"":21,""ArrowDown,ArrowRight"":7}","false","ArrowDown,ArrowRight","","","","revaluation","1","16","","",""
"html-keyboard-response","236","1052457","0.0-4.0-4.0-1.8","spark_pilot_2","7316","2","12","Male","","","","","","","null","<div style=""font-size:60px;"">+</div>","null","fixation","","","","","","","","","","","17","","",""
"revaluation","237","1056464","0.0-4.0-4.0-0.9","spark_pilot_2","7316","2","12","Male","","false","","","","","[1188.699999988079]","./assets/img/ocean/animals/octopus.jpg","[""ArrowLeft""]","revaluation","ocean","21","{""ArrowUp,ArrowLeft"":27,""ArrowUp,ArrowRight"":15,""ArrowDown,ArrowLeft"":21,""ArrowDown,ArrowRight"":7}","true","ArrowDown,ArrowLeft","","","","revaluation","1","18","","",""
"html-keyboard-response","238","1056968","0.0-4.0-4.0-1.9","spark_pilot_2","7316","2","12","Male","","","","","","","null","<div style=""font-size:60px;"">+</div>","null","fixation","","","","","","","","","","","19","","",""
"revaluation","239","1060981","0.0-4.0-4.0-0.10","spark_pilot_2","7316","2","12","Male","","false","","","","","[821.6000000238419]","./assets/img/ocean/animals/octopus.jpg","[""ArrowRight""]","revaluation","ocean","7","{""ArrowUp,ArrowLeft"":27,""ArrowUp,ArrowRight"":15,""ArrowDown,ArrowLeft"":21,""ArrowDown,ArrowRight"":7}","false","ArrowDown,ArrowRight","","","","revaluation","1","20","","",""
"html-keyboard-response","240","1061486","0.0-4.0-4.0-1.10","spark_pilot_2","7316","2","12","Male","","","","","","","null","<div style=""font-size:60px;"">+</div>","null","fixation","","","","","","","","","","","21","","",""
"revaluation","241","1065502","0.0-4.0-4.0-0.11","spark_pilot_2","7316","2","12","Male","","false","","","","","[858.3999999761581]","./assets/img/ocean/animals/seahorse.jpg","[""ArrowLeft""]","revaluation","ocean","27","{""ArrowUp,ArrowLeft"":27,""ArrowUp,ArrowRight"":15,""ArrowDown,ArrowLeft"":21,""ArrowDown,ArrowRight"":7}","true","ArrowUp,ArrowLeft","","","","revaluation","1","22","","",""
"html-keyboard-response","242","1066004","0.0-4.0-4.0-1.11","spark_pilot_2","7316","2","12","Male","","","","","","","null","<div style=""font-size:60px;"">+</div>","null","fixation","","","","","","","","","","","23","","",""
"revaluation","243","1070020","0.0-4.0-4.0-0.12","spark_pilot_2","7316","2","12","Male","","false","","","","","[391.0999999642372]","./assets/img/ocean/animals/seahorse.jpg","[""ArrowRight""]","revaluation","ocean","15","{""ArrowUp,ArrowLeft"":27,""ArrowUp,ArrowRight"":15,""ArrowDown,ArrowLeft"":21,""ArrowDown,ArrowRight"":7}","false","ArrowUp,ArrowRight","","","","revaluation","1","24","","",""
"html-keyboard-response","244","1070526","0.0-4.0-4.0-1.12","spark_pilot_2","7316","2","12","Male","","","","","","","null","<div style=""font-size:60px;"">+</div>","null","fixation","","","","","","","","","","","25","","",""
"revaluation","245","1074538","0.0-4.0-4.0-0.13","spark_pilot_2","7316","2","12","Male","","false","","","","","[629.1000000238419]","./assets/img/ocean/animals/seahorse.jpg","[""ArrowRight""]","revaluation","ocean","15","{""ArrowUp,ArrowLeft"":27,""ArrowUp,ArrowRight"":15,""ArrowDown,ArrowLeft"":21,""ArrowDown,ArrowRight"":7}","false","ArrowUp,ArrowRight","","","","revaluation","1","26","","",""
"html-keyboard-response","246","1075048","0.0-4.0-4.0-1.13","spark_pilot_2","7316","2","12","Male","","","","","","","null","<div style=""font-size:60px;"">+</div>","null","fixation","","","","","","","","","","","27","","",""
"revaluation","247","1079065","0.0-4.0-4.0-0.14","spark_pilot_2","7316","2","12","Male","","false","","","","","[739.0999999642372]","./assets/img/ocean/animals/seahorse.jpg","[""ArrowLeft""]","revaluation","ocean","27","{""ArrowUp,ArrowLeft"":27,""ArrowUp,ArrowRight"":15,""ArrowDown,ArrowLeft"":21,""ArrowDown,ArrowRight"":7}","true","ArrowUp,ArrowLeft","","","","revaluation","1","28","","",""
"html-keyboard-response","248","1079571","0.0-4.0-4.0-1.14","spark_pilot_2","7316","2","12","Male","","","","","","","null","<div style=""font-size:60px;"">+</div>","null","fixation","","","","","","","","","","","29","","",""
"revaluation","249","1083588","0.0-4.0-4.0-0.15","spark_pilot_2","7316","2","12","Male","","false","","","","","[664.1999999880791]","./assets/img/ocean/animals/octopus.jpg","[""ArrowRight""]","revaluation","ocean","7","{""ArrowUp,ArrowLeft"":27,""ArrowUp,ArrowRight"":15,""ArrowDown,ArrowLeft"":21,""ArrowDown,ArrowRight"":7}","false","ArrowDown,ArrowRight","","","","revaluation","1","30","","",""
"html-keyboard-response","250","1084093","0.0-4.0-4.0-1.15","spark_pilot_2","7316","2","12","Male","","","","","","","null","<div style=""font-size:60px;"">+</div>","null","fixation","","","","","","","","","","","31","","",""
"revaluation","251","1088106","0.0-4.0-4.0-0.16","spark_pilot_2","7316","2","12","Male","","false","","","","","[624.6999999880791]","./assets/img/ocean/animals/seahorse.jpg","[""ArrowRight""]","revaluation","ocean","15","{""ArrowUp,ArrowLeft"":27,""ArrowUp,ArrowRight"":15,""ArrowDown,ArrowLeft"":21,""ArrowDown,ArrowRight"":7}","false","ArrowUp,ArrowRight","","","","revaluation","1","32","","",""
"html-keyboard-response","252","1088616","0.0-4.0-4.0-1.16","spark_pilot_2","7316","2","12","Male","","","","","","","null","<div style=""font-size:60px;"">+</div>","null","fixation","","","","","","","","","","","33","","",""
"revaluation","253","1092632","0.0-4.0-4.0-0.17","spark_pilot_2","7316","2","12","Male","","false","","","","","[608]","./assets/img/ocean/animals/octopus.jpg","[""ArrowRight""]","revaluation","ocean","7","{""ArrowUp,ArrowLeft"":27,""ArrowUp,ArrowRight"":15,""ArrowDown,ArrowLeft"":21,""ArrowDown,ArrowRight"":7}","false","ArrowDown,ArrowRight","","","","revaluation","1","34","","",""
"html-keyboard-response","254","1093144","0.0-4.0-4.0-1.17","spark_pilot_2","7316","2","12","Male","","","","","","","null","<div style=""font-size:60px;"">+</div>","null","fixation","","","","","","","","","","","35","","",""
"learning-instructions","255","1106495","0.0-4.0-5.0-0.0","spark_pilot_2","7316","2","12","Male","","","","","","","1910.0999999642372","<p> Time to play the dot game! </p>
            <p> For one minute, click the red dots on the following screen as they appear. </p>
            <p><b> Don't look away, as you will earn bonus for clicking dots</b>. </p>","","instructions","","","","","","","","","","","","","",""
"revaluation","256","1166527","0.0-4.0-6.0-0.0","spark_pilot_2","7316","2","12","Male","","","","","","","[133,97,86,76,79,68,73]","","","rest","","70","","","","","0","60000","","","","","",""
"learning-instructions","257","1175613","0.0-4.0-7.0-0.0","spark_pilot_2","7316","2","12","Male","","","","","","","2949.300000011921","<p> You have almost finished this part of the game! </p>
            <p> We are going to ask you to make a few more choices. </p>","","instructions","","","","","","","","","","","","","",""
"learning-instructions","258","1191197","0.0-4.0-7.0-0.1","spark_pilot_2","7316","2","12","Male","","","","","","","1612.2999999523163","<p> First, you need to decide whether to go up or down. When you see each picture, use the arrow keys to make your choice. </p>
            <p><b>You will not see which animal you found, but try to get to the one that will give you the most treasure.</b></p>","","instructions","","","","","","","","","","","","","",""
"revaluation","259","1192257","0.0-4.0-8.0-0.0","spark_pilot_2","7316","2","12","Male","","false","","","","","[1024.6000000238419]","./assets/img/ocean/test/1.jpg","[""ArrowDown""]","first stage test","ocean","0","{""ArrowUp,ArrowLeft"":27,""ArrowUp,ArrowRight"":15,""ArrowDown,ArrowLeft"":21,""ArrowDown,ArrowRight"":7}","false","ArrowDown","false","","","revaluation","1","","","",""
"html-keyboard-response","260","1192821","0.0-4.0-8.0-1.0","spark_pilot_2","7316","2","12","Male","","","","","","","null","<div style=""font-size:60px;"">+</div>","null","fixation","","","","","","","","","","","","","",""
"revaluation","261","1195666","0.0-4.0-8.0-0.1","spark_pilot_2","7316","2","12","Male","","false","","","","","[2831]","./assets/img/ocean/test/3.jpg","[""ArrowUp""]","first stage test","ocean","0","{""ArrowUp,ArrowLeft"":27,""ArrowUp,ArrowRight"":15,""ArrowDown,ArrowLeft"":21,""ArrowDown,ArrowRight"":7}","true","ArrowUp","false","","","revaluation","1","","","",""
"html-keyboard-response","262","1196174","0.0-4.0-8.0-1.1","spark_pilot_2","7316","2","12","Male","","","","","","","null","<div style=""font-size:60px;"">+</div>","null","fixation","","","","","","","","","","","","","",""
"revaluation","263","1196816","0.0-4.0-8.0-0.2","spark_pilot_2","7316","2","12","Male","","false","","","","","[638.8000000119209]","./assets/img/ocean/test/0.jpg","[""ArrowDown""]","first stage test","ocean","0","{""ArrowUp,ArrowLeft"":27,""ArrowUp,ArrowRight"":15,""ArrowDown,ArrowLeft"":21,""ArrowDown,ArrowRight"":7}","false","ArrowDown","false","","","revaluation","1","","","",""
"html-keyboard-response","264","1197317","0.0-4.0-8.0-1.2","spark_pilot_2","7316","2","12","Male","","","","","","","null","<div style=""font-size:60px;"">+</div>","null","fixation","","","","","","","","","","","","","",""
"revaluation","265","1198231","0.0-4.0-8.0-0.3","spark_pilot_2","7316","2","12","Male","","false","","","","","[911.3999999761581]","./assets/img/ocean/test/2.jpg","[""ArrowUp""]","first stage test","ocean","0","{""ArrowUp,ArrowLeft"":27,""ArrowUp,ArrowRight"":15,""ArrowDown,ArrowLeft"":21,""ArrowDown,ArrowRight"":7}","true","ArrowUp","false","","","revaluation","1","","","",""
"html-keyboard-response","266","1198735","0.0-4.0-8.0-1.3","spark_pilot_2","7316","2","12","Male","","","","","","","null","<div style=""font-size:60px;"">+</div>","null","fixation","","","","","","","","","","","","","",""
"learning-instructions","267","1213421","0.0-4.0-9.0-0.0","spark_pilot_2","7316","2","12","Male","","","","","","","3280.199999988079","<p> Now you will see the animals again and can search their chests for treasure. </p>
            <p> This time, you will not see how much treasure you earned, but you will earn more bonus money for making better choices. </p>","","instructions","","","","","","","","","","","","","",""
"revaluation","268","1214528","0.0-4.0-10.0-0.0","spark_pilot_2","7316","2","12","Male","","false","","","","","[1098.0999999642372]","./assets/img/ocean/animals/seahorse.jpg","[""ArrowRight""]","second stage test","ocean","0","{""ArrowUp,ArrowLeft"":27,""ArrowUp,ArrowRight"":15,""ArrowDown,ArrowLeft"":21,""ArrowDown,ArrowRight"":7}","false","ArrowUp,ArrowRight","","","","revaluation","1","","","",""
"html-keyboard-response","269","1215036","0.0-4.0-10.0-1.0","spark_pilot_2","7316","2","12","Male","","","","","","","null","<div style=""font-size:60px;"">+</div>","null","fixation","","","","","","","","","","","","","",""
"revaluation","270","1215825","0.0-4.0-10.0-0.1","spark_pilot_2","7316","2","12","Male","","false","","","","","[785.3000000119209]","./assets/img/ocean/animals/seahorse.jpg","[""ArrowLeft""]","second stage test","ocean","0","{""ArrowUp,ArrowLeft"":27,""ArrowUp,ArrowRight"":15,""ArrowDown,ArrowLeft"":21,""ArrowDown,ArrowRight"":7}","true","ArrowUp,ArrowLeft","","","","revaluation","1","","","",""
"html-keyboard-response","271","1216333","0.0-4.0-10.0-1.1","spark_pilot_2","7316","2","12","Male","","","","","","","null","<div style=""font-size:60px;"">+</div>","null","fixation","","","","","","","","","","","","","",""
"revaluation","272","1216771","0.0-4.0-10.0-0.2","spark_pilot_2","7316","2","12","Male","","false","","","","","[434.39999997615814]","./assets/img/ocean/animals/seahorse.jpg","[""ArrowRight""]","second stage test","ocean","0","{""ArrowUp,ArrowLeft"":27,""ArrowUp,ArrowRight"":15,""ArrowDown,ArrowLeft"":21,""ArrowDown,ArrowRight"":7}","false","ArrowUp,ArrowRight","","","","revaluation","1","","","",""
"html-keyboard-response","273","1217279","0.0-4.0-10.0-1.2","spark_pilot_2","7316","2","12","Male","","","","","","","null","<div style=""font-size:60px;"">+</div>","null","fixation","","","","","","","","","","","","","",""
"revaluation","274","1217718","0.0-4.0-10.0-0.3","spark_pilot_2","7316","2","12","Male","","false","","","","","[435.4000000357628]","./assets/img/ocean/animals/seahorse.jpg","[""ArrowRight""]","second stage test","ocean","0","{""ArrowUp,ArrowLeft"":27,""ArrowUp,ArrowRight"":15,""ArrowDown,ArrowLeft"":21,""ArrowDown,ArrowRight"":7}","false","ArrowUp,ArrowRight","","","","revaluation","1","","","",""
"html-keyboard-response","275","1218219","0.0-4.0-10.0-1.3","spark_pilot_2","7316","2","12","Male","","","","","","","null","<div style=""font-size:60px;"">+</div>","null","fixation","","","","","","","","","","","","","",""
"revaluation","276","1218713","0.0-4.0-10.0-0.4","spark_pilot_2","7316","2","12","Male","","false","","","","","[491.19999998807907]","./assets/img/ocean/animals/octopus.jpg","[""ArrowRight""]","second stage test","ocean","0","{""ArrowUp,ArrowLeft"":27,""ArrowUp,ArrowRight"":15,""ArrowDown,ArrowLeft"":21,""ArrowDown,ArrowRight"":7}","false","ArrowDown,ArrowRight","","","","revaluation","1","","","",""
"html-keyboard-response","277","1219220","0.0-4.0-10.0-1.4","spark_pilot_2","7316","2","12","Male","","","","","","","null","<div style=""font-size:60px;"">+</div>","null","fixation","","","","","","","","","","","","","",""
"revaluation","278","1219691","0.0-4.0-10.0-0.5","spark_pilot_2","7316","2","12","Male","","false","","","","","[468]","./assets/img/ocean/animals/octopus.jpg","[""ArrowLeft""]","second stage test","ocean","0","{""ArrowUp,ArrowLeft"":27,""ArrowUp,ArrowRight"":15,""ArrowDown,ArrowLeft"":21,""ArrowDown,ArrowRight"":7}","true","ArrowDown,ArrowLeft","","","","revaluation","1","","","",""
"html-keyboard-response","279","1220196","0.0-4.0-10.0-1.5","spark_pilot_2","7316","2","12","Male","","","","","","","null","<div style=""font-size:60px;"">+</div>","null","fixation","","","","","","","","","","","","","",""
"revaluation","280","1220632","0.0-4.0-10.0-0.6","spark_pilot_2","7316","2","12","Male","","false","","","","","[431.5]","./assets/img/ocean/animals/octopus.jpg","[""ArrowRight""]","second stage test","ocean","0","{""ArrowUp,ArrowLeft"":27,""ArrowUp,ArrowRight"":15,""ArrowDown,ArrowLeft"":21,""ArrowDown,ArrowRight"":7}","false","ArrowDown,ArrowRight","","","","revaluation","1","","","",""
"html-keyboard-response","281","1221136","0.0-4.0-10.0-1.6","spark_pilot_2","7316","2","12","Male","","","","","","","null","<div style=""font-size:60px;"">+</div>","null","fixation","","","","","","","","","","","","","",""
"revaluation","282","1221573","0.0-4.0-10.0-0.7","spark_pilot_2","7316","2","12","Male","","false","","","","","[433.60000002384186]","./assets/img/ocean/animals/octopus.jpg","[""ArrowLeft""]","second stage test","ocean","0","{""ArrowUp,ArrowLeft"":27,""ArrowUp,ArrowRight"":15,""ArrowDown,ArrowLeft"":21,""ArrowDown,ArrowRight"":7}","true","ArrowDown,ArrowLeft","","","","revaluation","1","","","",""
"html-keyboard-response","283","1222077","0.0-4.0-10.0-1.7","spark_pilot_2","7316","2","12","Male","","","","","","","null","<div style=""font-size:60px;"">+</div>","null","fixation","","","","","","","","","","","","","",""
"learning-instructions","284","1226678","0.0-4.0-0.1-0.2","spark_pilot_2","7316","2","12","Male","","","","","","","1803","<p> This time you are searching for treasure in the <b>canyon</b>.</p>","","instructions","","","","","","","","","","","","","",""
"learning-instructions","285","1245370","0.0-4.0-0.1-0.3","spark_pilot_2","7316","2","12","Male","","","","","","","1439.699999988079","<p><b>New</b> animals with <b>new</b> treasure chests live here. You need to explore to discover where the animal with the best treasure chest is.</p>
                    <p> Like before, once you figure out which animal has the chest with the most treasure, you should try to get to that animal and select that chest! </p>","","instructions","","","","","","","","","","","","","",""
"learning-instructions","286","1263561","0.0-4.0-1.1-0.1","spark_pilot_2","7316","2","12","Male","","","","","","","3460","<p> Remember, when you see a picture of the place, use the up and down keys to <b>find an animal</b>.</p>
            <p> When you encounter an animal, you should use the left and right keys to <b>select a treasure chest</b>.</p>
            <p> Don't forget to look out for the robber! </p>","","instructions","","","","","","","","","","","","","",""
"revaluation","287","1267568","0.0-4.0-2.1-0.50","spark_pilot_2","7316","2","12","Male","","false","","","","","[1316.5999999642372]","./assets/img/canyon/catch/3.jpg","[""spaceBar""]","value training","canyon","0","{""ArrowUp,ArrowLeft"":26,""ArrowUp,ArrowRight"":10,""ArrowDown,ArrowLeft"":5,""ArrowDown,ArrowRight"":17}","true","spaceBar","true","","","original","2","0","","",""
"html-keyboard-response","288","1268077","0.0-4.0-2.1-1.50","spark_pilot_2","7316","2","12","Male","","","","","","","null","<div style=""font-size:60px;"">+</div>","null","fixation","","","","","","","","","","","1","","",""
"revaluation","289","1272085","0.0-4.0-2.1-0.51","spark_pilot_2","7316","2","12","Male","","false","","","","","[1508]","./assets/img/canyon/catch/1.jpg","[""spaceBar""]","value training","canyon","0","{""ArrowUp,ArrowLeft"":26,""ArrowUp,ArrowRight"":10,""ArrowDown,ArrowLeft"":5,""ArrowDown,ArrowRight"":17}","true","spaceBar","true","","","original","2","2","","",""
"html-keyboard-response","290","1272589","0.0-4.0-2.1-1.51","spark_pilot_2","7316","2","12","Male","","","","","","","null","<div style=""font-size:60px;"">+</div>","null","fixation","","","","","","","","","","","3","","",""
"revaluation","291","1276603","0.0-4.0-2.1-0.52","spark_pilot_2","7316","2","12","Male","","true","","","","","[]","./assets/img/canyon/memory/24.jpg","[]","value training","canyon","-5","{""ArrowUp,ArrowLeft"":26,""ArrowUp,ArrowRight"":10,""ArrowDown,ArrowLeft"":5,""ArrowDown,ArrowRight"":17}","false","","false","","","original","2","4","","",""
"html-keyboard-response","292","1277107","0.0-4.0-2.1-1.52","spark_pilot_2","7316","2","12","Male","","","","","","","null","<div style=""font-size:60px;"">+</div>","null","fixation","","","","","","","","","","","5","","",""
"revaluation","293","1281126","0.0-4.0-2.1-0.53","spark_pilot_2","7316","2","12","Male","","true","","","","","[]","./assets/img/canyon/memory/4.jpg","[]","value training","canyon","-5","{""ArrowUp,ArrowLeft"":26,""ArrowUp,ArrowRight"":10,""ArrowDown,ArrowLeft"":5,""ArrowDown,ArrowRight"":17}","false","","false","","","original","2","6","","",""
"html-keyboard-response","294","1281636","0.0-4.0-2.1-1.53","spark_pilot_2","7316","2","12","Male","","","","","","","null","<div style=""font-size:60px;"">+</div>","null","fixation","","","","","","","","","","","7","","",""
"revaluation","295","1287651","0.0-4.0-2.1-0.54","spark_pilot_2","7316","2","12","Male","","false","","","","","[803.3000000119209,1173.5]","./assets/img/canyon/memory/21.jpg","[""ArrowDown"",""ArrowRight""]","value training","canyon","17","{""ArrowUp,ArrowLeft"":26,""ArrowUp,ArrowRight"":10,""ArrowDown,ArrowLeft"":5,""ArrowDown,ArrowRight"":17}","false","ArrowDown,ArrowRight","false","","","original","2","8","","",""
"html-keyboard-response","296","1288155","0.0-4.0-2.1-1.54","spark_pilot_2","7316","2","12","Male","","","","","","","null","<div style=""font-size:60px;"">+</div>","null","fixation","","","","","","","","","","","9","","",""
"revaluation","297","1294173","0.0-4.0-2.1-0.55","spark_pilot_2","7316","2","12","Male","","false","","","","","[1134.7000000476837,1327.300000011921]","./assets/img/canyon/memory/39.jpg","[""ArrowDown"",""ArrowRight""]","value training","canyon","17","{""ArrowUp,ArrowLeft"":26,""ArrowUp,ArrowRight"":10,""ArrowDown,ArrowLeft"":5,""ArrowDown,ArrowRight"":17}","false","ArrowDown,ArrowRight","false","","","original","2","10","","",""
"html-keyboard-response","298","1294675","0.0-4.0-2.1-1.55","spark_pilot_2","7316","2","12","Male","","","","","","","null","<div style=""font-size:60px;"">+</div>","null","fixation","","","","","","","","","","","11","","",""
"revaluation","299","1300686","0.0-4.0-2.1-0.56","spark_pilot_2","7316","2","12","Male","","false","","","","","[782.7999999523163,1324.8999999761581]","./assets/img/canyon/memory/1.jpg","[""ArrowUp"",""ArrowRight""]","value training","canyon","10","{""ArrowUp,ArrowLeft"":26,""ArrowUp,ArrowRight"":10,""ArrowDown,ArrowLeft"":5,""ArrowDown,ArrowRight"":17}","false","ArrowUp,ArrowRight","false","","","original","2","12","","",""
"html-keyboard-response","300","1301197","0.0-4.0-2.1-1.56","spark_pilot_2","7316","2","12","Male","","","","","","","null","<div style=""font-size:60px;"">+</div>","null","fixation","","","","","","","","","","","13","","",""
"revaluation","301","1305203","0.0-4.0-2.1-0.57","spark_pilot_2","7316","2","12","Male","","true","","","","","[]","./assets/img/canyon/catch/2.jpg","[]","value training","canyon","-5","{""ArrowUp,ArrowLeft"":26,""ArrowUp,ArrowRight"":10,""ArrowDown,ArrowLeft"":5,""ArrowDown,ArrowRight"":17}","false","","true","","","original","2","14","","",""
"html-keyboard-response","302","1305709","0.0-4.0-2.1-1.57","spark_pilot_2","7316","2","12","Male","","","","","","","null","<div style=""font-size:60px;"">+</div>","null","fixation","","","","","","","","","","","15","","",""
"revaluation","303","1309726","0.0-4.0-2.1-0.58","spark_pilot_2","7316","2","12","Male","","false","","","","","[826.4000000357628]","./assets/img/canyon/catch/5.jpg","[""spaceBar""]","value training","canyon","0","{""ArrowUp,ArrowLeft"":26,""ArrowUp,ArrowRight"":10,""ArrowDown,ArrowLeft"":5,""ArrowDown,ArrowRight"":17}","true","spaceBar","true","","","original","2","16","","",""
"html-keyboard-response","304","1310237","0.0-4.0-2.1-1.58","spark_pilot_2","7316","2","12","Male","","","","","","","null","<div style=""font-size:60px;"">+</div>","null","fixation","","","","","","","","","","","17","","",""
"revaluation","305","1316254","0.0-4.0-2.1-0.59","spark_pilot_2","7316","2","12","Male","","false","","","","","[593.1000000238419,637.6000000238419]","./assets/img/canyon/memory/38.jpg","[""ArrowUp"",""ArrowRight""]","value training","canyon","10","{""ArrowUp,ArrowLeft"":26,""ArrowUp,ArrowRight"":10,""ArrowDown,ArrowLeft"":5,""ArrowDown,ArrowRight"":17}","false","ArrowUp,ArrowRight","false","","","original","2","18","","",""
"html-keyboard-response","306","1316765","0.0-4.0-2.1-1.59","spark_pilot_2","7316","2","12","Male","","","","","","","null","<div style=""font-size:60px;"">+</div>","null","fixation","","","","","","","","","","","19","","",""
"revaluation","307","1320781","0.0-4.0-2.1-0.60","spark_pilot_2","7316","2","12","Male","","false","","","","","[1085.7000000476837]","./assets/img/canyon/catch/0.jpg","[""spaceBar""]","value training","canyon","0","{""ArrowUp,ArrowLeft"":26,""ArrowUp,ArrowRight"":10,""ArrowDown,ArrowLeft"":5,""ArrowDown,ArrowRight"":17}","true","spaceBar","true","","","original","2","20","","",""
"html-keyboard-response","308","1321293","0.0-4.0-2.1-1.60","spark_pilot_2","7316","2","12","Male","","","","","","","null","<div style=""font-size:60px;"">+</div>","null","fixation","","","","","","","","","","","21","","",""
