"trial_type","trial_index","time_elapsed","internal_node_id","task_version","subject_id","assigned_condition","age","gender","browser_interaction","success","timeout","failed_images","failed_audio","failed_video","rt","stimulus","response","task_part","environment","score","rewardMap","correct","fullState","isCatch","numberMissed","duration","condition","order","trial_num","key_press","ground_truth","bonus"
"pavlovia","0","1043","0.0-0.0","spark_pilot_2","7485","3","21","Male","[{""event"":""blur"",""trial"":1,""time"":7035},{""event"":""focus"",""trial"":1,""time"":9995},{""event"":""fullscreenenter"",""trial"":2,""time"":15535}]","","","","","","","","","","","","","","","","","","","","","","",""
"preload","1","13035","0.0-1.0","spark_pilot_2","7485","3","21","Male","[{""event"":""blur"",""trial"":1,""time"":7035},{""event"":""focus"",""trial"":1,""time"":9995},{""event"":""fullscreenenter"",""trial"":2,""time"":15535}]","true","false","[]","[]","[]","","","","","","","","","","","","","","","","","",""
"fullscreen","2","16506","0.0-2.0","spark_pilot_2","7485","3","21","Male","","true","","","","","","","","","","","","","","","","","","","","","",""
"audio-button-response","3","17860","0.0-3.0-0.0-0.0","spark_pilot_2","7485","3","21","Male","","","","","","","1309","./assets/audio/audiotest/turtle.mp3","2","audio_test","","","","","","","","","","","","","",""
"learning-instructions","4","26836","0.0-3.0-1.0-0.0","spark_pilot_2","7485","3","21","Male","","","","","","","1992.1000000238419","<p> Welcome! Please remember to stay in fullscreen mode and don't click away from the experiment. </p>","","instructions","","","","","","","","","","","","","",""
"learning-instructions","5","36267","0.0-3.0-1.0-0.1","spark_pilot_2","7485","3","21","Male","","","","","","","1022.3999999761581","<p> Today you will be playing a game to earn treasure. </p>
            <p> At the end of the experiment, you will earn a bonus based on how much treasure you find. </p>
            <img src='./assets/img/instructions/treasure.jpg' class='instructions-image'>","","instructions","","","","","","","","","","","","","",""
"learning-instructions","6","45218","0.0-3.0-1.0-0.2","spark_pilot_2","7485","3","21","Male","","","","","","","694.2000000476837","<p> Animals have hidden treasure in treasure chests. </p>
            <p> You need to first find an animal and then choose which of their treasure chests to search. </p>
            <img src='./assets/img/space/animals/cat.jpg' class='instructions-image'>","","instructions","","","","","","","","","","","","","",""
"learning-instructions","7","60246","0.0-3.0-1.0-0.3","spark_pilot_2","7485","3","21","Male","","","","","","","1862.7000000476837","<p> In each round, you will search for treasure in a different place. In the real game, there will be two rounds. </p>
            <p> You will begin with a separate, practice round where you will search for treasure in outer space. </p>
            <img src='./assets/img/space/0.jpg' class='instructions-image'>","","instructions","","","","","","","","","","","","","",""
"learning-instructions","8","72592","0.0-3.0-1.0-0.4","spark_pilot_2","7485","3","21","Male","","","","","","","918.3999999761581","<p> On every turn, you will see a picture of the place that you are in, but the specific image may be different each time. </p>
            <p> For example, both of these images mean you are in outer space. </p>
            <img src='./assets/img/instructions/outerspace.jpg' class='instructions-image'>","","instructions","","","","","","","","","","","","","",""
"learning-instructions","9","81506","0.0-3.0-1.0-0.5","spark_pilot_2","7485","3","21","Male","","","","","","","1081.7999999523163","<p> You need to decide which direction to travel in. </p>
            <p> You can choose between going <b>up or down</b> by using the arrow keys. </p>
            <img src='./assets/img/instructions/updown.jpg' class='instructions-image'>","","instructions","","","","","","","","","","","","","",""
"learning-instructions","10","92124","0.0-3.0-1.0-0.6","spark_pilot_2","7485","3","21","Male","","","","","","","1811.1999999284744","<p> You will have <b>2 seconds</b> to make your choice. </p>
            <p> If you do not make a choice within 2 seconds, you will not find an animal or earn treasure. </p>
            <img src='./assets/img/instructions/2seconds.jpg' class='instructions-image'>","","instructions","","","","","","","","","","","","","",""
"learning-instructions","11","99971","0.0-3.0-1.0-0.7","spark_pilot_2","7485","3","21","Male","","","","","","","808.5","<p> Let’s try practicing that now! </p>
            <p> When you see a picture of the place you are in, press the <b>up</b> key to travel up. </p>
            <img src='./assets/img/instructions/pressUp.jpg' class='instructions-image'>","","instructions","","","","","","","","","","","","","",""
"revaluation","12","103994","0.0-3.0-2.0-0.0","spark_pilot_2","7485","3","21","Male","","","false","","","","[970.4000000953674]","./assets/img/space/0.jpg","[""ArrowUp""]","first stage practice","space","0","null","null","ArrowUp","false","","","","","","","",""
"html-keyboard-response","13","104506","0.0-3.0-2.0-1.0","spark_pilot_2","7485","3","21","Male","","","","","","","null","<div style=""font-size:60px;"">+</div>","null","fixation","","","","","","","","","","","","","",""
"revaluation","14","108513","0.0-3.0-2.0-0.1","spark_pilot_2","7485","3","21","Male","","","false","","","","[525.1000000238419]","./assets/img/space/1.jpg","[""ArrowUp""]","first stage practice","space","0","null","null","ArrowUp","false","","","","","","","",""
"html-keyboard-response","15","109024","0.0-3.0-2.0-1.1","spark_pilot_2","7485","3","21","Male","","","","","","","null","<div style=""font-size:60px;"">+</div>","null","fixation","","","","","","","","","","","","","",""
"revaluation","16","113037","0.0-3.0-2.0-0.2","spark_pilot_2","7485","3","21","Male","","","false","","","","[423.8000000715256]","./assets/img/space/2.jpg","[""ArrowUp""]","first stage practice","space","0","null","null","ArrowUp","false","","","","","","","",""
"html-keyboard-response","17","113547","0.0-3.0-2.0-1.2","spark_pilot_2","7485","3","21","Male","","","","","","","null","<div style=""font-size:60px;"">+</div>","null","fixation","","","","","","","","","","","","","",""
"learning-instructions","18","119705","0.0-3.0-3.0-0.0","spark_pilot_2","7485","3","21","Male","","","","","","","1463.3000000715256","<p> Great job! Now try pressing the <b>down</b> key to travel down. </p>
            <img src='./assets/img/instructions/pressDown.jpg' class='instructions-image'>","","instructions","","","","","","","","","","","","","",""
"revaluation","19","123720","0.0-3.0-4.0-0.0","spark_pilot_2","7485","3","21","Male","","","false","","","","[940.3999999761581]","./assets/img/space/3.jpg","[""ArrowDown""]","first stage practice","space","0","null","null","ArrowDown","false","","","","","","","",""
"html-keyboard-response","20","124233","0.0-3.0-4.0-1.0","spark_pilot_2","7485","3","21","Male","","","","","","","null","<div style=""font-size:60px;"">+</div>","null","fixation","","","","","","","","","","","","","",""
"revaluation","21","128246","0.0-3.0-4.0-0.1","spark_pilot_2","7485","3","21","Male","","","false","","","","[259.5]","./assets/img/space/4.jpg","[""ArrowDown""]","first stage practice","space","0","null","null","ArrowDown","false","","","","","","","",""
"html-keyboard-response","22","128761","0.0-3.0-4.0-1.1","spark_pilot_2","7485","3","21","Male","","","","","","","null","<div style=""font-size:60px;"">+</div>","null","fixation","","","","","","","","","","","","","",""
"revaluation","23","132787","0.0-3.0-4.0-0.2","spark_pilot_2","7485","3","21","Male","","","false","","","","[18]","./assets/img/space/5.jpg","[""ArrowDown""]","first stage practice","space","0","null","null","ArrowDown","false","","","","","","","",""
"html-keyboard-response","24","133300","0.0-3.0-4.0-1.2","spark_pilot_2","7485","3","21","Male","","","","","","","null","<div style=""font-size:60px;"">+</div>","null","fixation","","","","","","","","","","","","","",""
"learning-instructions","25","144924","0.0-3.0-5.0-0.0","spark_pilot_2","7485","3","21","Male","","","","","","","1772.2999999523163","<p> The animals don’t move, so the animal in the upper part of a place will stay in the upper part of a place, and the animal in the lower part of a place will stay in the lower part of a place. </p>","","instructions","","","","","","","","","","","","","",""
"learning-instructions","26","154676","0.0-3.0-5.0-0.1","spark_pilot_2","7485","3","21","Male","","","","","","","614.0999999046326","<p> Each animal has two treasure chests for you to choose from. </p>
            <p> The amount of treasure in each chest can range from <b> 0 to 40 pieces.</b></p>","","instructions","","","","","","","","","","","","","",""
"learning-instructions","27","166735","0.0-3.0-5.0-0.2","spark_pilot_2","7485","3","21","Male","","","","","","","863","<p> You should decide which chest to search for treasure by using the <b>left</b> and <b>right</b> arrow keys. </p>
            <p><b> Pay attention to which animal is on the screen, as the animals have different treasure chests. </b></p>
            <img src='./assets/img/instructions/leftright.jpg' class='instructions-image'>","","instructions","","","","","","","","","","","","","",""
"learning-instructions","28","174630","0.0-3.0-5.0-0.3","spark_pilot_2","7485","3","21","Male","","","","","","","1517.8999999761581","<p> Let’s try practicing that now. </p>
            <p> When you see an animal, choose which chest to search for treasure. </p>
            <img src='./assets/img/instructions/chooseChest.jpg' class='instructions-image'>","","instructions","","","","","","","","","","","","","",""
"revaluation","29","178640","0.0-3.0-6.0-0.0","spark_pilot_2","7485","3","21","Male","","","false","","","","[714.7000000476837]","./assets/img/space/animals/rabbit.jpg","[""ArrowLeft""]","second stage practice","space","15","{""ArrowUp,ArrowLeft"":3,""ArrowUp,ArrowRight"":36,""ArrowDown,ArrowLeft"":15,""ArrowDown,ArrowRight"":23}","false","ArrowDown,ArrowLeft","","","","","","","","",""
"html-keyboard-response","30","179152","0.0-3.0-6.0-1.0","spark_pilot_2","7485","3","21","Male","","","","","","","null","<div style=""font-size:60px;"">+</div>","null","fixation","","","","","","","","","","","","","",""
"revaluation","31","183171","0.0-3.0-6.0-0.1","spark_pilot_2","7485","3","21","Male","","","false","","","","[478.5]","./assets/img/space/animals/rabbit.jpg","[""ArrowRight""]","second stage practice","space","23","{""ArrowUp,ArrowLeft"":3,""ArrowUp,ArrowRight"":36,""ArrowDown,ArrowLeft"":15,""ArrowDown,ArrowRight"":23}","true","ArrowDown,ArrowRight","","","","","","","","",""
"html-keyboard-response","32","183679","0.0-3.0-6.0-1.1","spark_pilot_2","7485","3","21","Male","","","","","","","null","<div style=""font-size:60px;"">+</div>","null","fixation","","","","","","","","","","","","","",""
"revaluation","33","187699","0.0-3.0-6.0-0.2","spark_pilot_2","7485","3","21","Male","","","false","","","","[288.8000000715256]","./assets/img/space/animals/cat.jpg","[""ArrowRight""]","second stage practice","space","36","{""ArrowUp,ArrowLeft"":3,""ArrowUp,ArrowRight"":36,""ArrowDown,ArrowLeft"":15,""ArrowDown,ArrowRight"":23}","true","ArrowUp,ArrowRight","","","","","","","","",""
"html-keyboard-response","34","188213","0.0-3.0-6.0-1.2","spark_pilot_2","7485","3","21","Male","","","","","","","null","<div style=""font-size:60px;"">+</div>","null","fixation","","","","","","","","","","","","","",""
"revaluation","35","192235","0.0-3.0-6.0-0.3","spark_pilot_2","7485","3","21","Male","","","false","","","","[362.7000000476837]","./assets/img/space/animals/cat.jpg","[""ArrowRight""]","second stage practice","space","36","{""ArrowUp,ArrowLeft"":3,""ArrowUp,ArrowRight"":36,""ArrowDown,ArrowLeft"":15,""ArrowDown,ArrowRight"":23}","true","ArrowUp,ArrowRight","","","","","","","","",""
"html-keyboard-response","36","192748","0.0-3.0-6.0-1.3","spark_pilot_2","7485","3","21","Male","","","","","","","null","<div style=""font-size:60px;"">+</div>","null","fixation","","","","","","","","","","","","","",""
"learning-instructions","37","210382","0.0-3.0-7.0-0.0","spark_pilot_2","7485","3","21","Male","","","","","","","800.6000000238419","<p> Great job. Now let’s try putting it together. </p>
            <p> On each turn, you will first see a picture to remind you of the place you are in, and you need to choose whether to go up or down. </p>
            <p> Then you will see an animal and choose which of its chests to search for treasure. </p>","","instructions","","","","","","","","","","","","","",""
"learning-instructions","38","219186","0.0-3.0-7.0-0.1","spark_pilot_2","7485","3","21","Male","","","","","","","544.7000000476837","<p> When you choose whether to go up or down, try to go to the animal with the chest with the most treasure. </p>
            <p> Try practicing that now! </p>","","instructions","","","","","","","","","","","","","",""
"revaluation","39","225203","0.0-3.0-8.0-0.0","spark_pilot_2","7485","3","21","Male","","","false","","","","[875.2000000476837,405.7999999523163]","./assets/img/space/6.jpg","[""ArrowUp"",""ArrowRight""]","full practice","space","36","{""ArrowUp,ArrowLeft"":3,""ArrowUp,ArrowRight"":36,""ArrowDown,ArrowLeft"":15,""ArrowDown,ArrowRight"":23}","true","ArrowUp,ArrowRight","false","","","","","","","",""
"html-keyboard-response","40","225704","0.0-3.0-8.0-1.0","spark_pilot_2","7485","3","21","Male","","","","","","","null","<div style=""font-size:60px;"">+</div>","null","fixation","","","","","","","","","","","","","",""
"revaluation","41","231722","0.0-3.0-8.0-0.1","spark_pilot_2","7485","3","21","Male","","","false","","","","[1068.5,405.2999999523163]","./assets/img/space/7.jpg","[""ArrowUp"",""ArrowRight""]","full practice","space","36","{""ArrowUp,ArrowLeft"":3,""ArrowUp,ArrowRight"":36,""ArrowDown,ArrowLeft"":15,""ArrowDown,ArrowRight"":23}","true","ArrowUp,ArrowRight","false","","","","","","","",""
"html-keyboard-response","42","232234","0.0-3.0-8.0-1.1","spark_pilot_2","7485","3","21","Male","","","","","","","null","<div style=""font-size:60px;"">+</div>","null","fixation","","","","","","","","","","","","","",""
"revaluation","43","238266","0.0-3.0-8.0-0.2","spark_pilot_2","7485","3","21","Male","","","false","","","","[508.2000000476837,506.7999999523163]","./assets/img/space/8.jpg","[""ArrowUp"",""ArrowRight""]","full practice","space","36","{""ArrowUp,ArrowLeft"":3,""ArrowUp,ArrowRight"":36,""ArrowDown,ArrowLeft"":15,""ArrowDown,ArrowRight"":23}","true","ArrowUp,ArrowRight","false","","","","","","","",""
"html-keyboard-response","44","238780","0.0-3.0-8.0-1.2","spark_pilot_2","7485","3","21","Male","","","","","","","null","<div style=""font-size:60px;"">+</div>","null","fixation","","","","","","","","","","","","","",""
"revaluation","45","244803","0.0-3.0-8.0-0.3","spark_pilot_2","7485","3","21","Male","","","false","","","","[315.7999999523163,260.3000000715256]","./assets/img/space/9.jpg","[""ArrowUp"",""ArrowRight""]","full practice","space","36","{""ArrowUp,ArrowLeft"":3,""ArrowUp,ArrowRight"":36,""ArrowDown,ArrowLeft"":15,""ArrowDown,ArrowRight"":23}","true","ArrowUp,ArrowRight","false","","","","","","","",""
"html-keyboard-response","46","245313","0.0-3.0-8.0-1.3","spark_pilot_2","7485","3","21","Male","","","","","","","null","<div style=""font-size:60px;"">+</div>","null","fixation","","","","","","","","","","","","","",""
"revaluation","47","251332","0.0-3.0-8.0-0.4","spark_pilot_2","7485","3","21","Male","","","false","","","","[504.10000002384186,448.3000000715256]","./assets/img/space/10.jpg","[""ArrowUp"",""ArrowRight""]","full practice","space","36","{""ArrowUp,ArrowLeft"":3,""ArrowUp,ArrowRight"":36,""ArrowDown,ArrowLeft"":15,""ArrowDown,ArrowRight"":23}","true","ArrowUp,ArrowRight","false","","","","","","","",""
"html-keyboard-response","48","251832","0.0-3.0-8.0-1.4","spark_pilot_2","7485","3","21","Male","","","","","","","null","<div style=""font-size:60px;"">+</div>","null","fixation","","","","","","","","","","","","","",""
"learning-instructions","49","263711","0.0-3.0-9.0-0.0","spark_pilot_2","7485","3","21","Male","","","","","","","1570.5","<p> One last thing: sometimes, you will see a robber. The robber can be anywhere in the picture. </p>
            <p> If you do not stop them, you will lose treasure. </p>
            <img src='./assets/img/instructions/robber.jpg' class='instructions-image'>","","instructions","","","","","","","","","","","","","",""
"learning-instructions","50","271692","0.0-3.0-9.0-0.1","spark_pilot_2","7485","3","21","Male","","","","","","","802.1999999284744","<p> If you see the robber, you should <b>press the space bar</b> rather than using the arrow keys. </p>
            <p> Try practicing that now! </p>","","instructions","","","","","","","","","","","","","",""
"revaluation","51","275714","0.0-3.0-10.0-0.0","spark_pilot_2","7485","3","21","Male","","","false","","","","[608.6000000238419]","./assets/img/space/catch/0.jpg","[""spaceBar""]","catch practice","space","0","{""ArrowUp,ArrowLeft"":3,""ArrowUp,ArrowRight"":36,""ArrowDown,ArrowLeft"":15,""ArrowDown,ArrowRight"":23}","true","spaceBar","true","","","","","","","",""
"html-keyboard-response","52","276226","0.0-3.0-10.0-1.0","spark_pilot_2","7485","3","21","Male","","","","","","","null","<div style=""font-size:60px;"">+</div>","null","fixation","","","","","","","","","","","","","",""
"revaluation","53","280236","0.0-3.0-10.0-0.1","spark_pilot_2","7485","3","21","Male","","","false","","","","[425.6999999284744]","./assets/img/space/catch/1.jpg","[""spaceBar""]","catch practice","space","0","{""ArrowUp,ArrowLeft"":3,""ArrowUp,ArrowRight"":36,""ArrowDown,ArrowLeft"":15,""ArrowDown,ArrowRight"":23}","true","spaceBar","true","","","","","","","",""
"html-keyboard-response","54","280748","0.0-3.0-10.0-1.1","spark_pilot_2","7485","3","21","Male","","","","","","","null","<div style=""font-size:60px;"">+</div>","null","fixation","","","","","","","","","","","","","",""
"revaluation","55","284758","0.0-3.0-10.0-0.2","spark_pilot_2","7485","3","21","Male","","","false","","","","[951.3999999761581]","./assets/img/space/catch/2.jpg","[""spaceBar""]","catch practice","space","0","{""ArrowUp,ArrowLeft"":3,""ArrowUp,ArrowRight"":36,""ArrowDown,ArrowLeft"":15,""ArrowDown,ArrowRight"":23}","true","spaceBar","true","","","","","","","",""
"html-keyboard-response","56","285270","0.0-3.0-10.0-1.2","spark_pilot_2","7485","3","21","Male","","","","","","","null","<div style=""font-size:60px;"">+</div>","null","fixation","","","","","","","","","","","","","",""
"learning-instructions","57","300062","0.0-3.0-11.0-0.0","spark_pilot_2","7485","3","21","Male","","","","","","","1191.8999999761581","<p> After you explore a place to find treasure, it will be time to play a different game. </p>
            <p> During this game, red dots will appear on the screen and fall down slowly. </p>
            <p><b> You must click on them before they reach the bottom. </b></p>
            <img src='./assets/img/instructions/dotGame.jpg' class='instructions-image'>","","instructions","","","","","","","","","","","","","",""
"learning-instructions","58","306280","0.0-3.0-11.0-0.1","spark_pilot_2","7485","3","21","Male","","","","","","","510.3000000715256","<p> For every dot you click, you will earn additional treasure. </p>
            <p> Let’s try practicing that now. </p>","","instructions","","","","","","","","","","","","","",""
"revaluation","59","321286","0.0-3.0-12.0-0.0","spark_pilot_2","7485","3","21","Male","","","","","","","[59]","","","rest practice","","10","","","","","0","15000","","","","","",""
"learning-instructions","60","327553","0.0-3.0-13.0-0.0-0.0","spark_pilot_2","7485","3","21","Male","","","","","","","982.6999999284744","<p> Now, you will practice a shortened version of the game to get a sense of how it all fits together. </p>","","instructions","","","","","","","","","","","","","",""
"learning-instructions","61","331481","0.0-3.0-13.0-0.0-0.1","spark_pilot_2","7485","3","21","Male","","","","","","","740.3999999761581","<p>This time you are searching for treasure in outer space.</p>","","instructions","","","","","","","","","","","","","",""
"learning-instructions","62","346842","0.0-3.0-13.0-1.0-0.0","spark_pilot_2","7485","3","21","Male","","","","","","","581.8000000715256","<p> Remember, when you see a picture of the place, use the up and down keys to <b>find an animal</b>.</p>
            <p> When you encounter an animal, you should use the left and right keys to <b>select a treasure chest</b>.</p>
            <p> Don't forget to look out for the robber! </p>","","instructions","","","","","","","","","","","","","",""
"revaluation","63","352856","0.0-3.0-13.0-2.0-0.0","spark_pilot_2","7485","3","21","Male","","","false","","","","[1398.5,712.8999999761581]","./assets/img/space/11.jpg","[""ArrowUp"",""ArrowRight""]","practice block","space","36","{""ArrowUp,ArrowLeft"":3,""ArrowUp,ArrowRight"":36,""ArrowDown,ArrowLeft"":15,""ArrowDown,ArrowRight"":23}","true","ArrowUp,ArrowRight","false","","","","","","","",""
"html-keyboard-response","64","353368","0.0-3.0-13.0-2.0-1.0","spark_pilot_2","7485","3","21","Male","","","","","","","null","<div style=""font-size:60px;"">+</div>","null","fixation","","","","","","","","","","","","","",""
"revaluation","65","359384","0.0-3.0-13.0-2.0-0.1","spark_pilot_2","7485","3","21","Male","","","false","","","","[763.5,572.1000000238419]","./assets/img/space/12.jpg","[""ArrowUp"",""ArrowLeft""]","practice block","space","3","{""ArrowUp,ArrowLeft"":3,""ArrowUp,ArrowRight"":36,""ArrowDown,ArrowLeft"":15,""ArrowDown,ArrowRight"":23}","false","ArrowUp,ArrowLeft","false","","","","","","","",""
"html-keyboard-response","66","359895","0.0-3.0-13.0-2.0-1.1","spark_pilot_2","7485","3","21","Male","","","","","","","null","<div style=""font-size:60px;"">+</div>","null","fixation","","","","","","","","","","","","","",""
"revaluation","67","365922","0.0-3.0-13.0-2.0-0.2","spark_pilot_2","7485","3","21","Male","","","false","","","","[658.1000000238419,506.7000000476837]","./assets/img/space/13.jpg","[""ArrowUp"",""ArrowRight""]","practice block","space","36","{""ArrowUp,ArrowLeft"":3,""ArrowUp,ArrowRight"":36,""ArrowDown,ArrowLeft"":15,""ArrowDown,ArrowRight"":23}","true","ArrowUp,ArrowRight","false","","","","","","","",""
"html-keyboard-response","68","366433","0.0-3.0-13.0-2.0-1.2","spark_pilot_2","7485","3","21","Male","","","","","","","null","<div style=""font-size:60px;"">+</div>","null","fixation","","","","","","","","","","","","","",""
"revaluation","69","372457","0.0-3.0-13.0-2.0-0.3","spark_pilot_2","7485","3","21","Male","","","false","","","","[593.6000000238419,588.6000000238419]","./assets/img/space/14.jpg","[""ArrowUp"",""ArrowRight""]","practice block","space","36","{""ArrowUp,ArrowLeft"":3,""ArrowUp,ArrowRight"":36,""ArrowDown,ArrowLeft"":15,""ArrowDown,ArrowRight"":23}","true","ArrowUp,ArrowRight","false","","","","","","","",""
"html-keyboard-response","70","372967","0.0-3.0-13.0-2.0-1.3","spark_pilot_2","7485","3","21","Male","","","","","","","null","<div style=""font-size:60px;"">+</div>","null","fixation","","","","","","","","","","","","","",""
"revaluation","71","378987","0.0-3.0-13.0-2.0-0.4","spark_pilot_2","7485","3","21","Male","","","false","","","","[903.0999999046326,400.90000009536743]","./assets/img/space/11.jpg","[""ArrowUp"",""ArrowRight""]","practice block","space","36","{""ArrowUp,ArrowLeft"":3,""ArrowUp,ArrowRight"":36,""ArrowDown,ArrowLeft"":15,""ArrowDown,ArrowRight"":23}","true","ArrowUp,ArrowRight","false","","","","","","","",""
"html-keyboard-response","72","379489","0.0-3.0-13.0-2.0-1.4","spark_pilot_2","7485","3","21","Male","","","","","","","null","<div style=""font-size:60px;"">+</div>","null","fixation","","","","","","","","","","","","","",""
"revaluation","73","385494","0.0-3.0-13.0-2.0-0.5","spark_pilot_2","7485","3","21","Male","","","false","","","","[641.9000000953674,600.7999999523163]","./assets/img/space/12.jpg","[""ArrowUp"",""ArrowRight""]","practice block","space","36","{""ArrowUp,ArrowLeft"":3,""ArrowUp,ArrowRight"":36,""ArrowDown,ArrowLeft"":15,""ArrowDown,ArrowRight"":23}","true","ArrowUp,ArrowRight","false","","","","","","","",""
"html-keyboard-response","74","385995","0.0-3.0-13.0-2.0-1.5","spark_pilot_2","7485","3","21","Male","","","","","","","null","<div style=""font-size:60px;"">+</div>","null","fixation","","","","","","","","","","","","","",""
"revaluation","75","392003","0.0-3.0-13.0-2.0-0.6","spark_pilot_2","7485","3","21","Male","","","false","","","","[770.1000000238419,520.8999999761581]","./assets/img/space/13.jpg","[""ArrowUp"",""ArrowRight""]","practice block","space","36","{""ArrowUp,ArrowLeft"":3,""ArrowUp,ArrowRight"":36,""ArrowDown,ArrowLeft"":15,""ArrowDown,ArrowRight"":23}","true","ArrowUp,ArrowRight","false","","","","","","","",""
"html-keyboard-response","76","392504","0.0-3.0-13.0-2.0-1.6","spark_pilot_2","7485","3","21","Male","","","","","","","null","<div style=""font-size:60px;"">+</div>","null","fixation","","","","","","","","","","","","","",""
"revaluation","77","398511","0.0-3.0-13.0-2.0-0.7","spark_pilot_2","7485","3","21","Male","","","false","","","","[665.3999999761581,496.60000002384186]","./assets/img/space/14.jpg","[""ArrowUp"",""ArrowRight""]","practice block","space","36","{""ArrowUp,ArrowLeft"":3,""ArrowUp,ArrowRight"":36,""ArrowDown,ArrowLeft"":15,""ArrowDown,ArrowRight"":23}","true","ArrowUp,ArrowRight","false","","","","","","","",""
"html-keyboard-response","78","399013","0.0-3.0-13.0-2.0-1.7","spark_pilot_2","7485","3","21","Male","","","","","","","null","<div style=""font-size:60px;"">+</div>","null","fixation","","","","","","","","","","","","","",""
"revaluation","79","403018","0.0-3.0-13.0-2.0-0.8","spark_pilot_2","7485","3","21","Male","","","false","","","","[527.2999999523163]","./assets/img/space/catch/3.jpg","[""spaceBar""]","practice block","space","0","{""ArrowUp,ArrowLeft"":3,""ArrowUp,ArrowRight"":36,""ArrowDown,ArrowLeft"":15,""ArrowDown,ArrowRight"":23}","true","spaceBar","true","","","","","","","",""
"html-keyboard-response","80","403519","0.0-3.0-13.0-2.0-1.8","spark_pilot_2","7485","3","21","Male","","","","","","","null","<div style=""font-size:60px;"">+</div>","null","fixation","","","","","","","","","","","","","",""
"learning-instructions","81","418161","0.0-3.0-13.0-3.0-0.0","spark_pilot_2","7485","3","21","Male","","","","","","","1689.8999999761581","<p> Now, you will travel with a friend who will choose whether you go up or down first. </p>
            <p> On these turns, you will just see the animal that they found. You will still get to choose which chest to search for treasure.</p>","","instructions","","","","","","","","","","","","","",""
"revaluation","82","422172","0.0-3.0-13.0-4.0-0.0","spark_pilot_2","7485","3","21","Male","","","false","","","","[1043.5]","./assets/img/space/animals/cat.jpg","[""ArrowRight""]","practice block","space","36","{""ArrowUp,ArrowLeft"":3,""ArrowUp,ArrowRight"":36,""ArrowDown,ArrowLeft"":15,""ArrowDown,ArrowRight"":23}","true","ArrowUp,ArrowRight","","","","","","","","",""
"html-keyboard-response","83","422684","0.0-3.0-13.0-4.0-1.0","spark_pilot_2","7485","3","21","Male","","","","","","","null","<div style=""font-size:60px;"">+</div>","null","fixation","","","","","","","","","","","","","",""
"revaluation","84","426698","0.0-3.0-13.0-4.0-0.1","spark_pilot_2","7485","3","21","Male","","","false","","","","[1154]","./assets/img/space/animals/rabbit.jpg","[""ArrowLeft""]","practice block","space","15","{""ArrowUp,ArrowLeft"":3,""ArrowUp,ArrowRight"":36,""ArrowDown,ArrowLeft"":15,""ArrowDown,ArrowRight"":23}","false","ArrowDown,ArrowLeft","","","","","","","","",""
"html-keyboard-response","85","427211","0.0-3.0-13.0-4.0-1.1","spark_pilot_2","7485","3","21","Male","","","","","","","null","<div style=""font-size:60px;"">+</div>","null","fixation","","","","","","","","","","","","","",""
"revaluation","86","431223","0.0-3.0-13.0-4.0-0.2","spark_pilot_2","7485","3","21","Male","","","false","","","","[478.1999999284744]","./assets/img/space/animals/cat.jpg","[""ArrowRight""]","practice block","space","36","{""ArrowUp,ArrowLeft"":3,""ArrowUp,ArrowRight"":36,""ArrowDown,ArrowLeft"":15,""ArrowDown,ArrowRight"":23}","true","ArrowUp,ArrowRight","","","","","","","","",""
"html-keyboard-response","87","431733","0.0-3.0-13.0-4.0-1.2","spark_pilot_2","7485","3","21","Male","","","","","","","null","<div style=""font-size:60px;"">+</div>","null","fixation","","","","","","","","","","","","","",""
"revaluation","88","435755","0.0-3.0-13.0-4.0-0.3","spark_pilot_2","7485","3","21","Male","","","false","","","","[382.60000002384186]","./assets/img/space/animals/rabbit.jpg","[""ArrowRight""]","practice block","space","23","{""ArrowUp,ArrowLeft"":3,""ArrowUp,ArrowRight"":36,""ArrowDown,ArrowLeft"":15,""ArrowDown,ArrowRight"":23}","true","ArrowDown,ArrowRight","","","","","","","","",""
"html-keyboard-response","89","436266","0.0-3.0-13.0-4.0-1.3","spark_pilot_2","7485","3","21","Male","","","","","","","null","<div style=""font-size:60px;"">+</div>","null","fixation","","","","","","","","","","","","","",""
"learning-instructions","90","444667","0.0-3.0-13.0-5.0-0.0","spark_pilot_2","7485","3","21","Male","","","","","","","1036.1000000238419","<p> Time to play the dot game! </p>
            <p> For 15 seconds, click the red dots on the following screen as they appear. </p>","","instructions","","","","","","","","","","","","","",""
"revaluation","91","459668","0.0-3.0-13.0-6.0-0.0","spark_pilot_2","7485","3","21","Male","","","","","","","[41,48]","","","rest practice","","20","","","","","0","15000","","","","","",""
"learning-instructions","92","466352","0.0-3.0-13.0-7.0-0.0","spark_pilot_2","7485","3","21","Male","","","","","","","561.3999999761581","<p> You have almost finished this part of the game! </p>
            <p> We are going to ask you to make a few more choices. </p>","","instructions","","","","","","","","","","","","","",""
"learning-instructions","93","481113","0.0-3.0-13.0-7.0-0.1","spark_pilot_2","7485","3","21","Male","","","","","","","753","<p> First, you need to decide whether to go up or down. When you see each picture, use the arrow keys to make your choice. </p>
            <p><b>You will not see which animal you found, but try to get to the one that will give you the most treasure.</b></p>","","instructions","","","","","","","","","","","","","",""
"revaluation","94","482246","0.0-3.0-13.0-8.0","spark_pilot_2","7485","3","21","Male","","","false","","","","[1130.0999999046326]","./assets/img/space/15.jpg","[""ArrowUp""]","practice block","space","0","{""ArrowUp,ArrowLeft"":3,""ArrowUp,ArrowRight"":36,""ArrowDown,ArrowLeft"":15,""ArrowDown,ArrowRight"":23}","true","ArrowUp","false","","","","","","","",""
"html-keyboard-response","95","482750","0.0-3.0-13.0-9.0","spark_pilot_2","7485","3","21","Male","","","","","","","null","<div style=""font-size:60px;"">+</div>","null","fixation","","","","","","","","","","","","","",""
"learning-instructions","96","494797","0.0-3.0-13.0-10.0-0.0","spark_pilot_2","7485","3","21","Male","","","","","","","657","<p> Now you will see the animals again and can search their chests for treasure. </p>
            <p> This time, you will not see how much treasure you earned, but you will earn more bonus money for making better choices. </p>","","instructions","","","","","","","","","","","","","",""
"revaluation","97","495816","0.0-3.0-13.0-11.0-0.0","spark_pilot_2","7485","3","21","Male","","","false","","","","[1017.6000000238419]","./assets/img/space/animals/cat.jpg","[""ArrowRight""]","practice block","space","0","{""ArrowUp,ArrowLeft"":3,""ArrowUp,ArrowRight"":36,""ArrowDown,ArrowLeft"":15,""ArrowDown,ArrowRight"":23}","true","ArrowUp,ArrowRight","","","","","","","","",""
"html-keyboard-response","98","496325","0.0-3.0-13.0-11.0-1.0","spark_pilot_2","7485","3","21","Male","","","","","","","null","<div style=""font-size:60px;"">+</div>","null","fixation","","","","","","","","","","","","","",""
"revaluation","99","497283","0.0-3.0-13.0-11.0-0.1","spark_pilot_2","7485","3","21","Male","","","false","","","","[954.1999999284744]","./assets/img/space/animals/rabbit.jpg","[""ArrowRight""]","practice block","space","0","{""ArrowUp,ArrowLeft"":3,""ArrowUp,ArrowRight"":36,""ArrowDown,ArrowLeft"":15,""ArrowDown,ArrowRight"":23}","true","ArrowDown,ArrowRight","","","","","","","","",""
"html-keyboard-response","100","497785","0.0-3.0-13.0-11.0-1.1","spark_pilot_2","7485","3","21","Male","","","","","","","null","<div style=""font-size:60px;"">+</div>","null","fixation","","","","","","","","","","","","","",""
"learning-instructions","101","505470","0.0-3.0-14.0-0.0","spark_pilot_2","7485","3","21","Male","","","","","","","3110.100000023842","<p> Before you start, we're going to ask you a few questions about how the game works. </p>","","instructions","","","","","","","","","","","","","",""
"comp-q","102","512291","0.0-3.0-15.0-0.0-0.0","spark_pilot_2","7485","3","21","Male","","","","","","","1238.5","<p> <b> True or False? </b> </p>
            <p> There can be 50 pieces of treasure in a given animal's chest. </p>","1","comp_question","","","","true","","","","","","","","","",""
"comp-q","103","520668","0.0-3.0-15.0-0.0-1.0","spark_pilot_2","7485","3","21","Male","","","","","","","1707.6999999284744","<p> <b> That's right! </b> The amount of treasure in each chest can range from 0 to 40 pieces. </p>","0","comp_answer","","","","","","","","","","","","","",""
"comp-q","104","528385","0.0-3.0-15.0-0.1-0.1","spark_pilot_2","7485","3","21","Male","","","","","","","595.3999999761581","<p> <b> True or False? </b> </p><p> In this game, all animals have the same amount of treasure in their left and right chests. </p>","1","comp_question","","","","true","","","","","","","","","",""
"comp-q","105","534959","0.0-3.0-15.0-0.1-1.1","spark_pilot_2","7485","3","21","Male","","","","","","","1338.5","<p> <b> That's right! </b> Animals have different amounts of treasure in their treasure chests. </p>","0","comp_answer","","","","","","","","","","","","","",""
"comp-q","106","541435","0.0-3.0-15.0-0.2-0.2","spark_pilot_2","7485","3","21","Male","","","","","","","636","<p> <b> True or False? </b> </p><p> The same animal will always be there if you go up in the same place. </p>","0","comp_question","","","","true","","","","","","","","","",""
"comp-q","107","549038","0.0-3.0-15.0-0.2-1.2","spark_pilot_2","7485","3","21","Male","","","","","","","1158.2000000476837","<p> <b> That's right! </b> One animal lives in the upper part and one lives in the lower part of every place. </p>","0","comp_answer","","","","","","","","","","","","","",""
"comp-q","108","554978","0.0-3.0-15.0-0.3-0.3","spark_pilot_2","7485","3","21","Male","","","","","","","418.5","<p> <b> True or False? </b> </p><p> If you see a different picture, it means you are in a new place. </p>","1","comp_question","","","","true","","","","","","","","","",""
"comp-q","109","569225","0.0-3.0-15.0-0.3-1.3","spark_pilot_2","7485","3","21","Male","","","","","","","3005.6999999284744","<p> <b> That's right! </b> Lots of different images may show the same place. For example,  you may see three different images that all remind you that you are in outer space. </p>","0","comp_answer","","","","","","","","","","","","","",""
"learning-instructions","110","579882","0.0-3.0-16.0-0.0","spark_pilot_2","7485","3","21","Male","","","","","","","802.2999999523163","<p> Good job. Remember to do your best because the amount of treasure you earn will be converted into bonus money. </p>
            <p> It’s time to start the real game! </p>","","instructions","","","","","","","","","","","","","",""
"learning-instructions","111","584091","0.0-4.0-0.0-0.0","spark_pilot_2","7485","3","21","Male","","","","","","","1512","<p> This time you are searching for treasure in the <b>ocean</b>.</p>","","instructions","","","","","","","","","","","","","",""
"learning-instructions","112","602691","0.0-4.0-0.0-0.1","spark_pilot_2","7485","3","21","Male","","","","","","","1303","<p><b>New</b> animals with <b>new</b> treasure chests live here. You need to explore to discover where the animal with the best treasure chest is.</p>
                    <p> Like before, once you figure out which animal has the chest with the most treasure, you should try to get to that animal and select that chest! </p>","","instructions","","","","","","","","","","","","","",""
"learning-instructions","113","696328","0.0-4.0-1.0-0.0","spark_pilot_2","7485","3","21","Male","","","","","","","78908.10000002384","<p> Remember, when you see a picture of the place, use the up and down keys to <b>find an animal</b>.</p>
            <p> When you encounter an animal, you should use the left and right keys to <b>select a treasure chest</b>.</p>
            <p> Don't forget to look out for the robber! </p>","","instructions","","","","","","","","","","","","","",""
"revaluation","114","702332","0.0-4.0-2.0-0.0","spark_pilot_2","7485","3","21","Male","","","false","","","","[969.0999999046326,328.39999997615814]","./assets/img/ocean/memory/41.jpg","[""ArrowUp"",""ArrowRight""]","value training","ocean","10","{""ArrowUp,ArrowLeft"":23,""ArrowUp,ArrowRight"":10,""ArrowDown,ArrowLeft"":8,""ArrowDown,ArrowRight"":30}","false","ArrowUp,ArrowRight","false","","","original","1","0","","",""
"html-keyboard-response","115","702836","0.0-4.0-2.0-1.0","spark_pilot_2","7485","3","21","Male","","","","","","","null","<div style=""font-size:60px;"">+</div>","null","fixation","","","","","","","","","","","1","","",""
"revaluation","116","708842","0.0-4.0-2.0-0.1","spark_pilot_2","7485","3","21","Male","","","false","","","","[447.3000000715256,454.89999997615814]","./assets/img/ocean/memory/33.jpg","[""ArrowUp"",""ArrowLeft""]","value training","ocean","23","{""ArrowUp,ArrowLeft"":23,""ArrowUp,ArrowRight"":10,""ArrowDown,ArrowLeft"":8,""ArrowDown,ArrowRight"":30}","false","ArrowUp,ArrowLeft","false","","","original","1","2","","",""
"html-keyboard-response","117","709342","0.0-4.0-2.0-1.1","spark_pilot_2","7485","3","21","Male","","","","","","","null","<div style=""font-size:60px;"">+</div>","null","fixation","","","","","","","","","","","3","","",""
"revaluation","118","713348","0.0-4.0-2.0-0.2","spark_pilot_2","7485","3","21","Male","","","false","","","","[1194.7999999523163]","./assets/img/ocean/catch/4.jpg","[""spaceBar""]","value training","ocean","0","{""ArrowUp,ArrowLeft"":23,""ArrowUp,ArrowRight"":10,""ArrowDown,ArrowLeft"":8,""ArrowDown,ArrowRight"":30}","true","spaceBar","true","","","original","1","4","","",""
"html-keyboard-response","119","713849","0.0-4.0-2.0-1.2","spark_pilot_2","7485","3","21","Male","","","","","","","null","<div style=""font-size:60px;"">+</div>","null","fixation","","","","","","","","","","","5","","",""
"revaluation","120","719855","0.0-4.0-2.0-0.3","spark_pilot_2","7485","3","21","Male","","","false","","","","[605.7000000476837,517.1000000238419]","./assets/img/ocean/memory/3.jpg","[""ArrowDown"",""ArrowRight""]","value training","ocean","30","{""ArrowUp,ArrowLeft"":23,""ArrowUp,ArrowRight"":10,""ArrowDown,ArrowLeft"":8,""ArrowDown,ArrowRight"":30}","true","ArrowDown,ArrowRight","false","","","original","1","6","","",""
"html-keyboard-response","121","720356","0.0-4.0-2.0-1.3","spark_pilot_2","7485","3","21","Male","","","","","","","null","<div style=""font-size:60px;"">+</div>","null","fixation","","","","","","","","","","","7","","",""
"revaluation","122","726375","0.0-4.0-2.0-0.4","spark_pilot_2","7485","3","21","Male","","","false","","","","[740.2999999523163,679]","./assets/img/ocean/memory/35.jpg","[""ArrowDown"",""ArrowLeft""]","value training","ocean","8","{""ArrowUp,ArrowLeft"":23,""ArrowUp,ArrowRight"":10,""ArrowDown,ArrowLeft"":8,""ArrowDown,ArrowRight"":30}","false","ArrowDown,ArrowLeft","false","","","original","1","8","","",""
"html-keyboard-response","123","726876","0.0-4.0-2.0-1.4","spark_pilot_2","7485","3","21","Male","","","","","","","null","<div style=""font-size:60px;"">+</div>","null","fixation","","","","","","","","","","","9","","",""
"revaluation","124","732884","0.0-4.0-2.0-0.5","spark_pilot_2","7485","3","21","Male","","","false","","","","[717.8999999761581,362.6999999284744]","./assets/img/ocean/memory/15.jpg","[""ArrowDown"",""ArrowRight""]","value training","ocean","30","{""ArrowUp,ArrowLeft"":23,""ArrowUp,ArrowRight"":10,""ArrowDown,ArrowLeft"":8,""ArrowDown,ArrowRight"":30}","true","ArrowDown,ArrowRight","false","","","original","1","10","","",""
"html-keyboard-response","125","733386","0.0-4.0-2.0-1.5","spark_pilot_2","7485","3","21","Male","","","","","","","null","<div style=""font-size:60px;"">+</div>","null","fixation","","","","","","","","","","","11","","",""
"revaluation","126","737400","0.0-4.0-2.0-0.6","spark_pilot_2","7485","3","21","Male","","","false","","","","[599.8000000715256]","./assets/img/ocean/catch/6.jpg","[""spaceBar""]","value training","ocean","0","{""ArrowUp,ArrowLeft"":23,""ArrowUp,ArrowRight"":10,""ArrowDown,ArrowLeft"":8,""ArrowDown,ArrowRight"":30}","true","spaceBar","true","","","original","1","12","","",""
"html-keyboard-response","127","737901","0.0-4.0-2.0-1.6","spark_pilot_2","7485","3","21","Male","","","","","","","null","<div style=""font-size:60px;"">+</div>","null","fixation","","","","","","","","","","","13","","",""
"revaluation","128","743906","0.0-4.0-2.0-0.7","spark_pilot_2","7485","3","21","Male","","","false","","","","[733.7999999523163,605.8999999761581]","./assets/img/ocean/memory/24.jpg","[""ArrowDown"",""ArrowRight""]","value training","ocean","30","{""ArrowUp,ArrowLeft"":23,""ArrowUp,ArrowRight"":10,""ArrowDown,ArrowLeft"":8,""ArrowDown,ArrowRight"":30}","true","ArrowDown,ArrowRight","false","","","original","1","14","","",""
"html-keyboard-response","129","744407","0.0-4.0-2.0-1.7","spark_pilot_2","7485","3","21","Male","","","","","","","null","<div style=""font-size:60px;"">+</div>","null","fixation","","","","","","","","","","","15","","",""
"revaluation","130","750413","0.0-4.0-2.0-0.8","spark_pilot_2","7485","3","21","Male","","","false","","","","[501.3000000715256,444.3000000715256]","./assets/img/ocean/memory/38.jpg","[""ArrowDown"",""ArrowRight""]","value training","ocean","30","{""ArrowUp,ArrowLeft"":23,""ArrowUp,ArrowRight"":10,""ArrowDown,ArrowLeft"":8,""ArrowDown,ArrowRight"":30}","true","ArrowDown,ArrowRight","false","","","original","1","16","","",""
"html-keyboard-response","131","750914","0.0-4.0-2.0-1.8","spark_pilot_2","7485","3","21","Male","","","","","","","null","<div style=""font-size:60px;"">+</div>","null","fixation","","","","","","","","","","","17","","",""
"revaluation","132","756920","0.0-4.0-2.0-0.9","spark_pilot_2","7485","3","21","Male","","","false","","","","[579.7000000476837,515.3999999761581]","./assets/img/ocean/memory/35.jpg","[""ArrowDown"",""ArrowRight""]","value training","ocean","30","{""ArrowUp,ArrowLeft"":23,""ArrowUp,ArrowRight"":10,""ArrowDown,ArrowLeft"":8,""ArrowDown,ArrowRight"":30}","true","ArrowDown,ArrowRight","false","","","original","1","18","","",""
"html-keyboard-response","133","757421","0.0-4.0-2.0-1.9","spark_pilot_2","7485","3","21","Male","","","","","","","null","<div style=""font-size:60px;"">+</div>","null","fixation","","","","","","","","","","","19","","",""
"revaluation","134","763426","0.0-4.0-2.0-0.10","spark_pilot_2","7485","3","21","Male","","","false","","","","[474.7999999523163,386.39999997615814]","./assets/img/ocean/memory/33.jpg","[""ArrowDown"",""ArrowRight""]","value training","ocean","30","{""ArrowUp,ArrowLeft"":23,""ArrowUp,ArrowRight"":10,""ArrowDown,ArrowLeft"":8,""ArrowDown,ArrowRight"":30}","true","ArrowDown,ArrowRight","false","","","original","1","20","","",""
"html-keyboard-response","135","763927","0.0-4.0-2.0-1.10","spark_pilot_2","7485","3","21","Male","","","","","","","null","<div style=""font-size:60px;"">+</div>","null","fixation","","","","","","","","","","","21","","",""
"revaluation","136","769933","0.0-4.0-2.0-0.11","spark_pilot_2","7485","3","21","Male","","","false","","","","[569,479.5]","./assets/img/ocean/memory/41.jpg","[""ArrowDown"",""ArrowRight""]","value training","ocean","30","{""ArrowUp,ArrowLeft"":23,""ArrowUp,ArrowRight"":10,""ArrowDown,ArrowLeft"":8,""ArrowDown,ArrowRight"":30}","true","ArrowDown,ArrowRight","false","","","original","1","22","","",""
"html-keyboard-response","137","770434","0.0-4.0-2.0-1.11","spark_pilot_2","7485","3","21","Male","","","","","","","null","<div style=""font-size:60px;"">+</div>","null","fixation","","","","","","","","","","","23","","",""
"revaluation","138","776439","0.0-4.0-2.0-0.12","spark_pilot_2","7485","3","21","Male","","","false","","","","[607.7999999523163,391.09999990463257]","./assets/img/ocean/memory/29.jpg","[""ArrowDown"",""ArrowRight""]","value training","ocean","30","{""ArrowUp,ArrowLeft"":23,""ArrowUp,ArrowRight"":10,""ArrowDown,ArrowLeft"":8,""ArrowDown,ArrowRight"":30}","true","ArrowDown,ArrowRight","false","","","original","1","24","","",""
"html-keyboard-response","139","776941","0.0-4.0-2.0-1.12","spark_pilot_2","7485","3","21","Male","","","","","","","null","<div style=""font-size:60px;"">+</div>","null","fixation","","","","","","","","","","","25","","",""
"revaluation","140","782946","0.0-4.0-2.0-0.13","spark_pilot_2","7485","3","21","Male","","","false","","","","[542.1000000238419,883.5]","./assets/img/ocean/memory/19.jpg","[""ArrowDown"",""ArrowRight""]","value training","ocean","30","{""ArrowUp,ArrowLeft"":23,""ArrowUp,ArrowRight"":10,""ArrowDown,ArrowLeft"":8,""ArrowDown,ArrowRight"":30}","true","ArrowDown,ArrowRight","false","","","original","1","26","","",""
"html-keyboard-response","141","783447","0.0-4.0-2.0-1.13","spark_pilot_2","7485","3","21","Male","","","","","","","null","<div style=""font-size:60px;"">+</div>","null","fixation","","","","","","","","","","","27","","",""
"revaluation","142","789453","0.0-4.0-2.0-0.14","spark_pilot_2","7485","3","21","Male","","","false","","","","[565,508]","./assets/img/ocean/memory/15.jpg","[""ArrowDown"",""ArrowRight""]","value training","ocean","30","{""ArrowUp,ArrowLeft"":23,""ArrowUp,ArrowRight"":10,""ArrowDown,ArrowLeft"":8,""ArrowDown,ArrowRight"":30}","true","ArrowDown,ArrowRight","false","","","original","1","28","","",""
"html-keyboard-response","143","789955","0.0-4.0-2.0-1.14","spark_pilot_2","7485","3","21","Male","","","","","","","null","<div style=""font-size:60px;"">+</div>","null","fixation","","","","","","","","","","","29","","",""
"revaluation","144","795960","0.0-4.0-2.0-0.15","spark_pilot_2","7485","3","21","Male","","","false","","","","[604.1999999284744,386.6999999284744]","./assets/img/ocean/memory/37.jpg","[""ArrowDown"",""ArrowRight""]","value training","ocean","30","{""ArrowUp,ArrowLeft"":23,""ArrowUp,ArrowRight"":10,""ArrowDown,ArrowLeft"":8,""ArrowDown,ArrowRight"":30}","true","ArrowDown,ArrowRight","false","","","original","1","30","","",""
"html-keyboard-response","145","796462","0.0-4.0-2.0-1.15","spark_pilot_2","7485","3","21","Male","","","","","","","null","<div style=""font-size:60px;"">+</div>","null","fixation","","","","","","","","","","","31","","",""
"revaluation","146","802467","0.0-4.0-2.0-0.16","spark_pilot_2","7485","3","21","Male","","","false","","","","[713.2999999523163,639.6999999284744]","./assets/img/ocean/memory/16.jpg","[""ArrowDown"",""ArrowRight""]","value training","ocean","30","{""ArrowUp,ArrowLeft"":23,""ArrowUp,ArrowRight"":10,""ArrowDown,ArrowLeft"":8,""ArrowDown,ArrowRight"":30}","true","ArrowDown,ArrowRight","false","","","original","1","32","","",""
"html-keyboard-response","147","802968","0.0-4.0-2.0-1.16","spark_pilot_2","7485","3","21","Male","","","","","","","null","<div style=""font-size:60px;"">+</div>","null","fixation","","","","","","","","","","","33","","",""
"revaluation","148","806973","0.0-4.0-2.0-0.17","spark_pilot_2","7485","3","21","Male","","","false","","","","[447.3000000715256]","./assets/img/ocean/catch/2.jpg","[""spaceBar""]","value training","ocean","0","{""ArrowUp,ArrowLeft"":23,""ArrowUp,ArrowRight"":10,""ArrowDown,ArrowLeft"":8,""ArrowDown,ArrowRight"":30}","true","spaceBar","true","","","original","1","34","","",""
"html-keyboard-response","149","807474","0.0-4.0-2.0-1.17","spark_pilot_2","7485","3","21","Male","","","","","","","null","<div style=""font-size:60px;"">+</div>","null","fixation","","","","","","","","","","","35","","",""
"revaluation","150","813479","0.0-4.0-2.0-0.18","spark_pilot_2","7485","3","21","Male","","","false","","","","[623.6000000238419,431.60000002384186]","./assets/img/ocean/memory/10.jpg","[""ArrowDown"",""ArrowRight""]","value training","ocean","30","{""ArrowUp,ArrowLeft"":23,""ArrowUp,ArrowRight"":10,""ArrowDown,ArrowLeft"":8,""ArrowDown,ArrowRight"":30}","true","ArrowDown,ArrowRight","false","","","original","1","36","","",""
"html-keyboard-response","151","813980","0.0-4.0-2.0-1.18","spark_pilot_2","7485","3","21","Male","","","","","","","null","<div style=""font-size:60px;"">+</div>","null","fixation","","","","","","","","","","","37","","",""
"revaluation","152","819985","0.0-4.0-2.0-0.19","spark_pilot_2","7485","3","21","Male","","","false","","","","[645.5999999046326,692.2999999523163]","./assets/img/ocean/memory/37.jpg","[""ArrowDown"",""ArrowRight""]","value training","ocean","30","{""ArrowUp,ArrowLeft"":23,""ArrowUp,ArrowRight"":10,""ArrowDown,ArrowLeft"":8,""ArrowDown,ArrowRight"":30}","true","ArrowDown,ArrowRight","false","","","original","1","38","","",""
"html-keyboard-response","153","820486","0.0-4.0-2.0-1.19","spark_pilot_2","7485","3","21","Male","","","","","","","null","<div style=""font-size:60px;"">+</div>","null","fixation","","","","","","","","","","","39","","",""
"revaluation","154","826492","0.0-4.0-2.0-0.20","spark_pilot_2","7485","3","21","Male","","","false","","","","[501,483.7999999523163]","./assets/img/ocean/memory/26.jpg","[""ArrowDown"",""ArrowRight""]","value training","ocean","30","{""ArrowUp,ArrowLeft"":23,""ArrowUp,ArrowRight"":10,""ArrowDown,ArrowLeft"":8,""ArrowDown,ArrowRight"":30}","true","ArrowDown,ArrowRight","false","","","original","1","40","","",""
"html-keyboard-response","155","826993","0.0-4.0-2.0-1.20","spark_pilot_2","7485","3","21","Male","","","","","","","null","<div style=""font-size:60px;"">+</div>","null","fixation","","","","","","","","","","","41","","",""
"revaluation","156","830997","0.0-4.0-2.0-0.21","spark_pilot_2","7485","3","21","Male","","","false","","","","[578.9000000953674]","./assets/img/ocean/catch/5.jpg","[""spaceBar""]","value training","ocean","0","{""ArrowUp,ArrowLeft"":23,""ArrowUp,ArrowRight"":10,""ArrowDown,ArrowLeft"":8,""ArrowDown,ArrowRight"":30}","true","spaceBar","true","","","original","1","42","","",""
"html-keyboard-response","157","831508","0.0-4.0-2.0-1.21","spark_pilot_2","7485","3","21","Male","","","","","","","null","<div style=""font-size:60px;"">+</div>","null","fixation","","","","","","","","","","","43","","",""
"revaluation","158","837514","0.0-4.0-2.0-0.22","spark_pilot_2","7485","3","21","Male","","","false","","","","[770.0999999046326,793.3999999761581]","./assets/img/ocean/memory/40.jpg","[""ArrowDown"",""ArrowRight""]","value training","ocean","30","{""ArrowUp,ArrowLeft"":23,""ArrowUp,ArrowRight"":10,""ArrowDown,ArrowLeft"":8,""ArrowDown,ArrowRight"":30}","true","ArrowDown,ArrowRight","false","","","original","1","44","","",""
"html-keyboard-response","159","838015","0.0-4.0-2.0-1.22","spark_pilot_2","7485","3","21","Male","","","","","","","null","<div style=""font-size:60px;"">+</div>","null","fixation","","","","","","","","","","","45","","",""
"revaluation","160","844028","0.0-4.0-2.0-0.23","spark_pilot_2","7485","3","21","Male","","","false","","","","[777.7000000476837,362.3000000715256]","./assets/img/ocean/memory/31.jpg","[""ArrowDown"",""ArrowRight""]","value training","ocean","30","{""ArrowUp,ArrowLeft"":23,""ArrowUp,ArrowRight"":10,""ArrowDown,ArrowLeft"":8,""ArrowDown,ArrowRight"":30}","true","ArrowDown,ArrowRight","false","","","original","1","46","","",""
"html-keyboard-response","161","844545","0.0-4.0-2.0-1.23","spark_pilot_2","7485","3","21","Male","","","","","","","null","<div style=""font-size:60px;"">+</div>","null","fixation","","","","","","","","","","","47","","",""
"revaluation","162","850550","0.0-4.0-2.0-0.24","spark_pilot_2","7485","3","21","Male","","","false","","","","[1328.5,458.5]","./assets/img/ocean/memory/31.jpg","[""ArrowDown"",""ArrowRight""]","value training","ocean","30","{""ArrowUp,ArrowLeft"":23,""ArrowUp,ArrowRight"":10,""ArrowDown,ArrowLeft"":8,""ArrowDown,ArrowRight"":30}","true","ArrowDown,ArrowRight","false","","","original","1","48","","",""
"html-keyboard-response","163","851052","0.0-4.0-2.0-1.24","spark_pilot_2","7485","3","21","Male","","","","","","","null","<div style=""font-size:60px;"">+</div>","null","fixation","","","","","","","","","","","49","","",""
"revaluation","164","857091","0.0-4.0-2.0-0.25","spark_pilot_2","7485","3","21","Male","","","false","","","","[712.6999999284744,385.39999997615814]","./assets/img/ocean/memory/5.jpg","[""ArrowDown"",""ArrowRight""]","value training","ocean","30","{""ArrowUp,ArrowLeft"":23,""ArrowUp,ArrowRight"":10,""ArrowDown,ArrowLeft"":8,""ArrowDown,ArrowRight"":30}","true","ArrowDown,ArrowRight","false","","","original","1","50","","",""
"html-keyboard-response","165","857592","0.0-4.0-2.0-1.25","spark_pilot_2","7485","3","21","Male","","","","","","","null","<div style=""font-size:60px;"">+</div>","null","fixation","","","","","","","","","","","51","","",""
"revaluation","166","861598","0.0-4.0-2.0-0.26","spark_pilot_2","7485","3","21","Male","","","false","","","","[645.5]","./assets/img/ocean/catch/3.jpg","[""spaceBar""]","value training","ocean","0","{""ArrowUp,ArrowLeft"":23,""ArrowUp,ArrowRight"":10,""ArrowDown,ArrowLeft"":8,""ArrowDown,ArrowRight"":30}","true","spaceBar","true","","","original","1","52","","",""
"html-keyboard-response","167","862099","0.0-4.0-2.0-1.26","spark_pilot_2","7485","3","21","Male","","","","","","","null","<div style=""font-size:60px;"">+</div>","null","fixation","","","","","","","","","","","53","","",""
"revaluation","168","868105","0.0-4.0-2.0-0.27","spark_pilot_2","7485","3","21","Male","","","false","","","","[621.1000000238419,389.10000002384186]","./assets/img/ocean/memory/1.jpg","[""ArrowDown"",""ArrowRight""]","value training","ocean","30","{""ArrowUp,ArrowLeft"":23,""ArrowUp,ArrowRight"":10,""ArrowDown,ArrowLeft"":8,""ArrowDown,ArrowRight"":30}","true","ArrowDown,ArrowRight","false","","","original","1","54","","",""
"html-keyboard-response","169","868607","0.0-4.0-2.0-1.27","spark_pilot_2","7485","3","21","Male","","","","","","","null","<div style=""font-size:60px;"">+</div>","null","fixation","","","","","","","","","","","55","","",""
"revaluation","170","874613","0.0-4.0-2.0-0.28","spark_pilot_2","7485","3","21","Male","","","false","","","","[635.5,458.60000002384186]","./assets/img/ocean/memory/1.jpg","[""ArrowDown"",""ArrowRight""]","value training","ocean","30","{""ArrowUp,ArrowLeft"":23,""ArrowUp,ArrowRight"":10,""ArrowDown,ArrowLeft"":8,""ArrowDown,ArrowRight"":30}","true","ArrowDown,ArrowRight","false","","","original","1","56","","",""
"html-keyboard-response","171","875114","0.0-4.0-2.0-1.28","spark_pilot_2","7485","3","21","Male","","","","","","","null","<div style=""font-size:60px;"">+</div>","null","fixation","","","","","","","","","","","57","","",""
"revaluation","172","881134","0.0-4.0-2.0-0.29","spark_pilot_2","7485","3","21","Male","","","false","","","","[745,403.89999997615814]","./assets/img/ocean/memory/23.jpg","[""ArrowDown"",""ArrowRight""]","value training","ocean","30","{""ArrowUp,ArrowLeft"":23,""ArrowUp,ArrowRight"":10,""ArrowDown,ArrowLeft"":8,""ArrowDown,ArrowRight"":30}","true","ArrowDown,ArrowRight","false","","","original","1","58","","",""
"html-keyboard-response","173","881636","0.0-4.0-2.0-1.29","spark_pilot_2","7485","3","21","Male","","","","","","","null","<div style=""font-size:60px;"">+</div>","null","fixation","","","","","","","","","","","59","","",""
"revaluation","174","887640","0.0-4.0-2.0-0.30","spark_pilot_2","7485","3","21","Male","","","false","","","","[483.7999999523163,394.89999997615814]","./assets/img/ocean/memory/18.jpg","[""ArrowDown"",""ArrowRight""]","value training","ocean","30","{""ArrowUp,ArrowLeft"":23,""ArrowUp,ArrowRight"":10,""ArrowDown,ArrowLeft"":8,""ArrowDown,ArrowRight"":30}","true","ArrowDown,ArrowRight","false","","","original","1","60","","",""
"html-keyboard-response","175","888142","0.0-4.0-2.0-1.30","spark_pilot_2","7485","3","21","Male","","","","","","","null","<div style=""font-size:60px;"">+</div>","null","fixation","","","","","","","","","","","61","","",""
"revaluation","176","892147","0.0-4.0-2.0-0.31","spark_pilot_2","7485","3","21","Male","","","false","","","","[602.2999999523163]","./assets/img/ocean/catch/7.jpg","[""spaceBar""]","value training","ocean","0","{""ArrowUp,ArrowLeft"":23,""ArrowUp,ArrowRight"":10,""ArrowDown,ArrowLeft"":8,""ArrowDown,ArrowRight"":30}","true","spaceBar","true","","","original","1","62","","",""
"html-keyboard-response","177","892648","0.0-4.0-2.0-1.31","spark_pilot_2","7485","3","21","Male","","","","","","","null","<div style=""font-size:60px;"">+</div>","null","fixation","","","","","","","","","","","63","","",""
"revaluation","178","898652","0.0-4.0-2.0-0.32","spark_pilot_2","7485","3","21","Male","","","false","","","","[916.2999999523163,333]","./assets/img/ocean/memory/16.jpg","[""ArrowDown"",""ArrowRight""]","value training","ocean","30","{""ArrowUp,ArrowLeft"":23,""ArrowUp,ArrowRight"":10,""ArrowDown,ArrowLeft"":8,""ArrowDown,ArrowRight"":30}","true","ArrowDown,ArrowRight","false","","","original","1","64","","",""
"html-keyboard-response","179","899153","0.0-4.0-2.0-1.32","spark_pilot_2","7485","3","21","Male","","","","","","","null","<div style=""font-size:60px;"">+</div>","null","fixation","","","","","","","","","","","65","","",""
"revaluation","180","905160","0.0-4.0-2.0-0.33","spark_pilot_2","7485","3","21","Male","","","false","","","","[787.6999999284744,492.10000002384186]","./assets/img/ocean/memory/19.jpg","[""ArrowDown"",""ArrowRight""]","value training","ocean","30","{""ArrowUp,ArrowLeft"":23,""ArrowUp,ArrowRight"":10,""ArrowDown,ArrowLeft"":8,""ArrowDown,ArrowRight"":30}","true","ArrowDown,ArrowRight","false","","","original","1","66","","",""
"html-keyboard-response","181","905661","0.0-4.0-2.0-1.33","spark_pilot_2","7485","3","21","Male","","","","","","","null","<div style=""font-size:60px;"">+</div>","null","fixation","","","","","","","","","","","67","","",""
"revaluation","182","911666","0.0-4.0-2.0-0.34","spark_pilot_2","7485","3","21","Male","","","false","","","","[652.5999999046326,364.1999999284744]","./assets/img/ocean/memory/23.jpg","[""ArrowDown"",""ArrowRight""]","value training","ocean","30","{""ArrowUp,ArrowLeft"":23,""ArrowUp,ArrowRight"":10,""ArrowDown,ArrowLeft"":8,""ArrowDown,ArrowRight"":30}","true","ArrowDown,ArrowRight","false","","","original","1","68","","",""
"html-keyboard-response","183","912168","0.0-4.0-2.0-1.34","spark_pilot_2","7485","3","21","Male","","","","","","","null","<div style=""font-size:60px;"">+</div>","null","fixation","","","","","","","","","","","69","","",""
"revaluation","184","918173","0.0-4.0-2.0-0.35","spark_pilot_2","7485","3","21","Male","","","false","","","","[636.7000000476837,412.5]","./assets/img/ocean/memory/25.jpg","[""ArrowDown"",""ArrowRight""]","value training","ocean","30","{""ArrowUp,ArrowLeft"":23,""ArrowUp,ArrowRight"":10,""ArrowDown,ArrowLeft"":8,""ArrowDown,ArrowRight"":30}","true","ArrowDown,ArrowRight","false","","","original","1","70","","",""
"html-keyboard-response","185","918675","0.0-4.0-2.0-1.35","spark_pilot_2","7485","3","21","Male","","","","","","","null","<div style=""font-size:60px;"">+</div>","null","fixation","","","","","","","","","","","71","","",""
"revaluation","186","924685","0.0-4.0-2.0-0.36","spark_pilot_2","7485","3","21","Male","","","false","","","","[923.1999999284744,464]","./assets/img/ocean/memory/26.jpg","[""ArrowDown"",""ArrowRight""]","value training","ocean","30","{""ArrowUp,ArrowLeft"":23,""ArrowUp,ArrowRight"":10,""ArrowDown,ArrowLeft"":8,""ArrowDown,ArrowRight"":30}","true","ArrowDown,ArrowRight","false","","","original","1","72","","",""
"html-keyboard-response","187","925186","0.0-4.0-2.0-1.36","spark_pilot_2","7485","3","21","Male","","","","","","","null","<div style=""font-size:60px;"">+</div>","null","fixation","","","","","","","","","","","73","","",""
"revaluation","188","931191","0.0-4.0-2.0-0.37","spark_pilot_2","7485","3","21","Male","","","false","","","","[758.5,422.39999997615814]","./assets/img/ocean/memory/38.jpg","[""ArrowDown"",""ArrowRight""]","value training","ocean","30","{""ArrowUp,ArrowLeft"":23,""ArrowUp,ArrowRight"":10,""ArrowDown,ArrowLeft"":8,""ArrowDown,ArrowRight"":30}","true","ArrowDown,ArrowRight","false","","","original","1","74","","",""
"html-keyboard-response","189","931693","0.0-4.0-2.0-1.37","spark_pilot_2","7485","3","21","Male","","","","","","","null","<div style=""font-size:60px;"">+</div>","null","fixation","","","","","","","","","","","75","","",""
"revaluation","190","937699","0.0-4.0-2.0-0.38","spark_pilot_2","7485","3","21","Male","","","false","","","","[694.5,1300]","./assets/img/ocean/memory/40.jpg","[""ArrowDown"",""ArrowRight""]","value training","ocean","30","{""ArrowUp,ArrowLeft"":23,""ArrowUp,ArrowRight"":10,""ArrowDown,ArrowLeft"":8,""ArrowDown,ArrowRight"":30}","true","ArrowDown,ArrowRight","false","","","original","1","76","","",""
"html-keyboard-response","191","938200","0.0-4.0-2.0-1.38","spark_pilot_2","7485","3","21","Male","","","","","","","null","<div style=""font-size:60px;"">+</div>","null","fixation","","","","","","","","","","","77","","",""
"revaluation","192","944208","0.0-4.0-2.0-0.39","spark_pilot_2","7485","3","21","Male","","","false","","","","[844.5,372.7999999523163]","./assets/img/ocean/memory/24.jpg","[""ArrowDown"",""ArrowRight""]","value training","ocean","30","{""ArrowUp,ArrowLeft"":23,""ArrowUp,ArrowRight"":10,""ArrowDown,ArrowLeft"":8,""ArrowDown,ArrowRight"":30}","true","ArrowDown,ArrowRight","false","","","original","1","78","","",""
"html-keyboard-response","193","944709","0.0-4.0-2.0-1.39","spark_pilot_2","7485","3","21","Male","","","","","","","null","<div style=""font-size:60px;"">+</div>","null","fixation","","","","","","","","","","","79","","",""
"revaluation","194","950715","0.0-4.0-2.0-0.40","spark_pilot_2","7485","3","21","Male","","","false","","","","[739.1000000238419,419.5]","./assets/img/ocean/memory/29.jpg","[""ArrowDown"",""ArrowRight""]","value training","ocean","30","{""ArrowUp,ArrowLeft"":23,""ArrowUp,ArrowRight"":10,""ArrowDown,ArrowLeft"":8,""ArrowDown,ArrowRight"":30}","true","ArrowDown,ArrowRight","false","","","original","1","80","","",""
"html-keyboard-response","195","951217","0.0-4.0-2.0-1.40","spark_pilot_2","7485","3","21","Male","","","","","","","null","<div style=""font-size:60px;"">+</div>","null","fixation","","","","","","","","","","","81","","",""
"revaluation","196","957222","0.0-4.0-2.0-0.41","spark_pilot_2","7485","3","21","Male","","","false","","","","[562.7000000476837,393.5]","./assets/img/ocean/memory/25.jpg","[""ArrowDown"",""ArrowRight""]","value training","ocean","30","{""ArrowUp,ArrowLeft"":23,""ArrowUp,ArrowRight"":10,""ArrowDown,ArrowLeft"":8,""ArrowDown,ArrowRight"":30}","true","ArrowDown,ArrowRight","false","","","original","1","82","","",""
"html-keyboard-response","197","957723","0.0-4.0-2.0-1.41","spark_pilot_2","7485","3","21","Male","","","","","","","null","<div style=""font-size:60px;"">+</div>","null","fixation","","","","","","","","","","","83","","",""
"revaluation","198","963730","0.0-4.0-2.0-0.42","spark_pilot_2","7485","3","21","Male","","","false","","","","[873.1000000238419,289.60000002384186]","./assets/img/ocean/memory/3.jpg","[""ArrowDown"",""ArrowRight""]","value training","ocean","30","{""ArrowUp,ArrowLeft"":23,""ArrowUp,ArrowRight"":10,""ArrowDown,ArrowLeft"":8,""ArrowDown,ArrowRight"":30}","true","ArrowDown,ArrowRight","false","","","original","1","84","","",""
"html-keyboard-response","199","964231","0.0-4.0-2.0-1.42","spark_pilot_2","7485","3","21","Male","","","","","","","null","<div style=""font-size:60px;"">+</div>","null","fixation","","","","","","","","","","","85","","",""
"revaluation","200","970237","0.0-4.0-2.0-0.43","spark_pilot_2","7485","3","21","Male","","","false","","","","[695.2999999523163,423.5]","./assets/img/ocean/memory/5.jpg","[""ArrowDown"",""ArrowRight""]","value training","ocean","30","{""ArrowUp,ArrowLeft"":23,""ArrowUp,ArrowRight"":10,""ArrowDown,ArrowLeft"":8,""ArrowDown,ArrowRight"":30}","true","ArrowDown,ArrowRight","false","","","original","1","86","","",""
"html-keyboard-response","201","970742","0.0-4.0-2.0-1.43","spark_pilot_2","7485","3","21","Male","","","","","","","null","<div style=""font-size:60px;"">+</div>","null","fixation","","","","","","","","","","","87","","",""
"revaluation","202","976750","0.0-4.0-2.0-0.44","spark_pilot_2","7485","3","21","Male","","","false","","","","[938.2000000476837,289.90000009536743]","./assets/img/ocean/memory/13.jpg","[""ArrowDown"",""ArrowRight""]","value training","ocean","30","{""ArrowUp,ArrowLeft"":23,""ArrowUp,ArrowRight"":10,""ArrowDown,ArrowLeft"":8,""ArrowDown,ArrowRight"":30}","true","ArrowDown,ArrowRight","false","","","original","1","88","","",""
"html-keyboard-response","203","977251","0.0-4.0-2.0-1.44","spark_pilot_2","7485","3","21","Male","","","","","","","null","<div style=""font-size:60px;"">+</div>","null","fixation","","","","","","","","","","","89","","",""
"revaluation","204","983256","0.0-4.0-2.0-0.45","spark_pilot_2","7485","3","21","Male","","","false","","","","[544.3000000715256,447.39999997615814]","./assets/img/ocean/memory/18.jpg","[""ArrowDown"",""ArrowRight""]","value training","ocean","30","{""ArrowUp,ArrowLeft"":23,""ArrowUp,ArrowRight"":10,""ArrowDown,ArrowLeft"":8,""ArrowDown,ArrowRight"":30}","true","ArrowDown,ArrowRight","false","","","original","1","90","","",""
"html-keyboard-response","205","983757","0.0-4.0-2.0-1.45","spark_pilot_2","7485","3","21","Male","","","","","","","null","<div style=""font-size:60px;"">+</div>","null","fixation","","","","","","","","","","","91","","",""
"revaluation","206","989763","0.0-4.0-2.0-0.46","spark_pilot_2","7485","3","21","Male","","","false","","","","[783.5999999046326,240.10000002384186]","./assets/img/ocean/memory/10.jpg","[""ArrowDown"",""ArrowRight""]","value training","ocean","30","{""ArrowUp,ArrowLeft"":23,""ArrowUp,ArrowRight"":10,""ArrowDown,ArrowLeft"":8,""ArrowDown,ArrowRight"":30}","true","ArrowDown,ArrowRight","false","","","original","1","92","","",""
"html-keyboard-response","207","990265","0.0-4.0-2.0-1.46","spark_pilot_2","7485","3","21","Male","","","","","","","null","<div style=""font-size:60px;"">+</div>","null","fixation","","","","","","","","","","","93","","",""
"revaluation","208","994269","0.0-4.0-2.0-0.47","spark_pilot_2","7485","3","21","Male","","","false","","","","[613.5]","./assets/img/ocean/catch/1.jpg","[""spaceBar""]","value training","ocean","0","{""ArrowUp,ArrowLeft"":23,""ArrowUp,ArrowRight"":10,""ArrowDown,ArrowLeft"":8,""ArrowDown,ArrowRight"":30}","true","spaceBar","true","","","original","1","94","","",""
"html-keyboard-response","209","994771","0.0-4.0-2.0-1.47","spark_pilot_2","7485","3","21","Male","","","","","","","null","<div style=""font-size:60px;"">+</div>","null","fixation","","","","","","","","","","","95","","",""
"revaluation","210","998774","0.0-4.0-2.0-0.48","spark_pilot_2","7485","3","21","Male","","","false","","","","[470.6999999284744]","./assets/img/ocean/catch/0.jpg","[""spaceBar""]","value training","ocean","0","{""ArrowUp,ArrowLeft"":23,""ArrowUp,ArrowRight"":10,""ArrowDown,ArrowLeft"":8,""ArrowDown,ArrowRight"":30}","true","spaceBar","true","","","original","1","96","","",""
"html-keyboard-response","211","999275","0.0-4.0-2.0-1.48","spark_pilot_2","7485","3","21","Male","","","","","","","null","<div style=""font-size:60px;"">+</div>","null","fixation","","","","","","","","","","","97","","",""
"revaluation","212","1005281","0.0-4.0-2.0-0.49","spark_pilot_2","7485","3","21","Male","","","false","","","","[733.7999999523163,373.60000002384186]","./assets/img/ocean/memory/13.jpg","[""ArrowDown"",""ArrowRight""]","value training","ocean","30","{""ArrowUp,ArrowLeft"":23,""ArrowUp,ArrowRight"":10,""ArrowDown,ArrowLeft"":8,""ArrowDown,ArrowRight"":30}","true","ArrowDown,ArrowRight","false","","","original","1","98","","",""
"html-keyboard-response","213","1005783","0.0-4.0-2.0-1.49","spark_pilot_2","7485","3","21","Male","","","","","","","null","<div style=""font-size:60px;"">+</div>","null","fixation","","","","","","","","","","","99","","",""
"learning-instructions","214","1020112","0.0-4.0-3.0-0.0","spark_pilot_2","7485","3","21","Male","","","","","","","1428.6000000238419","<p> Now, you will travel with a friend who will choose whether you go up or down first. </p>
            <p> On these turns, you will just see the animal that they found. You will still get to choose which chest to search for treasure.</p>","","instructions","","","","","","","","","","","","","",""
"revaluation","215","1024130","0.0-4.0-4.0-0.0","spark_pilot_2","7485","3","21","Male","","","false","","","","[867.8000000715256]","./assets/img/ocean/animals/seahorse.jpg","[""ArrowRight""]","revaluation","ocean","30","{""ArrowUp,ArrowLeft"":23,""ArrowUp,ArrowRight"":10,""ArrowDown,ArrowLeft"":8,""ArrowDown,ArrowRight"":30}","true","ArrowDown,ArrowRight","","","","original","1","0","","",""
"html-keyboard-response","216","1024643","0.0-4.0-4.0-1.0","spark_pilot_2","7485","3","21","Male","","","","","","","null","<div style=""font-size:60px;"">+</div>","null","fixation","","","","","","","","","","","1","","",""
"revaluation","217","1028656","0.0-4.0-4.0-0.1","spark_pilot_2","7485","3","21","Male","","","false","","","","[705.8000000715256]","./assets/img/ocean/animals/octopus.jpg","[""ArrowRight""]","revaluation","ocean","10","{""ArrowUp,ArrowLeft"":23,""ArrowUp,ArrowRight"":10,""ArrowDown,ArrowLeft"":8,""ArrowDown,ArrowRight"":30}","false","ArrowUp,ArrowRight","","","","original","1","2","","",""
"html-keyboard-response","218","1029166","0.0-4.0-4.0-1.1","spark_pilot_2","7485","3","21","Male","","","","","","","null","<div style=""font-size:60px;"">+</div>","null","fixation","","","","","","","","","","","3","","",""
"revaluation","219","1033175","0.0-4.0-4.0-0.2","spark_pilot_2","7485","3","21","Male","","","false","","","","[490.60000002384186]","./assets/img/ocean/animals/octopus.jpg","[""ArrowLeft""]","revaluation","ocean","23","{""ArrowUp,ArrowLeft"":23,""ArrowUp,ArrowRight"":10,""ArrowDown,ArrowLeft"":8,""ArrowDown,ArrowRight"":30}","true","ArrowUp,ArrowLeft","","","","original","1","4","","",""
"html-keyboard-response","220","1033687","0.0-4.0-4.0-1.2","spark_pilot_2","7485","3","21","Male","","","","","","","null","<div style=""font-size:60px;"">+</div>","null","fixation","","","","","","","","","","","5","","",""
"revaluation","221","1037707","0.0-4.0-4.0-0.3","spark_pilot_2","7485","3","21","Male","","","false","","","","[651.6999999284744]","./assets/img/ocean/animals/octopus.jpg","[""ArrowLeft""]","revaluation","ocean","23","{""ArrowUp,ArrowLeft"":23,""ArrowUp,ArrowRight"":10,""ArrowDown,ArrowLeft"":8,""ArrowDown,ArrowRight"":30}","true","ArrowUp,ArrowLeft","","","","original","1","6","","",""
"html-keyboard-response","222","1038217","0.0-4.0-4.0-1.3","spark_pilot_2","7485","3","21","Male","","","","","","","null","<div style=""font-size:60px;"">+</div>","null","fixation","","","","","","","","","","","7","","",""
"revaluation","223","1042224","0.0-4.0-4.0-0.4","spark_pilot_2","7485","3","21","Male","","","false","","","","[530.5]","./assets/img/ocean/animals/octopus.jpg","[""ArrowLeft""]","revaluation","ocean","23","{""ArrowUp,ArrowLeft"":23,""ArrowUp,ArrowRight"":10,""ArrowDown,ArrowLeft"":8,""ArrowDown,ArrowRight"":30}","true","ArrowUp,ArrowLeft","","","","original","1","8","","",""
"html-keyboard-response","224","1042737","0.0-4.0-4.0-1.4","spark_pilot_2","7485","3","21","Male","","","","","","","null","<div style=""font-size:60px;"">+</div>","null","fixation","","","","","","","","","","","9","","",""
"revaluation","225","1046746","0.0-4.0-4.0-0.5","spark_pilot_2","7485","3","21","Male","","","false","","","","[491.7999999523163]","./assets/img/ocean/animals/octopus.jpg","[""ArrowLeft""]","revaluation","ocean","23","{""ArrowUp,ArrowLeft"":23,""ArrowUp,ArrowRight"":10,""ArrowDown,ArrowLeft"":8,""ArrowDown,ArrowRight"":30}","true","ArrowUp,ArrowLeft","","","","original","1","10","","",""
"html-keyboard-response","226","1047259","0.0-4.0-4.0-1.5","spark_pilot_2","7485","3","21","Male","","","","","","","null","<div style=""font-size:60px;"">+</div>","null","fixation","","","","","","","","","","","11","","",""
"revaluation","227","1051263","0.0-4.0-4.0-0.6","spark_pilot_2","7485","3","21","Male","","","false","","","","[492.1999999284744]","./assets/img/ocean/animals/octopus.jpg","[""ArrowLeft""]","revaluation","ocean","23","{""ArrowUp,ArrowLeft"":23,""ArrowUp,ArrowRight"":10,""ArrowDown,ArrowLeft"":8,""ArrowDown,ArrowRight"":30}","true","ArrowUp,ArrowLeft","","","","original","1","12","","",""
"html-keyboard-response","228","1051769","0.0-4.0-4.0-1.6","spark_pilot_2","7485","3","21","Male","","","","","","","null","<div style=""font-size:60px;"">+</div>","null","fixation","","","","","","","","","","","13","","",""
"revaluation","229","1055774","0.0-4.0-4.0-0.7","spark_pilot_2","7485","3","21","Male","","","false","","","","[462.2000000476837]","./assets/img/ocean/animals/seahorse.jpg","[""ArrowRight""]","revaluation","ocean","30","{""ArrowUp,ArrowLeft"":23,""ArrowUp,ArrowRight"":10,""ArrowDown,ArrowLeft"":8,""ArrowDown,ArrowRight"":30}","true","ArrowDown,ArrowRight","","","","original","1","14","","",""
"html-keyboard-response","230","1056274","0.0-4.0-4.0-1.7","spark_pilot_2","7485","3","21","Male","","","","","","","null","<div style=""font-size:60px;"">+</div>","null","fixation","","","","","","","","","","","15","","",""
"revaluation","231","1060279","0.0-4.0-4.0-0.8","spark_pilot_2","7485","3","21","Male","","","false","","","","[766]","./assets/img/ocean/animals/seahorse.jpg","[""ArrowRight""]","revaluation","ocean","30","{""ArrowUp,ArrowLeft"":23,""ArrowUp,ArrowRight"":10,""ArrowDown,ArrowLeft"":8,""ArrowDown,ArrowRight"":30}","true","ArrowDown,ArrowRight","","","","original","1","16","","",""
"html-keyboard-response","232","1060780","0.0-4.0-4.0-1.8","spark_pilot_2","7485","3","21","Male","","","","","","","null","<div style=""font-size:60px;"">+</div>","null","fixation","","","","","","","","","","","17","","",""
"revaluation","233","1064785","0.0-4.0-4.0-0.9","spark_pilot_2","7485","3","21","Male","","","false","","","","[591.8999999761581]","./assets/img/ocean/animals/octopus.jpg","[""ArrowLeft""]","revaluation","ocean","23","{""ArrowUp,ArrowLeft"":23,""ArrowUp,ArrowRight"":10,""ArrowDown,ArrowLeft"":8,""ArrowDown,ArrowRight"":30}","true","ArrowUp,ArrowLeft","","","","original","1","18","","",""
"html-keyboard-response","234","1065286","0.0-4.0-4.0-1.9","spark_pilot_2","7485","3","21","Male","","","","","","","null","<div style=""font-size:60px;"">+</div>","null","fixation","","","","","","","","","","","19","","",""
"revaluation","235","1069291","0.0-4.0-4.0-0.10","spark_pilot_2","7485","3","21","Male","","","false","","","","[550.4000000953674]","./assets/img/ocean/animals/seahorse.jpg","[""ArrowRight""]","revaluation","ocean","30","{""ArrowUp,ArrowLeft"":23,""ArrowUp,ArrowRight"":10,""ArrowDown,ArrowLeft"":8,""ArrowDown,ArrowRight"":30}","true","ArrowDown,ArrowRight","","","","original","1","20","","",""
"html-keyboard-response","236","1069792","0.0-4.0-4.0-1.10","spark_pilot_2","7485","3","21","Male","","","","","","","null","<div style=""font-size:60px;"">+</div>","null","fixation","","","","","","","","","","","21","","",""
"revaluation","237","1073797","0.0-4.0-4.0-0.11","spark_pilot_2","7485","3","21","Male","","","false","","","","[454.39999997615814]","./assets/img/ocean/animals/seahorse.jpg","[""ArrowRight""]","revaluation","ocean","30","{""ArrowUp,ArrowLeft"":23,""ArrowUp,ArrowRight"":10,""ArrowDown,ArrowLeft"":8,""ArrowDown,ArrowRight"":30}","true","ArrowDown,ArrowRight","","","","original","1","22","","",""
"html-keyboard-response","238","1074299","0.0-4.0-4.0-1.11","spark_pilot_2","7485","3","21","Male","","","","","","","null","<div style=""font-size:60px;"">+</div>","null","fixation","","","","","","","","","","","23","","",""
"revaluation","239","1078304","0.0-4.0-4.0-0.12","spark_pilot_2","7485","3","21","Male","","","false","","","","[589.3999999761581]","./assets/img/ocean/animals/seahorse.jpg","[""ArrowRight""]","revaluation","ocean","30","{""ArrowUp,ArrowLeft"":23,""ArrowUp,ArrowRight"":10,""ArrowDown,ArrowLeft"":8,""ArrowDown,ArrowRight"":30}","true","ArrowDown,ArrowRight","","","","original","1","24","","",""
"html-keyboard-response","240","1078805","0.0-4.0-4.0-1.12","spark_pilot_2","7485","3","21","Male","","","","","","","null","<div style=""font-size:60px;"">+</div>","null","fixation","","","","","","","","","","","25","","",""
"revaluation","241","1082811","0.0-4.0-4.0-0.13","spark_pilot_2","7485","3","21","Male","","","false","","","","[460]","./assets/img/ocean/animals/seahorse.jpg","[""ArrowRight""]","revaluation","ocean","30","{""ArrowUp,ArrowLeft"":23,""ArrowUp,ArrowRight"":10,""ArrowDown,ArrowLeft"":8,""ArrowDown,ArrowRight"":30}","true","ArrowDown,ArrowRight","","","","original","1","26","","",""
"html-keyboard-response","242","1083313","0.0-4.0-4.0-1.13","spark_pilot_2","7485","3","21","Male","","","","","","","null","<div style=""font-size:60px;"">+</div>","null","fixation","","","","","","","","","","","27","","",""
"revaluation","243","1087319","0.0-4.0-4.0-0.14","spark_pilot_2","7485","3","21","Male","","","false","","","","[450.6999999284744]","./assets/img/ocean/animals/seahorse.jpg","[""ArrowRight""]","revaluation","ocean","30","{""ArrowUp,ArrowLeft"":23,""ArrowUp,ArrowRight"":10,""ArrowDown,ArrowLeft"":8,""ArrowDown,ArrowRight"":30}","true","ArrowDown,ArrowRight","","","","original","1","28","","",""
"html-keyboard-response","244","1087821","0.0-4.0-4.0-1.14","spark_pilot_2","7485","3","21","Male","","","","","","","null","<div style=""font-size:60px;"">+</div>","null","fixation","","","","","","","","","","","29","","",""
"revaluation","245","1091826","0.0-4.0-4.0-0.15","spark_pilot_2","7485","3","21","Male","","","false","","","","[471.39999997615814]","./assets/img/ocean/animals/seahorse.jpg","[""ArrowRight""]","revaluation","ocean","30","{""ArrowUp,ArrowLeft"":23,""ArrowUp,ArrowRight"":10,""ArrowDown,ArrowLeft"":8,""ArrowDown,ArrowRight"":30}","true","ArrowDown,ArrowRight","","","","original","1","30","","",""
"html-keyboard-response","246","1092328","0.0-4.0-4.0-1.15","spark_pilot_2","7485","3","21","Male","","","","","","","null","<div style=""font-size:60px;"">+</div>","null","fixation","","","","","","","","","","","31","","",""
"revaluation","247","1096333","0.0-4.0-4.0-0.16","spark_pilot_2","7485","3","21","Male","","","false","","","","[750.7999999523163]","./assets/img/ocean/animals/octopus.jpg","[""ArrowLeft""]","revaluation","ocean","23","{""ArrowUp,ArrowLeft"":23,""ArrowUp,ArrowRight"":10,""ArrowDown,ArrowLeft"":8,""ArrowDown,ArrowRight"":30}","true","ArrowUp,ArrowLeft","","","","original","1","32","","",""
"html-keyboard-response","248","1096834","0.0-4.0-4.0-1.16","spark_pilot_2","7485","3","21","Male","","","","","","","null","<div style=""font-size:60px;"">+</div>","null","fixation","","","","","","","","","","","33","","",""
"revaluation","249","1100839","0.0-4.0-4.0-0.17","spark_pilot_2","7485","3","21","Male","","","false","","","","[431.2999999523163]","./assets/img/ocean/animals/octopus.jpg","[""ArrowLeft""]","revaluation","ocean","23","{""ArrowUp,ArrowLeft"":23,""ArrowUp,ArrowRight"":10,""ArrowDown,ArrowLeft"":8,""ArrowDown,ArrowRight"":30}","true","ArrowUp,ArrowLeft","","","","original","1","34","","",""
"html-keyboard-response","250","1101340","0.0-4.0-4.0-1.17","spark_pilot_2","7485","3","21","Male","","","","","","","null","<div style=""font-size:60px;"">+</div>","null","fixation","","","","","","","","","","","35","","",""
"learning-instructions","251","1113453","0.0-4.0-5.0-0.0","spark_pilot_2","7485","3","21","Male","","","","","","","739.6000000238419","<p> Time to play the dot game! </p>
            <p> For one minute, click the red dots on the following screen as they appear. </p>
            <p><b> Don't look away, as you will earn bonus for clicking dots</b>. </p>","","instructions","","","","","","","","","","","","","",""
"revaluation","252","1173459","0.0-4.0-6.0-0.0","spark_pilot_2","7485","3","21","Male","","","","","","","[43,55,52,60,40,48]","","","rest","","60","","","","","0","60000","","","","","",""
"learning-instructions","253","1180611","0.0-4.0-7.0-0.0","spark_pilot_2","7485","3","21","Male","","","","","","","1008.6999999284744","<p> You have almost finished this part of the game! </p>
            <p> We are going to ask you to make a few more choices. </p>","","instructions","","","","","","","","","","","","","",""
"learning-instructions","254","1195618","0.0-4.0-7.0-0.1","spark_pilot_2","7485","3","21","Male","","","","","","","1025.2000000476837","<p> First, you need to decide whether to go up or down. When you see each picture, use the arrow keys to make your choice. </p>
            <p><b>You will not see which animal you found, but try to get to the one that will give you the most treasure.</b></p>","","instructions","","","","","","","","","","","","","",""
"revaluation","255","1196716","0.0-4.0-8.0-0.0","spark_pilot_2","7485","3","21","Male","","","false","","","","[1096.7999999523163]","./assets/img/ocean/test/3.jpg","[""ArrowDown""]","first stage test","ocean","0","{""ArrowUp,ArrowLeft"":23,""ArrowUp,ArrowRight"":10,""ArrowDown,ArrowLeft"":8,""ArrowDown,ArrowRight"":30}","true","ArrowDown","false","","","original","1","","","",""
"html-keyboard-response","256","1197229","0.0-4.0-8.0-1.0","spark_pilot_2","7485","3","21","Male","","","","","","","null","<div style=""font-size:60px;"">+</div>","null","fixation","","","","","","","","","","","","","",""
"revaluation","257","1198302","0.0-4.0-8.0-0.1","spark_pilot_2","7485","3","21","Male","","","false","","","","[1068.5]","./assets/img/ocean/test/0.jpg","[""ArrowDown""]","first stage test","ocean","0","{""ArrowUp,ArrowLeft"":23,""ArrowUp,ArrowRight"":10,""ArrowDown,ArrowLeft"":8,""ArrowDown,ArrowRight"":30}","true","ArrowDown","false","","","original","1","","","",""
"html-keyboard-response","258","1198813","0.0-4.0-8.0-1.1","spark_pilot_2","7485","3","21","Male","","","","","","","null","<div style=""font-size:60px;"">+</div>","null","fixation","","","","","","","","","","","","","",""
"revaluation","259","1199583","0.0-4.0-8.0-0.2","spark_pilot_2","7485","3","21","Male","","","false","","","","[766.8999999761581]","./assets/img/ocean/test/2.jpg","[""ArrowDown""]","first stage test","ocean","0","{""ArrowUp,ArrowLeft"":23,""ArrowUp,ArrowRight"":10,""ArrowDown,ArrowLeft"":8,""ArrowDown,ArrowRight"":30}","true","ArrowDown","false","","","original","1","","","",""
"html-keyboard-response","260","1200087","0.0-4.0-8.0-1.2","spark_pilot_2","7485","3","21","Male","","","","","","","null","<div style=""font-size:60px;"">+</div>","null","fixation","","","","","","","","","","","","","",""
"revaluation","261","1200594","0.0-4.0-8.0-0.3","spark_pilot_2","7485","3","21","Male","","","false","","","","[504.2999999523163]","./assets/img/ocean/test/1.jpg","[""ArrowDown""]","first stage test","ocean","0","{""ArrowUp,ArrowLeft"":23,""ArrowUp,ArrowRight"":10,""ArrowDown,ArrowLeft"":8,""ArrowDown,ArrowRight"":30}","true","ArrowDown","false","","","original","1","","","",""
"html-keyboard-response","262","1201100","0.0-4.0-8.0-1.3","spark_pilot_2","7485","3","21","Male","","","","","","","null","<div style=""font-size:60px;"">+</div>","null","fixation","","","","","","","","","","","","","",""
"learning-instructions","263","1213099","0.0-4.0-9.0-0.0","spark_pilot_2","7485","3","21","Male","","","","","","","656.1999999284744","<p> Now you will see the animals again and can search their chests for treasure. </p>
            <p> This time, you will not see how much treasure you earned, but you will earn more bonus money for making better choices. </p>","","instructions","","","","","","","","","","","","","",""
"revaluation","264","1214087","0.0-4.0-10.0-0.0","spark_pilot_2","7485","3","21","Male","","","false","","","","[987.4000000953674]","./assets/img/ocean/animals/octopus.jpg","[""ArrowRight""]","second stage test","ocean","0","{""ArrowUp,ArrowLeft"":23,""ArrowUp,ArrowRight"":10,""ArrowDown,ArrowLeft"":8,""ArrowDown,ArrowRight"":30}","false","ArrowUp,ArrowRight","","","","original","1","","","",""
"html-keyboard-response","265","1214598","0.0-4.0-10.0-1.0","spark_pilot_2","7485","3","21","Male","","","","","","","null","<div style=""font-size:60px;"">+</div>","null","fixation","","","","","","","","","","","","","",""
"revaluation","266","1215291","0.0-4.0-10.0-0.1","spark_pilot_2","7485","3","21","Male","","","false","","","","[689.5]","./assets/img/ocean/animals/octopus.jpg","[""ArrowLeft""]","second stage test","ocean","0","{""ArrowUp,ArrowLeft"":23,""ArrowUp,ArrowRight"":10,""ArrowDown,ArrowLeft"":8,""ArrowDown,ArrowRight"":30}","true","ArrowUp,ArrowLeft","","","","original","1","","","",""
"html-keyboard-response","267","1215797","0.0-4.0-10.0-1.1","spark_pilot_2","7485","3","21","Male","","","","","","","null","<div style=""font-size:60px;"">+</div>","null","fixation","","","","","","","","","","","","","",""
"revaluation","268","1216422","0.0-4.0-10.0-0.2","spark_pilot_2","7485","3","21","Male","","","false","","","","[621.7000000476837]","./assets/img/ocean/animals/octopus.jpg","[""ArrowLeft""]","second stage test","ocean","0","{""ArrowUp,ArrowLeft"":23,""ArrowUp,ArrowRight"":10,""ArrowDown,ArrowLeft"":8,""ArrowDown,ArrowRight"":30}","true","ArrowUp,ArrowLeft","","","","original","1","","","",""
"html-keyboard-response","269","1216932","0.0-4.0-10.0-1.2","spark_pilot_2","7485","3","21","Male","","","","","","","null","<div style=""font-size:60px;"">+</div>","null","fixation","","","","","","","","","","","","","",""
"revaluation","270","1217633","0.0-4.0-10.0-0.3","spark_pilot_2","7485","3","21","Male","","","false","","","","[697.3999999761581]","./assets/img/ocean/animals/octopus.jpg","[""ArrowLeft""]","second stage test","ocean","0","{""ArrowUp,ArrowLeft"":23,""ArrowUp,ArrowRight"":10,""ArrowDown,ArrowLeft"":8,""ArrowDown,ArrowRight"":30}","true","ArrowUp,ArrowLeft","","","","original","1","","","",""
"html-keyboard-response","271","1218146","0.0-4.0-10.0-1.3","spark_pilot_2","7485","3","21","Male","","","","","","","null","<div style=""font-size:60px;"">+</div>","null","fixation","","","","","","","","","","","","","",""
"revaluation","272","1218538","0.0-4.0-10.0-0.4","spark_pilot_2","7485","3","21","Male","","","false","","","","[388.5]","./assets/img/ocean/animals/seahorse.jpg","[""ArrowRight""]","second stage test","ocean","0","{""ArrowUp,ArrowLeft"":23,""ArrowUp,ArrowRight"":10,""ArrowDown,ArrowLeft"":8,""ArrowDown,ArrowRight"":30}","true","ArrowDown,ArrowRight","","","","original","1","","","",""
"html-keyboard-response","273","1219039","0.0-4.0-10.0-1.4","spark_pilot_2","7485","3","21","Male","","","","","","","null","<div style=""font-size:60px;"">+</div>","null","fixation","","","","","","","","","","","","","",""
"revaluation","274","1219572","0.0-4.0-10.0-0.5","spark_pilot_2","7485","3","21","Male","","","false","","","","[529.7000000476837]","./assets/img/ocean/animals/seahorse.jpg","[""ArrowRight""]","second stage test","ocean","0","{""ArrowUp,ArrowLeft"":23,""ArrowUp,ArrowRight"":10,""ArrowDown,ArrowLeft"":8,""ArrowDown,ArrowRight"":30}","true","ArrowDown,ArrowRight","","","","original","1","","","",""
"html-keyboard-response","275","1220082","0.0-4.0-10.0-1.5","spark_pilot_2","7485","3","21","Male","","","","","","","null","<div style=""font-size:60px;"">+</div>","null","fixation","","","","","","","","","","","","","",""
"revaluation","276","1220592","0.0-4.0-10.0-0.6","spark_pilot_2","7485","3","21","Male","","","false","","","","[506.2999999523163]","./assets/img/ocean/animals/seahorse.jpg","[""ArrowRight""]","second stage test","ocean","0","{""ArrowUp,ArrowLeft"":23,""ArrowUp,ArrowRight"":10,""ArrowDown,ArrowLeft"":8,""ArrowDown,ArrowRight"":30}","true","ArrowDown,ArrowRight","","","","original","1","","","",""
"html-keyboard-response","277","1221094","0.0-4.0-10.0-1.6","spark_pilot_2","7485","3","21","Male","","","","","","","null","<div style=""font-size:60px;"">+</div>","null","fixation","","","","","","","","","","","","","",""
"revaluation","278","1221522","0.0-4.0-10.0-0.7","spark_pilot_2","7485","3","21","Male","","","false","","","","[426.2999999523163]","./assets/img/ocean/animals/seahorse.jpg","[""ArrowRight""]","second stage test","ocean","0","{""ArrowUp,ArrowLeft"":23,""ArrowUp,ArrowRight"":10,""ArrowDown,ArrowLeft"":8,""ArrowDown,ArrowRight"":30}","true","ArrowDown,ArrowRight","","","","original","1","","","",""
"html-keyboard-response","279","1222029","0.0-4.0-10.0-1.7","spark_pilot_2","7485","3","21","Male","","","","","","","null","<div style=""font-size:60px;"">+</div>","null","fixation","","","","","","","","","","","","","",""
"learning-instructions","280","1226233","0.0-4.0-0.1-0.2","spark_pilot_2","7485","3","21","Male","","","","","","","1430.2999999523163","<p> This time you are searching for treasure in the <b>canyon</b>.</p>","","instructions","","","","","","","","","","","","","",""
"learning-instructions","281","1245083","0.0-4.0-0.1-0.3","spark_pilot_2","7485","3","21","Male","","","","","","","1600.7999999523163","<p><b>New</b> animals with <b>new</b> treasure chests live here. You need to explore to discover where the animal with the best treasure chest is.</p>
                    <p> Like before, once you figure out which animal has the chest with the most treasure, you should try to get to that animal and select that chest! </p>","","instructions","","","","","","","","","","","","","",""
"learning-instructions","282","1260648","0.0-4.0-1.1-0.1","spark_pilot_2","7485","3","21","Male","","","","","","","836.1000000238419","<p> Remember, when you see a picture of the place, use the up and down keys to <b>find an animal</b>.</p>
            <p> When you encounter an animal, you should use the left and right keys to <b>select a treasure chest</b>.</p>
            <p> Don't forget to look out for the robber! </p>","","instructions","","","","","","","","","","","","","",""
"revaluation","283","1266672","0.0-4.0-2.1-0.50","spark_pilot_2","7485","3","21","Male","","","false","","","","[1207.3999999761581,898.8999999761581]","./assets/img/canyon/memory/26.jpg","[""ArrowUp"",""ArrowRight""]","value training","canyon","10","{""ArrowUp,ArrowLeft"":26,""ArrowUp,ArrowRight"":10,""ArrowDown,ArrowLeft"":5,""ArrowDown,ArrowRight"":17}","false","ArrowUp,ArrowRight","false","","","revaluation","2","0","","",""
"html-keyboard-response","284","1267183","0.0-4.0-2.1-1.50","spark_pilot_2","7485","3","21","Male","","","","","","","null","<div style=""font-size:60px;"">+</div>","null","fixation","","","","","","","","","","","1","","",""
"revaluation","285","1273211","0.0-4.0-2.1-0.51","spark_pilot_2","7485","3","21","Male","","","false","","","","[657.5,490.7999999523163]","./assets/img/canyon/memory/5.jpg","[""ArrowDown"",""ArrowRight""]","value training","canyon","17","{""ArrowUp,ArrowLeft"":26,""ArrowUp,ArrowRight"":10,""ArrowDown,ArrowLeft"":5,""ArrowDown,ArrowRight"":17}","false","ArrowDown,ArrowRight","false","","","revaluation","2","2","","",""
"html-keyboard-response","286","1273722","0.0-4.0-2.1-1.51","spark_pilot_2","7485","3","21","Male","","","","","","","null","<div style=""font-size:60px;"">+</div>","null","fixation","","","","","","","","","","","3","","",""
"revaluation","287","1279750","0.0-4.0-2.1-0.52","spark_pilot_2","7485","3","21","Male","","","false","","","","[553.5,437.39999997615814]","./assets/img/canyon/memory/29.jpg","[""ArrowUp"",""ArrowLeft""]","value training","canyon","26","{""ArrowUp,ArrowLeft"":26,""ArrowUp,ArrowRight"":10,""ArrowDown,ArrowLeft"":5,""ArrowDown,ArrowRight"":17}","true","ArrowUp,ArrowLeft","false","","","revaluation","2","4","","",""
"html-keyboard-response","288","1280265","0.0-4.0-2.1-1.52","spark_pilot_2","7485","3","21","Male","","","","","","","null","<div style=""font-size:60px;"">+</div>","null","fixation","","","","","","","","","","","5","","",""
"revaluation","289","1286285","0.0-4.0-2.1-0.53","spark_pilot_2","7485","3","21","Male","","","false","","","","[797,822.6999999284744]","./assets/img/canyon/memory/3.jpg","[""ArrowDown"",""ArrowLeft""]","value training","canyon","5","{""ArrowUp,ArrowLeft"":26,""ArrowUp,ArrowRight"":10,""ArrowDown,ArrowLeft"":5,""ArrowDown,ArrowRight"":17}","false","ArrowDown,ArrowLeft","false","","","revaluation","2","6","","",""
"html-keyboard-response","290","1286798","0.0-4.0-2.1-1.53","spark_pilot_2","7485","3","21","Male","","","","","","","null","<div style=""font-size:60px;"">+</div>","null","fixation","","","","","","","","","","","7","","",""
"revaluation","291","1292818","0.0-4.0-2.1-0.54","spark_pilot_2","7485","3","21","Male","","","false","","","","[571.4000000953674,476.5]","./assets/img/canyon/memory/33.jpg","[""ArrowUp"",""ArrowLeft""]","value training","canyon","26","{""ArrowUp,ArrowLeft"":26,""ArrowUp,ArrowRight"":10,""ArrowDown,ArrowLeft"":5,""ArrowDown,ArrowRight"":17}","true","ArrowUp,ArrowLeft","false","","","revaluation","2","8","","",""
"html-keyboard-response","292","1293319","0.0-4.0-2.1-1.54","spark_pilot_2","7485","3","21","Male","","","","","","","null","<div style=""font-size:60px;"">+</div>","null","fixation","","","","","","","","","","","9","","",""
"revaluation","293","1299325","0.0-4.0-2.1-0.55","spark_pilot_2","7485","3","21","Male","","","false","","","","[1146.7000000476837,930.3999999761581]","./assets/img/canyon/memory/24.jpg","[""ArrowUp"",""ArrowLeft""]","value training","canyon","26","{""ArrowUp,ArrowLeft"":26,""ArrowUp,ArrowRight"":10,""ArrowDown,ArrowLeft"":5,""ArrowDown,ArrowRight"":17}","true","ArrowUp,ArrowLeft","false","","","revaluation","2","10","","",""
"html-keyboard-response","294","1299825","0.0-4.0-2.1-1.55","spark_pilot_2","7485","3","21","Male","","","","","","","null","<div style=""font-size:60px;"">+</div>","null","fixation","","","","","","","","","","","11","","",""
"revaluation","295","1305833","0.0-4.0-2.1-0.56","spark_pilot_2","7485","3","21","Male","","","false","","","","[731.6999999284744,754.1000000238419]","./assets/img/canyon/memory/15.jpg","[""ArrowUp"",""ArrowLeft""]","value training","canyon","26","{""ArrowUp,ArrowLeft"":26,""ArrowUp,ArrowRight"":10,""ArrowDown,ArrowLeft"":5,""ArrowDown,ArrowRight"":17}","true","ArrowUp,ArrowLeft","false","","","revaluation","2","12","","",""
"html-keyboard-response","296","1306334","0.0-4.0-2.1-1.56","spark_pilot_2","7485","3","21","Male","","","","","","","null","<div style=""font-size:60px;"">+</div>","null","fixation","","","","","","","","","","","13","","",""
"revaluation","297","1312340","0.0-4.0-2.1-0.57","spark_pilot_2","7485","3","21","Male","","","false","","","","[713.2000000476837,505.09999990463257]","./assets/img/canyon/memory/37.jpg","[""ArrowUp"",""ArrowLeft""]","value training","canyon","26","{""ArrowUp,ArrowLeft"":26,""ArrowUp,ArrowRight"":10,""ArrowDown,ArrowLeft"":5,""ArrowDown,ArrowRight"":17}","true","ArrowUp,ArrowLeft","false","","","revaluation","2","14","","",""
"html-keyboard-response","298","1312841","0.0-4.0-2.1-1.57","spark_pilot_2","7485","3","21","Male","","","","","","","null","<div style=""font-size:60px;"">+</div>","null","fixation","","","","","","","","","","","15","","",""
"revaluation","299","1318845","0.0-4.0-2.1-0.58","spark_pilot_2","7485","3","21","Male","","","false","","","","[769.8999999761581,339.39999997615814]","./assets/img/canyon/memory/16.jpg","[""ArrowUp"",""ArrowLeft""]","value training","canyon","26","{""ArrowUp,ArrowLeft"":26,""ArrowUp,ArrowRight"":10,""ArrowDown,ArrowLeft"":5,""ArrowDown,ArrowRight"":17}","true","ArrowUp,ArrowLeft","false","","","revaluation","2","16","","",""
"html-keyboard-response","300","1319346","0.0-4.0-2.1-1.58","spark_pilot_2","7485","3","21","Male","","","","","","","null","<div style=""font-size:60px;"">+</div>","null","fixation","","","","","","","","","","","17","","",""
"revaluation","301","1325354","0.0-4.0-2.1-0.59","spark_pilot_2","7485","3","21","Male","","","false","","","","[785.3999999761581,816.1000000238419]","./assets/img/canyon/memory/26.jpg","[""ArrowUp"",""ArrowLeft""]","value training","canyon","26","{""ArrowUp,ArrowLeft"":26,""ArrowUp,ArrowRight"":10,""ArrowDown,ArrowLeft"":5,""ArrowDown,ArrowRight"":17}","true","ArrowUp,ArrowLeft","false","","","revaluation","2","18","","",""
"html-keyboard-response","302","1325854","0.0-4.0-2.1-1.59","spark_pilot_2","7485","3","21","Male","","","","","","","null","<div style=""font-size:60px;"">+</div>","null","fixation","","","","","","","","","","","19","","",""
"revaluation","303","1331863","0.0-4.0-2.1-0.60","spark_pilot_2","7485","3","21","Male","","","false","","","","[753,401.60000002384186]","./assets/img/canyon/memory/13.jpg","[""ArrowUp"",""ArrowLeft""]","value training","canyon","26","{""ArrowUp,ArrowLeft"":26,""ArrowUp,ArrowRight"":10,""ArrowDown,ArrowLeft"":5,""ArrowDown,ArrowRight"":17}","true","ArrowUp,ArrowLeft","false","","","revaluation","2","20","","",""
"html-keyboard-response","304","1332365","0.0-4.0-2.1-1.60","spark_pilot_2","7485","3","21","Male","","","","","","","null","<div style=""font-size:60px;"">+</div>","null","fixation","","","","","","","","","","","21","","",""
"revaluation","305","1338372","0.0-4.0-2.1-0.61","spark_pilot_2","7485","3","21","Male","","","false","","","","[819.6000000238419,228.39999997615814]","./assets/img/canyon/memory/29.jpg","[""ArrowUp"",""ArrowLeft""]","value training","canyon","26","{""ArrowUp,ArrowLeft"":26,""ArrowUp,ArrowRight"":10,""ArrowDown,ArrowLeft"":5,""ArrowDown,ArrowRight"":17}","true","ArrowUp,ArrowLeft","false","","","revaluation","2","22","","",""
"html-keyboard-response","306","1338873","0.0-4.0-2.1-1.61","spark_pilot_2","7485","3","21","Male","","","","","","","null","<div style=""font-size:60px;"">+</div>","null","fixation","","","","","","","","","","","23","","",""
