"trial_type","trial_index","time_elapsed","internal_node_id","task_version","subject_id","assigned_condition","age","gender","success","timeout","failed_images","failed_audio","failed_video","browser_interaction","rt","stimulus","response","task_part","environment","score","rewardMap","correct","fullState","isCatch","numberMissed","duration","condition","order","trial_num","key_press","ground_truth","bonus"
"pavlovia","0","1215","0.0-0.0","spark_pilot_2","7310","6","11","Female","","","","","","","","","","","","","","","","","","","","","","","",""
"preload","1","24475","0.0-1.0","spark_pilot_2","7310","6","11","Female","true","false","[]","[]","[]","[{""event"":""fullscreenenter"",""trial"":2,""time"":34041}]","","","","","","","","","","","","","","","","","",""
"fullscreen","2","35035","0.0-2.0","spark_pilot_2","7310","6","11","Female","true","","","","","","","","","","","","","","","","","","","","","","",""
"audio-button-response","3","37868","0.0-3.0-0.0-0.0","spark_pilot_2","7310","6","11","Female","","","","","","","2107","./assets/audio/audiotest/turtle.mp3","2","audio_test","","","","","","","","","","","","","",""
"learning-instructions","4","49187","0.0-3.0-1.0-0.0","spark_pilot_2","7310","6","11","Female","","","","","","","4151.19999999553","<p> Welcome! Please remember to stay in fullscreen mode and don't click away from the experiment. </p>","","instructions","","","","","","","","","","","","","",""
"learning-instructions","5","60144","0.0-3.0-1.0-0.1","spark_pilot_2","7310","6","11","Female","","","","","","","2152.10000000149","<p> Today you will be playing a game to earn treasure. </p>
            <p> At the end of the experiment, you will earn a bonus based on how much treasure you find. </p>
            <img src='./assets/img/instructions/treasure.jpg' class='instructions-image'>","","instructions","","","","","","","","","","","","","",""
"learning-instructions","6","106654","0.0-3.0-1.0-0.2","spark_pilot_2","7310","6","11","Female","","","","","","","37941.89999999851","<p> Animals have hidden treasure in treasure chests. </p>
            <p> You need to first find an animal and then choose which of their treasure chests to search. </p>
            <img src='./assets/img/space/animals/cat.jpg' class='instructions-image'>","","instructions","","","","","","","","","","","","","",""
"learning-instructions","7","121561","0.0-3.0-1.0-0.3","spark_pilot_2","7310","6","11","Female","","","","","","","1515.9000000059605","<p> In each round, you will search for treasure in a different place. In the real game, there will be two rounds. </p>
            <p> You will begin with a separate, practice round where you will search for treasure in outer space. </p>
            <img src='./assets/img/space/0.jpg' class='instructions-image'>","","instructions","","","","","","","","","","","","","",""
"learning-instructions","8","133948","0.0-3.0-1.0-0.4","spark_pilot_2","7310","6","11","Female","","","","","","","731.3999999985099","<p> On every turn, you will see a picture of the place that you are in, but the specific image may be different each time. </p>
            <p> For example, both of these images mean you are in outer space. </p>
            <img src='./assets/img/instructions/outerspace.jpg' class='instructions-image'>","","instructions","","","","","","","","","","","","","",""
"learning-instructions","9","142757","0.0-3.0-1.0-0.5","spark_pilot_2","7310","6","11","Female","","","","","","","804","<p> You need to decide which direction to travel in. </p>
            <p> You can choose between going <b>up or down</b> by using the arrow keys. </p>
            <img src='./assets/img/instructions/updown.jpg' class='instructions-image'>","","instructions","","","","","","","","","","","","","",""
"learning-instructions","10","153287","0.0-3.0-1.0-0.6","spark_pilot_2","7310","6","11","Female","","","","","","","1547.6999999955297","<p> You will have <b>2 seconds</b> to make your choice. </p>
            <p> If you do not make a choice within 2 seconds, you will not find an animal or earn treasure. </p>
            <img src='./assets/img/instructions/2seconds.jpg' class='instructions-image'>","","instructions","","","","","","","","","","","","","",""
"learning-instructions","11","161590","0.0-3.0-1.0-0.7","spark_pilot_2","7310","6","11","Female","","","","","","","1102.5","<p> Let’s try practicing that now! </p>
            <p> When you see a picture of the place you are in, press the <b>up</b> key to travel up. </p>
            <img src='./assets/img/instructions/pressUp.jpg' class='instructions-image'>","","instructions","","","","","","","","","","","","","",""
"revaluation","12","165615","0.0-3.0-2.0-0.0","spark_pilot_2","7310","6","11","Female","","false","","","","","[1251]","./assets/img/space/0.jpg","[""ArrowUp""]","first stage practice","space","0","null","null","ArrowUp","false","","","","","","","",""
"html-keyboard-response","13","166118","0.0-3.0-2.0-1.0","spark_pilot_2","7310","6","11","Female","","","","","","","null","<div style=""font-size:60px;"">+</div>","null","fixation","","","","","","","","","","","","","",""
"revaluation","14","170135","0.0-3.0-2.0-0.1","spark_pilot_2","7310","6","11","Female","","false","","","","","[1534.5]","./assets/img/space/1.jpg","[""ArrowUp""]","first stage practice","space","0","null","null","ArrowUp","false","","","","","","","",""
"html-keyboard-response","15","170639","0.0-3.0-2.0-1.1","spark_pilot_2","7310","6","11","Female","","","","","","","null","<div style=""font-size:60px;"">+</div>","null","fixation","","","","","","","","","","","","","",""
"revaluation","16","174655","0.0-3.0-2.0-0.2","spark_pilot_2","7310","6","11","Female","","false","","","","","[412.5]","./assets/img/space/2.jpg","[""ArrowUp""]","first stage practice","space","0","null","null","ArrowUp","false","","","","","","","",""
"html-keyboard-response","17","175161","0.0-3.0-2.0-1.2","spark_pilot_2","7310","6","11","Female","","","","","","","null","<div style=""font-size:60px;"">+</div>","null","fixation","","","","","","","","","","","","","",""
"learning-instructions","18","181166","0.0-3.0-3.0-0.0","spark_pilot_2","7310","6","11","Female","","","","","","","1290.8000000044703","<p> Great job! Now try pressing the <b>down</b> key to travel down. </p>
            <img src='./assets/img/instructions/pressDown.jpg' class='instructions-image'>","","instructions","","","","","","","","","","","","","",""
"revaluation","19","185182","0.0-3.0-4.0-0.0","spark_pilot_2","7310","6","11","Female","","false","","","","","[1000.1000000014901]","./assets/img/space/3.jpg","[""ArrowDown""]","first stage practice","space","0","null","null","ArrowDown","false","","","","","","","",""
"html-keyboard-response","20","185686","0.0-3.0-4.0-1.0","spark_pilot_2","7310","6","11","Female","","","","","","","null","<div style=""font-size:60px;"">+</div>","null","fixation","","","","","","","","","","","","","",""
"revaluation","21","189697","0.0-3.0-4.0-0.1","spark_pilot_2","7310","6","11","Female","","false","","","","","[0.7999999970197678]","./assets/img/space/4.jpg","[""ArrowDown""]","first stage practice","space","0","null","null","ArrowDown","false","","","","","","","",""
"html-keyboard-response","22","190201","0.0-3.0-4.0-1.1","spark_pilot_2","7310","6","11","Female","","","","","","","null","<div style=""font-size:60px;"">+</div>","null","fixation","","","","","","","","","","","","","",""
"revaluation","23","194213","0.0-3.0-4.0-0.2","spark_pilot_2","7310","6","11","Female","","false","","","","","[684.7999999970198]","./assets/img/space/5.jpg","[""ArrowDown""]","first stage practice","space","0","null","null","ArrowDown","false","","","","","","","",""
"html-keyboard-response","24","194718","0.0-3.0-4.0-1.2","spark_pilot_2","7310","6","11","Female","","","","","","","null","<div style=""font-size:60px;"">+</div>","null","fixation","","","","","","","","","","","","","",""
"learning-instructions","25","205861","0.0-3.0-5.0-0.0","spark_pilot_2","7310","6","11","Female","","","","","","","1257","<p> The animals don’t move, so the animal in the upper part of a place will stay in the upper part of a place, and the animal in the lower part of a place will stay in the lower part of a place. </p>","","instructions","","","","","","","","","","","","","",""
"learning-instructions","26","216211","0.0-3.0-5.0-0.1","spark_pilot_2","7310","6","11","Female","","","","","","","1188","<p> Each animal has two treasure chests for you to choose from. </p>
            <p> The amount of treasure in each chest can range from <b> 0 to 40 pieces.</b></p>","","instructions","","","","","","","","","","","","","",""
"learning-instructions","27","229419","0.0-3.0-5.0-0.2","spark_pilot_2","7310","6","11","Female","","","","","","","1799.8000000044703","<p> You should decide which chest to search for treasure by using the <b>left</b> and <b>right</b> arrow keys. </p>
            <p><b> Pay attention to which animal is on the screen, as the animals have different treasure chests. </b></p>
            <img src='./assets/img/instructions/leftright.jpg' class='instructions-image'>","","instructions","","","","","","","","","","","","","",""
"learning-instructions","28","237092","0.0-3.0-5.0-0.3","spark_pilot_2","7310","6","11","Female","","","","","","","1020.7000000029802","<p> Let’s try practicing that now. </p>
            <p> When you see an animal, choose which chest to search for treasure. </p>
            <img src='./assets/img/instructions/chooseChest.jpg' class='instructions-image'>","","instructions","","","","","","","","","","","","","",""
"revaluation","29","241110","0.0-3.0-6.0-0.0","spark_pilot_2","7310","6","11","Female","","true","","","","","[]","./assets/img/space/animals/cat.jpg","[]","second stage practice","space","-5","{""ArrowUp,ArrowLeft"":3,""ArrowUp,ArrowRight"":36,""ArrowDown,ArrowLeft"":15,""ArrowDown,ArrowRight"":23}","false","ArrowUp","","","","","","","","",""
"html-keyboard-response","30","241614","0.0-3.0-6.0-1.0","spark_pilot_2","7310","6","11","Female","","","","","","","null","<div style=""font-size:60px;"">+</div>","null","fixation","","","","","","","","","","","","","",""
"revaluation","31","245631","0.0-3.0-6.0-0.1","spark_pilot_2","7310","6","11","Female","","false","","","","","[437.1000000014901]","./assets/img/space/animals/cat.jpg","[""ArrowLeft""]","second stage practice","space","3","{""ArrowUp,ArrowLeft"":3,""ArrowUp,ArrowRight"":36,""ArrowDown,ArrowLeft"":15,""ArrowDown,ArrowRight"":23}","false","ArrowUp,ArrowLeft","","","","","","","","",""
"html-keyboard-response","32","246142","0.0-3.0-6.0-1.1","spark_pilot_2","7310","6","11","Female","","","","","","","null","<div style=""font-size:60px;"">+</div>","null","fixation","","","","","","","","","","","","","",""
"revaluation","33","250156","0.0-3.0-6.0-0.2","spark_pilot_2","7310","6","11","Female","","false","","","","","[488.6000000014901]","./assets/img/space/animals/rabbit.jpg","[""ArrowLeft""]","second stage practice","space","15","{""ArrowUp,ArrowLeft"":3,""ArrowUp,ArrowRight"":36,""ArrowDown,ArrowLeft"":15,""ArrowDown,ArrowRight"":23}","false","ArrowDown,ArrowLeft","","","","","","","","",""
"html-keyboard-response","34","250658","0.0-3.0-6.0-1.2","spark_pilot_2","7310","6","11","Female","","","","","","","null","<div style=""font-size:60px;"">+</div>","null","fixation","","","","","","","","","","","","","",""
"revaluation","35","254675","0.0-3.0-6.0-0.3","spark_pilot_2","7310","6","11","Female","","false","","","","","[461.3999999985099]","./assets/img/space/animals/rabbit.jpg","[""ArrowLeft""]","second stage practice","space","15","{""ArrowUp,ArrowLeft"":3,""ArrowUp,ArrowRight"":36,""ArrowDown,ArrowLeft"":15,""ArrowDown,ArrowRight"":23}","false","ArrowDown,ArrowLeft","","","","","","","","",""
"html-keyboard-response","36","255180","0.0-3.0-6.0-1.3","spark_pilot_2","7310","6","11","Female","","","","","","","null","<div style=""font-size:60px;"">+</div>","null","fixation","","","","","","","","","","","","","",""
"learning-instructions","37","273622","0.0-3.0-7.0-0.0","spark_pilot_2","7310","6","11","Female","","","","","","","1364.2999999970198","<p> Great job. Now let’s try putting it together. </p>
            <p> On each turn, you will first see a picture to remind you of the place you are in, and you need to choose whether to go up or down. </p>
            <p> Then you will see an animal and choose which of its chests to search for treasure. </p>","","instructions","","","","","","","","","","","","","",""
"learning-instructions","38","283130","0.0-3.0-7.0-0.1","spark_pilot_2","7310","6","11","Female","","","","","","","1073.8000000044703","<p> When you choose whether to go up or down, try to go to the animal with the chest with the most treasure. </p>
            <p> Try practicing that now! </p>","","instructions","","","","","","","","","","","","","",""
"revaluation","39","289156","0.0-3.0-8.0-0.0","spark_pilot_2","7310","6","11","Female","","false","","","","","[1044.7999999970198,1872.3999999985099]","./assets/img/space/6.jpg","[""ArrowUp"",""ArrowLeft""]","full practice","space","3","{""ArrowUp,ArrowLeft"":3,""ArrowUp,ArrowRight"":36,""ArrowDown,ArrowLeft"":15,""ArrowDown,ArrowRight"":23}","false","ArrowUp,ArrowLeft","false","","","","","","","",""
"html-keyboard-response","40","289660","0.0-3.0-8.0-1.0","spark_pilot_2","7310","6","11","Female","","","","","","","null","<div style=""font-size:60px;"">+</div>","null","fixation","","","","","","","","","","","","","",""
"revaluation","41","295686","0.0-3.0-8.0-0.1","spark_pilot_2","7310","6","11","Female","","false","","","","","[1308.1999999955297,764.1999999955297]","./assets/img/space/7.jpg","[""ArrowDown"",""ArrowRight""]","full practice","space","23","{""ArrowUp,ArrowLeft"":3,""ArrowUp,ArrowRight"":36,""ArrowDown,ArrowLeft"":15,""ArrowDown,ArrowRight"":23}","false","ArrowDown,ArrowRight","false","","","","","","","",""
"html-keyboard-response","42","296197","0.0-3.0-8.0-1.1","spark_pilot_2","7310","6","11","Female","","","","","","","null","<div style=""font-size:60px;"">+</div>","null","fixation","","","","","","","","","","","","","",""
"revaluation","43","302219","0.0-3.0-8.0-0.2","spark_pilot_2","7310","6","11","Female","","false","","","","","[1029.8999999985099,935.8999999985099]","./assets/img/space/8.jpg","[""ArrowDown"",""ArrowRight""]","full practice","space","23","{""ArrowUp,ArrowLeft"":3,""ArrowUp,ArrowRight"":36,""ArrowDown,ArrowLeft"":15,""ArrowDown,ArrowRight"":23}","false","ArrowDown,ArrowRight","false","","","","","","","",""
"html-keyboard-response","44","302721","0.0-3.0-8.0-1.2","spark_pilot_2","7310","6","11","Female","","","","","","","null","<div style=""font-size:60px;"">+</div>","null","fixation","","","","","","","","","","","","","",""
"revaluation","45","308747","0.0-3.0-8.0-0.3","spark_pilot_2","7310","6","11","Female","","false","","","","","[882.1000000014901,518.8999999985099]","./assets/img/space/9.jpg","[""ArrowDown"",""ArrowRight""]","full practice","space","23","{""ArrowUp,ArrowLeft"":3,""ArrowUp,ArrowRight"":36,""ArrowDown,ArrowLeft"":15,""ArrowDown,ArrowRight"":23}","false","ArrowDown,ArrowRight","false","","","","","","","",""
"html-keyboard-response","46","309252","0.0-3.0-8.0-1.3","spark_pilot_2","7310","6","11","Female","","","","","","","null","<div style=""font-size:60px;"">+</div>","null","fixation","","","","","","","","","","","","","",""
"revaluation","47","315272","0.0-3.0-8.0-0.4","spark_pilot_2","7310","6","11","Female","","false","","","","","[1428.4000000059605,594.4000000059605]","./assets/img/space/10.jpg","[""ArrowUp"",""ArrowRight""]","full practice","space","36","{""ArrowUp,ArrowLeft"":3,""ArrowUp,ArrowRight"":36,""ArrowDown,ArrowLeft"":15,""ArrowDown,ArrowRight"":23}","true","ArrowUp,ArrowRight","false","","","","","","","",""
"html-keyboard-response","48","315777","0.0-3.0-8.0-1.4","spark_pilot_2","7310","6","11","Female","","","","","","","null","<div style=""font-size:60px;"">+</div>","null","fixation","","","","","","","","","","","","","",""
"learning-instructions","49","327546","0.0-3.0-9.0-0.0","spark_pilot_2","7310","6","11","Female","","","","","","","1305","<p> One last thing: sometimes, you will see a robber. The robber can be anywhere in the picture. </p>
            <p> If you do not stop them, you will lose treasure. </p>
            <img src='./assets/img/instructions/robber.jpg' class='instructions-image'>","","instructions","","","","","","","","","","","","","",""
"learning-instructions","50","335421","0.0-3.0-9.0-0.1","spark_pilot_2","7310","6","11","Female","","","","","","","554.7000000029802","<p> If you see the robber, you should <b>press the space bar</b> rather than using the arrow keys. </p>
            <p> Try practicing that now! </p>","","instructions","","","","","","","","","","","","","",""
"revaluation","51","339434","0.0-3.0-10.0-0.0","spark_pilot_2","7310","6","11","Female","","false","","","","","[775.8999999985099]","./assets/img/space/catch/0.jpg","[""spaceBar""]","catch practice","space","0","{""ArrowUp,ArrowLeft"":3,""ArrowUp,ArrowRight"":36,""ArrowDown,ArrowLeft"":15,""ArrowDown,ArrowRight"":23}","true","spaceBar","true","","","","","","","",""
"html-keyboard-response","52","339939","0.0-3.0-10.0-1.0","spark_pilot_2","7310","6","11","Female","","","","","","","null","<div style=""font-size:60px;"">+</div>","null","fixation","","","","","","","","","","","","","",""
"revaluation","53","343956","0.0-3.0-10.0-0.1","spark_pilot_2","7310","6","11","Female","","false","","","","","[701.3999999985099]","./assets/img/space/catch/1.jpg","[""spaceBar""]","catch practice","space","0","{""ArrowUp,ArrowLeft"":3,""ArrowUp,ArrowRight"":36,""ArrowDown,ArrowLeft"":15,""ArrowDown,ArrowRight"":23}","true","spaceBar","true","","","","","","","",""
"html-keyboard-response","54","344467","0.0-3.0-10.0-1.1","spark_pilot_2","7310","6","11","Female","","","","","","","null","<div style=""font-size:60px;"">+</div>","null","fixation","","","","","","","","","","","","","",""
"revaluation","55","348484","0.0-3.0-10.0-0.2","spark_pilot_2","7310","6","11","Female","","false","","","","","[695.5999999940395]","./assets/img/space/catch/2.jpg","[""spaceBar""]","catch practice","space","0","{""ArrowUp,ArrowLeft"":3,""ArrowUp,ArrowRight"":36,""ArrowDown,ArrowLeft"":15,""ArrowDown,ArrowRight"":23}","true","spaceBar","true","","","","","","","",""
"html-keyboard-response","56","348992","0.0-3.0-10.0-1.2","spark_pilot_2","7310","6","11","Female","","","","","","","null","<div style=""font-size:60px;"">+</div>","null","fixation","","","","","","","","","","","","","",""
"learning-instructions","57","364582","0.0-3.0-11.0-0.0","spark_pilot_2","7310","6","11","Female","","","","","","","1644.1000000014901","<p> After you explore a place to find treasure, it will be time to play a different game. </p>
            <p> During this game, red dots will appear on the screen and fall down slowly. </p>
            <p><b> You must click on them before they reach the bottom. </b></p>
            <img src='./assets/img/instructions/dotGame.jpg' class='instructions-image'>","","instructions","","","","","","","","","","","","","",""
"learning-instructions","58","371355","0.0-3.0-11.0-0.1","spark_pilot_2","7310","6","11","Female","","","","","","","1009.7999999970198","<p> For every dot you click, you will earn additional treasure. </p>
            <p> Let’s try practicing that now. </p>","","instructions","","","","","","","","","","","","","",""
"revaluation","59","386368","0.0-3.0-12.0-0.0","spark_pilot_2","7310","6","11","Female","","","","","","","[99]","","","rest practice","","10","","","","","0","15000","","","","","",""
"learning-instructions","60","393608","0.0-3.0-13.0-0.0-0.0","spark_pilot_2","7310","6","11","Female","","","","","","","1866.7999999970198","<p> Now, you will practice a shortened version of the game to get a sense of how it all fits together. </p>","","instructions","","","","","","","","","","","","","",""
"learning-instructions","61","398289","0.0-3.0-13.0-0.0-0.1","spark_pilot_2","7310","6","11","Female","","","","","","","1334.3999999985099","<p>This time you are searching for treasure in outer space.</p>","","instructions","","","","","","","","","","","","","",""
"learning-instructions","62","414726","0.0-3.0-13.0-1.0-0.0","spark_pilot_2","7310","6","11","Female","","","","","","","1390.2999999970198","<p> Remember, when you see a picture of the place, use the up and down keys to <b>find an animal</b>.</p>
            <p> When you encounter an animal, you should use the left and right keys to <b>select a treasure chest</b>.</p>
            <p> Don't forget to look out for the robber! </p>","","instructions","","","","","","","","","","","","","",""
"revaluation","63","420754","0.0-3.0-13.0-2.0-0.0","spark_pilot_2","7310","6","11","Female","","false","","","","","[1889,1131.2000000029802]","./assets/img/space/11.jpg","[""ArrowUp"",""ArrowRight""]","practice block","space","36","{""ArrowUp,ArrowLeft"":3,""ArrowUp,ArrowRight"":36,""ArrowDown,ArrowLeft"":15,""ArrowDown,ArrowRight"":23}","true","ArrowUp,ArrowRight","false","","","","","","","",""
"html-keyboard-response","64","421262","0.0-3.0-13.0-2.0-1.0","spark_pilot_2","7310","6","11","Female","","","","","","","null","<div style=""font-size:60px;"">+</div>","null","fixation","","","","","","","","","","","","","",""
"revaluation","65","427290","0.0-3.0-13.0-2.0-0.1","spark_pilot_2","7310","6","11","Female","","false","","","","","[1765.5,1140]","./assets/img/space/12.jpg","[""ArrowDown"",""ArrowRight""]","practice block","space","23","{""ArrowUp,ArrowLeft"":3,""ArrowUp,ArrowRight"":36,""ArrowDown,ArrowLeft"":15,""ArrowDown,ArrowRight"":23}","false","ArrowDown,ArrowRight","false","","","","","","","",""
"html-keyboard-response","66","427798","0.0-3.0-13.0-2.0-1.1","spark_pilot_2","7310","6","11","Female","","","","","","","null","<div style=""font-size:60px;"">+</div>","null","fixation","","","","","","","","","","","","","",""
"revaluation","67","433824","0.0-3.0-13.0-2.0-0.2","spark_pilot_2","7310","6","11","Female","","false","","","","","[1393.9000000059605,602.1000000014901]","./assets/img/space/13.jpg","[""ArrowDown"",""ArrowRight""]","practice block","space","23","{""ArrowUp,ArrowLeft"":3,""ArrowUp,ArrowRight"":36,""ArrowDown,ArrowLeft"":15,""ArrowDown,ArrowRight"":23}","false","ArrowDown,ArrowRight","false","","","","","","","",""
"html-keyboard-response","68","434333","0.0-3.0-13.0-2.0-1.2","spark_pilot_2","7310","6","11","Female","","","","","","","null","<div style=""font-size:60px;"">+</div>","null","fixation","","","","","","","","","","","","","",""
"revaluation","69","440356","0.0-3.0-13.0-2.0-0.3","spark_pilot_2","7310","6","11","Female","","false","","","","","[1452,589.5999999940395]","./assets/img/space/14.jpg","[""ArrowDown"",""ArrowRight""]","practice block","space","23","{""ArrowUp,ArrowLeft"":3,""ArrowUp,ArrowRight"":36,""ArrowDown,ArrowLeft"":15,""ArrowDown,ArrowRight"":23}","false","ArrowDown,ArrowRight","false","","","","","","","",""
"html-keyboard-response","70","440861","0.0-3.0-13.0-2.0-1.3","spark_pilot_2","7310","6","11","Female","","","","","","","null","<div style=""font-size:60px;"">+</div>","null","fixation","","","","","","","","","","","","","",""
"revaluation","71","446888","0.0-3.0-13.0-2.0-0.4","spark_pilot_2","7310","6","11","Female","","false","","","","","[447.8999999985099,432.6000000014901]","./assets/img/space/11.jpg","[""ArrowUp"",""ArrowLeft""]","practice block","space","3","{""ArrowUp,ArrowLeft"":3,""ArrowUp,ArrowRight"":36,""ArrowDown,ArrowLeft"":15,""ArrowDown,ArrowRight"":23}","false","ArrowUp,ArrowLeft","false","","","","","","","",""
"html-keyboard-response","72","447392","0.0-3.0-13.0-2.0-1.4","spark_pilot_2","7310","6","11","Female","","","","","","","null","<div style=""font-size:60px;"">+</div>","null","fixation","","","","","","","","","","","","","",""
"revaluation","73","453412","0.0-3.0-13.0-2.0-0.5","spark_pilot_2","7310","6","11","Female","","false","","","","","[464.3999999985099,362.3999999985099]","./assets/img/space/12.jpg","[""ArrowUp"",""ArrowRight""]","practice block","space","36","{""ArrowUp,ArrowLeft"":3,""ArrowUp,ArrowRight"":36,""ArrowDown,ArrowLeft"":15,""ArrowDown,ArrowRight"":23}","true","ArrowUp,ArrowRight","false","","","","","","","",""
"html-keyboard-response","74","453917","0.0-3.0-13.0-2.0-1.5","spark_pilot_2","7310","6","11","Female","","","","","","","null","<div style=""font-size:60px;"">+</div>","null","fixation","","","","","","","","","","","","","",""
"revaluation","75","459943","0.0-3.0-13.0-2.0-0.6","spark_pilot_2","7310","6","11","Female","","false","","","","","[588.3999999985099,539.9000000059605]","./assets/img/space/13.jpg","[""ArrowUp"",""ArrowRight""]","practice block","space","36","{""ArrowUp,ArrowLeft"":3,""ArrowUp,ArrowRight"":36,""ArrowDown,ArrowLeft"":15,""ArrowDown,ArrowRight"":23}","true","ArrowUp,ArrowRight","false","","","","","","","",""
"html-keyboard-response","76","460453","0.0-3.0-13.0-2.0-1.6","spark_pilot_2","7310","6","11","Female","","","","","","","null","<div style=""font-size:60px;"">+</div>","null","fixation","","","","","","","","","","","","","",""
"revaluation","77","466479","0.0-3.0-13.0-2.0-0.7","spark_pilot_2","7310","6","11","Female","","false","","","","","[825.6999999955297,438.90000000596046]","./assets/img/space/14.jpg","[""ArrowUp"",""ArrowRight""]","practice block","space","36","{""ArrowUp,ArrowLeft"":3,""ArrowUp,ArrowRight"":36,""ArrowDown,ArrowLeft"":15,""ArrowDown,ArrowRight"":23}","true","ArrowUp,ArrowRight","false","","","","","","","",""
"html-keyboard-response","78","466989","0.0-3.0-13.0-2.0-1.7","spark_pilot_2","7310","6","11","Female","","","","","","","null","<div style=""font-size:60px;"">+</div>","null","fixation","","","","","","","","","","","","","",""
"revaluation","79","470995","0.0-3.0-13.0-2.0-0.8","spark_pilot_2","7310","6","11","Female","","false","","","","","[769.2000000029802]","./assets/img/space/catch/3.jpg","[""ArrowUp""]","practice block","space","-10","{""ArrowUp,ArrowLeft"":3,""ArrowUp,ArrowRight"":36,""ArrowDown,ArrowLeft"":15,""ArrowDown,ArrowRight"":23}","false","ArrowUp","true","","","","","","","",""
"html-keyboard-response","80","471500","0.0-3.0-13.0-2.0-1.8","spark_pilot_2","7310","6","11","Female","","","","","","","null","<div style=""font-size:60px;"">+</div>","null","fixation","","","","","","","","","","","","","",""
"learning-instructions","81","487426","0.0-3.0-13.0-3.0-0.0","spark_pilot_2","7310","6","11","Female","","","","","","","2766.5","<p> Now, you will travel with a friend who will choose whether you go up or down first. </p>
            <p> On these turns, you will just see the animal that they found. You will still get to choose which chest to search for treasure.</p>","","instructions","","","","","","","","","","","","","",""
"revaluation","82","491443","0.0-3.0-13.0-4.0-0.0","spark_pilot_2","7310","6","11","Female","","false","","","","","[1597]","./assets/img/space/animals/rabbit.jpg","[""ArrowRight""]","practice block","space","23","{""ArrowUp,ArrowLeft"":3,""ArrowUp,ArrowRight"":36,""ArrowDown,ArrowLeft"":15,""ArrowDown,ArrowRight"":23}","true","ArrowDown,ArrowRight","","","","","","","","",""
"html-keyboard-response","83","491947","0.0-3.0-13.0-4.0-1.0","spark_pilot_2","7310","6","11","Female","","","","","","","null","<div style=""font-size:60px;"">+</div>","null","fixation","","","","","","","","","","","","","",""
"revaluation","84","495967","0.0-3.0-13.0-4.0-0.1","spark_pilot_2","7310","6","11","Female","","false","","","","","[630.5]","./assets/img/space/animals/rabbit.jpg","[""ArrowLeft""]","practice block","space","15","{""ArrowUp,ArrowLeft"":3,""ArrowUp,ArrowRight"":36,""ArrowDown,ArrowLeft"":15,""ArrowDown,ArrowRight"":23}","false","ArrowDown,ArrowLeft","","","","","","","","",""
"html-keyboard-response","85","496478","0.0-3.0-13.0-4.0-1.1","spark_pilot_2","7310","6","11","Female","","","","","","","null","<div style=""font-size:60px;"">+</div>","null","fixation","","","","","","","","","","","","","",""
"revaluation","86","500492","0.0-3.0-13.0-4.0-0.2","spark_pilot_2","7310","6","11","Female","","false","","","","","[745.8000000044703]","./assets/img/space/animals/cat.jpg","[""ArrowRight""]","practice block","space","36","{""ArrowUp,ArrowLeft"":3,""ArrowUp,ArrowRight"":36,""ArrowDown,ArrowLeft"":15,""ArrowDown,ArrowRight"":23}","true","ArrowUp,ArrowRight","","","","","","","","",""
"html-keyboard-response","87","500994","0.0-3.0-13.0-4.0-1.2","spark_pilot_2","7310","6","11","Female","","","","","","","null","<div style=""font-size:60px;"">+</div>","null","fixation","","","","","","","","","","","","","",""
"revaluation","88","505011","0.0-3.0-13.0-4.0-0.3","spark_pilot_2","7310","6","11","Female","","false","","","","","[606.7000000029802]","./assets/img/space/animals/cat.jpg","[""ArrowRight""]","practice block","space","36","{""ArrowUp,ArrowLeft"":3,""ArrowUp,ArrowRight"":36,""ArrowDown,ArrowLeft"":15,""ArrowDown,ArrowRight"":23}","true","ArrowUp,ArrowRight","","","","","","","","",""
"html-keyboard-response","89","505516","0.0-3.0-13.0-4.0-1.3","spark_pilot_2","7310","6","11","Female","","","","","","","null","<div style=""font-size:60px;"">+</div>","null","fixation","","","","","","","","","","","","","",""
"learning-instructions","90","514011","0.0-3.0-13.0-5.0-0.0","spark_pilot_2","7310","6","11","Female","","","","","","","907.8999999985099","<p> Time to play the dot game! </p>
            <p> For 15 seconds, click the red dots on the following screen as they appear. </p>","","instructions","","","","","","","","","","","","","",""
"revaluation","91","529021","0.0-3.0-13.0-6.0-0.0","spark_pilot_2","7310","6","11","Female","","","","","","","[178]","","","rest practice","","10","","","","","0","15000","","","","","",""
"learning-instructions","92","536838","0.0-3.0-13.0-7.0-0.0","spark_pilot_2","7310","6","11","Female","","","","","","","1566.8999999985099","<p> You have almost finished this part of the game! </p>
            <p> We are going to ask you to make a few more choices. </p>","","instructions","","","","","","","","","","","","","",""
"learning-instructions","93","552015","0.0-3.0-13.0-7.0-0.1","spark_pilot_2","7310","6","11","Female","","","","","","","948.8000000044703","<p> First, you need to decide whether to go up or down. When you see each picture, use the arrow keys to make your choice. </p>
            <p><b>You will not see which animal you found, but try to get to the one that will give you the most treasure.</b></p>","","instructions","","","","","","","","","","","","","",""
"revaluation","94","553354","0.0-3.0-13.0-8.0","spark_pilot_2","7310","6","11","Female","","false","","","","","[1337.8999999985099]","./assets/img/space/15.jpg","[""ArrowUp""]","practice block","space","0","{""ArrowUp,ArrowLeft"":3,""ArrowUp,ArrowRight"":36,""ArrowDown,ArrowLeft"":15,""ArrowDown,ArrowRight"":23}","true","ArrowUp","false","","","","","","","",""
"html-keyboard-response","95","553858","0.0-3.0-13.0-9.0","spark_pilot_2","7310","6","11","Female","","","","","","","null","<div style=""font-size:60px;"">+</div>","null","fixation","","","","","","","","","","","","","",""
"learning-instructions","96","566451","0.0-3.0-13.0-10.0-0.0","spark_pilot_2","7310","6","11","Female","","","","","","","907.5","<p> Now you will see the animals again and can search their chests for treasure. </p>
            <p> This time, you will not see how much treasure you earned, but you will earn more bonus money for making better choices. </p>","","instructions","","","","","","","","","","","","","",""
"revaluation","97","567587","0.0-3.0-13.0-11.0-0.0","spark_pilot_2","7310","6","11","Female","","false","","","","","[1134.2000000029802]","./assets/img/space/animals/cat.jpg","[""ArrowLeft""]","practice block","space","0","{""ArrowUp,ArrowLeft"":3,""ArrowUp,ArrowRight"":36,""ArrowDown,ArrowLeft"":15,""ArrowDown,ArrowRight"":23}","false","ArrowUp,ArrowLeft","","","","","","","","",""
"html-keyboard-response","98","568089","0.0-3.0-13.0-11.0-1.0","spark_pilot_2","7310","6","11","Female","","","","","","","null","<div style=""font-size:60px;"">+</div>","null","fixation","","","","","","","","","","","","","",""
"revaluation","99","569690","0.0-3.0-13.0-11.0-0.1","spark_pilot_2","7310","6","11","Female","","false","","","","","[1598.6999999955297]","./assets/img/space/animals/rabbit.jpg","[""ArrowRight""]","practice block","space","0","{""ArrowUp,ArrowLeft"":3,""ArrowUp,ArrowRight"":36,""ArrowDown,ArrowLeft"":15,""ArrowDown,ArrowRight"":23}","true","ArrowDown,ArrowRight","","","","","","","","",""
"html-keyboard-response","100","570193","0.0-3.0-13.0-11.0-1.1","spark_pilot_2","7310","6","11","Female","","","","","","","null","<div style=""font-size:60px;"">+</div>","null","fixation","","","","","","","","","","","","","",""
"learning-instructions","101","575810","0.0-3.0-14.0-0.0","spark_pilot_2","7310","6","11","Female","","","","","","","908.8999999985099","<p> Before you start, we're going to ask you a few questions about how the game works. </p>","","instructions","","","","","","","","","","","","","",""
"comp-q","102","582426","0.0-3.0-15.0-0.0-0.0","spark_pilot_2","7310","6","11","Female","","","","","","","864.2000000029802","<p> <b> True or False? </b> </p>
            <p> There can be 50 pieces of treasure in a given animal's chest. </p>","0","comp_question","","","","false","","","","","","","","","",""
"comp-q","103","590672","0.0-3.0-15.0-0.0-1.0","spark_pilot_2","7310","6","11","Female","","","","","","","1544.2999999970198","<p> <b>Incorrect.</b> The amount of treasure in each chest can range from 0 to 40 pieces. </p>","0","comp_answer","","","","","","","","","","","","","",""
"comp-q","104","596949","0.0-3.0-15.0-0.1-0.1","spark_pilot_2","7310","6","11","Female","","","","","","","716","<p> <b> True or False? </b> </p>
            <p> There can be 50 pieces of treasure in a given animal's chest. </p>","1","comp_question","","","","true","","","","","","","","","",""
"comp-q","105","605095","0.0-3.0-15.0-0.1-1.1","spark_pilot_2","7310","6","11","Female","","","","","","","1315.2000000029802","<p> <b> That's right! </b> The amount of treasure in each chest can range from 0 to 40 pieces. </p>","0","comp_answer","","","","","","","","","","","","","",""
"comp-q","106","614523","0.0-3.0-15.0-0.2-0.2","spark_pilot_2","7310","6","11","Female","","","","","","","1960.6000000014901","<p> <b> True or False? </b> </p><p> In this game, all animals have the same amount of treasure in their left and right chests. </p>","1","comp_question","","","","true","","","","","","","","","",""
"comp-q","107","622083","0.0-3.0-15.0-0.2-1.2","spark_pilot_2","7310","6","11","Female","","","","","","","2183.6999999955297","<p> <b> That's right! </b> Animals have different amounts of treasure in their treasure chests. </p>","0","comp_answer","","","","","","","","","","","","","",""
"comp-q","108","628811","0.0-3.0-15.0-0.3-0.3","spark_pilot_2","7310","6","11","Female","","","","","","","761.7999999970198","<p> <b> True or False? </b> </p><p> The same animal will always be there if you go up in the same place. </p>","1","comp_question","","","","false","","","","","","","","","",""
"comp-q","109","636338","0.0-3.0-15.0-0.3-1.3","spark_pilot_2","7310","6","11","Female","","","","","","","1055.5999999940395","<p> <b>Incorrect.</b> One animal lives in the upper part and one lives in the lower part of every place. </p>","0","comp_answer","","","","","","","","","","","","","",""
"comp-q","110","644584","0.0-3.0-15.0-0.4-0.4","spark_pilot_2","7310","6","11","Female","","","","","","","2423.10000000149","<p> <b> True or False? </b> </p><p> The same animal will always be there if you go up in the same place. </p>","1","comp_question","","","","false","","","","","","","","","",""
"comp-q","111","652785","0.0-3.0-15.0-0.4-1.4","spark_pilot_2","7310","6","11","Female","","","","","","","1923.2999999970198","<p> <b>Incorrect.</b> One animal lives in the upper part and one lives in the lower part of every place. </p>","0","comp_answer","","","","","","","","","","","","","",""
"comp-q","112","659559","0.0-3.0-15.0-0.5-0.5","spark_pilot_2","7310","6","11","Female","","","","","","","952.7999999970198","<p> <b> True or False? </b> </p><p> The same animal will always be there if you go up in the same place. </p>","0","comp_question","","","","true","","","","","","","","","",""
"comp-q","113","695481","0.0-3.0-15.0-0.5-1.5","spark_pilot_2","7310","6","11","Female","","","","","","","29341.80000000447","<p> <b> That's right! </b> One animal lives in the upper part and one lives in the lower part of every place. </p>","0","comp_answer","","","","","","","","","","","","","",""
"comp-q","114","702154","0.0-3.0-15.0-0.6-0.6","spark_pilot_2","7310","6","11","Female","","","","","","","1063.1000000014901","<p> <b> True or False? </b> </p><p> If you see a different picture, it means you are in a new place. </p>","0","comp_question","","","","false","","","","","","","","","",""
"comp-q","115","715316","0.0-3.0-15.0-0.6-1.6","spark_pilot_2","7310","6","11","Female","","","","","","","1895.1999999955297","<p> <b>Incorrect.</b> Lots of different images may show the same place. For example,  you may see three different images that all remind you that you are in outer space. </p>","0","comp_answer","","","","","","","","","","","","","",""
"comp-q","116","721976","0.0-3.0-15.0-0.7-0.7","spark_pilot_2","7310","6","11","Female","","","","","","","1160.2999999970198","<p> <b> True or False? </b> </p><p> If you see a different picture, it means you are in a new place. </p>","1","comp_question","","","","true","","","","","","","","","",""
"comp-q","117","744004","0.0-3.0-15.0-0.7-1.7","spark_pilot_2","7310","6","11","Female","","","","","","","10627.39999999851","<p> <b> That's right! </b> Lots of different images may show the same place. For example,  you may see three different images that all remind you that you are in outer space. </p>","0","comp_answer","","","","","","","","","","","","","",""
"learning-instructions","118","846946","0.0-3.0-16.0-0.0","spark_pilot_2","7310","6","11","Female","","","","","","","92750.5","<p> Good job. Remember to do your best because the amount of treasure you earn will be converted into bonus money. </p>
            <p> It’s time to start the real game! </p>","","instructions","","","","","","","","","","","","","",""
"learning-instructions","119","852751","0.0-4.0-0.0-0.0","spark_pilot_2","7310","6","11","Female","","","","","","","2193.7999999970198","<p> This time you are searching for treasure in the <b>canyon</b>.</p>","","instructions","","","","","","","","","","","","","",""
"learning-instructions","120","871978","0.0-4.0-0.0-0.1","spark_pilot_2","7310","6","11","Female","","","","","","","1684.6999999955297","<p><b>New</b> animals with <b>new</b> treasure chests live here. You need to explore to discover where the animal with the best treasure chest is.</p>
                    <p> Like before, once you figure out which animal has the chest with the most treasure, you should try to get to that animal and select that chest! </p>","","instructions","","","","","","","","","","","","","",""
"learning-instructions","121","944116","0.0-4.0-1.0-0.0","spark_pilot_2","7310","6","11","Female","","","","","","","57408.5","<p> Remember, when you see a picture of the place, use the up and down keys to <b>find an animal</b>.</p>
            <p> When you encounter an animal, you should use the left and right keys to <b>select a treasure chest</b>.</p>
            <p> Don't forget to look out for the robber! </p>","","instructions","","","","","","","","","","","","","",""
"revaluation","122","950139","0.0-4.0-2.0-0.0","spark_pilot_2","7310","6","11","Female","","false","","","","","[1225.6000000014901,818.2000000029802]","./assets/img/canyon/memory/21.jpg","[""ArrowUp"",""ArrowRight""]","value training","canyon","10","{""ArrowUp,ArrowLeft"":23,""ArrowUp,ArrowRight"":10,""ArrowDown,ArrowLeft"":8,""ArrowDown,ArrowRight"":30}","false","ArrowUp,ArrowRight","false","","","revaluation","1","0","","",""
"html-keyboard-response","123","950650","0.0-4.0-2.0-1.0","spark_pilot_2","7310","6","11","Female","","","","","","","null","<div style=""font-size:60px;"">+</div>","null","fixation","","","","","","","","","","","1","","",""
"revaluation","124","956670","0.0-4.0-2.0-0.1","spark_pilot_2","7310","6","11","Female","","false","","","","","[496.09999999403954,447.19999999552965]","./assets/img/canyon/memory/25.jpg","[""ArrowDown"",""ArrowLeft""]","value training","canyon","8","{""ArrowUp,ArrowLeft"":23,""ArrowUp,ArrowRight"":10,""ArrowDown,ArrowLeft"":8,""ArrowDown,ArrowRight"":30}","false","ArrowDown,ArrowLeft","false","","","revaluation","1","2","","",""
"html-keyboard-response","125","957174","0.0-4.0-2.0-1.1","spark_pilot_2","7310","6","11","Female","","","","","","","null","<div style=""font-size:60px;"">+</div>","null","fixation","","","","","","","","","","","3","","",""
"revaluation","126","963194","0.0-4.0-2.0-0.2","spark_pilot_2","7310","6","11","Female","","false","","","","","[440.90000000596046,530.8000000044703]","./assets/img/canyon/memory/37.jpg","[""ArrowUp"",""ArrowRight""]","value training","canyon","10","{""ArrowUp,ArrowLeft"":23,""ArrowUp,ArrowRight"":10,""ArrowDown,ArrowLeft"":8,""ArrowDown,ArrowRight"":30}","false","ArrowUp,ArrowRight","false","","","revaluation","1","4","","",""
"html-keyboard-response","127","963699","0.0-4.0-2.0-1.2","spark_pilot_2","7310","6","11","Female","","","","","","","null","<div style=""font-size:60px;"">+</div>","null","fixation","","","","","","","","","","","5","","",""
"revaluation","128","969725","0.0-4.0-2.0-0.3","spark_pilot_2","7310","6","11","Female","","false","","","","","[553.8999999985099,482.6000000014901]","./assets/img/canyon/memory/29.jpg","[""ArrowUp"",""ArrowRight""]","value training","canyon","10","{""ArrowUp,ArrowLeft"":23,""ArrowUp,ArrowRight"":10,""ArrowDown,ArrowLeft"":8,""ArrowDown,ArrowRight"":30}","false","ArrowUp,ArrowRight","false","","","revaluation","1","6","","",""
"html-keyboard-response","129","970235","0.0-4.0-2.0-1.3","spark_pilot_2","7310","6","11","Female","","","","","","","null","<div style=""font-size:60px;"">+</div>","null","fixation","","","","","","","","","","","7","","",""
"revaluation","130","976261","0.0-4.0-2.0-0.4","spark_pilot_2","7310","6","11","Female","","false","","","","","[509.5,449]","./assets/img/canyon/memory/29.jpg","[""ArrowUp"",""ArrowRight""]","value training","canyon","10","{""ArrowUp,ArrowLeft"":23,""ArrowUp,ArrowRight"":10,""ArrowDown,ArrowLeft"":8,""ArrowDown,ArrowRight"":30}","false","ArrowUp,ArrowRight","false","","","revaluation","1","8","","",""
"html-keyboard-response","131","976772","0.0-4.0-2.0-1.4","spark_pilot_2","7310","6","11","Female","","","","","","","null","<div style=""font-size:60px;"">+</div>","null","fixation","","","","","","","","","","","9","","",""
"revaluation","132","982786","0.0-4.0-2.0-0.5","spark_pilot_2","7310","6","11","Female","","false","","","","","[442.20000000298023,578.7000000029802]","./assets/img/canyon/memory/40.jpg","[""ArrowDown"",""ArrowLeft""]","value training","canyon","8","{""ArrowUp,ArrowLeft"":23,""ArrowUp,ArrowRight"":10,""ArrowDown,ArrowLeft"":8,""ArrowDown,ArrowRight"":30}","false","ArrowDown,ArrowLeft","false","","","revaluation","1","10","","",""
"html-keyboard-response","133","983290","0.0-4.0-2.0-1.5","spark_pilot_2","7310","6","11","Female","","","","","","","null","<div style=""font-size:60px;"">+</div>","null","fixation","","","","","","","","","","","11","","",""
"revaluation","134","989316","0.0-4.0-2.0-0.6","spark_pilot_2","7310","6","11","Female","","false","","","","","[865.8000000044703,400]","./assets/img/canyon/memory/35.jpg","[""ArrowDown"",""ArrowRight""]","value training","canyon","30","{""ArrowUp,ArrowLeft"":23,""ArrowUp,ArrowRight"":10,""ArrowDown,ArrowLeft"":8,""ArrowDown,ArrowRight"":30}","true","ArrowDown,ArrowRight","false","","","revaluation","1","12","","",""
"html-keyboard-response","135","989827","0.0-4.0-2.0-1.6","spark_pilot_2","7310","6","11","Female","","","","","","","null","<div style=""font-size:60px;"">+</div>","null","fixation","","","","","","","","","","","13","","",""
"revaluation","136","993844","0.0-4.0-2.0-0.7","spark_pilot_2","7310","6","11","Female","","false","","","","","[1123.8999999985099]","./assets/img/canyon/catch/6.jpg","[""ArrowDown""]","value training","canyon","-10","{""ArrowUp,ArrowLeft"":23,""ArrowUp,ArrowRight"":10,""ArrowDown,ArrowLeft"":8,""ArrowDown,ArrowRight"":30}","false","ArrowDown","true","","","revaluation","1","14","","",""
"html-keyboard-response","137","994348","0.0-4.0-2.0-1.7","spark_pilot_2","7310","6","11","Female","","","","","","","null","<div style=""font-size:60px;"">+</div>","null","fixation","","","","","","","","","","","15","","",""
"revaluation","138","998366","0.0-4.0-2.0-0.8","spark_pilot_2","7310","6","11","Female","","false","","","","","[1484.6000000014901]","./assets/img/canyon/catch/3.jpg","[""spaceBar""]","value training","canyon","0","{""ArrowUp,ArrowLeft"":23,""ArrowUp,ArrowRight"":10,""ArrowDown,ArrowLeft"":8,""ArrowDown,ArrowRight"":30}","true","spaceBar","true","","","revaluation","1","16","","",""
"html-keyboard-response","139","998874","0.0-4.0-2.0-1.8","spark_pilot_2","7310","6","11","Female","","","","","","","null","<div style=""font-size:60px;"">+</div>","null","fixation","","","","","","","","","","","17","","",""
"revaluation","140","1004901","0.0-4.0-2.0-0.9","spark_pilot_2","7310","6","11","Female","","false","","","","","[1537.8999999985099,635.5999999940395]","./assets/img/canyon/memory/34.jpg","[""ArrowUp"",""ArrowRight""]","value training","canyon","10","{""ArrowUp,ArrowLeft"":23,""ArrowUp,ArrowRight"":10,""ArrowDown,ArrowLeft"":8,""ArrowDown,ArrowRight"":30}","false","ArrowUp,ArrowRight","false","","","revaluation","1","18","","",""
"html-keyboard-response","141","1005412","0.0-4.0-2.0-1.9","spark_pilot_2","7310","6","11","Female","","","","","","","null","<div style=""font-size:60px;"">+</div>","null","fixation","","","","","","","","","","","19","","",""
"revaluation","142","1009429","0.0-4.0-2.0-0.10","spark_pilot_2","7310","6","11","Female","","false","","","","","[1097.5]","./assets/img/canyon/catch/2.jpg","[""ArrowDown""]","value training","canyon","-10","{""ArrowUp,ArrowLeft"":23,""ArrowUp,ArrowRight"":10,""ArrowDown,ArrowLeft"":8,""ArrowDown,ArrowRight"":30}","false","ArrowDown","true","","","revaluation","1","20","","",""
"html-keyboard-response","143","1009940","0.0-4.0-2.0-1.10","spark_pilot_2","7310","6","11","Female","","","","","","","null","<div style=""font-size:60px;"">+</div>","null","fixation","","","","","","","","","","","21","","",""
"revaluation","144","1015960","0.0-4.0-2.0-0.11","spark_pilot_2","7310","6","11","Female","","false","","","","","[1768.1000000014901,1158.6000000014901]","./assets/img/canyon/memory/32.jpg","[""ArrowDown"",""ArrowLeft""]","value training","canyon","8","{""ArrowUp,ArrowLeft"":23,""ArrowUp,ArrowRight"":10,""ArrowDown,ArrowLeft"":8,""ArrowDown,ArrowRight"":30}","false","ArrowDown,ArrowLeft","false","","","revaluation","1","22","","",""
"html-keyboard-response","145","1016465","0.0-4.0-2.0-1.11","spark_pilot_2","7310","6","11","Female","","","","","","","null","<div style=""font-size:60px;"">+</div>","null","fixation","","","","","","","","","","","23","","",""
"revaluation","146","1022483","0.0-4.0-2.0-0.12","spark_pilot_2","7310","6","11","Female","","false","","","","","[620.6000000014901,375.3999999985099]","./assets/img/canyon/memory/15.jpg","[""ArrowDown"",""ArrowRight""]","value training","canyon","30","{""ArrowUp,ArrowLeft"":23,""ArrowUp,ArrowRight"":10,""ArrowDown,ArrowLeft"":8,""ArrowDown,ArrowRight"":30}","true","ArrowDown,ArrowRight","false","","","revaluation","1","24","","",""
"html-keyboard-response","147","1022995","0.0-4.0-2.0-1.12","spark_pilot_2","7310","6","11","Female","","","","","","","null","<div style=""font-size:60px;"">+</div>","null","fixation","","","","","","","","","","","25","","",""
"revaluation","148","1029021","0.0-4.0-2.0-0.13","spark_pilot_2","7310","6","11","Female","","false","","","","","[492.3999999985099,454.1000000014901]","./assets/img/canyon/memory/15.jpg","[""ArrowDown"",""ArrowRight""]","value training","canyon","30","{""ArrowUp,ArrowLeft"":23,""ArrowUp,ArrowRight"":10,""ArrowDown,ArrowLeft"":8,""ArrowDown,ArrowRight"":30}","true","ArrowDown,ArrowRight","false","","","revaluation","1","26","","",""
"html-keyboard-response","149","1029531","0.0-4.0-2.0-1.13","spark_pilot_2","7310","6","11","Female","","","","","","","null","<div style=""font-size:60px;"">+</div>","null","fixation","","","","","","","","","","","27","","",""
"revaluation","150","1035551","0.0-4.0-2.0-0.14","spark_pilot_2","7310","6","11","Female","","false","","","","","[514.4000000059605,297.09999999403954]","./assets/img/canyon/memory/13.jpg","[""ArrowDown"",""ArrowRight""]","value training","canyon","30","{""ArrowUp,ArrowLeft"":23,""ArrowUp,ArrowRight"":10,""ArrowDown,ArrowLeft"":8,""ArrowDown,ArrowRight"":30}","true","ArrowDown,ArrowRight","false","","","revaluation","1","28","","",""
"html-keyboard-response","151","1036056","0.0-4.0-2.0-1.14","spark_pilot_2","7310","6","11","Female","","","","","","","null","<div style=""font-size:60px;"">+</div>","null","fixation","","","","","","","","","","","29","","",""
"revaluation","152","1042073","0.0-4.0-2.0-0.15","spark_pilot_2","7310","6","11","Female","","false","","","","","[470.3999999985099,410.1000000014901]","./assets/img/canyon/memory/21.jpg","[""ArrowDown"",""ArrowRight""]","value training","canyon","30","{""ArrowUp,ArrowLeft"":23,""ArrowUp,ArrowRight"":10,""ArrowDown,ArrowLeft"":8,""ArrowDown,ArrowRight"":30}","true","ArrowDown,ArrowRight","false","","","revaluation","1","30","","",""
"html-keyboard-response","153","1042575","0.0-4.0-2.0-1.15","spark_pilot_2","7310","6","11","Female","","","","","","","null","<div style=""font-size:60px;"">+</div>","null","fixation","","","","","","","","","","","31","","",""
"revaluation","154","1048600","0.0-4.0-2.0-0.16","spark_pilot_2","7310","6","11","Female","","false","","","","","[476.5,517.2999999970198]","./assets/img/canyon/memory/24.jpg","[""ArrowDown"",""ArrowRight""]","value training","canyon","30","{""ArrowUp,ArrowLeft"":23,""ArrowUp,ArrowRight"":10,""ArrowDown,ArrowLeft"":8,""ArrowDown,ArrowRight"":30}","true","ArrowDown,ArrowRight","false","","","revaluation","1","32","","",""
"html-keyboard-response","155","1049105","0.0-4.0-2.0-1.16","spark_pilot_2","7310","6","11","Female","","","","","","","null","<div style=""font-size:60px;"">+</div>","null","fixation","","","","","","","","","","","33","","",""
"revaluation","156","1055131","0.0-4.0-2.0-0.17","spark_pilot_2","7310","6","11","Female","","false","","","","","[471.40000000596046,985.1999999955297]","./assets/img/canyon/memory/34.jpg","[""ArrowDown"",""ArrowRight""]","value training","canyon","30","{""ArrowUp,ArrowLeft"":23,""ArrowUp,ArrowRight"":10,""ArrowDown,ArrowLeft"":8,""ArrowDown,ArrowRight"":30}","true","ArrowDown,ArrowRight","false","","","revaluation","1","34","","",""
"html-keyboard-response","157","1055641","0.0-4.0-2.0-1.17","spark_pilot_2","7310","6","11","Female","","","","","","","null","<div style=""font-size:60px;"">+</div>","null","fixation","","","","","","","","","","","35","","",""
"revaluation","158","1059658","0.0-4.0-2.0-0.18","spark_pilot_2","7310","6","11","Female","","false","","","","","[562.2999999970198]","./assets/img/canyon/catch/1.jpg","[""ArrowDown""]","value training","canyon","-10","{""ArrowUp,ArrowLeft"":23,""ArrowUp,ArrowRight"":10,""ArrowDown,ArrowLeft"":8,""ArrowDown,ArrowRight"":30}","false","ArrowDown","true","","","revaluation","1","36","","",""
"html-keyboard-response","159","1060169","0.0-4.0-2.0-1.18","spark_pilot_2","7310","6","11","Female","","","","","","","null","<div style=""font-size:60px;"">+</div>","null","fixation","","","","","","","","","","","37","","",""
"revaluation","160","1066183","0.0-4.0-2.0-0.19","spark_pilot_2","7310","6","11","Female","","false","","","","","[500.80000000447035,525.3000000044703]","./assets/img/canyon/memory/9.jpg","[""ArrowDown"",""ArrowRight""]","value training","canyon","30","{""ArrowUp,ArrowLeft"":23,""ArrowUp,ArrowRight"":10,""ArrowDown,ArrowLeft"":8,""ArrowDown,ArrowRight"":30}","true","ArrowDown,ArrowRight","false","","","revaluation","1","38","","",""
"html-keyboard-response","161","1066688","0.0-4.0-2.0-1.19","spark_pilot_2","7310","6","11","Female","","","","","","","null","<div style=""font-size:60px;"">+</div>","null","fixation","","","","","","","","","","","39","","",""
"revaluation","162","1072713","0.0-4.0-2.0-0.20","spark_pilot_2","7310","6","11","Female","","false","","","","","[507,683.2999999970198]","./assets/img/canyon/memory/19.jpg","[""ArrowDown"",""ArrowRight""]","value training","canyon","30","{""ArrowUp,ArrowLeft"":23,""ArrowUp,ArrowRight"":10,""ArrowDown,ArrowLeft"":8,""ArrowDown,ArrowRight"":30}","true","ArrowDown,ArrowRight","false","","","revaluation","1","40","","",""
"html-keyboard-response","163","1073224","0.0-4.0-2.0-1.20","spark_pilot_2","7310","6","11","Female","","","","","","","null","<div style=""font-size:60px;"">+</div>","null","fixation","","","","","","","","","","","41","","",""
"revaluation","164","1079250","0.0-4.0-2.0-0.21","spark_pilot_2","7310","6","11","Female","","true","","","","","[721.3000000044703]","./assets/img/canyon/memory/26.jpg","[""ArrowDown""]","value training","canyon","-5","{""ArrowUp,ArrowLeft"":23,""ArrowUp,ArrowRight"":10,""ArrowDown,ArrowLeft"":8,""ArrowDown,ArrowRight"":30}","false","ArrowDown","false","","","revaluation","1","42","","",""
"html-keyboard-response","165","1079760","0.0-4.0-2.0-1.21","spark_pilot_2","7310","6","11","Female","","","","","","","null","<div style=""font-size:60px;"">+</div>","null","fixation","","","","","","","","","","","43","","",""
"revaluation","166","1085785","0.0-4.0-2.0-0.22","spark_pilot_2","7310","6","11","Female","","false","","","","","[755.1000000014901,773.8000000044703]","./assets/img/canyon/memory/24.jpg","[""ArrowDown"",""ArrowRight""]","value training","canyon","30","{""ArrowUp,ArrowLeft"":23,""ArrowUp,ArrowRight"":10,""ArrowDown,ArrowLeft"":8,""ArrowDown,ArrowRight"":30}","true","ArrowDown,ArrowRight","false","","","revaluation","1","44","","",""
"html-keyboard-response","167","1086296","0.0-4.0-2.0-1.22","spark_pilot_2","7310","6","11","Female","","","","","","","null","<div style=""font-size:60px;"">+</div>","null","fixation","","","","","","","","","","","45","","",""
"revaluation","168","1092322","0.0-4.0-2.0-0.23","spark_pilot_2","7310","6","11","Female","","false","","","","","[541.6999999955297,526.5]","./assets/img/canyon/memory/37.jpg","[""ArrowDown"",""ArrowRight""]","value training","canyon","30","{""ArrowUp,ArrowLeft"":23,""ArrowUp,ArrowRight"":10,""ArrowDown,ArrowLeft"":8,""ArrowDown,ArrowRight"":30}","true","ArrowDown,ArrowRight","false","","","revaluation","1","46","","",""
"html-keyboard-response","169","1092832","0.0-4.0-2.0-1.23","spark_pilot_2","7310","6","11","Female","","","","","","","null","<div style=""font-size:60px;"">+</div>","null","fixation","","","","","","","","","","","47","","",""
"revaluation","170","1098858","0.0-4.0-2.0-0.24","spark_pilot_2","7310","6","11","Female","","false","","","","","[474.40000000596046,605.7999999970198]","./assets/img/canyon/memory/26.jpg","[""ArrowDown"",""ArrowRight""]","value training","canyon","30","{""ArrowUp,ArrowLeft"":23,""ArrowUp,ArrowRight"":10,""ArrowDown,ArrowLeft"":8,""ArrowDown,ArrowRight"":30}","true","ArrowDown,ArrowRight","false","","","revaluation","1","48","","",""
"html-keyboard-response","171","1099369","0.0-4.0-2.0-1.24","spark_pilot_2","7310","6","11","Female","","","","","","","null","<div style=""font-size:60px;"">+</div>","null","fixation","","","","","","","","","","","49","","",""
"revaluation","172","1105390","0.0-4.0-2.0-0.25","spark_pilot_2","7310","6","11","Female","","false","","","","","[723.3999999985099,462.5]","./assets/img/canyon/memory/7.jpg","[""ArrowDown"",""ArrowRight""]","value training","canyon","30","{""ArrowUp,ArrowLeft"":23,""ArrowUp,ArrowRight"":10,""ArrowDown,ArrowLeft"":8,""ArrowDown,ArrowRight"":30}","true","ArrowDown,ArrowRight","false","","","revaluation","1","50","","",""
"html-keyboard-response","173","1105893","0.0-4.0-2.0-1.25","spark_pilot_2","7310","6","11","Female","","","","","","","null","<div style=""font-size:60px;"">+</div>","null","fixation","","","","","","","","","","","51","","",""
"revaluation","174","1111919","0.0-4.0-2.0-0.26","spark_pilot_2","7310","6","11","Female","","false","","","","","[610.6000000014901,415.6000000014901]","./assets/img/canyon/memory/9.jpg","[""ArrowDown"",""ArrowRight""]","value training","canyon","30","{""ArrowUp,ArrowLeft"":23,""ArrowUp,ArrowRight"":10,""ArrowDown,ArrowLeft"":8,""ArrowDown,ArrowRight"":30}","true","ArrowDown,ArrowRight","false","","","revaluation","1","52","","",""
"html-keyboard-response","175","1112424","0.0-4.0-2.0-1.26","spark_pilot_2","7310","6","11","Female","","","","","","","null","<div style=""font-size:60px;"">+</div>","null","fixation","","","","","","","","","","","53","","",""
"revaluation","176","1116441","0.0-4.0-2.0-0.27","spark_pilot_2","7310","6","11","Female","","false","","","","","[639.2000000029802]","./assets/img/canyon/catch/7.jpg","[""ArrowDown""]","value training","canyon","-10","{""ArrowUp,ArrowLeft"":23,""ArrowUp,ArrowRight"":10,""ArrowDown,ArrowLeft"":8,""ArrowDown,ArrowRight"":30}","false","ArrowDown","true","","","revaluation","1","54","","",""
"html-keyboard-response","177","1116951","0.0-4.0-2.0-1.27","spark_pilot_2","7310","6","11","Female","","","","","","","null","<div style=""font-size:60px;"">+</div>","null","fixation","","","","","","","","","","","55","","",""
"revaluation","178","1122973","0.0-4.0-2.0-0.28","spark_pilot_2","7310","6","11","Female","","false","","","","","[1298.1000000014901,450.3999999985099]","./assets/img/canyon/memory/33.jpg","[""ArrowDown"",""ArrowRight""]","value training","canyon","30","{""ArrowUp,ArrowLeft"":23,""ArrowUp,ArrowRight"":10,""ArrowDown,ArrowLeft"":8,""ArrowDown,ArrowRight"":30}","true","ArrowDown,ArrowRight","false","","","revaluation","1","56","","",""
"html-keyboard-response","179","1123476","0.0-4.0-2.0-1.28","spark_pilot_2","7310","6","11","Female","","","","","","","null","<div style=""font-size:60px;"">+</div>","null","fixation","","","","","","","","","","","57","","",""
"revaluation","180","1129502","0.0-4.0-2.0-0.29","spark_pilot_2","7310","6","11","Female","","false","","","","","[488.69999999552965,417.19999999552965]","./assets/img/canyon/memory/0.jpg","[""ArrowDown"",""ArrowRight""]","value training","canyon","30","{""ArrowUp,ArrowLeft"":23,""ArrowUp,ArrowRight"":10,""ArrowDown,ArrowLeft"":8,""ArrowDown,ArrowRight"":30}","true","ArrowDown,ArrowRight","false","","","revaluation","1","58","","",""
"html-keyboard-response","181","1130006","0.0-4.0-2.0-1.29","spark_pilot_2","7310","6","11","Female","","","","","","","null","<div style=""font-size:60px;"">+</div>","null","fixation","","","","","","","","","","","59","","",""
"revaluation","182","1136032","0.0-4.0-2.0-0.30","spark_pilot_2","7310","6","11","Female","","false","","","","","[810.5999999940395,491]","./assets/img/canyon/memory/19.jpg","[""ArrowDown"",""ArrowRight""]","value training","canyon","30","{""ArrowUp,ArrowLeft"":23,""ArrowUp,ArrowRight"":10,""ArrowDown,ArrowLeft"":8,""ArrowDown,ArrowRight"":30}","true","ArrowDown,ArrowRight","false","","","revaluation","1","60","","",""
"html-keyboard-response","183","1136543","0.0-4.0-2.0-1.30","spark_pilot_2","7310","6","11","Female","","","","","","","null","<div style=""font-size:60px;"">+</div>","null","fixation","","","","","","","","","","","61","","",""
"revaluation","184","1142568","0.0-4.0-2.0-0.31","spark_pilot_2","7310","6","11","Female","","false","","","","","[618.9000000059605,1031.3000000044703]","./assets/img/canyon/memory/33.jpg","[""ArrowDown"",""ArrowRight""]","value training","canyon","30","{""ArrowUp,ArrowLeft"":23,""ArrowUp,ArrowRight"":10,""ArrowDown,ArrowLeft"":8,""ArrowDown,ArrowRight"":30}","true","ArrowDown,ArrowRight","false","","","revaluation","1","62","","",""
"html-keyboard-response","185","1143079","0.0-4.0-2.0-1.31","spark_pilot_2","7310","6","11","Female","","","","","","","null","<div style=""font-size:60px;"">+</div>","null","fixation","","","","","","","","","","","63","","",""
"revaluation","186","1149104","0.0-4.0-2.0-0.32","spark_pilot_2","7310","6","11","Female","","false","","","","","[484.20000000298023,514.5]","./assets/img/canyon/memory/35.jpg","[""ArrowDown"",""ArrowRight""]","value training","canyon","30","{""ArrowUp,ArrowLeft"":23,""ArrowUp,ArrowRight"":10,""ArrowDown,ArrowLeft"":8,""ArrowDown,ArrowRight"":30}","true","ArrowDown,ArrowRight","false","","","revaluation","1","64","","",""
"html-keyboard-response","187","1149615","0.0-4.0-2.0-1.32","spark_pilot_2","7310","6","11","Female","","","","","","","null","<div style=""font-size:60px;"">+</div>","null","fixation","","","","","","","","","","","65","","",""
"revaluation","188","1153632","0.0-4.0-2.0-0.33","spark_pilot_2","7310","6","11","Female","","false","","","","","[1789.7999999970198]","./assets/img/canyon/catch/0.jpg","[""spaceBar""]","value training","canyon","0","{""ArrowUp,ArrowLeft"":23,""ArrowUp,ArrowRight"":10,""ArrowDown,ArrowLeft"":8,""ArrowDown,ArrowRight"":30}","true","spaceBar","true","","","revaluation","1","66","","",""
"html-keyboard-response","189","1154143","0.0-4.0-2.0-1.33","spark_pilot_2","7310","6","11","Female","","","","","","","null","<div style=""font-size:60px;"">+</div>","null","fixation","","","","","","","","","","","67","","",""
"revaluation","190","1160168","0.0-4.0-2.0-0.34","spark_pilot_2","7310","6","11","Female","","false","","","","","[1448.1000000014901,407.8999999985099]","./assets/img/canyon/memory/5.jpg","[""ArrowDown"",""ArrowRight""]","value training","canyon","30","{""ArrowUp,ArrowLeft"":23,""ArrowUp,ArrowRight"":10,""ArrowDown,ArrowLeft"":8,""ArrowDown,ArrowRight"":30}","true","ArrowDown,ArrowRight","false","","","revaluation","1","68","","",""
"html-keyboard-response","191","1160677","0.0-4.0-2.0-1.34","spark_pilot_2","7310","6","11","Female","","","","","","","null","<div style=""font-size:60px;"">+</div>","null","fixation","","","","","","","","","","","69","","",""
"revaluation","192","1166701","0.0-4.0-2.0-0.35","spark_pilot_2","7310","6","11","Female","","false","","","","","[470.8999999985099,476.20000000298023]","./assets/img/canyon/memory/36.jpg","[""ArrowDown"",""ArrowRight""]","value training","canyon","30","{""ArrowUp,ArrowLeft"":23,""ArrowUp,ArrowRight"":10,""ArrowDown,ArrowLeft"":8,""ArrowDown,ArrowRight"":30}","true","ArrowDown,ArrowRight","false","","","revaluation","1","70","","",""
"html-keyboard-response","193","1167203","0.0-4.0-2.0-1.35","spark_pilot_2","7310","6","11","Female","","","","","","","null","<div style=""font-size:60px;"">+</div>","null","fixation","","","","","","","","","","","71","","",""
"revaluation","194","1173229","0.0-4.0-2.0-0.36","spark_pilot_2","7310","6","11","Female","","false","","","","","[1032.5,499.70000000298023]","./assets/img/canyon/memory/28.jpg","[""ArrowDown"",""ArrowRight""]","value training","canyon","30","{""ArrowUp,ArrowLeft"":23,""ArrowUp,ArrowRight"":10,""ArrowDown,ArrowLeft"":8,""ArrowDown,ArrowRight"":30}","true","ArrowDown,ArrowRight","false","","","revaluation","1","72","","",""
"html-keyboard-response","195","1173734","0.0-4.0-2.0-1.36","spark_pilot_2","7310","6","11","Female","","","","","","","null","<div style=""font-size:60px;"">+</div>","null","fixation","","","","","","","","","","","73","","",""
"revaluation","196","1179759","0.0-4.0-2.0-0.37","spark_pilot_2","7310","6","11","Female","","false","","","","","[464.30000000447035,471.40000000596046]","./assets/img/canyon/memory/40.jpg","[""ArrowDown"",""ArrowRight""]","value training","canyon","30","{""ArrowUp,ArrowLeft"":23,""ArrowUp,ArrowRight"":10,""ArrowDown,ArrowLeft"":8,""ArrowDown,ArrowRight"":30}","true","ArrowDown,ArrowRight","false","","","revaluation","1","74","","",""
"html-keyboard-response","197","1180268","0.0-4.0-2.0-1.37","spark_pilot_2","7310","6","11","Female","","","","","","","null","<div style=""font-size:60px;"">+</div>","null","fixation","","","","","","","","","","","75","","",""
"revaluation","198","1186295","0.0-4.0-2.0-0.38","spark_pilot_2","7310","6","11","Female","","false","","","","","[399.19999999552965,574.2999999970198]","./assets/img/canyon/memory/25.jpg","[""ArrowDown"",""ArrowRight""]","value training","canyon","30","{""ArrowUp,ArrowLeft"":23,""ArrowUp,ArrowRight"":10,""ArrowDown,ArrowLeft"":8,""ArrowDown,ArrowRight"":30}","true","ArrowDown,ArrowRight","false","","","revaluation","1","76","","",""
"html-keyboard-response","199","1186806","0.0-4.0-2.0-1.38","spark_pilot_2","7310","6","11","Female","","","","","","","null","<div style=""font-size:60px;"">+</div>","null","fixation","","","","","","","","","","","77","","",""
"revaluation","200","1192826","0.0-4.0-2.0-0.39","spark_pilot_2","7310","6","11","Female","","false","","","","","[599.7999999970198,1057.0999999940395]","./assets/img/canyon/memory/5.jpg","[""ArrowDown"",""ArrowRight""]","value training","canyon","30","{""ArrowUp,ArrowLeft"":23,""ArrowUp,ArrowRight"":10,""ArrowDown,ArrowLeft"":8,""ArrowDown,ArrowRight"":30}","true","ArrowDown,ArrowRight","false","","","revaluation","1","78","","",""
"html-keyboard-response","201","1193330","0.0-4.0-2.0-1.39","spark_pilot_2","7310","6","11","Female","","","","","","","null","<div style=""font-size:60px;"">+</div>","null","fixation","","","","","","","","","","","79","","",""
"revaluation","202","1199356","0.0-4.0-2.0-0.40","spark_pilot_2","7310","6","11","Female","","false","","","","","[511.29999999701977,495.3999999985099]","./assets/img/canyon/memory/7.jpg","[""ArrowDown"",""ArrowRight""]","value training","canyon","30","{""ArrowUp,ArrowLeft"":23,""ArrowUp,ArrowRight"":10,""ArrowDown,ArrowLeft"":8,""ArrowDown,ArrowRight"":30}","true","ArrowDown,ArrowRight","false","","","revaluation","1","80","","",""
"html-keyboard-response","203","1199861","0.0-4.0-2.0-1.40","spark_pilot_2","7310","6","11","Female","","","","","","","null","<div style=""font-size:60px;"">+</div>","null","fixation","","","","","","","","","","","81","","",""
"revaluation","204","1203876","0.0-4.0-2.0-0.41","spark_pilot_2","7310","6","11","Female","","false","","","","","[415.40000000596046]","./assets/img/canyon/catch/4.jpg","[""ArrowDown""]","value training","canyon","-10","{""ArrowUp,ArrowLeft"":23,""ArrowUp,ArrowRight"":10,""ArrowDown,ArrowLeft"":8,""ArrowDown,ArrowRight"":30}","false","ArrowDown","true","","","revaluation","1","82","","",""
"html-keyboard-response","205","1204389","0.0-4.0-2.0-1.41","spark_pilot_2","7310","6","11","Female","","","","","","","null","<div style=""font-size:60px;"">+</div>","null","fixation","","","","","","","","","","","83","","",""
"revaluation","206","1210410","0.0-4.0-2.0-0.42","spark_pilot_2","7310","6","11","Female","","false","","","","","[1096.8000000044703,406.20000000298023]","./assets/img/canyon/memory/32.jpg","[""ArrowDown"",""ArrowRight""]","value training","canyon","30","{""ArrowUp,ArrowLeft"":23,""ArrowUp,ArrowRight"":10,""ArrowDown,ArrowLeft"":8,""ArrowDown,ArrowRight"":30}","true","ArrowDown,ArrowRight","false","","","revaluation","1","84","","",""
"html-keyboard-response","207","1210913","0.0-4.0-2.0-1.42","spark_pilot_2","7310","6","11","Female","","","","","","","null","<div style=""font-size:60px;"">+</div>","null","fixation","","","","","","","","","","","85","","",""
"revaluation","208","1216939","0.0-4.0-2.0-0.43","spark_pilot_2","7310","6","11","Female","","false","","","","","[928.7999999970198,1172.2000000029802]","./assets/img/canyon/memory/13.jpg","[""ArrowDown"",""ArrowRight""]","value training","canyon","30","{""ArrowUp,ArrowLeft"":23,""ArrowUp,ArrowRight"":10,""ArrowDown,ArrowLeft"":8,""ArrowDown,ArrowRight"":30}","true","ArrowDown,ArrowRight","false","","","revaluation","1","86","","",""
"html-keyboard-response","209","1217444","0.0-4.0-2.0-1.43","spark_pilot_2","7310","6","11","Female","","","","","","","null","<div style=""font-size:60px;"">+</div>","null","fixation","","","","","","","","","","","87","","",""
"revaluation","210","1223466","0.0-4.0-2.0-0.44","spark_pilot_2","7310","6","11","Female","","false","","","","","[664.6000000014901,638.3000000044703]","./assets/img/canyon/memory/30.jpg","[""ArrowDown"",""ArrowRight""]","value training","canyon","30","{""ArrowUp,ArrowLeft"":23,""ArrowUp,ArrowRight"":10,""ArrowDown,ArrowLeft"":8,""ArrowDown,ArrowRight"":30}","true","ArrowDown,ArrowRight","false","","","revaluation","1","88","","",""
"html-keyboard-response","211","1223968","0.0-4.0-2.0-1.44","spark_pilot_2","7310","6","11","Female","","","","","","","null","<div style=""font-size:60px;"">+</div>","null","fixation","","","","","","","","","","","89","","",""
"revaluation","212","1227986","0.0-4.0-2.0-0.45","spark_pilot_2","7310","6","11","Female","","false","","","","","[1081.7999999970198]","./assets/img/canyon/catch/5.jpg","[""spaceBar""]","value training","canyon","0","{""ArrowUp,ArrowLeft"":23,""ArrowUp,ArrowRight"":10,""ArrowDown,ArrowLeft"":8,""ArrowDown,ArrowRight"":30}","true","spaceBar","true","","","revaluation","1","90","","",""
"html-keyboard-response","213","1228490","0.0-4.0-2.0-1.45","spark_pilot_2","7310","6","11","Female","","","","","","","null","<div style=""font-size:60px;"">+</div>","null","fixation","","","","","","","","","","","91","","",""
"revaluation","214","1234516","0.0-4.0-2.0-0.46","spark_pilot_2","7310","6","11","Female","","false","","","","","[1554.9000000059605,696.0999999940395]","./assets/img/canyon/memory/28.jpg","[""ArrowDown"",""ArrowRight""]","value training","canyon","30","{""ArrowUp,ArrowLeft"":23,""ArrowUp,ArrowRight"":10,""ArrowDown,ArrowLeft"":8,""ArrowDown,ArrowRight"":30}","true","ArrowDown,ArrowRight","false","","","revaluation","1","92","","",""
"html-keyboard-response","215","1235027","0.0-4.0-2.0-1.46","spark_pilot_2","7310","6","11","Female","","","","","","","null","<div style=""font-size:60px;"">+</div>","null","fixation","","","","","","","","","","","93","","",""
"revaluation","216","1241052","0.0-4.0-2.0-0.47","spark_pilot_2","7310","6","11","Female","","false","","","","","[959.2999999970198,988.7999999970198]","./assets/img/canyon/memory/36.jpg","[""ArrowDown"",""ArrowRight""]","value training","canyon","30","{""ArrowUp,ArrowLeft"":23,""ArrowUp,ArrowRight"":10,""ArrowDown,ArrowLeft"":8,""ArrowDown,ArrowRight"":30}","true","ArrowDown,ArrowRight","false","","","revaluation","1","94","","",""
"html-keyboard-response","217","1241563","0.0-4.0-2.0-1.47","spark_pilot_2","7310","6","11","Female","","","","","","","null","<div style=""font-size:60px;"">+</div>","null","fixation","","","","","","","","","","","95","","",""
"revaluation","218","1247588","0.0-4.0-2.0-0.48","spark_pilot_2","7310","6","11","Female","","false","","","","","[1105.5,1104.2999999970198]","./assets/img/canyon/memory/30.jpg","[""ArrowDown"",""ArrowRight""]","value training","canyon","30","{""ArrowUp,ArrowLeft"":23,""ArrowUp,ArrowRight"":10,""ArrowDown,ArrowLeft"":8,""ArrowDown,ArrowRight"":30}","true","ArrowDown,ArrowRight","false","","","revaluation","1","96","","",""
"html-keyboard-response","219","1248099","0.0-4.0-2.0-1.48","spark_pilot_2","7310","6","11","Female","","","","","","","null","<div style=""font-size:60px;"">+</div>","null","fixation","","","","","","","","","","","97","","",""
"revaluation","220","1254124","0.0-4.0-2.0-0.49","spark_pilot_2","7310","6","11","Female","","false","","","","","[611.1000000014901,787.1000000014901]","./assets/img/canyon/memory/0.jpg","[""ArrowDown"",""ArrowRight""]","value training","canyon","30","{""ArrowUp,ArrowLeft"":23,""ArrowUp,ArrowRight"":10,""ArrowDown,ArrowLeft"":8,""ArrowDown,ArrowRight"":30}","true","ArrowDown,ArrowRight","false","","","revaluation","1","98","","",""
"html-keyboard-response","221","1254635","0.0-4.0-2.0-1.49","spark_pilot_2","7310","6","11","Female","","","","","","","null","<div style=""font-size:60px;"">+</div>","null","fixation","","","","","","","","","","","99","","",""
"learning-instructions","222","1274948","0.0-4.0-3.0-0.0","spark_pilot_2","7310","6","11","Female","","","","","","","6710.70000000298","<p> Now, you will travel with a friend who will choose whether you go up or down first. </p>
            <p> On these turns, you will just see the animal that they found. You will still get to choose which chest to search for treasure.</p>","","instructions","","","","","","","","","","","","","",""
"revaluation","223","1278959","0.0-4.0-4.0-0.0","spark_pilot_2","7310","6","11","Female","","true","","","","","[]","./assets/img/canyon/animals/giraffe.jpg","[]","revaluation","canyon","-5","{""ArrowUp,ArrowLeft"":27,""ArrowUp,ArrowRight"":15,""ArrowDown,ArrowLeft"":21,""ArrowDown,ArrowRight"":7}","false","ArrowUp","","","","revaluation","1","0","","",""
"html-keyboard-response","224","1279463","0.0-4.0-4.0-1.0","spark_pilot_2","7310","6","11","Female","","","","","","","null","<div style=""font-size:60px;"">+</div>","null","fixation","","","","","","","","","","","1","","",""
"revaluation","225","1283480","0.0-4.0-4.0-0.1","spark_pilot_2","7310","6","11","Female","","false","","","","","[467.6000000014901]","./assets/img/canyon/animals/giraffe.jpg","[""ArrowLeft""]","revaluation","canyon","27","{""ArrowUp,ArrowLeft"":27,""ArrowUp,ArrowRight"":15,""ArrowDown,ArrowLeft"":21,""ArrowDown,ArrowRight"":7}","true","ArrowUp,ArrowLeft","","","","revaluation","1","2","","",""
"html-keyboard-response","226","1283985","0.0-4.0-4.0-1.1","spark_pilot_2","7310","6","11","Female","","","","","","","null","<div style=""font-size:60px;"">+</div>","null","fixation","","","","","","","","","","","3","","",""
"revaluation","227","1288002","0.0-4.0-4.0-0.2","spark_pilot_2","7310","6","11","Female","","false","","","","","[534.8999999985099]","./assets/img/canyon/animals/giraffe.jpg","[""ArrowLeft""]","revaluation","canyon","27","{""ArrowUp,ArrowLeft"":27,""ArrowUp,ArrowRight"":15,""ArrowDown,ArrowLeft"":21,""ArrowDown,ArrowRight"":7}","true","ArrowUp,ArrowLeft","","","","revaluation","1","4","","",""
"html-keyboard-response","228","1288513","0.0-4.0-4.0-1.2","spark_pilot_2","7310","6","11","Female","","","","","","","null","<div style=""font-size:60px;"">+</div>","null","fixation","","","","","","","","","","","5","","",""
"revaluation","229","1292530","0.0-4.0-4.0-0.3","spark_pilot_2","7310","6","11","Female","","false","","","","","[755.3999999985099]","./assets/img/canyon/animals/giraffe.jpg","[""ArrowLeft""]","revaluation","canyon","27","{""ArrowUp,ArrowLeft"":27,""ArrowUp,ArrowRight"":15,""ArrowDown,ArrowLeft"":21,""ArrowDown,ArrowRight"":7}","true","ArrowUp,ArrowLeft","","","","revaluation","1","6","","",""
"html-keyboard-response","230","1293041","0.0-4.0-4.0-1.3","spark_pilot_2","7310","6","11","Female","","","","","","","null","<div style=""font-size:60px;"">+</div>","null","fixation","","","","","","","","","","","7","","",""
"revaluation","231","1297055","0.0-4.0-4.0-0.4","spark_pilot_2","7310","6","11","Female","","false","","","","","[682.1000000014901]","./assets/img/canyon/animals/lion.jpg","[""ArrowRight""]","revaluation","canyon","7","{""ArrowUp,ArrowLeft"":27,""ArrowUp,ArrowRight"":15,""ArrowDown,ArrowLeft"":21,""ArrowDown,ArrowRight"":7}","false","ArrowDown,ArrowRight","","","","revaluation","1","8","","",""
"html-keyboard-response","232","1297559","0.0-4.0-4.0-1.4","spark_pilot_2","7310","6","11","Female","","","","","","","null","<div style=""font-size:60px;"">+</div>","null","fixation","","","","","","","","","","","9","","",""
"revaluation","233","1301575","0.0-4.0-4.0-0.5","spark_pilot_2","7310","6","11","Female","","false","","","","","[854.8000000044703]","./assets/img/canyon/animals/lion.jpg","[""ArrowLeft""]","revaluation","canyon","21","{""ArrowUp,ArrowLeft"":27,""ArrowUp,ArrowRight"":15,""ArrowDown,ArrowLeft"":21,""ArrowDown,ArrowRight"":7}","true","ArrowDown,ArrowLeft","","","","revaluation","1","10","","",""
"html-keyboard-response","234","1302080","0.0-4.0-4.0-1.5","spark_pilot_2","7310","6","11","Female","","","","","","","null","<div style=""font-size:60px;"">+</div>","null","fixation","","","","","","","","","","","11","","",""
"revaluation","235","1306097","0.0-4.0-4.0-0.6","spark_pilot_2","7310","6","11","Female","","false","","","","","[542.3000000044703]","./assets/img/canyon/animals/lion.jpg","[""ArrowLeft""]","revaluation","canyon","21","{""ArrowUp,ArrowLeft"":27,""ArrowUp,ArrowRight"":15,""ArrowDown,ArrowLeft"":21,""ArrowDown,ArrowRight"":7}","true","ArrowDown,ArrowLeft","","","","revaluation","1","12","","",""
"html-keyboard-response","236","1306608","0.0-4.0-4.0-1.6","spark_pilot_2","7310","6","11","Female","","","","","","","null","<div style=""font-size:60px;"">+</div>","null","fixation","","","","","","","","","","","13","","",""
"revaluation","237","1310625","0.0-4.0-4.0-0.7","spark_pilot_2","7310","6","11","Female","","false","","","","","[593.3999999985099]","./assets/img/canyon/animals/lion.jpg","[""ArrowLeft""]","revaluation","canyon","21","{""ArrowUp,ArrowLeft"":27,""ArrowUp,ArrowRight"":15,""ArrowDown,ArrowLeft"":21,""ArrowDown,ArrowRight"":7}","true","ArrowDown,ArrowLeft","","","","revaluation","1","14","","",""
"html-keyboard-response","238","1311135","0.0-4.0-4.0-1.7","spark_pilot_2","7310","6","11","Female","","","","","","","null","<div style=""font-size:60px;"">+</div>","null","fixation","","","","","","","","","","","15","","",""
"revaluation","239","1315152","0.0-4.0-4.0-0.8","spark_pilot_2","7310","6","11","Female","","false","","","","","[835.7999999970198]","./assets/img/canyon/animals/lion.jpg","[""ArrowLeft""]","revaluation","canyon","21","{""ArrowUp,ArrowLeft"":27,""ArrowUp,ArrowRight"":15,""ArrowDown,ArrowLeft"":21,""ArrowDown,ArrowRight"":7}","true","ArrowDown,ArrowLeft","","","","revaluation","1","16","","",""
"html-keyboard-response","240","1315657","0.0-4.0-4.0-1.8","spark_pilot_2","7310","6","11","Female","","","","","","","null","<div style=""font-size:60px;"">+</div>","null","fixation","","","","","","","","","","","17","","",""
"revaluation","241","1319672","0.0-4.0-4.0-0.9","spark_pilot_2","7310","6","11","Female","","false","","","","","[510.69999999552965]","./assets/img/canyon/animals/lion.jpg","[""ArrowRight""]","revaluation","canyon","7","{""ArrowUp,ArrowLeft"":27,""ArrowUp,ArrowRight"":15,""ArrowDown,ArrowLeft"":21,""ArrowDown,ArrowRight"":7}","false","ArrowDown,ArrowRight","","","","revaluation","1","18","","",""
"html-keyboard-response","242","1320173","0.0-4.0-4.0-1.9","spark_pilot_2","7310","6","11","Female","","","","","","","null","<div style=""font-size:60px;"">+</div>","null","fixation","","","","","","","","","","","19","","",""
"revaluation","243","1324190","0.0-4.0-4.0-0.10","spark_pilot_2","7310","6","11","Female","","false","","","","","[496.8999999985099]","./assets/img/canyon/animals/giraffe.jpg","[""ArrowLeft""]","revaluation","canyon","27","{""ArrowUp,ArrowLeft"":27,""ArrowUp,ArrowRight"":15,""ArrowDown,ArrowLeft"":21,""ArrowDown,ArrowRight"":7}","true","ArrowUp,ArrowLeft","","","","revaluation","1","20","","",""
"html-keyboard-response","244","1324695","0.0-4.0-4.0-1.10","spark_pilot_2","7310","6","11","Female","","","","","","","null","<div style=""font-size:60px;"">+</div>","null","fixation","","","","","","","","","","","21","","",""
"revaluation","245","1328712","0.0-4.0-4.0-0.11","spark_pilot_2","7310","6","11","Female","","false","","","","","[731.6000000014901]","./assets/img/canyon/animals/lion.jpg","[""ArrowLeft""]","revaluation","canyon","21","{""ArrowUp,ArrowLeft"":27,""ArrowUp,ArrowRight"":15,""ArrowDown,ArrowLeft"":21,""ArrowDown,ArrowRight"":7}","true","ArrowDown,ArrowLeft","","","","revaluation","1","22","","",""
"html-keyboard-response","246","1329223","0.0-4.0-4.0-1.11","spark_pilot_2","7310","6","11","Female","","","","","","","null","<div style=""font-size:60px;"">+</div>","null","fixation","","","","","","","","","","","23","","",""
"revaluation","247","1333240","0.0-4.0-4.0-0.12","spark_pilot_2","7310","6","11","Female","","false","","","","","[377.6000000014901]","./assets/img/canyon/animals/giraffe.jpg","[""ArrowLeft""]","revaluation","canyon","27","{""ArrowUp,ArrowLeft"":27,""ArrowUp,ArrowRight"":15,""ArrowDown,ArrowLeft"":21,""ArrowDown,ArrowRight"":7}","true","ArrowUp,ArrowLeft","","","","revaluation","1","24","","",""
"html-keyboard-response","248","1333751","0.0-4.0-4.0-1.12","spark_pilot_2","7310","6","11","Female","","","","","","","null","<div style=""font-size:60px;"">+</div>","null","fixation","","","","","","","","","","","25","","",""
"revaluation","249","1337762","0.0-4.0-4.0-0.13","spark_pilot_2","7310","6","11","Female","","false","","","","","[575.2000000029802]","./assets/img/canyon/animals/giraffe.jpg","[""ArrowLeft""]","revaluation","canyon","27","{""ArrowUp,ArrowLeft"":27,""ArrowUp,ArrowRight"":15,""ArrowDown,ArrowLeft"":21,""ArrowDown,ArrowRight"":7}","true","ArrowUp,ArrowLeft","","","","revaluation","1","26","","",""
"html-keyboard-response","250","1338272","0.0-4.0-4.0-1.13","spark_pilot_2","7310","6","11","Female","","","","","","","null","<div style=""font-size:60px;"">+</div>","null","fixation","","","","","","","","","","","27","","",""
"revaluation","251","1342290","0.0-4.0-4.0-0.14","spark_pilot_2","7310","6","11","Female","","false","","","","","[542.7999999970198]","./assets/img/canyon/animals/giraffe.jpg","[""ArrowLeft""]","revaluation","canyon","27","{""ArrowUp,ArrowLeft"":27,""ArrowUp,ArrowRight"":15,""ArrowDown,ArrowLeft"":21,""ArrowDown,ArrowRight"":7}","true","ArrowUp,ArrowLeft","","","","revaluation","1","28","","",""
"html-keyboard-response","252","1342800","0.0-4.0-4.0-1.14","spark_pilot_2","7310","6","11","Female","","","","","","","null","<div style=""font-size:60px;"">+</div>","null","fixation","","","","","","","","","","","29","","",""
"revaluation","253","1346817","0.0-4.0-4.0-0.15","spark_pilot_2","7310","6","11","Female","","false","","","","","[705.9000000059605]","./assets/img/canyon/animals/lion.jpg","[""ArrowLeft""]","revaluation","canyon","21","{""ArrowUp,ArrowLeft"":27,""ArrowUp,ArrowRight"":15,""ArrowDown,ArrowLeft"":21,""ArrowDown,ArrowRight"":7}","true","ArrowDown,ArrowLeft","","","","revaluation","1","30","","",""
"html-keyboard-response","254","1347328","0.0-4.0-4.0-1.15","spark_pilot_2","7310","6","11","Female","","","","","","","null","<div style=""font-size:60px;"">+</div>","null","fixation","","","","","","","","","","","31","","",""
"revaluation","255","1351345","0.0-4.0-4.0-0.16","spark_pilot_2","7310","6","11","Female","","false","","","","","[531.2999999970198]","./assets/img/canyon/animals/lion.jpg","[""ArrowLeft""]","revaluation","canyon","21","{""ArrowUp,ArrowLeft"":27,""ArrowUp,ArrowRight"":15,""ArrowDown,ArrowLeft"":21,""ArrowDown,ArrowRight"":7}","true","ArrowDown,ArrowLeft","","","","revaluation","1","32","","",""
"html-keyboard-response","256","1351856","0.0-4.0-4.0-1.16","spark_pilot_2","7310","6","11","Female","","","","","","","null","<div style=""font-size:60px;"">+</div>","null","fixation","","","","","","","","","","","33","","",""
"revaluation","257","1355869","0.0-4.0-4.0-0.17","spark_pilot_2","7310","6","11","Female","","false","","","","","[841.7999999970198]","./assets/img/canyon/animals/giraffe.jpg","[""ArrowLeft""]","revaluation","canyon","27","{""ArrowUp,ArrowLeft"":27,""ArrowUp,ArrowRight"":15,""ArrowDown,ArrowLeft"":21,""ArrowDown,ArrowRight"":7}","true","ArrowUp,ArrowLeft","","","","revaluation","1","34","","",""
"html-keyboard-response","258","1356372","0.0-4.0-4.0-1.17","spark_pilot_2","7310","6","11","Female","","","","","","","null","<div style=""font-size:60px;"">+</div>","null","fixation","","","","","","","","","","","35","","",""
"learning-instructions","259","1370464","0.0-4.0-5.0-0.0","spark_pilot_2","7310","6","11","Female","","","","","","","1790.3999999985099","<p> Time to play the dot game! </p>
            <p> For one minute, click the red dots on the following screen as they appear. </p>
            <p><b> Don't look away, as you will earn bonus for clicking dots</b>. </p>","","instructions","","","","","","","","","","","","","",""
"revaluation","260","1430466","0.0-4.0-6.0-0.0","spark_pilot_2","7310","6","11","Female","","","","","","","[81,100,67,113,103,71]","","","rest","","60","","","","","0","60000","","","","","",""
"learning-instructions","261","1470503","0.0-4.0-7.0-0.0","spark_pilot_2","7310","6","11","Female","","","","","","","33221.09999999404","<p> You have almost finished this part of the game! </p>
            <p> We are going to ask you to make a few more choices. </p>","","instructions","","","","","","","","","","","","","",""
"learning-instructions","262","1519274","0.0-4.0-7.0-0.1","spark_pilot_2","7310","6","11","Female","","","","","","","34801.69999999553","<p> First, you need to decide whether to go up or down. When you see each picture, use the arrow keys to make your choice. </p>
            <p><b>You will not see which animal you found, but try to get to the one that will give you the most treasure.</b></p>","","instructions","","","","","","","","","","","","","",""
"revaluation","263","1520940","0.0-4.0-8.0-0.0","spark_pilot_2","7310","6","11","Female","","false","","","","","[1664.3000000044703]","./assets/img/canyon/test/3.jpg","[""ArrowDown""]","first stage test","canyon","0","{""ArrowUp,ArrowLeft"":27,""ArrowUp,ArrowRight"":15,""ArrowDown,ArrowLeft"":21,""ArrowDown,ArrowRight"":7}","false","ArrowDown","false","","","revaluation","1","","","",""
"html-keyboard-response","264","1521451","0.0-4.0-8.0-1.0","spark_pilot_2","7310","6","11","Female","","","","","","","null","<div style=""font-size:60px;"">+</div>","null","fixation","","","","","","","","","","","","","",""
"revaluation","265","1522144","0.0-4.0-8.0-0.1","spark_pilot_2","7310","6","11","Female","","false","","","","","[691.2000000029802]","./assets/img/canyon/test/2.jpg","[""ArrowDown""]","first stage test","canyon","0","{""ArrowUp,ArrowLeft"":27,""ArrowUp,ArrowRight"":15,""ArrowDown,ArrowLeft"":21,""ArrowDown,ArrowRight"":7}","false","ArrowDown","false","","","revaluation","1","","","",""
"html-keyboard-response","266","1522650","0.0-4.0-8.0-1.1","spark_pilot_2","7310","6","11","Female","","","","","","","null","<div style=""font-size:60px;"">+</div>","null","fixation","","","","","","","","","","","","","",""
"revaluation","267","1523144","0.0-4.0-8.0-0.2","spark_pilot_2","7310","6","11","Female","","false","","","","","[492.29999999701977]","./assets/img/canyon/test/0.jpg","[""ArrowUp""]","first stage test","canyon","0","{""ArrowUp,ArrowLeft"":27,""ArrowUp,ArrowRight"":15,""ArrowDown,ArrowLeft"":21,""ArrowDown,ArrowRight"":7}","true","ArrowUp","false","","","revaluation","1","","","",""
"html-keyboard-response","268","1523651","0.0-4.0-8.0-1.2","spark_pilot_2","7310","6","11","Female","","","","","","","null","<div style=""font-size:60px;"">+</div>","null","fixation","","","","","","","","","","","","","",""
"revaluation","269","1523989","0.0-4.0-8.0-0.3","spark_pilot_2","7310","6","11","Female","","false","","","","","[335.8999999985099]","./assets/img/canyon/test/1.jpg","[""ArrowUp""]","first stage test","canyon","0","{""ArrowUp,ArrowLeft"":27,""ArrowUp,ArrowRight"":15,""ArrowDown,ArrowLeft"":21,""ArrowDown,ArrowRight"":7}","true","ArrowUp","false","","","revaluation","1","","","",""
"html-keyboard-response","270","1524498","0.0-4.0-8.0-1.3","spark_pilot_2","7310","6","11","Female","","","","","","","null","<div style=""font-size:60px;"">+</div>","null","fixation","","","","","","","","","","","","","",""
"learning-instructions","271","1536656","0.0-4.0-9.0-0.0","spark_pilot_2","7310","6","11","Female","","","","","","","808.7999999970198","<p> Now you will see the animals again and can search their chests for treasure. </p>
            <p> This time, you will not see how much treasure you earned, but you will earn more bonus money for making better choices. </p>","","instructions","","","","","","","","","","","","","",""
"revaluation","272","1537771","0.0-4.0-10.0-0.0","spark_pilot_2","7310","6","11","Female","","false","","","","","[1113.7000000029802]","./assets/img/canyon/animals/giraffe.jpg","[""ArrowRight""]","second stage test","canyon","0","{""ArrowUp,ArrowLeft"":27,""ArrowUp,ArrowRight"":15,""ArrowDown,ArrowLeft"":21,""ArrowDown,ArrowRight"":7}","false","ArrowUp,ArrowRight","","","","revaluation","1","","","",""
"html-keyboard-response","273","1538278","0.0-4.0-10.0-1.0","spark_pilot_2","7310","6","11","Female","","","","","","","null","<div style=""font-size:60px;"">+</div>","null","fixation","","","","","","","","","","","","","",""
"revaluation","274","1539030","0.0-4.0-10.0-0.1","spark_pilot_2","7310","6","11","Female","","false","","","","","[749.8999999985099]","./assets/img/canyon/animals/giraffe.jpg","[""ArrowLeft""]","second stage test","canyon","0","{""ArrowUp,ArrowLeft"":27,""ArrowUp,ArrowRight"":15,""ArrowDown,ArrowLeft"":21,""ArrowDown,ArrowRight"":7}","true","ArrowUp,ArrowLeft","","","","revaluation","1","","","",""
"html-keyboard-response","275","1539534","0.0-4.0-10.0-1.1","spark_pilot_2","7310","6","11","Female","","","","","","","null","<div style=""font-size:60px;"">+</div>","null","fixation","","","","","","","","","","","","","",""
"revaluation","276","1540087","0.0-4.0-10.0-0.2","spark_pilot_2","7310","6","11","Female","","false","","","","","[549.7000000029802]","./assets/img/canyon/animals/giraffe.jpg","[""ArrowLeft""]","second stage test","canyon","0","{""ArrowUp,ArrowLeft"":27,""ArrowUp,ArrowRight"":15,""ArrowDown,ArrowLeft"":21,""ArrowDown,ArrowRight"":7}","true","ArrowUp,ArrowLeft","","","","revaluation","1","","","",""
"html-keyboard-response","277","1540590","0.0-4.0-10.0-1.2","spark_pilot_2","7310","6","11","Female","","","","","","","null","<div style=""font-size:60px;"">+</div>","null","fixation","","","","","","","","","","","","","",""
"revaluation","278","1540988","0.0-4.0-10.0-0.3","spark_pilot_2","7310","6","11","Female","","false","","","","","[395.30000000447035]","./assets/img/canyon/animals/giraffe.jpg","[""ArrowLeft""]","second stage test","canyon","0","{""ArrowUp,ArrowLeft"":27,""ArrowUp,ArrowRight"":15,""ArrowDown,ArrowLeft"":21,""ArrowDown,ArrowRight"":7}","true","ArrowUp,ArrowLeft","","","","revaluation","1","","","",""
"html-keyboard-response","279","1541494","0.0-4.0-10.0-1.3","spark_pilot_2","7310","6","11","Female","","","","","","","null","<div style=""font-size:60px;"">+</div>","null","fixation","","","","","","","","","","","","","",""
"revaluation","280","1541820","0.0-4.0-10.0-0.4","spark_pilot_2","7310","6","11","Female","","false","","","","","[323.79999999701977]","./assets/img/canyon/animals/lion.jpg","[""ArrowRight""]","second stage test","canyon","0","{""ArrowUp,ArrowLeft"":27,""ArrowUp,ArrowRight"":15,""ArrowDown,ArrowLeft"":21,""ArrowDown,ArrowRight"":7}","false","ArrowDown,ArrowRight","","","","revaluation","1","","","",""
"html-keyboard-response","281","1542330","0.0-4.0-10.0-1.4","spark_pilot_2","7310","6","11","Female","","","","","","","null","<div style=""font-size:60px;"">+</div>","null","fixation","","","","","","","","","","","","","",""
"revaluation","282","1542642","0.0-4.0-10.0-0.5","spark_pilot_2","7310","6","11","Female","","false","","","","","[309.8999999985099]","./assets/img/canyon/animals/lion.jpg","[""ArrowRight""]","second stage test","canyon","0","{""ArrowUp,ArrowLeft"":27,""ArrowUp,ArrowRight"":15,""ArrowDown,ArrowLeft"":21,""ArrowDown,ArrowRight"":7}","false","ArrowDown,ArrowRight","","","","revaluation","1","","","",""
"html-keyboard-response","283","1543143","0.0-4.0-10.0-1.5","spark_pilot_2","7310","6","11","Female","","","","","","","null","<div style=""font-size:60px;"">+</div>","null","fixation","","","","","","","","","","","","","",""
"revaluation","284","1543305","0.0-4.0-10.0-0.6","spark_pilot_2","7310","6","11","Female","","false","","","","","[160.70000000298023]","./assets/img/canyon/animals/lion.jpg","[""ArrowRight""]","second stage test","canyon","0","{""ArrowUp,ArrowLeft"":27,""ArrowUp,ArrowRight"":15,""ArrowDown,ArrowLeft"":21,""ArrowDown,ArrowRight"":7}","false","ArrowDown,ArrowRight","","","","revaluation","1","","","",""
"html-keyboard-response","285","1543806","0.0-4.0-10.0-1.6","spark_pilot_2","7310","6","11","Female","","","","","","","null","<div style=""font-size:60px;"">+</div>","null","fixation","","","","","","","","","","","","","",""
"revaluation","286","1544093","0.0-4.0-10.0-0.7","spark_pilot_2","7310","6","11","Female","","false","","","","","[284.5]","./assets/img/canyon/animals/lion.jpg","[""ArrowRight""]","second stage test","canyon","0","{""ArrowUp,ArrowLeft"":27,""ArrowUp,ArrowRight"":15,""ArrowDown,ArrowLeft"":21,""ArrowDown,ArrowRight"":7}","false","ArrowDown,ArrowRight","","","","revaluation","1","","","",""
"html-keyboard-response","287","1544598","0.0-4.0-10.0-1.7","spark_pilot_2","7310","6","11","Female","","","","","","","null","<div style=""font-size:60px;"">+</div>","null","fixation","","","","","","","","","","","","","",""
"learning-instructions","288","1549099","0.0-4.0-0.1-0.2","spark_pilot_2","7310","6","11","Female","","","","","","","1631","<p> This time you are searching for treasure in the <b>ocean</b>.</p>","","instructions","","","","","","","","","","","","","",""
"learning-instructions","289","1567955","0.0-4.0-0.1-0.3","spark_pilot_2","7310","6","11","Female","","","","","","","1603.8999999985099","<p><b>New</b> animals with <b>new</b> treasure chests live here. You need to explore to discover where the animal with the best treasure chest is.</p>
                    <p> Like before, once you figure out which animal has the chest with the most treasure, you should try to get to that animal and select that chest! </p>","","instructions","","","","","","","","","","","","","",""
"learning-instructions","290","1583964","0.0-4.0-1.1-0.1","spark_pilot_2","7310","6","11","Female","","","","","","","1278.3999999985099","<p> Remember, when you see a picture of the place, use the up and down keys to <b>find an animal</b>.</p>
            <p> When you encounter an animal, you should use the left and right keys to <b>select a treasure chest</b>.</p>
            <p> Don't forget to look out for the robber! </p>","","instructions","","","","","","","","","","","","","",""
"revaluation","291","1587985","0.0-4.0-2.1-0.50","spark_pilot_2","7310","6","11","Female","","false","","","","","[1810.7000000029802]","./assets/img/ocean/catch/7.jpg","[""spaceBar""]","value training","ocean","0","{""ArrowUp,ArrowLeft"":26,""ArrowUp,ArrowRight"":10,""ArrowDown,ArrowLeft"":5,""ArrowDown,ArrowRight"":17}","true","spaceBar","true","","","original","2","0","","",""
"html-keyboard-response","292","1588496","0.0-4.0-2.1-1.50","spark_pilot_2","7310","6","11","Female","","","","","","","null","<div style=""font-size:60px;"">+</div>","null","fixation","","","","","","","","","","","1","","",""
"revaluation","293","1594516","0.0-4.0-2.1-0.51","spark_pilot_2","7310","6","11","Female","","false","","","","","[1845.6999999955297,1069.0999999940395]","./assets/img/ocean/memory/9.jpg","[""ArrowDown"",""ArrowRight""]","value training","ocean","17","{""ArrowUp,ArrowLeft"":26,""ArrowUp,ArrowRight"":10,""ArrowDown,ArrowLeft"":5,""ArrowDown,ArrowRight"":17}","false","ArrowDown,ArrowRight","false","","","original","2","2","","",""
"html-keyboard-response","294","1595020","0.0-4.0-2.1-1.51","spark_pilot_2","7310","6","11","Female","","","","","","","null","<div style=""font-size:60px;"">+</div>","null","fixation","","","","","","","","","","","3","","",""
"revaluation","295","1599037","0.0-4.0-2.1-0.52","spark_pilot_2","7310","6","11","Female","","false","","","","","[1351.2999999970198]","./assets/img/ocean/catch/6.jpg","[""spaceBar""]","value training","ocean","0","{""ArrowUp,ArrowLeft"":26,""ArrowUp,ArrowRight"":10,""ArrowDown,ArrowLeft"":5,""ArrowDown,ArrowRight"":17}","true","spaceBar","true","","","original","2","4","","",""
"html-keyboard-response","296","1599542","0.0-4.0-2.1-1.52","spark_pilot_2","7310","6","11","Female","","","","","","","null","<div style=""font-size:60px;"">+</div>","null","fixation","","","","","","","","","","","5","","",""
"revaluation","297","1605567","0.0-4.0-2.1-0.53","spark_pilot_2","7310","6","11","Female","","false","","","","","[1589,1126.2000000029802]","./assets/img/ocean/memory/35.jpg","[""ArrowDown"",""ArrowLeft""]","value training","ocean","5","{""ArrowUp,ArrowLeft"":26,""ArrowUp,ArrowRight"":10,""ArrowDown,ArrowLeft"":5,""ArrowDown,ArrowRight"":17}","false","ArrowDown,ArrowLeft","false","","","original","2","6","","",""
"html-keyboard-response","298","1606078","0.0-4.0-2.1-1.53","spark_pilot_2","7310","6","11","Female","","","","","","","null","<div style=""font-size:60px;"">+</div>","null","fixation","","","","","","","","","","","7","","",""
"revaluation","299","1612104","0.0-4.0-2.1-0.54","spark_pilot_2","7310","6","11","Female","","false","","","","","[745.1000000014901,774.8999999985099]","./assets/img/ocean/memory/37.jpg","[""ArrowUp"",""ArrowRight""]","value training","ocean","10","{""ArrowUp,ArrowLeft"":26,""ArrowUp,ArrowRight"":10,""ArrowDown,ArrowLeft"":5,""ArrowDown,ArrowRight"":17}","false","ArrowUp,ArrowRight","false","","","original","2","8","","",""
"html-keyboard-response","300","1612615","0.0-4.0-2.1-1.54","spark_pilot_2","7310","6","11","Female","","","","","","","null","<div style=""font-size:60px;"">+</div>","null","fixation","","","","","","","","","","","9","","",""
"revaluation","301","1618635","0.0-4.0-2.1-0.55","spark_pilot_2","7310","6","11","Female","","false","","","","","[351.8999999985099,526.8999999985099]","./assets/img/ocean/memory/26.jpg","[""ArrowUp"",""ArrowLeft""]","value training","ocean","26","{""ArrowUp,ArrowLeft"":26,""ArrowUp,ArrowRight"":10,""ArrowDown,ArrowLeft"":5,""ArrowDown,ArrowRight"":17}","true","ArrowUp,ArrowLeft","false","","","original","2","10","","",""
"html-keyboard-response","302","1619140","0.0-4.0-2.1-1.55","spark_pilot_2","7310","6","11","Female","","","","","","","null","<div style=""font-size:60px;"">+</div>","null","fixation","","","","","","","","","","","11","","",""
"revaluation","303","1625156","0.0-4.0-2.1-0.56","spark_pilot_2","7310","6","11","Female","","false","","","","","[576.3000000044703,358.6000000014901]","./assets/img/ocean/memory/36.jpg","[""ArrowUp"",""ArrowLeft""]","value training","ocean","26","{""ArrowUp,ArrowLeft"":26,""ArrowUp,ArrowRight"":10,""ArrowDown,ArrowLeft"":5,""ArrowDown,ArrowRight"":17}","true","ArrowUp,ArrowLeft","false","","","original","2","12","","",""
"html-keyboard-response","304","1625659","0.0-4.0-2.1-1.56","spark_pilot_2","7310","6","11","Female","","","","","","","null","<div style=""font-size:60px;"">+</div>","null","fixation","","","","","","","","","","","13","","",""
