"trial_type","trial_index","time_elapsed","internal_node_id","task_version","subject_id","assigned_condition","age","gender","success","timeout","failed_images","failed_audio","failed_video","browser_interaction","rt","stimulus","response","task_part","environment","score","rewardMap","correct","fullState","isCatch","numberMissed","duration","condition","order","trial_num","key_press","ground_truth","bonus"
"pavlovia","0","2159","0.0-0.0","spark_pilot_2","9609","8","7","Female","","","","","","","","","","","","","","","","","","","","","","","",""
"preload","1","11204","0.0-1.0","spark_pilot_2","9609","8","7","Female","true","false","[]","[]","[]","[{""event"":""fullscreenenter"",""trial"":2,""time"":27237}]","","","","","","","","","","","","","","","","","",""
"fullscreen","2","28221","0.0-2.0","spark_pilot_2","9609","8","7","Female","true","","","","","","","","","","","","","","","","","","","","","","",""
"audio-button-response","3","42666","0.0-3.0-0.0-0.0","spark_pilot_2","9609","8","7","Female","","","","","","","14118","./assets/audio/audiotest/turtle.mp3","2","audio_test","","","","","","","","","","","","","",""
"learning-instructions","4","58057","0.0-3.0-1.0-0.0","spark_pilot_2","9609","8","7","Female","","","","","","","8397.80000000028","<p> Welcome! Please remember to stay in fullscreen mode and don't click away from the experiment. </p>","","instructions","","","","","","","","","","","","","",""
"learning-instructions","5","68992","0.0-3.0-1.0-0.1","spark_pilot_2","9609","8","7","Female","","","","","","","2504.1999999997206","<p> Today you will be playing a game to earn treasure. </p>
            <p> At the end of the experiment, you will earn a bonus based on how much treasure you find. </p>
            <img src='./assets/img/instructions/treasure.jpg' class='instructions-image'>","","instructions","","","","","","","","","","","","","",""
"learning-instructions","6","82537","0.0-3.0-1.0-0.2","spark_pilot_2","9609","8","7","Female","","","","","","","5264.200000000186","<p> Animals have hidden treasure in treasure chests. </p>
            <p> You need to first find an animal and then choose which of their treasure chests to search. </p>
            <img src='./assets/img/space/animals/cat.jpg' class='instructions-image'>","","instructions","","","","","","","","","","","","","",""
"learning-instructions","7","101516","0.0-3.0-1.0-0.3","spark_pilot_2","9609","8","7","Female","","","","","","","5795.199999999721","<p> In each round, you will search for treasure in a different place. In the real game, there will be two rounds. </p>
            <p> You will begin with a separate, practice round where you will search for treasure in outer space. </p>
            <img src='./assets/img/space/0.jpg' class='instructions-image'>","","instructions","","","","","","","","","","","","","",""
"learning-instructions","8","139957","0.0-3.0-1.0-0.4","spark_pilot_2","9609","8","7","Female","","","","","","","26996.5","<p> On every turn, you will see a picture of the place that you are in, but the specific image may be different each time. </p>
            <p> For example, both of these images mean you are in outer space. </p>
            <img src='./assets/img/instructions/outerspace.jpg' class='instructions-image'>","","instructions","","","","","","","","","","","","","",""
"learning-instructions","9","157856","0.0-3.0-1.0-0.5","spark_pilot_2","9609","8","7","Female","","","","","","","10053.899999999907","<p> You need to decide which direction to travel in. </p>
            <p> You can choose between going <b>up or down</b> by using the arrow keys. </p>
            <img src='./assets/img/instructions/updown.jpg' class='instructions-image'>","","instructions","","","","","","","","","","","","","",""
"learning-instructions","10","173213","0.0-3.0-1.0-0.6","spark_pilot_2","9609","8","7","Female","","","","","","","6521.5","<p> You will have <b>2 seconds</b> to make your choice. </p>
            <p> If you do not make a choice within 2 seconds, you will not find an animal or earn treasure. </p>
            <img src='./assets/img/instructions/2seconds.jpg' class='instructions-image'>","","instructions","","","","","","","","","","","","","",""
"learning-instructions","11","182101","0.0-3.0-1.0-0.7","spark_pilot_2","9609","8","7","Female","","","","","","","1832.1000000000931","<p> Let’s try practicing that now! </p>
            <p> When you see a picture of the place you are in, press the <b>up</b> key to travel up. </p>
            <img src='./assets/img/instructions/pressUp.jpg' class='instructions-image'>","","instructions","","","","","","","","","","","","","",""
"revaluation","12","186127","0.0-3.0-2.0-0.0","spark_pilot_2","9609","8","7","Female","","true","","","","","[]","./assets/img/space/0.jpg","[]","first stage practice","space","-5","null","null","","false","","","","","","","",""
"html-keyboard-response","13","186630","0.0-3.0-2.0-1.0","spark_pilot_2","9609","8","7","Female","","","","","","","null","<div style=""font-size:60px;"">+</div>","null","fixation","","","","","","","","","","","","","",""
"revaluation","14","190648","0.0-3.0-2.0-0.1","spark_pilot_2","9609","8","7","Female","","false","","","","","[793.1000000000931]","./assets/img/space/1.jpg","[""ArrowUp""]","first stage practice","space","0","null","null","ArrowUp","false","","","","","","","",""
"html-keyboard-response","15","191150","0.0-3.0-2.0-1.1","spark_pilot_2","9609","8","7","Female","","","","","","","null","<div style=""font-size:60px;"">+</div>","null","fixation","","","","","","","","","","","","","",""
"revaluation","16","195169","0.0-3.0-2.0-0.2","spark_pilot_2","9609","8","7","Female","","false","","","","","[697.5]","./assets/img/space/2.jpg","[""ArrowUp""]","first stage practice","space","0","null","null","ArrowUp","false","","","","","","","",""
"html-keyboard-response","17","195680","0.0-3.0-2.0-1.2","spark_pilot_2","9609","8","7","Female","","","","","","","null","<div style=""font-size:60px;"">+</div>","null","fixation","","","","","","","","","","","","","",""
"learning-instructions","18","201878","0.0-3.0-3.0-0.0","spark_pilot_2","9609","8","7","Female","","","","","","","1489.6000000000931","<p> Great job! Now try pressing the <b>down</b> key to travel down. </p>
            <img src='./assets/img/instructions/pressDown.jpg' class='instructions-image'>","","instructions","","","","","","","","","","","","","",""
"revaluation","19","205897","0.0-3.0-4.0-0.0","spark_pilot_2","9609","8","7","Female","","false","","","","","[1033.7999999998137]","./assets/img/space/3.jpg","[""ArrowDown""]","first stage practice","space","0","null","null","ArrowDown","false","","","","","","","",""
"html-keyboard-response","20","206408","0.0-3.0-4.0-1.0","spark_pilot_2","9609","8","7","Female","","","","","","","null","<div style=""font-size:60px;"">+</div>","null","fixation","","","","","","","","","","","","","",""
"revaluation","21","210423","0.0-3.0-4.0-0.1","spark_pilot_2","9609","8","7","Female","","false","","","","","[624]","./assets/img/space/4.jpg","[""ArrowDown""]","first stage practice","space","0","null","null","ArrowDown","false","","","","","","","",""
"html-keyboard-response","22","210929","0.0-3.0-4.0-1.1","spark_pilot_2","9609","8","7","Female","","","","","","","null","<div style=""font-size:60px;"">+</div>","null","fixation","","","","","","","","","","","","","",""
"revaluation","23","214942","0.0-3.0-4.0-0.2","spark_pilot_2","9609","8","7","Female","","false","","","","","[814.1000000000931]","./assets/img/space/5.jpg","[""ArrowDown""]","first stage practice","space","0","null","null","ArrowDown","false","","","","","","","",""
"html-keyboard-response","24","215446","0.0-3.0-4.0-1.2","spark_pilot_2","9609","8","7","Female","","","","","","","null","<div style=""font-size:60px;"">+</div>","null","fixation","","","","","","","","","","","","","",""
"learning-instructions","25","227855","0.0-3.0-5.0-0.0","spark_pilot_2","9609","8","7","Female","","","","","","","2528.7000000001863","<p> The animals don’t move, so the animal in the upper part of a place will stay in the upper part of a place, and the animal in the lower part of a place will stay in the lower part of a place. </p>","","instructions","","","","","","","","","","","","","",""
"learning-instructions","26","243459","0.0-3.0-5.0-0.1","spark_pilot_2","9609","8","7","Female","","","","","","","6448.100000000093","<p> Each animal has two treasure chests for you to choose from. </p>
            <p> The amount of treasure in each chest can range from <b> 0 to 40 pieces.</b></p>","","instructions","","","","","","","","","","","","","",""
"learning-instructions","27","276917","0.0-3.0-5.0-0.2","spark_pilot_2","9609","8","7","Female","","","","","","","22241.69999999972","<p> You should decide which chest to search for treasure by using the <b>left</b> and <b>right</b> arrow keys. </p>
            <p><b> Pay attention to which animal is on the screen, as the animals have different treasure chests. </b></p>
            <img src='./assets/img/instructions/leftright.jpg' class='instructions-image'>","","instructions","","","","","","","","","","","","","",""
"learning-instructions","28","289292","0.0-3.0-5.0-0.3","spark_pilot_2","9609","8","7","Female","","","","","","","5992.399999999907","<p> Let’s try practicing that now. </p>
            <p> When you see an animal, choose which chest to search for treasure. </p>
            <img src='./assets/img/instructions/chooseChest.jpg' class='instructions-image'>","","instructions","","","","","","","","","","","","","",""
"revaluation","29","293314","0.0-3.0-6.0-0.0","spark_pilot_2","9609","8","7","Female","","false","","","","","[1786.3999999999069]","./assets/img/space/animals/cat.jpg","[""ArrowRight""]","second stage practice","space","36","{""ArrowUp,ArrowLeft"":3,""ArrowUp,ArrowRight"":36,""ArrowDown,ArrowLeft"":15,""ArrowDown,ArrowRight"":23}","true","ArrowUp,ArrowRight","","","","","","","","",""
"html-keyboard-response","30","293823","0.0-3.0-6.0-1.0","spark_pilot_2","9609","8","7","Female","","","","","","","null","<div style=""font-size:60px;"">+</div>","null","fixation","","","","","","","","","","","","","",""
"revaluation","31","297836","0.0-3.0-6.0-0.1","spark_pilot_2","9609","8","7","Female","","false","","","","","[806.5]","./assets/img/space/animals/cat.jpg","[""ArrowRight""]","second stage practice","space","36","{""ArrowUp,ArrowLeft"":3,""ArrowUp,ArrowRight"":36,""ArrowDown,ArrowLeft"":15,""ArrowDown,ArrowRight"":23}","true","ArrowUp,ArrowRight","","","","","","","","",""
"html-keyboard-response","32","298342","0.0-3.0-6.0-1.1","spark_pilot_2","9609","8","7","Female","","","","","","","null","<div style=""font-size:60px;"">+</div>","null","fixation","","","","","","","","","","","","","",""
"revaluation","33","302356","0.0-3.0-6.0-0.2","spark_pilot_2","9609","8","7","Female","","true","","","","","[]","./assets/img/space/animals/rabbit.jpg","[]","second stage practice","space","-5","{""ArrowUp,ArrowLeft"":3,""ArrowUp,ArrowRight"":36,""ArrowDown,ArrowLeft"":15,""ArrowDown,ArrowRight"":23}","false","ArrowDown","","","","","","","","",""
"html-keyboard-response","34","302861","0.0-3.0-6.0-1.2","spark_pilot_2","9609","8","7","Female","","","","","","","null","<div style=""font-size:60px;"">+</div>","null","fixation","","","","","","","","","","","","","",""
"revaluation","35","306878","0.0-3.0-6.0-0.3","spark_pilot_2","9609","8","7","Female","","true","","","","","[]","./assets/img/space/animals/rabbit.jpg","[]","second stage practice","space","-5","{""ArrowUp,ArrowLeft"":3,""ArrowUp,ArrowRight"":36,""ArrowDown,ArrowLeft"":15,""ArrowDown,ArrowRight"":23}","false","ArrowDown","","","","","","","","",""
"html-keyboard-response","36","307389","0.0-3.0-6.0-1.3","spark_pilot_2","9609","8","7","Female","","","","","","","null","<div style=""font-size:60px;"">+</div>","null","fixation","","","","","","","","","","","","","",""
"learning-instructions","37","334359","0.0-3.0-7.0-0.0","spark_pilot_2","9609","8","7","Female","","","","","","","9938.899999999907","<p> Great job. Now let’s try putting it together. </p>
            <p> On each turn, you will first see a picture to remind you of the place you are in, and you need to choose whether to go up or down. </p>
            <p> Then you will see an animal and choose which of its chests to search for treasure. </p>","","instructions","","","","","","","","","","","","","",""
"learning-instructions","38","344833","0.0-3.0-7.0-0.1","spark_pilot_2","9609","8","7","Female","","","","","","","2196.8000000002794","<p> When you choose whether to go up or down, try to go to the animal with the chest with the most treasure. </p>
            <p> Try practicing that now! </p>","","instructions","","","","","","","","","","","","","",""
"revaluation","39","350862","0.0-3.0-8.0-0.0","spark_pilot_2","9609","8","7","Female","","false","","","","","[1251.7999999998137,994]","./assets/img/space/6.jpg","[""ArrowUp"",""ArrowLeft""]","full practice","space","3","{""ArrowUp,ArrowLeft"":3,""ArrowUp,ArrowRight"":36,""ArrowDown,ArrowLeft"":15,""ArrowDown,ArrowRight"":23}","false","ArrowUp,ArrowLeft","false","","","","","","","",""
"html-keyboard-response","40","351372","0.0-3.0-8.0-1.0","spark_pilot_2","9609","8","7","Female","","","","","","","null","<div style=""font-size:60px;"">+</div>","null","fixation","","","","","","","","","","","","","",""
"revaluation","41","357398","0.0-3.0-8.0-0.1","spark_pilot_2","9609","8","7","Female","","false","","","","","[824.1999999997206,481.79999999981374]","./assets/img/space/7.jpg","[""ArrowDown"",""ArrowLeft""]","full practice","space","15","{""ArrowUp,ArrowLeft"":3,""ArrowUp,ArrowRight"":36,""ArrowDown,ArrowLeft"":15,""ArrowDown,ArrowRight"":23}","false","ArrowDown,ArrowLeft","false","","","","","","","",""
"html-keyboard-response","42","357909","0.0-3.0-8.0-1.1","spark_pilot_2","9609","8","7","Female","","","","","","","null","<div style=""font-size:60px;"">+</div>","null","fixation","","","","","","","","","","","","","",""
"revaluation","43","363933","0.0-3.0-8.0-0.2","spark_pilot_2","9609","8","7","Female","","false","","","","","[1000,961.2999999998137]","./assets/img/space/8.jpg","[""ArrowUp"",""ArrowLeft""]","full practice","space","3","{""ArrowUp,ArrowLeft"":3,""ArrowUp,ArrowRight"":36,""ArrowDown,ArrowLeft"":15,""ArrowDown,ArrowRight"":23}","false","ArrowUp,ArrowLeft","false","","","","","","","",""
"html-keyboard-response","44","364445","0.0-3.0-8.0-1.2","spark_pilot_2","9609","8","7","Female","","","","","","","null","<div style=""font-size:60px;"">+</div>","null","fixation","","","","","","","","","","","","","",""
"revaluation","45","370470","0.0-3.0-8.0-0.3","spark_pilot_2","9609","8","7","Female","","false","","","","","[855.5,888.7999999998137]","./assets/img/space/9.jpg","[""ArrowUp"",""ArrowRight""]","full practice","space","36","{""ArrowUp,ArrowLeft"":3,""ArrowUp,ArrowRight"":36,""ArrowDown,ArrowLeft"":15,""ArrowDown,ArrowRight"":23}","true","ArrowUp,ArrowRight","false","","","","","","","",""
"html-keyboard-response","46","370980","0.0-3.0-8.0-1.3","spark_pilot_2","9609","8","7","Female","","","","","","","null","<div style=""font-size:60px;"">+</div>","null","fixation","","","","","","","","","","","","","",""
"revaluation","47","376989","0.0-3.0-8.0-0.4","spark_pilot_2","9609","8","7","Female","","false","","","","","[1480.5,747.1999999997206]","./assets/img/space/10.jpg","[""ArrowUp"",""ArrowLeft""]","full practice","space","3","{""ArrowUp,ArrowLeft"":3,""ArrowUp,ArrowRight"":36,""ArrowDown,ArrowLeft"":15,""ArrowDown,ArrowRight"":23}","false","ArrowUp,ArrowLeft","false","","","","","","","",""
"html-keyboard-response","48","377498","0.0-3.0-8.0-1.4","spark_pilot_2","9609","8","7","Female","","","","","","","null","<div style=""font-size:60px;"">+</div>","null","fixation","","","","","","","","","","","","","",""
"learning-instructions","49","390813","0.0-3.0-9.0-0.0","spark_pilot_2","9609","8","7","Female","","","","","","","2978.0999999996275","<p> One last thing: sometimes, you will see a robber. The robber can be anywhere in the picture. </p>
            <p> If you do not stop them, you will lose treasure. </p>
            <img src='./assets/img/instructions/robber.jpg' class='instructions-image'>","","instructions","","","","","","","","","","","","","",""
"learning-instructions","50","399306","0.0-3.0-9.0-0.1","spark_pilot_2","9609","8","7","Female","","","","","","","1313.2999999998137","<p> If you see the robber, you should <b>press the space bar</b> rather than using the arrow keys. </p>
            <p> Try practicing that now! </p>","","instructions","","","","","","","","","","","","","",""
"revaluation","51","403322","0.0-3.0-10.0-0.0","spark_pilot_2","9609","8","7","Female","","false","","","","","[1017.5]","./assets/img/space/catch/0.jpg","[""spaceBar""]","catch practice","space","0","{""ArrowUp,ArrowLeft"":3,""ArrowUp,ArrowRight"":36,""ArrowDown,ArrowLeft"":15,""ArrowDown,ArrowRight"":23}","true","spaceBar","true","","","","","","","",""
"html-keyboard-response","52","403826","0.0-3.0-10.0-1.0","spark_pilot_2","9609","8","7","Female","","","","","","","null","<div style=""font-size:60px;"">+</div>","null","fixation","","","","","","","","","","","","","",""
"revaluation","53","407844","0.0-3.0-10.0-0.1","spark_pilot_2","9609","8","7","Female","","false","","","","","[457.10000000009313]","./assets/img/space/catch/1.jpg","[""spaceBar""]","catch practice","space","0","{""ArrowUp,ArrowLeft"":3,""ArrowUp,ArrowRight"":36,""ArrowDown,ArrowLeft"":15,""ArrowDown,ArrowRight"":23}","true","spaceBar","true","","","","","","","",""
"html-keyboard-response","54","408347","0.0-3.0-10.0-1.1","spark_pilot_2","9609","8","7","Female","","","","","","","null","<div style=""font-size:60px;"">+</div>","null","fixation","","","","","","","","","","","","","",""
"revaluation","55","412365","0.0-3.0-10.0-0.2","spark_pilot_2","9609","8","7","Female","","false","","","","","[375.89999999990687]","./assets/img/space/catch/2.jpg","[""spaceBar""]","catch practice","space","0","{""ArrowUp,ArrowLeft"":3,""ArrowUp,ArrowRight"":36,""ArrowDown,ArrowLeft"":15,""ArrowDown,ArrowRight"":23}","true","spaceBar","true","","","","","","","",""
"html-keyboard-response","56","412876","0.0-3.0-10.0-1.2","spark_pilot_2","9609","8","7","Female","","","","","","","null","<div style=""font-size:60px;"">+</div>","null","fixation","","","","","","","","","","","","","",""
"learning-instructions","57","444284","0.0-3.0-11.0-0.0","spark_pilot_2","9609","8","7","Female","","","","","","","17784","<p> After you explore a place to find treasure, it will be time to play a different game. </p>
            <p> During this game, red dots will appear on the screen and fall down slowly. </p>
            <p><b> You must click on them before they reach the bottom. </b></p>
            <img src='./assets/img/instructions/dotGame.jpg' class='instructions-image'>","","instructions","","","","","","","","","","","","","",""
"learning-instructions","58","451586","0.0-3.0-11.0-0.1","spark_pilot_2","9609","8","7","Female","","","","","","","1616.7000000001863","<p> For every dot you click, you will earn additional treasure. </p>
            <p> Let’s try practicing that now. </p>","","instructions","","","","","","","","","","","","","",""
"revaluation","59","466595","0.0-3.0-12.0-0.0","spark_pilot_2","9609","8","7","Female","","","","","","","[259]","","","rest practice","","10","","","","","0","15000","","","","","",""
"learning-instructions","60","476775","0.0-3.0-13.0-0.0-0.0","spark_pilot_2","9609","8","7","Female","","","","","","","4938.300000000279","<p> Now, you will practice a shortened version of the game to get a sense of how it all fits together. </p>","","instructions","","","","","","","","","","","","","",""
"learning-instructions","61","483873","0.0-3.0-13.0-0.0-0.1","spark_pilot_2","9609","8","7","Female","","","","","","","3904.2000000001863","<p>This time you are searching for treasure in outer space.</p>","","instructions","","","","","","","","","","","","","",""
"learning-instructions","62","502369","0.0-3.0-13.0-1.0-0.0","spark_pilot_2","9609","8","7","Female","","","","","","","3684.600000000093","<p> Remember, when you see a picture of the place, use the up and down keys to <b>find an animal</b>.</p>
            <p> When you encounter an animal, you should use the left and right keys to <b>select a treasure chest</b>.</p>
            <p> Don't forget to look out for the robber! </p>","","instructions","","","","","","","","","","","","","",""
"revaluation","63","508393","0.0-3.0-13.0-2.0-0.0","spark_pilot_2","9609","8","7","Female","","false","","","","","[929,472.79999999981374]","./assets/img/space/11.jpg","[""ArrowUp"",""ArrowRight""]","practice block","space","36","{""ArrowUp,ArrowLeft"":3,""ArrowUp,ArrowRight"":36,""ArrowDown,ArrowLeft"":15,""ArrowDown,ArrowRight"":23}","true","ArrowUp,ArrowRight","false","","","","","","","",""
"html-keyboard-response","64","508894","0.0-3.0-13.0-2.0-1.0","spark_pilot_2","9609","8","7","Female","","","","","","","null","<div style=""font-size:60px;"">+</div>","null","fixation","","","","","","","","","","","","","",""
"revaluation","65","514920","0.0-3.0-13.0-2.0-0.1","spark_pilot_2","9609","8","7","Female","","false","","","","","[794.6000000000931,1036.1000000000931]","./assets/img/space/12.jpg","[""ArrowUp"",""ArrowRight""]","practice block","space","36","{""ArrowUp,ArrowLeft"":3,""ArrowUp,ArrowRight"":36,""ArrowDown,ArrowLeft"":15,""ArrowDown,ArrowRight"":23}","true","ArrowUp,ArrowRight","false","","","","","","","",""
"html-keyboard-response","66","515425","0.0-3.0-13.0-2.0-1.1","spark_pilot_2","9609","8","7","Female","","","","","","","null","<div style=""font-size:60px;"">+</div>","null","fixation","","","","","","","","","","","","","",""
"revaluation","67","519442","0.0-3.0-13.0-2.0-0.2","spark_pilot_2","9609","8","7","Female","","true","","","","","[]","./assets/img/space/13.jpg","[]","practice block","space","-5","{""ArrowUp,ArrowLeft"":3,""ArrowUp,ArrowRight"":36,""ArrowDown,ArrowLeft"":15,""ArrowDown,ArrowRight"":23}","false","","false","","","","","","","",""
"html-keyboard-response","68","519953","0.0-3.0-13.0-2.0-1.2","spark_pilot_2","9609","8","7","Female","","","","","","","null","<div style=""font-size:60px;"">+</div>","null","fixation","","","","","","","","","","","","","",""
"revaluation","69","523970","0.0-3.0-13.0-2.0-0.3","spark_pilot_2","9609","8","7","Female","","true","","","","","[]","./assets/img/space/14.jpg","[]","practice block","space","-5","{""ArrowUp,ArrowLeft"":3,""ArrowUp,ArrowRight"":36,""ArrowDown,ArrowLeft"":15,""ArrowDown,ArrowRight"":23}","false","","false","","","","","","","",""
"html-keyboard-response","70","524478","0.0-3.0-13.0-2.0-1.3","spark_pilot_2","9609","8","7","Female","","","","","","","null","<div style=""font-size:60px;"">+</div>","null","fixation","","","","","","","","","","","","","",""
"revaluation","71","530505","0.0-3.0-13.0-2.0-0.4","spark_pilot_2","9609","8","7","Female","","false","","","","","[410.29999999981374,689.7999999998137]","./assets/img/space/11.jpg","[""ArrowUp"",""ArrowRight""]","practice block","space","36","{""ArrowUp,ArrowLeft"":3,""ArrowUp,ArrowRight"":36,""ArrowDown,ArrowLeft"":15,""ArrowDown,ArrowRight"":23}","true","ArrowUp,ArrowRight","false","","","","","","","",""
"html-keyboard-response","72","531006","0.0-3.0-13.0-2.0-1.4","spark_pilot_2","9609","8","7","Female","","","","","","","null","<div style=""font-size:60px;"">+</div>","null","fixation","","","","","","","","","","","","","",""
"revaluation","73","537032","0.0-3.0-13.0-2.0-0.5","spark_pilot_2","9609","8","7","Female","","false","","","","","[850.2000000001863,115.79999999981374]","./assets/img/space/12.jpg","[""ArrowUp"",""ArrowRight""]","practice block","space","36","{""ArrowUp,ArrowLeft"":3,""ArrowUp,ArrowRight"":36,""ArrowDown,ArrowLeft"":15,""ArrowDown,ArrowRight"":23}","true","ArrowUp,ArrowRight","false","","","","","","","",""
"html-keyboard-response","74","537537","0.0-3.0-13.0-2.0-1.5","spark_pilot_2","9609","8","7","Female","","","","","","","null","<div style=""font-size:60px;"">+</div>","null","fixation","","","","","","","","","","","","","",""
"revaluation","75","543561","0.0-3.0-13.0-2.0-0.6","spark_pilot_2","9609","8","7","Female","","false","","","","","[815.7000000001863,416.89999999990687]","./assets/img/space/13.jpg","[""ArrowUp"",""ArrowRight""]","practice block","space","36","{""ArrowUp,ArrowLeft"":3,""ArrowUp,ArrowRight"":36,""ArrowDown,ArrowLeft"":15,""ArrowDown,ArrowRight"":23}","true","ArrowUp,ArrowRight","false","","","","","","","",""
"html-keyboard-response","76","544073","0.0-3.0-13.0-2.0-1.6","spark_pilot_2","9609","8","7","Female","","","","","","","null","<div style=""font-size:60px;"">+</div>","null","fixation","","","","","","","","","","","","","",""
"revaluation","77","550096","0.0-3.0-13.0-2.0-0.7","spark_pilot_2","9609","8","7","Female","","false","","","","","[823.1000000000931,658.5]","./assets/img/space/14.jpg","[""ArrowUp"",""ArrowRight""]","practice block","space","36","{""ArrowUp,ArrowLeft"":3,""ArrowUp,ArrowRight"":36,""ArrowDown,ArrowLeft"":15,""ArrowDown,ArrowRight"":23}","true","ArrowUp,ArrowRight","false","","","","","","","",""
"html-keyboard-response","78","550598","0.0-3.0-13.0-2.0-1.7","spark_pilot_2","9609","8","7","Female","","","","","","","null","<div style=""font-size:60px;"">+</div>","null","fixation","","","","","","","","","","","","","",""
"revaluation","79","554615","0.0-3.0-13.0-2.0-0.8","spark_pilot_2","9609","8","7","Female","","false","","","","","[730.2999999998137]","./assets/img/space/catch/3.jpg","[""spaceBar""]","practice block","space","0","{""ArrowUp,ArrowLeft"":3,""ArrowUp,ArrowRight"":36,""ArrowDown,ArrowLeft"":15,""ArrowDown,ArrowRight"":23}","true","spaceBar","true","","","","","","","",""
"html-keyboard-response","80","555123","0.0-3.0-13.0-2.0-1.8","spark_pilot_2","9609","8","7","Female","","","","","","","null","<div style=""font-size:60px;"">+</div>","null","fixation","","","","","","","","","","","","","",""
"learning-instructions","81","576203","0.0-3.0-13.0-3.0-0.0","spark_pilot_2","9609","8","7","Female","","","","","","","8128.100000000093","<p> Now, you will travel with a friend who will choose whether you go up or down first. </p>
            <p> On these turns, you will just see the animal that they found. You will still get to choose which chest to search for treasure.</p>","","instructions","","","","","","","","","","","","","",""
"revaluation","82","580213","0.0-3.0-13.0-4.0-0.0","spark_pilot_2","9609","8","7","Female","","false","","","","","[1381.1000000000931]","./assets/img/space/animals/rabbit.jpg","[""ArrowRight""]","practice block","space","23","{""ArrowUp,ArrowLeft"":3,""ArrowUp,ArrowRight"":36,""ArrowDown,ArrowLeft"":15,""ArrowDown,ArrowRight"":23}","true","ArrowDown,ArrowRight","","","","","","","","",""
"html-keyboard-response","83","580717","0.0-3.0-13.0-4.0-1.0","spark_pilot_2","9609","8","7","Female","","","","","","","null","<div style=""font-size:60px;"">+</div>","null","fixation","","","","","","","","","","","","","",""
"revaluation","84","584735","0.0-3.0-13.0-4.0-0.1","spark_pilot_2","9609","8","7","Female","","false","","","","","[674.2000000001863]","./assets/img/space/animals/rabbit.jpg","[""ArrowLeft""]","practice block","space","15","{""ArrowUp,ArrowLeft"":3,""ArrowUp,ArrowRight"":36,""ArrowDown,ArrowLeft"":15,""ArrowDown,ArrowRight"":23}","false","ArrowDown,ArrowLeft","","","","","","","","",""
"html-keyboard-response","85","585239","0.0-3.0-13.0-4.0-1.1","spark_pilot_2","9609","8","7","Female","","","","","","","null","<div style=""font-size:60px;"">+</div>","null","fixation","","","","","","","","","","","","","",""
"revaluation","86","589257","0.0-3.0-13.0-4.0-0.2","spark_pilot_2","9609","8","7","Female","","false","","","","","[536.1000000000931]","./assets/img/space/animals/cat.jpg","[""ArrowRight""]","practice block","space","36","{""ArrowUp,ArrowLeft"":3,""ArrowUp,ArrowRight"":36,""ArrowDown,ArrowLeft"":15,""ArrowDown,ArrowRight"":23}","true","ArrowUp,ArrowRight","","","","","","","","",""
"html-keyboard-response","87","589765","0.0-3.0-13.0-4.0-1.2","spark_pilot_2","9609","8","7","Female","","","","","","","null","<div style=""font-size:60px;"">+</div>","null","fixation","","","","","","","","","","","","","",""
"revaluation","88","593784","0.0-3.0-13.0-4.0-0.3","spark_pilot_2","9609","8","7","Female","","false","","","","","[681.7000000001863]","./assets/img/space/animals/cat.jpg","[""ArrowRight""]","practice block","space","36","{""ArrowUp,ArrowLeft"":3,""ArrowUp,ArrowRight"":36,""ArrowDown,ArrowLeft"":15,""ArrowDown,ArrowRight"":23}","true","ArrowUp,ArrowRight","","","","","","","","",""
"html-keyboard-response","89","594295","0.0-3.0-13.0-4.0-1.3","spark_pilot_2","9609","8","7","Female","","","","","","","null","<div style=""font-size:60px;"">+</div>","null","fixation","","","","","","","","","","","","","",""
"learning-instructions","90","607107","0.0-3.0-13.0-5.0-0.0","spark_pilot_2","9609","8","7","Female","","","","","","","5428.0999999996275","<p> Time to play the dot game! </p>
            <p> For 15 seconds, click the red dots on the following screen as they appear. </p>","","instructions","","","","","","","","","","","","","",""
"revaluation","91","622118","0.0-3.0-13.0-6.0-0.0","spark_pilot_2","9609","8","7","Female","","","","","","","[107]","","","rest practice","","10","","","","","0","15000","","","","","",""
"learning-instructions","92","631262","0.0-3.0-13.0-7.0-0.0","spark_pilot_2","9609","8","7","Female","","","","","","","2520.2999999998137","<p> You have almost finished this part of the game! </p>
            <p> We are going to ask you to make a few more choices. </p>","","instructions","","","","","","","","","","","","","",""
"learning-instructions","93","647777","0.0-3.0-13.0-7.0-0.1","spark_pilot_2","9609","8","7","Female","","","","","","","2468.399999999441","<p> First, you need to decide whether to go up or down. When you see each picture, use the arrow keys to make your choice. </p>
            <p><b>You will not see which animal you found, but try to get to the one that will give you the most treasure.</b></p>","","instructions","","","","","","","","","","","","","",""
"revaluation","94","649528","0.0-3.0-13.0-8.0","spark_pilot_2","9609","8","7","Female","","false","","","","","[1749.300000000745]","./assets/img/space/15.jpg","[""ArrowUp""]","practice block","space","0","{""ArrowUp,ArrowLeft"":3,""ArrowUp,ArrowRight"":36,""ArrowDown,ArrowLeft"":15,""ArrowDown,ArrowRight"":23}","true","ArrowUp","false","","","","","","","",""
"html-keyboard-response","95","650039","0.0-3.0-13.0-9.0","spark_pilot_2","9609","8","7","Female","","","","","","","null","<div style=""font-size:60px;"">+</div>","null","fixation","","","","","","","","","","","","","",""
"learning-instructions","96","664123","0.0-3.0-13.0-10.0-0.0","spark_pilot_2","9609","8","7","Female","","","","","","","2676.800000000745","<p> Now you will see the animals again and can search their chests for treasure. </p>
            <p> This time, you will not see how much treasure you earned, but you will earn more bonus money for making better choices. </p>","","instructions","","","","","","","","","","","","","",""
"revaluation","97","665400","0.0-3.0-13.0-11.0-0.0","spark_pilot_2","9609","8","7","Female","","false","","","","","[1275]","./assets/img/space/animals/cat.jpg","[""ArrowRight""]","practice block","space","0","{""ArrowUp,ArrowLeft"":3,""ArrowUp,ArrowRight"":36,""ArrowDown,ArrowLeft"":15,""ArrowDown,ArrowRight"":23}","true","ArrowUp,ArrowRight","","","","","","","","",""
"html-keyboard-response","98","665910","0.0-3.0-13.0-11.0-1.0","spark_pilot_2","9609","8","7","Female","","","","","","","null","<div style=""font-size:60px;"">+</div>","null","fixation","","","","","","","","","","","","","",""
"revaluation","99","666744","0.0-3.0-13.0-11.0-0.1","spark_pilot_2","9609","8","7","Female","","false","","","","","[831.9000000003725]","./assets/img/space/animals/rabbit.jpg","[""ArrowRight""]","practice block","space","0","{""ArrowUp,ArrowLeft"":3,""ArrowUp,ArrowRight"":36,""ArrowDown,ArrowLeft"":15,""ArrowDown,ArrowRight"":23}","true","ArrowDown,ArrowRight","","","","","","","","",""
"html-keyboard-response","100","667255","0.0-3.0-13.0-11.0-1.1","spark_pilot_2","9609","8","7","Female","","","","","","","null","<div style=""font-size:60px;"">+</div>","null","fixation","","","","","","","","","","","","","",""
"learning-instructions","101","673607","0.0-3.0-14.0-0.0","spark_pilot_2","9609","8","7","Female","","","","","","","1764","<p> Before you start, we're going to ask you a few questions about how the game works. </p>","","instructions","","","","","","","","","","","","","",""
"comp-q","102","684871","0.0-3.0-15.0-0.0-0.0","spark_pilot_2","9609","8","7","Female","","","","","","","5665","<p> <b> True or False? </b> </p>
            <p> There can be 50 pieces of treasure in a given animal's chest. </p>","1","comp_question","","","","true","","","","","","","","","",""
"comp-q","103","692765","0.0-3.0-15.0-0.0-1.0","spark_pilot_2","9609","8","7","Female","","","","","","","1221.0999999996275","<p> <b> That's right! </b> The amount of treasure in each chest can range from 0 to 40 pieces. </p>","0","comp_answer","","","","","","","","","","","","","",""
"comp-q","104","702035","0.0-3.0-15.0-0.1-0.1","spark_pilot_2","9609","8","7","Female","","","","","","","2132.0999999996275","<p> <b> True or False? </b> </p><p> In this game, all animals have the same amount of treasure in their left and right chests. </p>","1","comp_question","","","","true","","","","","","","","","",""
"comp-q","105","710136","0.0-3.0-15.0-0.1-1.1","spark_pilot_2","9609","8","7","Female","","","","","","","2860.100000000559","<p> <b> That's right! </b> Animals have different amounts of treasure in their treasure chests. </p>","0","comp_answer","","","","","","","","","","","","","",""
"comp-q","106","738486","0.0-3.0-15.0-0.2-0.2","spark_pilot_2","9609","8","7","Female","","","","","","","22492","<p> <b> True or False? </b> </p><p> The same animal will always be there if you go up in the same place. </p>","0","comp_question","","","","true","","","","","","","","","",""
"comp-q","107","748240","0.0-3.0-15.0-0.2-1.2","spark_pilot_2","9609","8","7","Female","","","","","","","3296.800000000745","<p> <b> That's right! </b> One animal lives in the upper part and one lives in the lower part of every place. </p>","0","comp_answer","","","","","","","","","","","","","",""
"comp-q","108","756734","0.0-3.0-15.0-0.3-0.3","spark_pilot_2","9609","8","7","Female","","","","","","","2961.2000000001863","<p> <b> True or False? </b> </p><p> If you see a different picture, it means you are in a new place. </p>","1","comp_question","","","","true","","","","","","","","","",""
"comp-q","109","770605","0.0-3.0-15.0-0.3-1.3","spark_pilot_2","9609","8","7","Female","","","","","","","2616.5","<p> <b> That's right! </b> Lots of different images may show the same place. For example,  you may see three different images that all remind you that you are in outer space. </p>","0","comp_answer","","","","","","","","","","","","","",""
"learning-instructions","110","787986","0.0-3.0-16.0-0.0","spark_pilot_2","9609","8","7","Female","","","","","","","7505.9000000003725","<p> Good job. Remember to do your best because the amount of treasure you earn will be converted into bonus money. </p>
            <p> It’s time to start the real game! </p>","","instructions","","","","","","","","","","","","","",""
"learning-instructions","111","792430","0.0-4.0-0.0-0.0","spark_pilot_2","9609","8","7","Female","","","","","","","1675","<p> This time you are searching for treasure in the <b>canyon</b>.</p>","","instructions","","","","","","","","","","","","","",""
"learning-instructions","112","811601","0.0-4.0-0.0-0.1","spark_pilot_2","9609","8","7","Female","","","","","","","1822.8999999994412","<p><b>New</b> animals with <b>new</b> treasure chests live here. You need to explore to discover where the animal with the best treasure chest is.</p>
                    <p> Like before, once you figure out which animal has the chest with the most treasure, you should try to get to that animal and select that chest! </p>","","instructions","","","","","","","","","","","","","",""
"learning-instructions","113","830130","0.0-4.0-1.0-0.0","spark_pilot_2","9609","8","7","Female","","","","","","","3796.4000000003725","<p> Remember, when you see a picture of the place, use the up and down keys to <b>find an animal</b>.</p>
            <p> When you encounter an animal, you should use the left and right keys to <b>select a treasure chest</b>.</p>
            <p> Don't forget to look out for the robber! </p>","","instructions","","","","","","","","","","","","","",""
"revaluation","114","836155","0.0-4.0-2.0-0.0","spark_pilot_2","9609","8","7","Female","","false","","","","","[856.7000000001863,698.3000000007451]","./assets/img/canyon/memory/30.jpg","[""ArrowUp"",""ArrowRight""]","value training","canyon","10","{""ArrowUp,ArrowLeft"":26,""ArrowUp,ArrowRight"":10,""ArrowDown,ArrowLeft"":5,""ArrowDown,ArrowRight"":17}","false","ArrowUp,ArrowRight","false","","","revaluation","1","0","","",""
"html-keyboard-response","115","836665","0.0-4.0-2.0-1.0","spark_pilot_2","9609","8","7","Female","","","","","","","null","<div style=""font-size:60px;"">+</div>","null","fixation","","","","","","","","","","","1","","",""
"revaluation","116","842691","0.0-4.0-2.0-0.1","spark_pilot_2","9609","8","7","Female","","false","","","","","[432.5,474.1000000005588]","./assets/img/canyon/memory/29.jpg","[""ArrowUp"",""ArrowLeft""]","value training","canyon","26","{""ArrowUp,ArrowLeft"":26,""ArrowUp,ArrowRight"":10,""ArrowDown,ArrowLeft"":5,""ArrowDown,ArrowRight"":17}","true","ArrowUp,ArrowLeft","false","","","revaluation","1","2","","",""
"html-keyboard-response","117","843202","0.0-4.0-2.0-1.1","spark_pilot_2","9609","8","7","Female","","","","","","","null","<div style=""font-size:60px;"">+</div>","null","fixation","","","","","","","","","","","3","","",""
"revaluation","118","849227","0.0-4.0-2.0-0.2","spark_pilot_2","9609","8","7","Female","","false","","","","","[816,457.5]","./assets/img/canyon/memory/11.jpg","[""ArrowDown"",""ArrowRight""]","value training","canyon","17","{""ArrowUp,ArrowLeft"":26,""ArrowUp,ArrowRight"":10,""ArrowDown,ArrowLeft"":5,""ArrowDown,ArrowRight"":17}","false","ArrowDown,ArrowRight","false","","","revaluation","1","4","","",""
"html-keyboard-response","119","849737","0.0-4.0-2.0-1.2","spark_pilot_2","9609","8","7","Female","","","","","","","null","<div style=""font-size:60px;"">+</div>","null","fixation","","","","","","","","","","","5","","",""
"revaluation","120","855764","0.0-4.0-2.0-0.3","spark_pilot_2","9609","8","7","Female","","true","","","","","[856.7000000001863]","./assets/img/canyon/memory/34.jpg","[""ArrowDown""]","value training","canyon","-5","{""ArrowUp,ArrowLeft"":26,""ArrowUp,ArrowRight"":10,""ArrowDown,ArrowLeft"":5,""ArrowDown,ArrowRight"":17}","false","ArrowDown","false","","","revaluation","1","6","","",""
"html-keyboard-response","121","856274","0.0-4.0-2.0-1.3","spark_pilot_2","9609","8","7","Female","","","","","","","null","<div style=""font-size:60px;"">+</div>","null","fixation","","","","","","","","","","","7","","",""
"revaluation","122","862295","0.0-4.0-2.0-0.4","spark_pilot_2","9609","8","7","Female","","false","","","","","[1655.2999999998137,767.5]","./assets/img/canyon/memory/40.jpg","[""ArrowUp"",""ArrowRight""]","value training","canyon","10","{""ArrowUp,ArrowLeft"":26,""ArrowUp,ArrowRight"":10,""ArrowDown,ArrowLeft"":5,""ArrowDown,ArrowRight"":17}","false","ArrowUp,ArrowRight","false","","","revaluation","1","8","","",""
"html-keyboard-response","123","862800","0.0-4.0-2.0-1.4","spark_pilot_2","9609","8","7","Female","","","","","","","null","<div style=""font-size:60px;"">+</div>","null","fixation","","","","","","","","","","","9","","",""
"revaluation","124","868826","0.0-4.0-2.0-0.5","spark_pilot_2","9609","8","7","Female","","false","","","","","[528.7999999998137,954.3999999994412]","./assets/img/canyon/memory/11.jpg","[""ArrowUp"",""ArrowLeft""]","value training","canyon","26","{""ArrowUp,ArrowLeft"":26,""ArrowUp,ArrowRight"":10,""ArrowDown,ArrowLeft"":5,""ArrowDown,ArrowRight"":17}","true","ArrowUp,ArrowLeft","false","","","revaluation","1","10","","",""
"html-keyboard-response","125","869336","0.0-4.0-2.0-1.5","spark_pilot_2","9609","8","7","Female","","","","","","","null","<div style=""font-size:60px;"">+</div>","null","fixation","","","","","","","","","","","11","","",""
"revaluation","126","875359","0.0-4.0-2.0-0.6","spark_pilot_2","9609","8","7","Female","","false","","","","","[912.8999999994412,514.0999999996275]","./assets/img/canyon/memory/40.jpg","[""ArrowDown"",""ArrowLeft""]","value training","canyon","5","{""ArrowUp,ArrowLeft"":26,""ArrowUp,ArrowRight"":10,""ArrowDown,ArrowLeft"":5,""ArrowDown,ArrowRight"":17}","false","ArrowDown,ArrowLeft","false","","","revaluation","1","12","","",""
"html-keyboard-response","127","875867","0.0-4.0-2.0-1.6","spark_pilot_2","9609","8","7","Female","","","","","","","null","<div style=""font-size:60px;"">+</div>","null","fixation","","","","","","","","","","","13","","",""
"revaluation","128","881887","0.0-4.0-2.0-0.7","spark_pilot_2","9609","8","7","Female","","false","","","","","[1062,784.0999999996275]","./assets/img/canyon/memory/15.jpg","[""ArrowUp"",""ArrowLeft""]","value training","canyon","26","{""ArrowUp,ArrowLeft"":26,""ArrowUp,ArrowRight"":10,""ArrowDown,ArrowLeft"":5,""ArrowDown,ArrowRight"":17}","true","ArrowUp,ArrowLeft","false","","","revaluation","1","14","","",""
"html-keyboard-response","129","882391","0.0-4.0-2.0-1.7","spark_pilot_2","9609","8","7","Female","","","","","","","null","<div style=""font-size:60px;"">+</div>","null","fixation","","","","","","","","","","","15","","",""
"revaluation","130","888417","0.0-4.0-2.0-0.8","spark_pilot_2","9609","8","7","Female","","false","","","","","[602.0999999996275,402.70000000018626]","./assets/img/canyon/memory/9.jpg","[""ArrowUp"",""ArrowLeft""]","value training","canyon","26","{""ArrowUp,ArrowLeft"":26,""ArrowUp,ArrowRight"":10,""ArrowDown,ArrowLeft"":5,""ArrowDown,ArrowRight"":17}","true","ArrowUp,ArrowLeft","false","","","revaluation","1","16","","",""
"html-keyboard-response","131","888922","0.0-4.0-2.0-1.8","spark_pilot_2","9609","8","7","Female","","","","","","","null","<div style=""font-size:60px;"">+</div>","null","fixation","","","","","","","","","","","17","","",""
"revaluation","132","894947","0.0-4.0-2.0-0.9","spark_pilot_2","9609","8","7","Female","","false","","","","","[542.7999999998137,440]","./assets/img/canyon/memory/29.jpg","[""ArrowUp"",""ArrowLeft""]","value training","canyon","26","{""ArrowUp,ArrowLeft"":26,""ArrowUp,ArrowRight"":10,""ArrowDown,ArrowLeft"":5,""ArrowDown,ArrowRight"":17}","true","ArrowUp,ArrowLeft","false","","","revaluation","1","18","","",""
"html-keyboard-response","133","895459","0.0-4.0-2.0-1.9","spark_pilot_2","9609","8","7","Female","","","","","","","null","<div style=""font-size:60px;"">+</div>","null","fixation","","","","","","","","","","","19","","",""
"revaluation","134","899475","0.0-4.0-2.0-0.10","spark_pilot_2","9609","8","7","Female","","false","","","","","[558]","./assets/img/canyon/catch/5.jpg","[""ArrowUp""]","value training","canyon","-10","{""ArrowUp,ArrowLeft"":26,""ArrowUp,ArrowRight"":10,""ArrowDown,ArrowLeft"":5,""ArrowDown,ArrowRight"":17}","false","ArrowUp","true","","","revaluation","1","20","","",""
"html-keyboard-response","135","899985","0.0-4.0-2.0-1.10","spark_pilot_2","9609","8","7","Female","","","","","","","null","<div style=""font-size:60px;"">+</div>","null","fixation","","","","","","","","","","","21","","",""
"revaluation","136","906007","0.0-4.0-2.0-0.11","spark_pilot_2","9609","8","7","Female","","false","","","","","[1824,924]","./assets/img/canyon/memory/23.jpg","[""ArrowUp"",""ArrowLeft""]","value training","canyon","26","{""ArrowUp,ArrowLeft"":26,""ArrowUp,ArrowRight"":10,""ArrowDown,ArrowLeft"":5,""ArrowDown,ArrowRight"":17}","true","ArrowUp,ArrowLeft","false","","","revaluation","1","22","","",""
"html-keyboard-response","137","906511","0.0-4.0-2.0-1.11","spark_pilot_2","9609","8","7","Female","","","","","","","null","<div style=""font-size:60px;"">+</div>","null","fixation","","","","","","","","","","","23","","",""
"revaluation","138","910527","0.0-4.0-2.0-0.12","spark_pilot_2","9609","8","7","Female","","false","","","","","[561.8999999994412]","./assets/img/canyon/catch/2.jpg","[""ArrowUp""]","value training","canyon","-10","{""ArrowUp,ArrowLeft"":26,""ArrowUp,ArrowRight"":10,""ArrowDown,ArrowLeft"":5,""ArrowDown,ArrowRight"":17}","false","ArrowUp","true","","","revaluation","1","24","","",""
"html-keyboard-response","139","911033","0.0-4.0-2.0-1.12","spark_pilot_2","9609","8","7","Female","","","","","","","null","<div style=""font-size:60px;"">+</div>","null","fixation","","","","","","","","","","","25","","",""
"revaluation","140","917058","0.0-4.0-2.0-0.13","spark_pilot_2","9609","8","7","Female","","false","","","","","[1071.5,521.3000000007451]","./assets/img/canyon/memory/41.jpg","[""ArrowUp"",""ArrowLeft""]","value training","canyon","26","{""ArrowUp,ArrowLeft"":26,""ArrowUp,ArrowRight"":10,""ArrowDown,ArrowLeft"":5,""ArrowDown,ArrowRight"":17}","true","ArrowUp,ArrowLeft","false","","","revaluation","1","26","","",""
"html-keyboard-response","141","917566","0.0-4.0-2.0-1.13","spark_pilot_2","9609","8","7","Female","","","","","","","null","<div style=""font-size:60px;"">+</div>","null","fixation","","","","","","","","","","","27","","",""
"revaluation","142","921585","0.0-4.0-2.0-0.14","spark_pilot_2","9609","8","7","Female","","false","","","","","[898.2000000001863]","./assets/img/canyon/catch/1.jpg","[""spaceBar""]","value training","canyon","0","{""ArrowUp,ArrowLeft"":26,""ArrowUp,ArrowRight"":10,""ArrowDown,ArrowLeft"":5,""ArrowDown,ArrowRight"":17}","true","spaceBar","true","","","revaluation","1","28","","",""
"html-keyboard-response","143","922097","0.0-4.0-2.0-1.14","spark_pilot_2","9609","8","7","Female","","","","","","","null","<div style=""font-size:60px;"">+</div>","null","fixation","","","","","","","","","","","29","","",""
"revaluation","144","928123","0.0-4.0-2.0-0.15","spark_pilot_2","9609","8","7","Female","","false","","","","","[1047.1000000005588,560.7000000001863]","./assets/img/canyon/memory/10.jpg","[""ArrowUp"",""ArrowLeft""]","value training","canyon","26","{""ArrowUp,ArrowLeft"":26,""ArrowUp,ArrowRight"":10,""ArrowDown,ArrowLeft"":5,""ArrowDown,ArrowRight"":17}","true","ArrowUp,ArrowLeft","false","","","revaluation","1","30","","",""
"html-keyboard-response","145","928630","0.0-4.0-2.0-1.15","spark_pilot_2","9609","8","7","Female","","","","","","","null","<div style=""font-size:60px;"">+</div>","null","fixation","","","","","","","","","","","31","","",""
"revaluation","146","934658","0.0-4.0-2.0-0.16","spark_pilot_2","9609","8","7","Female","","false","","","","","[1034.2999999998137,475.5]","./assets/img/canyon/memory/37.jpg","[""ArrowUp"",""ArrowLeft""]","value training","canyon","26","{""ArrowUp,ArrowLeft"":26,""ArrowUp,ArrowRight"":10,""ArrowDown,ArrowLeft"":5,""ArrowDown,ArrowRight"":17}","true","ArrowUp,ArrowLeft","false","","","revaluation","1","32","","",""
"html-keyboard-response","147","935169","0.0-4.0-2.0-1.16","spark_pilot_2","9609","8","7","Female","","","","","","","null","<div style=""font-size:60px;"">+</div>","null","fixation","","","","","","","","","","","33","","",""
"revaluation","148","941190","0.0-4.0-2.0-0.17","spark_pilot_2","9609","8","7","Female","","false","","","","","[1166.5,387.79999999981374]","./assets/img/canyon/memory/41.jpg","[""ArrowUp"",""ArrowLeft""]","value training","canyon","26","{""ArrowUp,ArrowLeft"":26,""ArrowUp,ArrowRight"":10,""ArrowDown,ArrowLeft"":5,""ArrowDown,ArrowRight"":17}","true","ArrowUp,ArrowLeft","false","","","revaluation","1","34","","",""
"html-keyboard-response","149","941693","0.0-4.0-2.0-1.17","spark_pilot_2","9609","8","7","Female","","","","","","","null","<div style=""font-size:60px;"">+</div>","null","fixation","","","","","","","","","","","35","","",""
"revaluation","150","947718","0.0-4.0-2.0-0.18","spark_pilot_2","9609","8","7","Female","","false","","","","","[818.3999999994412,563]","./assets/img/canyon/memory/17.jpg","[""ArrowUp"",""ArrowLeft""]","value training","canyon","26","{""ArrowUp,ArrowLeft"":26,""ArrowUp,ArrowRight"":10,""ArrowDown,ArrowLeft"":5,""ArrowDown,ArrowRight"":17}","true","ArrowUp,ArrowLeft","false","","","revaluation","1","36","","",""
"html-keyboard-response","151","948223","0.0-4.0-2.0-1.18","spark_pilot_2","9609","8","7","Female","","","","","","","null","<div style=""font-size:60px;"">+</div>","null","fixation","","","","","","","","","","","37","","",""
"revaluation","152","954246","0.0-4.0-2.0-0.19","spark_pilot_2","9609","8","7","Female","","false","","","","","[728.0999999996275,632.4000000003725]","./assets/img/canyon/memory/38.jpg","[""ArrowUp"",""ArrowLeft""]","value training","canyon","26","{""ArrowUp,ArrowLeft"":26,""ArrowUp,ArrowRight"":10,""ArrowDown,ArrowLeft"":5,""ArrowDown,ArrowRight"":17}","true","ArrowUp,ArrowLeft","false","","","revaluation","1","38","","",""
"html-keyboard-response","153","954749","0.0-4.0-2.0-1.19","spark_pilot_2","9609","8","7","Female","","","","","","","null","<div style=""font-size:60px;"">+</div>","null","fixation","","","","","","","","","","","39","","",""
"revaluation","154","960775","0.0-4.0-2.0-0.20","spark_pilot_2","9609","8","7","Female","","false","","","","","[986.2000000001863,579.6000000005588]","./assets/img/canyon/memory/28.jpg","[""ArrowUp"",""ArrowLeft""]","value training","canyon","26","{""ArrowUp,ArrowLeft"":26,""ArrowUp,ArrowRight"":10,""ArrowDown,ArrowLeft"":5,""ArrowDown,ArrowRight"":17}","true","ArrowUp,ArrowLeft","false","","","revaluation","1","40","","",""
"html-keyboard-response","155","961280","0.0-4.0-2.0-1.20","spark_pilot_2","9609","8","7","Female","","","","","","","null","<div style=""font-size:60px;"">+</div>","null","fixation","","","","","","","","","","","41","","",""
"revaluation","156","967305","0.0-4.0-2.0-0.21","spark_pilot_2","9609","8","7","Female","","false","","","","","[743.3999999994412,553.1000000005588]","./assets/img/canyon/memory/28.jpg","[""ArrowUp"",""ArrowLeft""]","value training","canyon","26","{""ArrowUp,ArrowLeft"":26,""ArrowUp,ArrowRight"":10,""ArrowDown,ArrowLeft"":5,""ArrowDown,ArrowRight"":17}","true","ArrowUp,ArrowLeft","false","","","revaluation","1","42","","",""
"html-keyboard-response","157","967816","0.0-4.0-2.0-1.21","spark_pilot_2","9609","8","7","Female","","","","","","","null","<div style=""font-size:60px;"">+</div>","null","fixation","","","","","","","","","","","43","","",""
"revaluation","158","971833","0.0-4.0-2.0-0.22","spark_pilot_2","9609","8","7","Female","","false","","","","","[831.2000000001863]","./assets/img/canyon/catch/3.jpg","[""spaceBar""]","value training","canyon","0","{""ArrowUp,ArrowLeft"":26,""ArrowUp,ArrowRight"":10,""ArrowDown,ArrowLeft"":5,""ArrowDown,ArrowRight"":17}","true","spaceBar","true","","","revaluation","1","44","","",""
"html-keyboard-response","159","972344","0.0-4.0-2.0-1.22","spark_pilot_2","9609","8","7","Female","","","","","","","null","<div style=""font-size:60px;"">+</div>","null","fixation","","","","","","","","","","","45","","",""
"revaluation","160","978366","0.0-4.0-2.0-0.23","spark_pilot_2","9609","8","7","Female","","false","","","","","[1023.2000000001863,601.1000000005588]","./assets/img/canyon/memory/38.jpg","[""ArrowUp"",""ArrowLeft""]","value training","canyon","26","{""ArrowUp,ArrowLeft"":26,""ArrowUp,ArrowRight"":10,""ArrowDown,ArrowLeft"":5,""ArrowDown,ArrowRight"":17}","true","ArrowUp,ArrowLeft","false","","","revaluation","1","46","","",""
"html-keyboard-response","161","978868","0.0-4.0-2.0-1.23","spark_pilot_2","9609","8","7","Female","","","","","","","null","<div style=""font-size:60px;"">+</div>","null","fixation","","","","","","","","","","","47","","",""
"revaluation","162","982886","0.0-4.0-2.0-0.24","spark_pilot_2","9609","8","7","Female","","false","","","","","[834.6999999992549]","./assets/img/canyon/catch/7.jpg","[""spaceBar""]","value training","canyon","0","{""ArrowUp,ArrowLeft"":26,""ArrowUp,ArrowRight"":10,""ArrowDown,ArrowLeft"":5,""ArrowDown,ArrowRight"":17}","true","spaceBar","true","","","revaluation","1","48","","",""
"html-keyboard-response","163","983391","0.0-4.0-2.0-1.24","spark_pilot_2","9609","8","7","Female","","","","","","","null","<div style=""font-size:60px;"">+</div>","null","fixation","","","","","","","","","","","49","","",""
"revaluation","164","989416","0.0-4.0-2.0-0.25","spark_pilot_2","9609","8","7","Female","","false","","","","","[799.7999999998137,507.79999999981374]","./assets/img/canyon/memory/0.jpg","[""ArrowUp"",""ArrowLeft""]","value training","canyon","26","{""ArrowUp,ArrowLeft"":26,""ArrowUp,ArrowRight"":10,""ArrowDown,ArrowLeft"":5,""ArrowDown,ArrowRight"":17}","true","ArrowUp,ArrowLeft","false","","","revaluation","1","50","","",""
"html-keyboard-response","165","989925","0.0-4.0-2.0-1.25","spark_pilot_2","9609","8","7","Female","","","","","","","null","<div style=""font-size:60px;"">+</div>","null","fixation","","","","","","","","","","","51","","",""
"revaluation","166","995951","0.0-4.0-2.0-0.26","spark_pilot_2","9609","8","7","Female","","false","","","","","[1306,10.900000000372529]","./assets/img/canyon/memory/37.jpg","[""ArrowUp"",""ArrowLeft""]","value training","canyon","26","{""ArrowUp,ArrowLeft"":26,""ArrowUp,ArrowRight"":10,""ArrowDown,ArrowLeft"":5,""ArrowDown,ArrowRight"":17}","true","ArrowUp,ArrowLeft","false","","","revaluation","1","52","","",""
"html-keyboard-response","167","996462","0.0-4.0-2.0-1.26","spark_pilot_2","9609","8","7","Female","","","","","","","null","<div style=""font-size:60px;"">+</div>","null","fixation","","","","","","","","","","","53","","",""
"revaluation","168","1002486","0.0-4.0-2.0-0.27","spark_pilot_2","9609","8","7","Female","","false","","","","","[871.2999999998137,484.09999999962747]","./assets/img/canyon/memory/15.jpg","[""ArrowUp"",""ArrowLeft""]","value training","canyon","26","{""ArrowUp,ArrowLeft"":26,""ArrowUp,ArrowRight"":10,""ArrowDown,ArrowLeft"":5,""ArrowDown,ArrowRight"":17}","true","ArrowUp,ArrowLeft","false","","","revaluation","1","54","","",""
"html-keyboard-response","169","1002996","0.0-4.0-2.0-1.27","spark_pilot_2","9609","8","7","Female","","","","","","","null","<div style=""font-size:60px;"">+</div>","null","fixation","","","","","","","","","","","55","","",""
"revaluation","170","1007009","0.0-4.0-2.0-0.28","spark_pilot_2","9609","8","7","Female","","false","","","","","[823.0999999996275]","./assets/img/canyon/catch/6.jpg","[""spaceBar""]","value training","canyon","0","{""ArrowUp,ArrowLeft"":26,""ArrowUp,ArrowRight"":10,""ArrowDown,ArrowLeft"":5,""ArrowDown,ArrowRight"":17}","true","spaceBar","true","","","revaluation","1","56","","",""
"html-keyboard-response","171","1007513","0.0-4.0-2.0-1.28","spark_pilot_2","9609","8","7","Female","","","","","","","null","<div style=""font-size:60px;"">+</div>","null","fixation","","","","","","","","","","","57","","",""
"revaluation","172","1013537","0.0-4.0-2.0-0.29","spark_pilot_2","9609","8","7","Female","","false","","","","","[937.2000000001863,570.1000000005588]","./assets/img/canyon/memory/34.jpg","[""ArrowUp"",""ArrowLeft""]","value training","canyon","26","{""ArrowUp,ArrowLeft"":26,""ArrowUp,ArrowRight"":10,""ArrowDown,ArrowLeft"":5,""ArrowDown,ArrowRight"":17}","true","ArrowUp,ArrowLeft","false","","","revaluation","1","58","","",""
"html-keyboard-response","173","1014042","0.0-4.0-2.0-1.29","spark_pilot_2","9609","8","7","Female","","","","","","","null","<div style=""font-size:60px;"">+</div>","null","fixation","","","","","","","","","","","59","","",""
"revaluation","174","1020064","0.0-4.0-2.0-0.30","spark_pilot_2","9609","8","7","Female","","false","","","","","[927.5,801.5]","./assets/img/canyon/memory/1.jpg","[""ArrowUp"",""ArrowLeft""]","value training","canyon","26","{""ArrowUp,ArrowLeft"":26,""ArrowUp,ArrowRight"":10,""ArrowDown,ArrowLeft"":5,""ArrowDown,ArrowRight"":17}","true","ArrowUp,ArrowLeft","false","","","revaluation","1","60","","",""
"html-keyboard-response","175","1020571","0.0-4.0-2.0-1.30","spark_pilot_2","9609","8","7","Female","","","","","","","null","<div style=""font-size:60px;"">+</div>","null","fixation","","","","","","","","","","","61","","",""
"revaluation","176","1026591","0.0-4.0-2.0-0.31","spark_pilot_2","9609","8","7","Female","","false","","","","","[805.5,769.2000000001863]","./assets/img/canyon/memory/9.jpg","[""ArrowUp"",""ArrowLeft""]","value training","canyon","26","{""ArrowUp,ArrowLeft"":26,""ArrowUp,ArrowRight"":10,""ArrowDown,ArrowLeft"":5,""ArrowDown,ArrowRight"":17}","true","ArrowUp,ArrowLeft","false","","","revaluation","1","62","","",""
"html-keyboard-response","177","1027096","0.0-4.0-2.0-1.31","spark_pilot_2","9609","8","7","Female","","","","","","","null","<div style=""font-size:60px;"">+</div>","null","fixation","","","","","","","","","","","63","","",""
"revaluation","178","1033119","0.0-4.0-2.0-0.32","spark_pilot_2","9609","8","7","Female","","false","","","","","[824.6999999992549,507.20000000018626]","./assets/img/canyon/memory/17.jpg","[""ArrowUp"",""ArrowLeft""]","value training","canyon","26","{""ArrowUp,ArrowLeft"":26,""ArrowUp,ArrowRight"":10,""ArrowDown,ArrowLeft"":5,""ArrowDown,ArrowRight"":17}","true","ArrowUp,ArrowLeft","false","","","revaluation","1","64","","",""
"html-keyboard-response","179","1033623","0.0-4.0-2.0-1.32","spark_pilot_2","9609","8","7","Female","","","","","","","null","<div style=""font-size:60px;"">+</div>","null","fixation","","","","","","","","","","","65","","",""
"revaluation","180","1039646","0.0-4.0-2.0-0.33","spark_pilot_2","9609","8","7","Female","","false","","","","","[1153.2000000001863,937.2000000001863]","./assets/img/canyon/memory/33.jpg","[""ArrowUp"",""ArrowLeft""]","value training","canyon","26","{""ArrowUp,ArrowLeft"":26,""ArrowUp,ArrowRight"":10,""ArrowDown,ArrowLeft"":5,""ArrowDown,ArrowRight"":17}","true","ArrowUp,ArrowLeft","false","","","revaluation","1","66","","",""
"html-keyboard-response","181","1040150","0.0-4.0-2.0-1.33","spark_pilot_2","9609","8","7","Female","","","","","","","null","<div style=""font-size:60px;"">+</div>","null","fixation","","","","","","","","","","","67","","",""
"revaluation","182","1046175","0.0-4.0-2.0-0.34","spark_pilot_2","9609","8","7","Female","","false","","","","","[897.6999999992549,691.7999999998137]","./assets/img/canyon/memory/5.jpg","[""ArrowUp"",""ArrowLeft""]","value training","canyon","26","{""ArrowUp,ArrowLeft"":26,""ArrowUp,ArrowRight"":10,""ArrowDown,ArrowLeft"":5,""ArrowDown,ArrowRight"":17}","true","ArrowUp,ArrowLeft","false","","","revaluation","1","68","","",""
"html-keyboard-response","183","1046679","0.0-4.0-2.0-1.34","spark_pilot_2","9609","8","7","Female","","","","","","","null","<div style=""font-size:60px;"">+</div>","null","fixation","","","","","","","","","","","69","","",""
"revaluation","184","1052703","0.0-4.0-2.0-0.35","spark_pilot_2","9609","8","7","Female","","false","","","","","[832.8999999994412,528]","./assets/img/canyon/memory/30.jpg","[""ArrowUp"",""ArrowLeft""]","value training","canyon","26","{""ArrowUp,ArrowLeft"":26,""ArrowUp,ArrowRight"":10,""ArrowDown,ArrowLeft"":5,""ArrowDown,ArrowRight"":17}","true","ArrowUp,ArrowLeft","false","","","revaluation","1","70","","",""
"html-keyboard-response","185","1053205","0.0-4.0-2.0-1.35","spark_pilot_2","9609","8","7","Female","","","","","","","null","<div style=""font-size:60px;"">+</div>","null","fixation","","","","","","","","","","","71","","",""
"revaluation","186","1059231","0.0-4.0-2.0-0.36","spark_pilot_2","9609","8","7","Female","","false","","","","","[810.0999999996275,650.2000000001863]","./assets/img/canyon/memory/16.jpg","[""ArrowUp"",""ArrowLeft""]","value training","canyon","26","{""ArrowUp,ArrowLeft"":26,""ArrowUp,ArrowRight"":10,""ArrowDown,ArrowLeft"":5,""ArrowDown,ArrowRight"":17}","true","ArrowUp,ArrowLeft","false","","","revaluation","1","72","","",""
"html-keyboard-response","187","1059733","0.0-4.0-2.0-1.36","spark_pilot_2","9609","8","7","Female","","","","","","","null","<div style=""font-size:60px;"">+</div>","null","fixation","","","","","","","","","","","73","","",""
"revaluation","188","1065762","0.0-4.0-2.0-0.37","spark_pilot_2","9609","8","7","Female","","false","","","","","[865.8000000007451,864.7000000001863]","./assets/img/canyon/memory/10.jpg","[""ArrowUp"",""ArrowLeft""]","value training","canyon","26","{""ArrowUp,ArrowLeft"":26,""ArrowUp,ArrowRight"":10,""ArrowDown,ArrowLeft"":5,""ArrowDown,ArrowRight"":17}","true","ArrowUp,ArrowLeft","false","","","revaluation","1","74","","",""
"html-keyboard-response","189","1066271","0.0-4.0-2.0-1.37","spark_pilot_2","9609","8","7","Female","","","","","","","null","<div style=""font-size:60px;"">+</div>","null","fixation","","","","","","","","","","","75","","",""
"revaluation","190","1072295","0.0-4.0-2.0-0.38","spark_pilot_2","9609","8","7","Female","","false","","","","","[840.2000000001863,681.3000000007451]","./assets/img/canyon/memory/32.jpg","[""ArrowUp"",""ArrowLeft""]","value training","canyon","26","{""ArrowUp,ArrowLeft"":26,""ArrowUp,ArrowRight"":10,""ArrowDown,ArrowLeft"":5,""ArrowDown,ArrowRight"":17}","true","ArrowUp,ArrowLeft","false","","","revaluation","1","76","","",""
"html-keyboard-response","191","1072797","0.0-4.0-2.0-1.38","spark_pilot_2","9609","8","7","Female","","","","","","","null","<div style=""font-size:60px;"">+</div>","null","fixation","","","","","","","","","","","77","","",""
"revaluation","192","1078822","0.0-4.0-2.0-0.39","spark_pilot_2","9609","8","7","Female","","false","","","","","[737.9000000003725,671.1000000005588]","./assets/img/canyon/memory/1.jpg","[""ArrowUp"",""ArrowLeft""]","value training","canyon","26","{""ArrowUp,ArrowLeft"":26,""ArrowUp,ArrowRight"":10,""ArrowDown,ArrowLeft"":5,""ArrowDown,ArrowRight"":17}","true","ArrowUp,ArrowLeft","false","","","revaluation","1","78","","",""
"html-keyboard-response","193","1079327","0.0-4.0-2.0-1.39","spark_pilot_2","9609","8","7","Female","","","","","","","null","<div style=""font-size:60px;"">+</div>","null","fixation","","","","","","","","","","","79","","",""
"revaluation","194","1085350","0.0-4.0-2.0-0.40","spark_pilot_2","9609","8","7","Female","","false","","","","","[839.7999999998137,785.1000000005588]","./assets/img/canyon/memory/0.jpg","[""ArrowUp"",""ArrowLeft""]","value training","canyon","26","{""ArrowUp,ArrowLeft"":26,""ArrowUp,ArrowRight"":10,""ArrowDown,ArrowLeft"":5,""ArrowDown,ArrowRight"":17}","true","ArrowUp,ArrowLeft","false","","","revaluation","1","80","","",""
"html-keyboard-response","195","1085855","0.0-4.0-2.0-1.40","spark_pilot_2","9609","8","7","Female","","","","","","","null","<div style=""font-size:60px;"">+</div>","null","fixation","","","","","","","","","","","81","","",""
"revaluation","196","1089869","0.0-4.0-2.0-0.41","spark_pilot_2","9609","8","7","Female","","false","","","","","[703.4000000003725]","./assets/img/canyon/catch/4.jpg","[""spaceBar""]","value training","canyon","0","{""ArrowUp,ArrowLeft"":26,""ArrowUp,ArrowRight"":10,""ArrowDown,ArrowLeft"":5,""ArrowDown,ArrowRight"":17}","true","spaceBar","true","","","revaluation","1","82","","",""
"html-keyboard-response","197","1090374","0.0-4.0-2.0-1.41","spark_pilot_2","9609","8","7","Female","","","","","","","null","<div style=""font-size:60px;"">+</div>","null","fixation","","","","","","","","","","","83","","",""
"revaluation","198","1096399","0.0-4.0-2.0-0.42","spark_pilot_2","9609","8","7","Female","","false","","","","","[1232.5999999996275,658]","./assets/img/canyon/memory/16.jpg","[""ArrowUp"",""ArrowLeft""]","value training","canyon","26","{""ArrowUp,ArrowLeft"":26,""ArrowUp,ArrowRight"":10,""ArrowDown,ArrowLeft"":5,""ArrowDown,ArrowRight"":17}","true","ArrowUp,ArrowLeft","false","","","revaluation","1","84","","",""
"html-keyboard-response","199","1096910","0.0-4.0-2.0-1.42","spark_pilot_2","9609","8","7","Female","","","","","","","null","<div style=""font-size:60px;"">+</div>","null","fixation","","","","","","","","","","","85","","",""
"revaluation","200","1102935","0.0-4.0-2.0-0.43","spark_pilot_2","9609","8","7","Female","","false","","","","","[727.9000000003725,555.2000000001863]","./assets/img/canyon/memory/36.jpg","[""ArrowUp"",""ArrowLeft""]","value training","canyon","26","{""ArrowUp,ArrowLeft"":26,""ArrowUp,ArrowRight"":10,""ArrowDown,ArrowLeft"":5,""ArrowDown,ArrowRight"":17}","true","ArrowUp,ArrowLeft","false","","","revaluation","1","86","","",""
"html-keyboard-response","201","1103446","0.0-4.0-2.0-1.43","spark_pilot_2","9609","8","7","Female","","","","","","","null","<div style=""font-size:60px;"">+</div>","null","fixation","","","","","","","","","","","87","","",""
"revaluation","202","1109468","0.0-4.0-2.0-0.44","spark_pilot_2","9609","8","7","Female","","false","","","","","[544.2999999998137,522.0999999996275]","./assets/img/canyon/memory/33.jpg","[""ArrowUp"",""ArrowLeft""]","value training","canyon","26","{""ArrowUp,ArrowLeft"":26,""ArrowUp,ArrowRight"":10,""ArrowDown,ArrowLeft"":5,""ArrowDown,ArrowRight"":17}","true","ArrowUp,ArrowLeft","false","","","revaluation","1","88","","",""
"html-keyboard-response","203","1109973","0.0-4.0-2.0-1.44","spark_pilot_2","9609","8","7","Female","","","","","","","null","<div style=""font-size:60px;"">+</div>","null","fixation","","","","","","","","","","","89","","",""
"revaluation","204","1115996","0.0-4.0-2.0-0.45","spark_pilot_2","9609","8","7","Female","","false","","","","","[849.2000000001863,666.2999999998137]","./assets/img/canyon/memory/23.jpg","[""ArrowUp"",""ArrowLeft""]","value training","canyon","26","{""ArrowUp,ArrowLeft"":26,""ArrowUp,ArrowRight"":10,""ArrowDown,ArrowLeft"":5,""ArrowDown,ArrowRight"":17}","true","ArrowUp,ArrowLeft","false","","","revaluation","1","90","","",""
"html-keyboard-response","205","1116501","0.0-4.0-2.0-1.45","spark_pilot_2","9609","8","7","Female","","","","","","","null","<div style=""font-size:60px;"">+</div>","null","fixation","","","","","","","","","","","91","","",""
"revaluation","206","1122524","0.0-4.0-2.0-0.46","spark_pilot_2","9609","8","7","Female","","false","","","","","[840.3999999994412,465.59999999962747]","./assets/img/canyon/memory/36.jpg","[""ArrowUp"",""ArrowLeft""]","value training","canyon","26","{""ArrowUp,ArrowLeft"":26,""ArrowUp,ArrowRight"":10,""ArrowDown,ArrowLeft"":5,""ArrowDown,ArrowRight"":17}","true","ArrowUp,ArrowLeft","false","","","revaluation","1","92","","",""
"html-keyboard-response","207","1123027","0.0-4.0-2.0-1.46","spark_pilot_2","9609","8","7","Female","","","","","","","null","<div style=""font-size:60px;"">+</div>","null","fixation","","","","","","","","","","","93","","",""
"revaluation","208","1129055","0.0-4.0-2.0-0.47","spark_pilot_2","9609","8","7","Female","","false","","","","","[690.6000000005588,394.20000000018626]","./assets/img/canyon/memory/32.jpg","[""ArrowUp"",""ArrowLeft""]","value training","canyon","26","{""ArrowUp,ArrowLeft"":26,""ArrowUp,ArrowRight"":10,""ArrowDown,ArrowLeft"":5,""ArrowDown,ArrowRight"":17}","true","ArrowUp,ArrowLeft","false","","","revaluation","1","94","","",""
"html-keyboard-response","209","1129565","0.0-4.0-2.0-1.47","spark_pilot_2","9609","8","7","Female","","","","","","","null","<div style=""font-size:60px;"">+</div>","null","fixation","","","","","","","","","","","95","","",""
"revaluation","210","1133580","0.0-4.0-2.0-0.48","spark_pilot_2","9609","8","7","Female","","false","","","","","[1072.2999999998137]","./assets/img/canyon/catch/0.jpg","[""spaceBar""]","value training","canyon","0","{""ArrowUp,ArrowLeft"":26,""ArrowUp,ArrowRight"":10,""ArrowDown,ArrowLeft"":5,""ArrowDown,ArrowRight"":17}","true","spaceBar","true","","","revaluation","1","96","","",""
"html-keyboard-response","211","1134084","0.0-4.0-2.0-1.48","spark_pilot_2","9609","8","7","Female","","","","","","","null","<div style=""font-size:60px;"">+</div>","null","fixation","","","","","","","","","","","97","","",""
"revaluation","212","1140110","0.0-4.0-2.0-0.49","spark_pilot_2","9609","8","7","Female","","false","","","","","[984.9000000003725,474.59999999962747]","./assets/img/canyon/memory/5.jpg","[""ArrowUp"",""ArrowLeft""]","value training","canyon","26","{""ArrowUp,ArrowLeft"":26,""ArrowUp,ArrowRight"":10,""ArrowDown,ArrowLeft"":5,""ArrowDown,ArrowRight"":17}","true","ArrowUp,ArrowLeft","false","","","revaluation","1","98","","",""
"html-keyboard-response","213","1140621","0.0-4.0-2.0-1.49","spark_pilot_2","9609","8","7","Female","","","","","","","null","<div style=""font-size:60px;"">+</div>","null","fixation","","","","","","","","","","","99","","",""
"learning-instructions","214","1157321","0.0-4.0-3.0-0.0","spark_pilot_2","9609","8","7","Female","","","","","","","3500.800000000745","<p> Now, you will travel with a friend who will choose whether you go up or down first. </p>
            <p> On these turns, you will just see the animal that they found. You will still get to choose which chest to search for treasure.</p>","","instructions","","","","","","","","","","","","","",""
"revaluation","215","1161339","0.0-4.0-4.0-0.0","spark_pilot_2","9609","8","7","Female","","false","","","","","[1195.5999999996275]","./assets/img/canyon/animals/giraffe.jpg","[""ArrowLeft""]","revaluation","canyon","2","{""ArrowUp,ArrowLeft"":2,""ArrowUp,ArrowRight"":11,""ArrowDown,ArrowLeft"":8,""ArrowDown,ArrowRight"":27}","false","ArrowUp,ArrowLeft","","","","revaluation","1","0","","",""
"html-keyboard-response","216","1161854","0.0-4.0-4.0-1.0","spark_pilot_2","9609","8","7","Female","","","","","","","null","<div style=""font-size:60px;"">+</div>","null","fixation","","","","","","","","","","","1","","",""
"revaluation","217","1165871","0.0-4.0-4.0-0.1","spark_pilot_2","9609","8","7","Female","","false","","","","","[1334.2999999998137]","./assets/img/canyon/animals/lion.jpg","[""ArrowRight""]","revaluation","canyon","27","{""ArrowUp,ArrowLeft"":2,""ArrowUp,ArrowRight"":11,""ArrowDown,ArrowLeft"":8,""ArrowDown,ArrowRight"":27}","true","ArrowDown,ArrowRight","","","","revaluation","1","2","","",""
"html-keyboard-response","218","1166378","0.0-4.0-4.0-1.1","spark_pilot_2","9609","8","7","Female","","","","","","","null","<div style=""font-size:60px;"">+</div>","null","fixation","","","","","","","","","","","3","","",""
"revaluation","219","1170394","0.0-4.0-4.0-0.2","spark_pilot_2","9609","8","7","Female","","false","","","","","[1242.3999999994412]","./assets/img/canyon/animals/lion.jpg","[""ArrowRight""]","revaluation","canyon","27","{""ArrowUp,ArrowLeft"":2,""ArrowUp,ArrowRight"":11,""ArrowDown,ArrowLeft"":8,""ArrowDown,ArrowRight"":27}","true","ArrowDown,ArrowRight","","","","revaluation","1","4","","",""
"html-keyboard-response","220","1170903","0.0-4.0-4.0-1.2","spark_pilot_2","9609","8","7","Female","","","","","","","null","<div style=""font-size:60px;"">+</div>","null","fixation","","","","","","","","","","","5","","",""
"revaluation","221","1174914","0.0-4.0-4.0-0.3","spark_pilot_2","9609","8","7","Female","","false","","","","","[525]","./assets/img/canyon/animals/lion.jpg","[""ArrowLeft""]","revaluation","canyon","8","{""ArrowUp,ArrowLeft"":2,""ArrowUp,ArrowRight"":11,""ArrowDown,ArrowLeft"":8,""ArrowDown,ArrowRight"":27}","false","ArrowDown,ArrowLeft","","","","revaluation","1","6","","",""
"html-keyboard-response","222","1175420","0.0-4.0-4.0-1.3","spark_pilot_2","9609","8","7","Female","","","","","","","null","<div style=""font-size:60px;"">+</div>","null","fixation","","","","","","","","","","","7","","",""
"revaluation","223","1179434","0.0-4.0-4.0-0.4","spark_pilot_2","9609","8","7","Female","","false","","","","","[1312.4000000003725]","./assets/img/canyon/animals/lion.jpg","[""ArrowRight""]","revaluation","canyon","27","{""ArrowUp,ArrowLeft"":2,""ArrowUp,ArrowRight"":11,""ArrowDown,ArrowLeft"":8,""ArrowDown,ArrowRight"":27}","true","ArrowDown,ArrowRight","","","","revaluation","1","8","","",""
"html-keyboard-response","224","1179942","0.0-4.0-4.0-1.4","spark_pilot_2","9609","8","7","Female","","","","","","","null","<div style=""font-size:60px;"">+</div>","null","fixation","","","","","","","","","","","9","","",""
"revaluation","225","1183954","0.0-4.0-4.0-0.5","spark_pilot_2","9609","8","7","Female","","false","","","","","[1278.2000000001863]","./assets/img/canyon/animals/giraffe.jpg","[""ArrowLeft""]","revaluation","canyon","2","{""ArrowUp,ArrowLeft"":2,""ArrowUp,ArrowRight"":11,""ArrowDown,ArrowLeft"":8,""ArrowDown,ArrowRight"":27}","false","ArrowUp,ArrowLeft","","","","revaluation","1","10","","",""
"html-keyboard-response","226","1184459","0.0-4.0-4.0-1.5","spark_pilot_2","9609","8","7","Female","","","","","","","null","<div style=""font-size:60px;"">+</div>","null","fixation","","","","","","","","","","","11","","",""
"revaluation","227","1188477","0.0-4.0-4.0-0.6","spark_pilot_2","9609","8","7","Female","","false","","","","","[608.7000000001863]","./assets/img/canyon/animals/lion.jpg","[""ArrowRight""]","revaluation","canyon","27","{""ArrowUp,ArrowLeft"":2,""ArrowUp,ArrowRight"":11,""ArrowDown,ArrowLeft"":8,""ArrowDown,ArrowRight"":27}","true","ArrowDown,ArrowRight","","","","revaluation","1","12","","",""
"html-keyboard-response","228","1188987","0.0-4.0-4.0-1.6","spark_pilot_2","9609","8","7","Female","","","","","","","null","<div style=""font-size:60px;"">+</div>","null","fixation","","","","","","","","","","","13","","",""
"revaluation","229","1193004","0.0-4.0-4.0-0.7","spark_pilot_2","9609","8","7","Female","","false","","","","","[641]","./assets/img/canyon/animals/giraffe.jpg","[""ArrowRight""]","revaluation","canyon","11","{""ArrowUp,ArrowLeft"":2,""ArrowUp,ArrowRight"":11,""ArrowDown,ArrowLeft"":8,""ArrowDown,ArrowRight"":27}","true","ArrowUp,ArrowRight","","","","revaluation","1","14","","",""
"html-keyboard-response","230","1193515","0.0-4.0-4.0-1.7","spark_pilot_2","9609","8","7","Female","","","","","","","null","<div style=""font-size:60px;"">+</div>","null","fixation","","","","","","","","","","","15","","",""
"revaluation","231","1197530","0.0-4.0-4.0-0.8","spark_pilot_2","9609","8","7","Female","","false","","","","","[1057.1000000005588]","./assets/img/canyon/animals/lion.jpg","[""ArrowRight""]","revaluation","canyon","27","{""ArrowUp,ArrowLeft"":2,""ArrowUp,ArrowRight"":11,""ArrowDown,ArrowLeft"":8,""ArrowDown,ArrowRight"":27}","true","ArrowDown,ArrowRight","","","","revaluation","1","16","","",""
"html-keyboard-response","232","1198035","0.0-4.0-4.0-1.8","spark_pilot_2","9609","8","7","Female","","","","","","","null","<div style=""font-size:60px;"">+</div>","null","fixation","","","","","","","","","","","17","","",""
"revaluation","233","1202054","0.0-4.0-4.0-0.9","spark_pilot_2","9609","8","7","Female","","false","","","","","[448.5]","./assets/img/canyon/animals/giraffe.jpg","[""ArrowRight""]","revaluation","canyon","11","{""ArrowUp,ArrowLeft"":2,""ArrowUp,ArrowRight"":11,""ArrowDown,ArrowLeft"":8,""ArrowDown,ArrowRight"":27}","true","ArrowUp,ArrowRight","","","","revaluation","1","18","","",""
"html-keyboard-response","234","1202565","0.0-4.0-4.0-1.9","spark_pilot_2","9609","8","7","Female","","","","","","","null","<div style=""font-size:60px;"">+</div>","null","fixation","","","","","","","","","","","19","","",""
"revaluation","235","1206578","0.0-4.0-4.0-0.10","spark_pilot_2","9609","8","7","Female","","false","","","","","[486.40000000037253]","./assets/img/canyon/animals/giraffe.jpg","[""ArrowRight""]","revaluation","canyon","11","{""ArrowUp,ArrowLeft"":2,""ArrowUp,ArrowRight"":11,""ArrowDown,ArrowLeft"":8,""ArrowDown,ArrowRight"":27}","true","ArrowUp,ArrowRight","","","","revaluation","1","20","","",""
"html-keyboard-response","236","1207084","0.0-4.0-4.0-1.10","spark_pilot_2","9609","8","7","Female","","","","","","","null","<div style=""font-size:60px;"">+</div>","null","fixation","","","","","","","","","","","21","","",""
"revaluation","237","1211098","0.0-4.0-4.0-0.11","spark_pilot_2","9609","8","7","Female","","false","","","","","[439.09999999962747]","./assets/img/canyon/animals/giraffe.jpg","[""ArrowRight""]","revaluation","canyon","11","{""ArrowUp,ArrowLeft"":2,""ArrowUp,ArrowRight"":11,""ArrowDown,ArrowLeft"":8,""ArrowDown,ArrowRight"":27}","true","ArrowUp,ArrowRight","","","","revaluation","1","22","","",""
"html-keyboard-response","238","1211603","0.0-4.0-4.0-1.11","spark_pilot_2","9609","8","7","Female","","","","","","","null","<div style=""font-size:60px;"">+</div>","null","fixation","","","","","","","","","","","23","","",""
"revaluation","239","1215617","0.0-4.0-4.0-0.12","spark_pilot_2","9609","8","7","Female","","false","","","","","[480.5]","./assets/img/canyon/animals/giraffe.jpg","[""ArrowRight""]","revaluation","canyon","11","{""ArrowUp,ArrowLeft"":2,""ArrowUp,ArrowRight"":11,""ArrowDown,ArrowLeft"":8,""ArrowDown,ArrowRight"":27}","true","ArrowUp,ArrowRight","","","","revaluation","1","24","","",""
"html-keyboard-response","240","1216124","0.0-4.0-4.0-1.12","spark_pilot_2","9609","8","7","Female","","","","","","","null","<div style=""font-size:60px;"">+</div>","null","fixation","","","","","","","","","","","25","","",""
"revaluation","241","1220142","0.0-4.0-4.0-0.13","spark_pilot_2","9609","8","7","Female","","false","","","","","[623.4000000003725]","./assets/img/canyon/animals/lion.jpg","[""ArrowRight""]","revaluation","canyon","27","{""ArrowUp,ArrowLeft"":2,""ArrowUp,ArrowRight"":11,""ArrowDown,ArrowLeft"":8,""ArrowDown,ArrowRight"":27}","true","ArrowDown,ArrowRight","","","","revaluation","1","26","","",""
"html-keyboard-response","242","1220652","0.0-4.0-4.0-1.13","spark_pilot_2","9609","8","7","Female","","","","","","","null","<div style=""font-size:60px;"">+</div>","null","fixation","","","","","","","","","","","27","","",""
"revaluation","243","1224665","0.0-4.0-4.0-0.14","spark_pilot_2","9609","8","7","Female","","false","","","","","[495.3999999994412]","./assets/img/canyon/animals/giraffe.jpg","[""ArrowRight""]","revaluation","canyon","11","{""ArrowUp,ArrowLeft"":2,""ArrowUp,ArrowRight"":11,""ArrowDown,ArrowLeft"":8,""ArrowDown,ArrowRight"":27}","true","ArrowUp,ArrowRight","","","","revaluation","1","28","","",""
"html-keyboard-response","244","1225171","0.0-4.0-4.0-1.14","spark_pilot_2","9609","8","7","Female","","","","","","","null","<div style=""font-size:60px;"">+</div>","null","fixation","","","","","","","","","","","29","","",""
"revaluation","245","1229186","0.0-4.0-4.0-0.15","spark_pilot_2","9609","8","7","Female","","false","","","","","[415.79999999981374]","./assets/img/canyon/animals/giraffe.jpg","[""ArrowRight""]","revaluation","canyon","11","{""ArrowUp,ArrowLeft"":2,""ArrowUp,ArrowRight"":11,""ArrowDown,ArrowLeft"":8,""ArrowDown,ArrowRight"":27}","true","ArrowUp,ArrowRight","","","","revaluation","1","30","","",""
"html-keyboard-response","246","1229693","0.0-4.0-4.0-1.15","spark_pilot_2","9609","8","7","Female","","","","","","","null","<div style=""font-size:60px;"">+</div>","null","fixation","","","","","","","","","","","31","","",""
"revaluation","247","1233708","0.0-4.0-4.0-0.16","spark_pilot_2","9609","8","7","Female","","false","","","","","[774.1000000005588]","./assets/img/canyon/animals/lion.jpg","[""ArrowRight""]","revaluation","canyon","27","{""ArrowUp,ArrowLeft"":2,""ArrowUp,ArrowRight"":11,""ArrowDown,ArrowLeft"":8,""ArrowDown,ArrowRight"":27}","true","ArrowDown,ArrowRight","","","","revaluation","1","32","","",""
"html-keyboard-response","248","1234219","0.0-4.0-4.0-1.16","spark_pilot_2","9609","8","7","Female","","","","","","","null","<div style=""font-size:60px;"">+</div>","null","fixation","","","","","","","","","","","33","","",""
"revaluation","249","1238237","0.0-4.0-4.0-0.17","spark_pilot_2","9609","8","7","Female","","false","","","","","[472.5]","./assets/img/canyon/animals/lion.jpg","[""ArrowRight""]","revaluation","canyon","27","{""ArrowUp,ArrowLeft"":2,""ArrowUp,ArrowRight"":11,""ArrowDown,ArrowLeft"":8,""ArrowDown,ArrowRight"":27}","true","ArrowDown,ArrowRight","","","","revaluation","1","34","","",""
"html-keyboard-response","250","1238746","0.0-4.0-4.0-1.17","spark_pilot_2","9609","8","7","Female","","","","","","","null","<div style=""font-size:60px;"">+</div>","null","fixation","","","","","","","","","","","35","","",""
"learning-instructions","251","1254511","0.0-4.0-5.0-0.0","spark_pilot_2","9609","8","7","Female","","","","","","","3476.7999999998137","<p> Time to play the dot game! </p>
            <p> For one minute, click the red dots on the following screen as they appear. </p>
            <p><b> Don't look away, as you will earn bonus for clicking dots</b>. </p>","","instructions","","","","","","","","","","","","","",""
"revaluation","252","1314518","0.0-4.0-6.0-0.0","spark_pilot_2","9609","8","7","Female","","","","","","","[132,108,100,116,103,107]","","","rest","","60","","","","","0","60000","","","","","",""
"learning-instructions","253","1326343","0.0-4.0-7.0-0.0","spark_pilot_2","9609","8","7","Female","","","","","","","5410.899999999441","<p> You have almost finished this part of the game! </p>
            <p> We are going to ask you to make a few more choices. </p>","","instructions","","","","","","","","","","","","","",""
"learning-instructions","254","1342295","0.0-4.0-7.0-0.1","spark_pilot_2","9609","8","7","Female","","","","","","","1980.3999999994412","<p> First, you need to decide whether to go up or down. When you see each picture, use the arrow keys to make your choice. </p>
            <p><b>You will not see which animal you found, but try to get to the one that will give you the most treasure.</b></p>","","instructions","","","","","","","","","","","","","",""
"revaluation","255","1345130","0.0-4.0-8.0-0.0","spark_pilot_2","9609","8","7","Female","","false","","","","","[2833.4000000003725]","./assets/img/canyon/test/3.jpg","[""ArrowUp""]","first stage test","canyon","0","{""ArrowUp,ArrowLeft"":2,""ArrowUp,ArrowRight"":11,""ArrowDown,ArrowLeft"":8,""ArrowDown,ArrowRight"":27}","false","ArrowUp","false","","","revaluation","1","","","",""
"html-keyboard-response","256","1345638","0.0-4.0-8.0-1.0","spark_pilot_2","9609","8","7","Female","","","","","","","null","<div style=""font-size:60px;"">+</div>","null","fixation","","","","","","","","","","","","","",""
"revaluation","257","1346786","0.0-4.0-8.0-0.1","spark_pilot_2","9609","8","7","Female","","false","","","","","[1146.1000000005588]","./assets/img/canyon/test/1.jpg","[""ArrowUp""]","first stage test","canyon","0","{""ArrowUp,ArrowLeft"":2,""ArrowUp,ArrowRight"":11,""ArrowDown,ArrowLeft"":8,""ArrowDown,ArrowRight"":27}","false","ArrowUp","false","","","revaluation","1","","","",""
"html-keyboard-response","258","1347297","0.0-4.0-8.0-1.1","spark_pilot_2","9609","8","7","Female","","","","","","","null","<div style=""font-size:60px;"">+</div>","null","fixation","","","","","","","","","","","","","",""
"revaluation","259","1348002","0.0-4.0-8.0-0.2","spark_pilot_2","9609","8","7","Female","","false","","","","","[702.4000000003725]","./assets/img/canyon/test/2.jpg","[""ArrowUp""]","first stage test","canyon","0","{""ArrowUp,ArrowLeft"":2,""ArrowUp,ArrowRight"":11,""ArrowDown,ArrowLeft"":8,""ArrowDown,ArrowRight"":27}","false","ArrowUp","false","","","revaluation","1","","","",""
"html-keyboard-response","260","1348511","0.0-4.0-8.0-1.2","spark_pilot_2","9609","8","7","Female","","","","","","","null","<div style=""font-size:60px;"">+</div>","null","fixation","","","","","","","","","","","","","",""
"revaluation","261","1350298","0.0-4.0-8.0-0.3","spark_pilot_2","9609","8","7","Female","","false","","","","","[1785.0999999996275]","./assets/img/canyon/test/0.jpg","[""ArrowDown""]","first stage test","canyon","0","{""ArrowUp,ArrowLeft"":2,""ArrowUp,ArrowRight"":11,""ArrowDown,ArrowLeft"":8,""ArrowDown,ArrowRight"":27}","true","ArrowDown","false","","","revaluation","1","","","",""
"html-keyboard-response","262","1350809","0.0-4.0-8.0-1.3","spark_pilot_2","9609","8","7","Female","","","","","","","null","<div style=""font-size:60px;"">+</div>","null","fixation","","","","","","","","","","","","","",""
"learning-instructions","263","1375381","0.0-4.0-9.0-0.0","spark_pilot_2","9609","8","7","Female","","","","","","","13229.100000000559","<p> Now you will see the animals again and can search their chests for treasure. </p>
            <p> This time, you will not see how much treasure you earned, but you will earn more bonus money for making better choices. </p>","","instructions","","","","","","","","","","","","","",""
"revaluation","264","1376905","0.0-4.0-10.0-0.0","spark_pilot_2","9609","8","7","Female","","false","","","","","[1522.300000000745]","./assets/img/canyon/animals/giraffe.jpg","[""ArrowLeft""]","second stage test","canyon","0","{""ArrowUp,ArrowLeft"":2,""ArrowUp,ArrowRight"":11,""ArrowDown,ArrowLeft"":8,""ArrowDown,ArrowRight"":27}","false","ArrowUp,ArrowLeft","","","","revaluation","1","","","",""
"html-keyboard-response","265","1377413","0.0-4.0-10.0-1.0","spark_pilot_2","9609","8","7","Female","","","","","","","null","<div style=""font-size:60px;"">+</div>","null","fixation","","","","","","","","","","","","","",""
"revaluation","266","1378489","0.0-4.0-10.0-0.1","spark_pilot_2","9609","8","7","Female","","false","","","","","[1074.1000000005588]","./assets/img/canyon/animals/giraffe.jpg","[""ArrowRight""]","second stage test","canyon","0","{""ArrowUp,ArrowLeft"":2,""ArrowUp,ArrowRight"":11,""ArrowDown,ArrowLeft"":8,""ArrowDown,ArrowRight"":27}","true","ArrowUp,ArrowRight","","","","revaluation","1","","","",""
"html-keyboard-response","267","1378998","0.0-4.0-10.0-1.1","spark_pilot_2","9609","8","7","Female","","","","","","","null","<div style=""font-size:60px;"">+</div>","null","fixation","","","","","","","","","","","","","",""
"revaluation","268","1379666","0.0-4.0-10.0-0.2","spark_pilot_2","9609","8","7","Female","","false","","","","","[665.7999999998137]","./assets/img/canyon/animals/giraffe.jpg","[""ArrowLeft""]","second stage test","canyon","0","{""ArrowUp,ArrowLeft"":2,""ArrowUp,ArrowRight"":11,""ArrowDown,ArrowLeft"":8,""ArrowDown,ArrowRight"":27}","false","ArrowUp,ArrowLeft","","","","revaluation","1","","","",""
"html-keyboard-response","269","1380176","0.0-4.0-10.0-1.2","spark_pilot_2","9609","8","7","Female","","","","","","","null","<div style=""font-size:60px;"">+</div>","null","fixation","","","","","","","","","","","","","",""
"revaluation","270","1381009","0.0-4.0-10.0-0.3","spark_pilot_2","9609","8","7","Female","","false","","","","","[830.8999999994412]","./assets/img/canyon/animals/giraffe.jpg","[""ArrowRight""]","second stage test","canyon","0","{""ArrowUp,ArrowLeft"":2,""ArrowUp,ArrowRight"":11,""ArrowDown,ArrowLeft"":8,""ArrowDown,ArrowRight"":27}","true","ArrowUp,ArrowRight","","","","revaluation","1","","","",""
"html-keyboard-response","271","1381517","0.0-4.0-10.0-1.3","spark_pilot_2","9609","8","7","Female","","","","","","","null","<div style=""font-size:60px;"">+</div>","null","fixation","","","","","","","","","","","","","",""
"revaluation","272","1381993","0.0-4.0-10.0-0.4","spark_pilot_2","9609","8","7","Female","","false","","","","","[474.1000000005588]","./assets/img/canyon/animals/lion.jpg","[""ArrowLeft""]","second stage test","canyon","0","{""ArrowUp,ArrowLeft"":2,""ArrowUp,ArrowRight"":11,""ArrowDown,ArrowLeft"":8,""ArrowDown,ArrowRight"":27}","false","ArrowDown,ArrowLeft","","","","revaluation","1","","","",""
"html-keyboard-response","273","1382501","0.0-4.0-10.0-1.4","spark_pilot_2","9609","8","7","Female","","","","","","","null","<div style=""font-size:60px;"">+</div>","null","fixation","","","","","","","","","","","","","",""
"revaluation","274","1382977","0.0-4.0-10.0-0.5","spark_pilot_2","9609","8","7","Female","","false","","","","","[473.70000000018626]","./assets/img/canyon/animals/lion.jpg","[""ArrowRight""]","second stage test","canyon","0","{""ArrowUp,ArrowLeft"":2,""ArrowUp,ArrowRight"":11,""ArrowDown,ArrowLeft"":8,""ArrowDown,ArrowRight"":27}","true","ArrowDown,ArrowRight","","","","revaluation","1","","","",""
"html-keyboard-response","275","1383485","0.0-4.0-10.0-1.5","spark_pilot_2","9609","8","7","Female","","","","","","","null","<div style=""font-size:60px;"">+</div>","null","fixation","","","","","","","","","","","","","",""
"revaluation","276","1383945","0.0-4.0-10.0-0.6","spark_pilot_2","9609","8","7","Female","","false","","","","","[458.1000000005588]","./assets/img/canyon/animals/lion.jpg","[""ArrowLeft""]","second stage test","canyon","0","{""ArrowUp,ArrowLeft"":2,""ArrowUp,ArrowRight"":11,""ArrowDown,ArrowLeft"":8,""ArrowDown,ArrowRight"":27}","false","ArrowDown,ArrowLeft","","","","revaluation","1","","","",""
"html-keyboard-response","277","1384454","0.0-4.0-10.0-1.6","spark_pilot_2","9609","8","7","Female","","","","","","","null","<div style=""font-size:60px;"">+</div>","null","fixation","","","","","","","","","","","","","",""
"revaluation","278","1385017","0.0-4.0-10.0-0.7","spark_pilot_2","9609","8","7","Female","","false","","","","","[560.7999999998137]","./assets/img/canyon/animals/lion.jpg","[""ArrowRight""]","second stage test","canyon","0","{""ArrowUp,ArrowLeft"":2,""ArrowUp,ArrowRight"":11,""ArrowDown,ArrowLeft"":8,""ArrowDown,ArrowRight"":27}","true","ArrowDown,ArrowRight","","","","revaluation","1","","","",""
"html-keyboard-response","279","1385528","0.0-4.0-10.0-1.7","spark_pilot_2","9609","8","7","Female","","","","","","","null","<div style=""font-size:60px;"">+</div>","null","fixation","","","","","","","","","","","","","",""
"learning-instructions","280","1392797","0.0-4.0-0.1-0.2","spark_pilot_2","9609","8","7","Female","","","","","","","4557.4000000003725","<p> This time you are searching for treasure in the <b>ocean</b>.</p>","","instructions","","","","","","","","","","","","","",""
"learning-instructions","281","1411078","0.0-4.0-0.1-0.3","spark_pilot_2","9609","8","7","Female","","","","","","","1029.800000000745","<p><b>New</b> animals with <b>new</b> treasure chests live here. You need to explore to discover where the animal with the best treasure chest is.</p>
                    <p> Like before, once you figure out which animal has the chest with the most treasure, you should try to get to that animal and select that chest! </p>","","instructions","","","","","","","","","","","","","",""
"learning-instructions","282","1436031","0.0-4.0-1.1-0.1","spark_pilot_2","9609","8","7","Female","","","","","","","10222.700000000186","<p> Remember, when you see a picture of the place, use the up and down keys to <b>find an animal</b>.</p>
            <p> When you encounter an animal, you should use the left and right keys to <b>select a treasure chest</b>.</p>
            <p> Don't forget to look out for the robber! </p>","","instructions","","","","","","","","","","","","","",""
"revaluation","283","1442056","0.0-4.0-2.1-0.50","spark_pilot_2","9609","8","7","Female","","false","","","","","[751.2000000001863,664.9000000003725]","./assets/img/ocean/memory/40.jpg","[""ArrowUp"",""ArrowLeft""]","value training","ocean","23","{""ArrowUp,ArrowLeft"":23,""ArrowUp,ArrowRight"":10,""ArrowDown,ArrowLeft"":8,""ArrowDown,ArrowRight"":30}","false","ArrowUp,ArrowLeft","false","","","original","2","0","","",""
"html-keyboard-response","284","1442567","0.0-4.0-2.1-1.50","spark_pilot_2","9609","8","7","Female","","","","","","","null","<div style=""font-size:60px;"">+</div>","null","fixation","","","","","","","","","","","1","","",""
"revaluation","285","1448588","0.0-4.0-2.1-0.51","spark_pilot_2","9609","8","7","Female","","false","","","","","[447.19999999925494,672.3999999994412]","./assets/img/ocean/memory/34.jpg","[""ArrowUp"",""ArrowRight""]","value training","ocean","10","{""ArrowUp,ArrowLeft"":23,""ArrowUp,ArrowRight"":10,""ArrowDown,ArrowLeft"":8,""ArrowDown,ArrowRight"":30}","false","ArrowUp,ArrowRight","false","","","original","2","2","","",""
"html-keyboard-response","286","1449091","0.0-4.0-2.1-1.51","spark_pilot_2","9609","8","7","Female","","","","","","","null","<div style=""font-size:60px;"">+</div>","null","fixation","","","","","","","","","","","3","","",""
"revaluation","287","1455117","0.0-4.0-2.1-0.52","spark_pilot_2","9609","8","7","Female","","false","","","","","[762.2999999998137,907.8000000007451]","./assets/img/ocean/memory/16.jpg","[""ArrowDown"",""ArrowRight""]","value training","ocean","30","{""ArrowUp,ArrowLeft"":23,""ArrowUp,ArrowRight"":10,""ArrowDown,ArrowLeft"":8,""ArrowDown,ArrowRight"":30}","true","ArrowDown,ArrowRight","false","","","original","2","4","","",""
"html-keyboard-response","288","1455622","0.0-4.0-2.1-1.52","spark_pilot_2","9609","8","7","Female","","","","","","","null","<div style=""font-size:60px;"">+</div>","null","fixation","","","","","","","","","","","5","","",""
"revaluation","289","1461645","0.0-4.0-2.1-0.53","spark_pilot_2","9609","8","7","Female","","false","","","","","[1414.5,752.9000000003725]","./assets/img/ocean/memory/16.jpg","[""ArrowDown"",""ArrowLeft""]","value training","ocean","8","{""ArrowUp,ArrowLeft"":23,""ArrowUp,ArrowRight"":10,""ArrowDown,ArrowLeft"":8,""ArrowDown,ArrowRight"":30}","false","ArrowDown,ArrowLeft","false","","","original","2","6","","",""
"html-keyboard-response","290","1462148","0.0-4.0-2.1-1.53","spark_pilot_2","9609","8","7","Female","","","","","","","null","<div style=""font-size:60px;"">+</div>","null","fixation","","","","","","","","","","","7","","",""
"revaluation","291","1468167","0.0-4.0-2.1-0.54","spark_pilot_2","9609","8","7","Female","","false","","","","","[1489.6000000005588,977.2000000001863]","./assets/img/ocean/memory/28.jpg","[""ArrowUp"",""ArrowRight""]","value training","ocean","10","{""ArrowUp,ArrowLeft"":23,""ArrowUp,ArrowRight"":10,""ArrowDown,ArrowLeft"":8,""ArrowDown,ArrowRight"":30}","false","ArrowUp,ArrowRight","false","","","original","2","8","","",""
"html-keyboard-response","292","1468675","0.0-4.0-2.1-1.54","spark_pilot_2","9609","8","7","Female","","","","","","","null","<div style=""font-size:60px;"">+</div>","null","fixation","","","","","","","","","","","9","","",""
"revaluation","293","1472695","0.0-4.0-2.1-0.55","spark_pilot_2","9609","8","7","Female","","true","","","","","[]","./assets/img/ocean/memory/36.jpg","[]","value training","ocean","-5","{""ArrowUp,ArrowLeft"":23,""ArrowUp,ArrowRight"":10,""ArrowDown,ArrowLeft"":8,""ArrowDown,ArrowRight"":30}","false","","false","","","original","2","10","","",""
"html-keyboard-response","294","1473205","0.0-4.0-2.1-1.55","spark_pilot_2","9609","8","7","Female","","","","","","","null","<div style=""font-size:60px;"">+</div>","null","fixation","","","","","","","","","","","11","","",""
"revaluation","295","1477221","0.0-4.0-2.1-0.56","spark_pilot_2","9609","8","7","Female","","false","","","","","[472.20000000018626]","./assets/img/ocean/catch/7.jpg","[""ArrowDown""]","value training","ocean","-10","{""ArrowUp,ArrowLeft"":23,""ArrowUp,ArrowRight"":10,""ArrowDown,ArrowLeft"":8,""ArrowDown,ArrowRight"":30}","false","ArrowDown","true","","","original","2","12","","",""
"html-keyboard-response","296","1477723","0.0-4.0-2.1-1.56","spark_pilot_2","9609","8","7","Female","","","","","","","null","<div style=""font-size:60px;"">+</div>","null","fixation","","","","","","","","","","","13","","",""
"revaluation","297","1483751","0.0-4.0-2.1-0.57","spark_pilot_2","9609","8","7","Female","","false","","","","","[1377.6000000005588,764.2000000001863]","./assets/img/ocean/memory/32.jpg","[""ArrowUp"",""ArrowRight""]","value training","ocean","10","{""ArrowUp,ArrowLeft"":23,""ArrowUp,ArrowRight"":10,""ArrowDown,ArrowLeft"":8,""ArrowDown,ArrowRight"":30}","false","ArrowUp,ArrowRight","false","","","original","2","14","","",""
"html-keyboard-response","298","1484262","0.0-4.0-2.1-1.57","spark_pilot_2","9609","8","7","Female","","","","","","","null","<div style=""font-size:60px;"">+</div>","null","fixation","","","","","","","","","","","15","","",""
"revaluation","299","1488275","0.0-4.0-2.1-0.58","spark_pilot_2","9609","8","7","Female","","false","","","","","[646.1999999992549]","./assets/img/ocean/catch/5.jpg","[""ArrowDown""]","value training","ocean","-10","{""ArrowUp,ArrowLeft"":23,""ArrowUp,ArrowRight"":10,""ArrowDown,ArrowLeft"":8,""ArrowDown,ArrowRight"":30}","false","ArrowDown","true","","","original","2","16","","",""
"html-keyboard-response","300","1488780","0.0-4.0-2.1-1.58","spark_pilot_2","9609","8","7","Female","","","","","","","null","<div style=""font-size:60px;"">+</div>","null","fixation","","","","","","","","","","","17","","",""
"revaluation","301","1494803","0.0-4.0-2.1-0.59","spark_pilot_2","9609","8","7","Female","","false","","","","","[1440,1058.1000000005588]","./assets/img/ocean/memory/30.jpg","[""ArrowUp"",""ArrowRight""]","value training","ocean","10","{""ArrowUp,ArrowLeft"":23,""ArrowUp,ArrowRight"":10,""ArrowDown,ArrowLeft"":8,""ArrowDown,ArrowRight"":30}","false","ArrowUp,ArrowRight","false","","","original","2","18","","",""
"html-keyboard-response","302","1495311","0.0-4.0-2.1-1.59","spark_pilot_2","9609","8","7","Female","","","","","","","null","<div style=""font-size:60px;"">+</div>","null","fixation","","","","","","","","","","","19","","",""
"revaluation","303","1501335","0.0-4.0-2.1-0.60","spark_pilot_2","9609","8","7","Female","","false","","","","","[1157.7999999998137,655.8000000007451]","./assets/img/ocean/memory/41.jpg","[""ArrowDown"",""ArrowRight""]","value training","ocean","30","{""ArrowUp,ArrowLeft"":23,""ArrowUp,ArrowRight"":10,""ArrowDown,ArrowLeft"":8,""ArrowDown,ArrowRight"":30}","true","ArrowDown,ArrowRight","false","","","original","2","20","","",""
"html-keyboard-response","304","1501846","0.0-4.0-2.1-1.60","spark_pilot_2","9609","8","7","Female","","","","","","","null","<div style=""font-size:60px;"">+</div>","null","fixation","","","","","","","","","","","21","","",""
"revaluation","305","1507867","0.0-4.0-2.1-0.61","spark_pilot_2","9609","8","7","Female","","false","","","","","[765.8000000007451,611.2000000001863]","./assets/img/ocean/memory/5.jpg","[""ArrowDown"",""ArrowRight""]","value training","ocean","30","{""ArrowUp,ArrowLeft"":23,""ArrowUp,ArrowRight"":10,""ArrowDown,ArrowLeft"":8,""ArrowDown,ArrowRight"":30}","true","ArrowDown,ArrowRight","false","","","original","2","22","","",""
"html-keyboard-response","306","1508371","0.0-4.0-2.1-1.61","spark_pilot_2","9609","8","7","Female","","","","","","","null","<div style=""font-size:60px;"">+</div>","null","fixation","","","","","","","","","","","23","","",""
"revaluation","307","1514397","0.0-4.0-2.1-0.62","spark_pilot_2","9609","8","7","Female","","false","","","","","[1105.2999999998137,772.4000000003725]","./assets/img/ocean/memory/17.jpg","[""ArrowDown"",""ArrowRight""]","value training","ocean","30","{""ArrowUp,ArrowLeft"":23,""ArrowUp,ArrowRight"":10,""ArrowDown,ArrowLeft"":8,""ArrowDown,ArrowRight"":30}","true","ArrowDown,ArrowRight","false","","","original","2","24","","",""
