"trial_type","trial_index","time_elapsed","internal_node_id","task_version","subject_id","assigned_condition","age","gender","success","timeout","failed_images","failed_audio","failed_video","browser_interaction","rt","stimulus","response","task_part","environment","score","rewardMap","correct","fullState","isCatch","numberMissed","duration","condition","order","trial_num","key_press","ground_truth","bonus"
"pavlovia","0","1135","0.0-0.0","spark_pilot_2","8163","1","20","Male","","","","","","","","","","","","","","","","","","","","","","","",""
"preload","1","36129","0.0-1.0","spark_pilot_2","8163","1","20","Male","true","false","[]","[]","[]","[{""event"":""fullscreenenter"",""trial"":2,""time"":40256}]","","","","","","","","","","","","","","","","","",""
"fullscreen","2","41215","0.0-2.0","spark_pilot_2","8163","1","20","Male","true","","","","","","","","","","","","","","","","","","","","","","",""
"audio-button-response","3","44728","0.0-3.0-0.0-0.0","spark_pilot_2","8163","1","20","Male","","","","","","","3051","./assets/audio/audiotest/turtle.mp3","2","audio_test","","","","","","","","","","","","","",""
"learning-instructions","4","54578","0.0-3.0-1.0-0.0","spark_pilot_2","8163","1","20","Male","","","","","","","2822","<p> Welcome! Please remember to stay in fullscreen mode and don't click away from the experiment. </p>","","instructions","","","","","","","","","","","","","",""
"learning-instructions","5","64324","0.0-3.0-1.0-0.1","spark_pilot_2","8163","1","20","Male","","","","","","","1292.5","<p> Today you will be playing a game to earn treasure. </p>
            <p> At the end of the experiment, you will earn a bonus based on how much treasure you find. </p>
            <img src='./assets/img/instructions/treasure.jpg' class='instructions-image'>","","instructions","","","","","","","","","","","","","",""
"learning-instructions","6","79479","0.0-3.0-1.0-0.2","spark_pilot_2","8163","1","20","Male","","","","","","","6828.199999928474","<p> Animals have hidden treasure in treasure chests. </p>
            <p> You need to first find an animal and then choose which of their treasure chests to search. </p>
            <img src='./assets/img/space/animals/cat.jpg' class='instructions-image'>","","instructions","","","","","","","","","","","","","",""
"learning-instructions","7","95929","0.0-3.0-1.0-0.3","spark_pilot_2","8163","1","20","Male","","","","","","","3218.0999999046326","<p> In each round, you will search for treasure in a different place. In the real game, there will be two rounds. </p>
            <p> You will begin with a separate, practice round where you will search for treasure in outer space. </p>
            <img src='./assets/img/space/0.jpg' class='instructions-image'>","","instructions","","","","","","","","","","","","","",""
"learning-instructions","8","111583","0.0-3.0-1.0-0.4","spark_pilot_2","8163","1","20","Male","","","","","","","4152.200000047684","<p> On every turn, you will see a picture of the place that you are in, but the specific image may be different each time. </p>
            <p> For example, both of these images mean you are in outer space. </p>
            <img src='./assets/img/instructions/outerspace.jpg' class='instructions-image'>","","instructions","","","","","","","","","","","","","",""
"learning-instructions","9","120734","0.0-3.0-1.0-0.5","spark_pilot_2","8163","1","20","Male","","","","","","","1340.5999999046326","<p> You need to decide which direction to travel in. </p>
            <p> You can choose between going <b>up or down</b> by using the arrow keys. </p>
            <img src='./assets/img/instructions/updown.jpg' class='instructions-image'>","","instructions","","","","","","","","","","","","","",""
"learning-instructions","10","130858","0.0-3.0-1.0-0.6","spark_pilot_2","8163","1","20","Male","","","","","","","1275.3999999761581","<p> You will have <b>2 seconds</b> to make your choice. </p>
            <p> If you do not make a choice within 2 seconds, you will not find an animal or earn treasure. </p>
            <img src='./assets/img/instructions/2seconds.jpg' class='instructions-image'>","","instructions","","","","","","","","","","","","","",""
"learning-instructions","11","140449","0.0-3.0-1.0-0.7","spark_pilot_2","8163","1","20","Male","","","","","","","2506.600000023842","<p> Let’s try practicing that now! </p>
            <p> When you see a picture of the place you are in, press the <b>up</b> key to travel up. </p>
            <img src='./assets/img/instructions/pressUp.jpg' class='instructions-image'>","","instructions","","","","","","","","","","","","","",""
"revaluation","12","144492","0.0-3.0-2.0-0.0","spark_pilot_2","8163","1","20","Male","","false","","","","","[1432.2999999523163]","./assets/img/space/0.jpg","[""ArrowUp""]","first stage practice","space","0","null","null","ArrowUp","false","","","","","","","",""
"html-keyboard-response","13","144995","0.0-3.0-2.0-1.0","spark_pilot_2","8163","1","20","Male","","","","","","","null","<div style=""font-size:60px;"">+</div>","null","fixation","","","","","","","","","","","","","",""
"revaluation","14","149007","0.0-3.0-2.0-0.1","spark_pilot_2","8163","1","20","Male","","false","","","","","[1802.4000000953674]","./assets/img/space/1.jpg","[""ArrowUp""]","first stage practice","space","0","null","null","ArrowUp","false","","","","","","","",""
"html-keyboard-response","15","149509","0.0-3.0-2.0-1.1","spark_pilot_2","8163","1","20","Male","","","","","","","null","<div style=""font-size:60px;"">+</div>","null","fixation","","","","","","","","","","","","","",""
"revaluation","16","153520","0.0-3.0-2.0-0.2","spark_pilot_2","8163","1","20","Male","","false","","","","","[1726.7999999523163]","./assets/img/space/2.jpg","[""ArrowUp""]","first stage practice","space","0","null","null","ArrowUp","false","","","","","","","",""
"html-keyboard-response","17","154024","0.0-3.0-2.0-1.2","spark_pilot_2","8163","1","20","Male","","","","","","","null","<div style=""font-size:60px;"">+</div>","null","fixation","","","","","","","","","","","","","",""
"learning-instructions","18","160971","0.0-3.0-3.0-0.0","spark_pilot_2","8163","1","20","Male","","","","","","","2239.100000023842","<p> Great job! Now try pressing the <b>down</b> key to travel down. </p>
            <img src='./assets/img/instructions/pressDown.jpg' class='instructions-image'>","","instructions","","","","","","","","","","","","","",""
"revaluation","19","164978","0.0-3.0-4.0-0.0","spark_pilot_2","8163","1","20","Male","","false","","","","","[1223.3000000715256]","./assets/img/space/3.jpg","[""ArrowDown""]","first stage practice","space","0","null","null","ArrowDown","false","","","","","","","",""
"html-keyboard-response","20","165482","0.0-3.0-4.0-1.0","spark_pilot_2","8163","1","20","Male","","","","","","","null","<div style=""font-size:60px;"">+</div>","null","fixation","","","","","","","","","","","","","",""
"revaluation","21","169492","0.0-3.0-4.0-0.1","spark_pilot_2","8163","1","20","Male","","false","","","","","[1082.6000000238419]","./assets/img/space/4.jpg","[""ArrowDown""]","first stage practice","space","0","null","null","ArrowDown","false","","","","","","","",""
"html-keyboard-response","22","169995","0.0-3.0-4.0-1.1","spark_pilot_2","8163","1","20","Male","","","","","","","null","<div style=""font-size:60px;"">+</div>","null","fixation","","","","","","","","","","","","","",""
"revaluation","23","174009","0.0-3.0-4.0-0.2","spark_pilot_2","8163","1","20","Male","","false","","","","","[1099.8999999761581]","./assets/img/space/5.jpg","[""ArrowDown""]","first stage practice","space","0","null","null","ArrowDown","false","","","","","","","",""
"html-keyboard-response","24","174512","0.0-3.0-4.0-1.2","spark_pilot_2","8163","1","20","Male","","","","","","","null","<div style=""font-size:60px;"">+</div>","null","fixation","","","","","","","","","","","","","",""
"learning-instructions","25","191997","0.0-3.0-5.0-0.0","spark_pilot_2","8163","1","20","Male","","","","","","","7628.5","<p> The animals don’t move, so the animal in the upper part of a place will stay in the upper part of a place, and the animal in the lower part of a place will stay in the lower part of a place. </p>","","instructions","","","","","","","","","","","","","",""
"learning-instructions","26","203993","0.0-3.0-5.0-0.1","spark_pilot_2","8163","1","20","Male","","","","","","","2814.899999976158","<p> Each animal has two treasure chests for you to choose from. </p>
            <p> The amount of treasure in each chest can range from <b> 0 to 40 pieces.</b></p>","","instructions","","","","","","","","","","","","","",""
"learning-instructions","27","218606","0.0-3.0-5.0-0.2","spark_pilot_2","8163","1","20","Male","","","","","","","3338.100000023842","<p> You should decide which chest to search for treasure by using the <b>left</b> and <b>right</b> arrow keys. </p>
            <p><b> Pay attention to which animal is on the screen, as the animals have different treasure chests. </b></p>
            <img src='./assets/img/instructions/leftright.jpg' class='instructions-image'>","","instructions","","","","","","","","","","","","","",""
"learning-instructions","28","227200","0.0-3.0-5.0-0.3","spark_pilot_2","8163","1","20","Male","","","","","","","2181.5","<p> Let’s try practicing that now. </p>
            <p> When you see an animal, choose which chest to search for treasure. </p>
            <img src='./assets/img/instructions/chooseChest.jpg' class='instructions-image'>","","instructions","","","","","","","","","","","","","",""
"revaluation","29","231211","0.0-3.0-6.0-0.0","spark_pilot_2","8163","1","20","Male","","false","","","","","[566.1999999284744]","./assets/img/space/animals/cat.jpg","[""ArrowRight""]","second stage practice","space","36","{""ArrowUp,ArrowLeft"":3,""ArrowUp,ArrowRight"":36,""ArrowDown,ArrowLeft"":15,""ArrowDown,ArrowRight"":23}","true","ArrowUp,ArrowRight","","","","","","","","",""
"html-keyboard-response","30","231713","0.0-3.0-6.0-1.0","spark_pilot_2","8163","1","20","Male","","","","","","","null","<div style=""font-size:60px;"">+</div>","null","fixation","","","","","","","","","","","","","",""
"revaluation","31","235724","0.0-3.0-6.0-0.1","spark_pilot_2","8163","1","20","Male","","false","","","","","[849.2999999523163]","./assets/img/space/animals/rabbit.jpg","[""ArrowLeft""]","second stage practice","space","15","{""ArrowUp,ArrowLeft"":3,""ArrowUp,ArrowRight"":36,""ArrowDown,ArrowLeft"":15,""ArrowDown,ArrowRight"":23}","false","ArrowDown,ArrowLeft","","","","","","","","",""
"html-keyboard-response","32","236227","0.0-3.0-6.0-1.1","spark_pilot_2","8163","1","20","Male","","","","","","","null","<div style=""font-size:60px;"">+</div>","null","fixation","","","","","","","","","","","","","",""
"revaluation","33","240239","0.0-3.0-6.0-0.2","spark_pilot_2","8163","1","20","Male","","false","","","","","[642.7999999523163]","./assets/img/space/animals/cat.jpg","[""ArrowRight""]","second stage practice","space","36","{""ArrowUp,ArrowLeft"":3,""ArrowUp,ArrowRight"":36,""ArrowDown,ArrowLeft"":15,""ArrowDown,ArrowRight"":23}","true","ArrowUp,ArrowRight","","","","","","","","",""
"html-keyboard-response","34","240742","0.0-3.0-6.0-1.2","spark_pilot_2","8163","1","20","Male","","","","","","","null","<div style=""font-size:60px;"">+</div>","null","fixation","","","","","","","","","","","","","",""
"revaluation","35","244672","0.0-3.0-6.0-0.3","spark_pilot_2","8163","1","20","Male","","false","","","","","[427.5]","./assets/img/space/animals/rabbit.jpg","[""ArrowRight""]","second stage practice","space","23","{""ArrowUp,ArrowLeft"":3,""ArrowUp,ArrowRight"":36,""ArrowDown,ArrowLeft"":15,""ArrowDown,ArrowRight"":23}","true","ArrowDown,ArrowRight","","","","","","","","",""
"html-keyboard-response","36","245176","0.0-3.0-6.0-1.3","spark_pilot_2","8163","1","20","Male","","","","","","","null","<div style=""font-size:60px;"">+</div>","null","fixation","","","","","","","","","","","","","",""
"learning-instructions","37","273065","0.0-3.0-7.0-0.0","spark_pilot_2","8163","1","20","Male","","","","","","","10973.399999976158","<p> Great job. Now let’s try putting it together. </p>
            <p> On each turn, you will first see a picture to remind you of the place you are in, and you need to choose whether to go up or down. </p>
            <p> Then you will see an animal and choose which of its chests to search for treasure. </p>","","instructions","","","","","","","","","","","","","",""
"learning-instructions","38","281945","0.0-3.0-7.0-0.1","spark_pilot_2","8163","1","20","Male","","","","","","","554.5999999046326","<p> When you choose whether to go up or down, try to go to the animal with the chest with the most treasure. </p>
            <p> Try practicing that now! </p>","","instructions","","","","","","","","","","","","","",""
"revaluation","39","287956","0.0-3.0-8.0-0.0","spark_pilot_2","8163","1","20","Male","","false","","","","","[1258.7000000476837,599.3000000715256]","./assets/img/space/6.jpg","[""ArrowUp"",""ArrowRight""]","full practice","space","36","{""ArrowUp,ArrowLeft"":3,""ArrowUp,ArrowRight"":36,""ArrowDown,ArrowLeft"":15,""ArrowDown,ArrowRight"":23}","true","ArrowUp,ArrowRight","false","","","","","","","",""
"html-keyboard-response","40","288458","0.0-3.0-8.0-1.0","spark_pilot_2","8163","1","20","Male","","","","","","","null","<div style=""font-size:60px;"">+</div>","null","fixation","","","","","","","","","","","","","",""
"revaluation","41","294467","0.0-3.0-8.0-0.1","spark_pilot_2","8163","1","20","Male","","false","","","","","[302,247.69999992847443]","./assets/img/space/7.jpg","[""ArrowDown"",""ArrowRight""]","full practice","space","23","{""ArrowUp,ArrowLeft"":3,""ArrowUp,ArrowRight"":36,""ArrowDown,ArrowLeft"":15,""ArrowDown,ArrowRight"":23}","false","ArrowDown,ArrowRight","false","","","","","","","",""
"html-keyboard-response","42","294971","0.0-3.0-8.0-1.1","spark_pilot_2","8163","1","20","Male","","","","","","","null","<div style=""font-size:60px;"">+</div>","null","fixation","","","","","","","","","","","","","",""
"revaluation","43","300984","0.0-3.0-8.0-0.2","spark_pilot_2","8163","1","20","Male","","false","","","","","[838.7999999523163,475.1999999284744]","./assets/img/space/8.jpg","[""ArrowDown"",""ArrowRight""]","full practice","space","23","{""ArrowUp,ArrowLeft"":3,""ArrowUp,ArrowRight"":36,""ArrowDown,ArrowLeft"":15,""ArrowDown,ArrowRight"":23}","false","ArrowDown,ArrowRight","false","","","","","","","",""
"html-keyboard-response","44","301486","0.0-3.0-8.0-1.2","spark_pilot_2","8163","1","20","Male","","","","","","","null","<div style=""font-size:60px;"">+</div>","null","fixation","","","","","","","","","","","","","",""
"revaluation","45","307415","0.0-3.0-8.0-0.3","spark_pilot_2","8163","1","20","Male","","false","","","","","[444.89999997615814,364.10000002384186]","./assets/img/space/9.jpg","[""ArrowUp"",""ArrowLeft""]","full practice","space","3","{""ArrowUp,ArrowLeft"":3,""ArrowUp,ArrowRight"":36,""ArrowDown,ArrowLeft"":15,""ArrowDown,ArrowRight"":23}","false","ArrowUp,ArrowLeft","false","","","","","","","",""
"html-keyboard-response","46","307917","0.0-3.0-8.0-1.3","spark_pilot_2","8163","1","20","Male","","","","","","","null","<div style=""font-size:60px;"">+</div>","null","fixation","","","","","","","","","","","","","",""
"revaluation","47","313940","0.0-3.0-8.0-0.4","spark_pilot_2","8163","1","20","Male","","false","","","","","[411.8000000715256,306]","./assets/img/space/10.jpg","[""ArrowUp"",""ArrowRight""]","full practice","space","36","{""ArrowUp,ArrowLeft"":3,""ArrowUp,ArrowRight"":36,""ArrowDown,ArrowLeft"":15,""ArrowDown,ArrowRight"":23}","true","ArrowUp,ArrowRight","false","","","","","","","",""
"html-keyboard-response","48","314442","0.0-3.0-8.0-1.4","spark_pilot_2","8163","1","20","Male","","","","","","","null","<div style=""font-size:60px;"">+</div>","null","fixation","","","","","","","","","","","","","",""
"learning-instructions","49","326333","0.0-3.0-9.0-0.0","spark_pilot_2","8163","1","20","Male","","","","","","","1303.7000000476837","<p> One last thing: sometimes, you will see a robber. The robber can be anywhere in the picture. </p>
            <p> If you do not stop them, you will lose treasure. </p>
            <img src='./assets/img/instructions/robber.jpg' class='instructions-image'>","","instructions","","","","","","","","","","","","","",""
"learning-instructions","50","334743","0.0-3.0-9.0-0.1","spark_pilot_2","8163","1","20","Male","","","","","","","1193.7999999523163","<p> If you see the robber, you should <b>press the space bar</b> rather than using the arrow keys. </p>
            <p> Try practicing that now! </p>","","instructions","","","","","","","","","","","","","",""
"revaluation","51","338750","0.0-3.0-10.0-0.0","spark_pilot_2","8163","1","20","Male","","false","","","","","[1160.8000000715256]","./assets/img/space/catch/0.jpg","[""spaceBar""]","catch practice","space","0","{""ArrowUp,ArrowLeft"":3,""ArrowUp,ArrowRight"":36,""ArrowDown,ArrowLeft"":15,""ArrowDown,ArrowRight"":23}","true","spaceBar","true","","","","","","","",""
"html-keyboard-response","52","339252","0.0-3.0-10.0-1.0","spark_pilot_2","8163","1","20","Male","","","","","","","null","<div style=""font-size:60px;"">+</div>","null","fixation","","","","","","","","","","","","","",""
"revaluation","53","343261","0.0-3.0-10.0-0.1","spark_pilot_2","8163","1","20","Male","","false","","","","","[691.1000000238419]","./assets/img/space/catch/1.jpg","[""spaceBar""]","catch practice","space","0","{""ArrowUp,ArrowLeft"":3,""ArrowUp,ArrowRight"":36,""ArrowDown,ArrowLeft"":15,""ArrowDown,ArrowRight"":23}","true","spaceBar","true","","","","","","","",""
"html-keyboard-response","54","343765","0.0-3.0-10.0-1.1","spark_pilot_2","8163","1","20","Male","","","","","","","null","<div style=""font-size:60px;"">+</div>","null","fixation","","","","","","","","","","","","","",""
"revaluation","55","347775","0.0-3.0-10.0-0.2","spark_pilot_2","8163","1","20","Male","","false","","","","","[618.5]","./assets/img/space/catch/2.jpg","[""spaceBar""]","catch practice","space","0","{""ArrowUp,ArrowLeft"":3,""ArrowUp,ArrowRight"":36,""ArrowDown,ArrowLeft"":15,""ArrowDown,ArrowRight"":23}","true","spaceBar","true","","","","","","","",""
"html-keyboard-response","56","348280","0.0-3.0-10.0-1.2","spark_pilot_2","8163","1","20","Male","","","","","","","null","<div style=""font-size:60px;"">+</div>","null","fixation","","","","","","","","","","","","","",""
"learning-instructions","57","363253","0.0-3.0-11.0-0.0","spark_pilot_2","8163","1","20","Male","","","","","","","1283.2000000476837","<p> After you explore a place to find treasure, it will be time to play a different game. </p>
            <p> During this game, red dots will appear on the screen and fall down slowly. </p>
            <p><b> You must click on them before they reach the bottom. </b></p>
            <img src='./assets/img/instructions/dotGame.jpg' class='instructions-image'>","","instructions","","","","","","","","","","","","","",""
"learning-instructions","58","370177","0.0-3.0-11.0-0.1","spark_pilot_2","8163","1","20","Male","","","","","","","1254.2999999523163","<p> For every dot you click, you will earn additional treasure. </p>
            <p> Let’s try practicing that now. </p>","","instructions","","","","","","","","","","","","","",""
"revaluation","59","385193","0.0-3.0-12.0-0.0","spark_pilot_2","8163","1","20","Male","","","","","","","[117]","","","rest practice","","10","","","","","0","15000","","","","","",""
"learning-instructions","60","391558","0.0-3.0-13.0-0.0-0.0","spark_pilot_2","8163","1","20","Male","","","","","","","1094.1000000238419","<p> Now, you will practice a shortened version of the game to get a sense of how it all fits together. </p>","","instructions","","","","","","","","","","","","","",""
"learning-instructions","61","395391","0.0-3.0-13.0-0.0-0.1","spark_pilot_2","8163","1","20","Male","","","","","","","607.9000000953674","<p>This time you are searching for treasure in outer space.</p>","","instructions","","","","","","","","","","","","","",""
"learning-instructions","62","415088","0.0-3.0-13.0-1.0-0.0","spark_pilot_2","8163","1","20","Male","","","","","","","4903.600000023842","<p> Remember, when you see a picture of the place, use the up and down keys to <b>find an animal</b>.</p>
            <p> When you encounter an animal, you should use the left and right keys to <b>select a treasure chest</b>.</p>
            <p> Don't forget to look out for the robber! </p>","","instructions","","","","","","","","","","","","","",""
"revaluation","63","421099","0.0-3.0-13.0-2.0-0.0","spark_pilot_2","8163","1","20","Male","","false","","","","","[1158.1000000238419,554.5]","./assets/img/space/11.jpg","[""ArrowDown"",""ArrowRight""]","practice block","space","23","{""ArrowUp,ArrowLeft"":3,""ArrowUp,ArrowRight"":36,""ArrowDown,ArrowLeft"":15,""ArrowDown,ArrowRight"":23}","false","ArrowDown,ArrowRight","false","","","","","","","",""
"html-keyboard-response","64","421601","0.0-3.0-13.0-2.0-1.0","spark_pilot_2","8163","1","20","Male","","","","","","","null","<div style=""font-size:60px;"">+</div>","null","fixation","","","","","","","","","","","","","",""
"revaluation","65","427613","0.0-3.0-13.0-2.0-0.1","spark_pilot_2","8163","1","20","Male","","false","","","","","[768.1999999284744,564.2999999523163]","./assets/img/space/12.jpg","[""ArrowUp"",""ArrowRight""]","practice block","space","36","{""ArrowUp,ArrowLeft"":3,""ArrowUp,ArrowRight"":36,""ArrowDown,ArrowLeft"":15,""ArrowDown,ArrowRight"":23}","true","ArrowUp,ArrowRight","false","","","","","","","",""
"html-keyboard-response","66","428115","0.0-3.0-13.0-2.0-1.1","spark_pilot_2","8163","1","20","Male","","","","","","","null","<div style=""font-size:60px;"">+</div>","null","fixation","","","","","","","","","","","","","",""
"revaluation","67","434128","0.0-3.0-13.0-2.0-0.2","spark_pilot_2","8163","1","20","Male","","false","","","","","[625,231.59999990463257]","./assets/img/space/13.jpg","[""ArrowUp"",""ArrowLeft""]","practice block","space","3","{""ArrowUp,ArrowLeft"":3,""ArrowUp,ArrowRight"":36,""ArrowDown,ArrowLeft"":15,""ArrowDown,ArrowRight"":23}","false","ArrowUp,ArrowLeft","false","","","","","","","",""
"html-keyboard-response","68","434630","0.0-3.0-13.0-2.0-1.2","spark_pilot_2","8163","1","20","Male","","","","","","","null","<div style=""font-size:60px;"">+</div>","null","fixation","","","","","","","","","","","","","",""
"revaluation","69","440645","0.0-3.0-13.0-2.0-0.3","spark_pilot_2","8163","1","20","Male","","false","","","","","[414.2000000476837,332.3000000715256]","./assets/img/space/14.jpg","[""ArrowDown"",""ArrowRight""]","practice block","space","23","{""ArrowUp,ArrowLeft"":3,""ArrowUp,ArrowRight"":36,""ArrowDown,ArrowLeft"":15,""ArrowDown,ArrowRight"":23}","false","ArrowDown,ArrowRight","false","","","","","","","",""
"html-keyboard-response","70","441155","0.0-3.0-13.0-2.0-1.3","spark_pilot_2","8163","1","20","Male","","","","","","","null","<div style=""font-size:60px;"">+</div>","null","fixation","","","","","","","","","","","","","",""
"revaluation","71","447181","0.0-3.0-13.0-2.0-0.4","spark_pilot_2","8163","1","20","Male","","false","","","","","[888,461.39999997615814]","./assets/img/space/11.jpg","[""ArrowUp"",""ArrowRight""]","practice block","space","36","{""ArrowUp,ArrowLeft"":3,""ArrowUp,ArrowRight"":36,""ArrowDown,ArrowLeft"":15,""ArrowDown,ArrowRight"":23}","true","ArrowUp,ArrowRight","false","","","","","","","",""
"html-keyboard-response","72","447692","0.0-3.0-13.0-2.0-1.4","spark_pilot_2","8163","1","20","Male","","","","","","","null","<div style=""font-size:60px;"">+</div>","null","fixation","","","","","","","","","","","","","",""
"revaluation","73","453713","0.0-3.0-13.0-2.0-0.5","spark_pilot_2","8163","1","20","Male","","false","","","","","[677.7000000476837,360.89999997615814]","./assets/img/space/12.jpg","[""ArrowUp"",""ArrowRight""]","practice block","space","36","{""ArrowUp,ArrowLeft"":3,""ArrowUp,ArrowRight"":36,""ArrowDown,ArrowLeft"":15,""ArrowDown,ArrowRight"":23}","true","ArrowUp,ArrowRight","false","","","","","","","",""
"html-keyboard-response","74","454225","0.0-3.0-13.0-2.0-1.5","spark_pilot_2","8163","1","20","Male","","","","","","","null","<div style=""font-size:60px;"">+</div>","null","fixation","","","","","","","","","","","","","",""
"revaluation","75","460264","0.0-3.0-13.0-2.0-0.6","spark_pilot_2","8163","1","20","Male","","false","","","","","[436.10000002384186,295.5]","./assets/img/space/13.jpg","[""ArrowDown"",""ArrowLeft""]","practice block","space","15","{""ArrowUp,ArrowLeft"":3,""ArrowUp,ArrowRight"":36,""ArrowDown,ArrowLeft"":15,""ArrowDown,ArrowRight"":23}","false","ArrowDown,ArrowLeft","false","","","","","","","",""
"html-keyboard-response","76","460774","0.0-3.0-13.0-2.0-1.6","spark_pilot_2","8163","1","20","Male","","","","","","","null","<div style=""font-size:60px;"">+</div>","null","fixation","","","","","","","","","","","","","",""
"revaluation","77","466800","0.0-3.0-13.0-2.0-0.7","spark_pilot_2","8163","1","20","Male","","false","","","","","[431.59999990463257,307.2000000476837]","./assets/img/space/14.jpg","[""ArrowDown"",""ArrowRight""]","practice block","space","23","{""ArrowUp,ArrowLeft"":3,""ArrowUp,ArrowRight"":36,""ArrowDown,ArrowLeft"":15,""ArrowDown,ArrowRight"":23}","false","ArrowDown,ArrowRight","false","","","","","","","",""
"html-keyboard-response","78","467311","0.0-3.0-13.0-2.0-1.7","spark_pilot_2","8163","1","20","Male","","","","","","","null","<div style=""font-size:60px;"">+</div>","null","fixation","","","","","","","","","","","","","",""
"revaluation","79","471329","0.0-3.0-13.0-2.0-0.8","spark_pilot_2","8163","1","20","Male","","false","","","","","[578.1000000238419]","./assets/img/space/catch/3.jpg","[""spaceBar""]","practice block","space","0","{""ArrowUp,ArrowLeft"":3,""ArrowUp,ArrowRight"":36,""ArrowDown,ArrowLeft"":15,""ArrowDown,ArrowRight"":23}","true","spaceBar","true","","","","","","","",""
"html-keyboard-response","80","471838","0.0-3.0-13.0-2.0-1.8","spark_pilot_2","8163","1","20","Male","","","","","","","null","<div style=""font-size:60px;"">+</div>","null","fixation","","","","","","","","","","","","","",""
"learning-instructions","81","487583","0.0-3.0-13.0-3.0-0.0","spark_pilot_2","8163","1","20","Male","","","","","","","2659.2000000476837","<p> Now, you will travel with a friend who will choose whether you go up or down first. </p>
            <p> On these turns, you will just see the animal that they found. You will still get to choose which chest to search for treasure.</p>","","instructions","","","","","","","","","","","","","",""
"revaluation","82","491591","0.0-3.0-13.0-4.0-0.0","spark_pilot_2","8163","1","20","Male","","false","","","","","[727.8000000715256]","./assets/img/space/animals/cat.jpg","[""ArrowRight""]","practice block","space","36","{""ArrowUp,ArrowLeft"":3,""ArrowUp,ArrowRight"":36,""ArrowDown,ArrowLeft"":15,""ArrowDown,ArrowRight"":23}","true","ArrowUp,ArrowRight","","","","","","","","",""
"html-keyboard-response","83","492094","0.0-3.0-13.0-4.0-1.0","spark_pilot_2","8163","1","20","Male","","","","","","","null","<div style=""font-size:60px;"">+</div>","null","fixation","","","","","","","","","","","","","",""
"revaluation","84","496102","0.0-3.0-13.0-4.0-0.1","spark_pilot_2","8163","1","20","Male","","false","","","","","[407.59999990463257]","./assets/img/space/animals/rabbit.jpg","[""ArrowRight""]","practice block","space","23","{""ArrowUp,ArrowLeft"":3,""ArrowUp,ArrowRight"":36,""ArrowDown,ArrowLeft"":15,""ArrowDown,ArrowRight"":23}","true","ArrowDown,ArrowRight","","","","","","","","",""
"html-keyboard-response","85","496604","0.0-3.0-13.0-4.0-1.1","spark_pilot_2","8163","1","20","Male","","","","","","","null","<div style=""font-size:60px;"">+</div>","null","fixation","","","","","","","","","","","","","",""
"revaluation","86","500613","0.0-3.0-13.0-4.0-0.2","spark_pilot_2","8163","1","20","Male","","false","","","","","[294.7999999523163]","./assets/img/space/animals/cat.jpg","[""ArrowLeft""]","practice block","space","3","{""ArrowUp,ArrowLeft"":3,""ArrowUp,ArrowRight"":36,""ArrowDown,ArrowLeft"":15,""ArrowDown,ArrowRight"":23}","false","ArrowUp,ArrowLeft","","","","","","","","",""
"html-keyboard-response","87","501115","0.0-3.0-13.0-4.0-1.2","spark_pilot_2","8163","1","20","Male","","","","","","","null","<div style=""font-size:60px;"">+</div>","null","fixation","","","","","","","","","","","","","",""
"revaluation","88","505122","0.0-3.0-13.0-4.0-0.3","spark_pilot_2","8163","1","20","Male","","false","","","","","[761.9000000953674]","./assets/img/space/animals/rabbit.jpg","[""ArrowRight""]","practice block","space","23","{""ArrowUp,ArrowLeft"":3,""ArrowUp,ArrowRight"":36,""ArrowDown,ArrowLeft"":15,""ArrowDown,ArrowRight"":23}","true","ArrowDown,ArrowRight","","","","","","","","",""
"html-keyboard-response","89","505624","0.0-3.0-13.0-4.0-1.3","spark_pilot_2","8163","1","20","Male","","","","","","","null","<div style=""font-size:60px;"">+</div>","null","fixation","","","","","","","","","","","","","",""
"learning-instructions","90","513654","0.0-3.0-13.0-5.0-0.0","spark_pilot_2","8163","1","20","Male","","","","","","","610.1999999284744","<p> Time to play the dot game! </p>
            <p> For 15 seconds, click the red dots on the following screen as they appear. </p>","","instructions","","","","","","","","","","","","","",""
"revaluation","91","528660","0.0-3.0-13.0-6.0-0.0","spark_pilot_2","8163","1","20","Male","","","","","","","[97]","","","rest practice","","10","","","","","0","15000","","","","","",""
"learning-instructions","92","535723","0.0-3.0-13.0-7.0-0.0","spark_pilot_2","8163","1","20","Male","","","","","","","918.4000000953674","<p> You have almost finished this part of the game! </p>
            <p> We are going to ask you to make a few more choices. </p>","","instructions","","","","","","","","","","","","","",""
"learning-instructions","93","551628","0.0-3.0-13.0-7.0-0.1","spark_pilot_2","8163","1","20","Male","","","","","","","1793.6000000238419","<p> First, you need to decide whether to go up or down. When you see each picture, use the arrow keys to make your choice. </p>
            <p><b>You will not see which animal you found, but try to get to the one that will give you the most treasure.</b></p>","","instructions","","","","","","","","","","","","","",""
"revaluation","94","552802","0.0-3.0-13.0-8.0","spark_pilot_2","8163","1","20","Male","","false","","","","","[1167.7000000476837]","./assets/img/space/15.jpg","[""ArrowUp""]","practice block","space","0","{""ArrowUp,ArrowLeft"":3,""ArrowUp,ArrowRight"":36,""ArrowDown,ArrowLeft"":15,""ArrowDown,ArrowRight"":23}","true","ArrowUp","false","","","","","","","",""
"html-keyboard-response","95","553304","0.0-3.0-13.0-9.0","spark_pilot_2","8163","1","20","Male","","","","","","","null","<div style=""font-size:60px;"">+</div>","null","fixation","","","","","","","","","","","","","",""
"learning-instructions","96","565401","0.0-3.0-13.0-10.0-0.0","spark_pilot_2","8163","1","20","Male","","","","","","","636.5","<p> Now you will see the animals again and can search their chests for treasure. </p>
            <p> This time, you will not see how much treasure you earned, but you will earn more bonus money for making better choices. </p>","","instructions","","","","","","","","","","","","","",""
"revaluation","97","565735","0.0-3.0-13.0-11.0-0.0","spark_pilot_2","8163","1","20","Male","","false","","","","","[329.7999999523163]","./assets/img/space/animals/cat.jpg","[""ArrowRight""]","practice block","space","0","{""ArrowUp,ArrowLeft"":3,""ArrowUp,ArrowRight"":36,""ArrowDown,ArrowLeft"":15,""ArrowDown,ArrowRight"":23}","true","ArrowUp,ArrowRight","","","","","","","","",""
"html-keyboard-response","98","566238","0.0-3.0-13.0-11.0-1.0","spark_pilot_2","8163","1","20","Male","","","","","","","null","<div style=""font-size:60px;"">+</div>","null","fixation","","","","","","","","","","","","","",""
"revaluation","99","567438","0.0-3.0-13.0-11.0-0.1","spark_pilot_2","8163","1","20","Male","","false","","","","","[1193.0999999046326]","./assets/img/space/animals/rabbit.jpg","[""ArrowLeft""]","practice block","space","0","{""ArrowUp,ArrowLeft"":3,""ArrowUp,ArrowRight"":36,""ArrowDown,ArrowLeft"":15,""ArrowDown,ArrowRight"":23}","false","ArrowDown,ArrowLeft","","","","","","","","",""
"html-keyboard-response","100","567940","0.0-3.0-13.0-11.0-1.1","spark_pilot_2","8163","1","20","Male","","","","","","","null","<div style=""font-size:60px;"">+</div>","null","fixation","","","","","","","","","","","","","",""
"learning-instructions","101","573372","0.0-3.0-14.0-0.0","spark_pilot_2","8163","1","20","Male","","","","","","","848.1999999284744","<p> Before you start, we're going to ask you a few questions about how the game works. </p>","","instructions","","","","","","","","","","","","","",""
"comp-q","102","585570","0.0-3.0-15.0-0.0-0.0","spark_pilot_2","8163","1","20","Male","","","","","","","6598.899999976158","<p> <b> True or False? </b> </p>
            <p> There can be 50 pieces of treasure in a given animal's chest. </p>","1","comp_question","","","","true","","","","","","","","","",""
"comp-q","103","593472","0.0-3.0-15.0-0.0-1.0","spark_pilot_2","8163","1","20","Male","","","","","","","1217.5999999046326","<p> <b> That's right! </b> The amount of treasure in each chest can range from 0 to 40 pieces. </p>","0","comp_answer","","","","","","","","","","","","","",""
"comp-q","104","601202","0.0-3.0-15.0-0.1-0.1","spark_pilot_2","8163","1","20","Male","","","","","","","557.0999999046326","<p> <b> True or False? </b> </p><p> In this game, all animals have the same amount of treasure in their left and right chests. </p>","1","comp_question","","","","true","","","","","","","","","",""
"comp-q","105","607427","0.0-3.0-15.0-0.1-1.1","spark_pilot_2","8163","1","20","Male","","","","","","","953.0999999046326","<p> <b> That's right! </b> Animals have different amounts of treasure in their treasure chests. </p>","0","comp_answer","","","","","","","","","","","","","",""
"comp-q","106","619419","0.0-3.0-15.0-0.2-0.2","spark_pilot_2","8163","1","20","Male","","","","","","","6124","<p> <b> True or False? </b> </p><p> The same animal will always be there if you go up in the same place. </p>","1","comp_question","","","","false","","","","","","","","","",""
"comp-q","107","627032","0.0-3.0-15.0-0.2-1.2","spark_pilot_2","8163","1","20","Male","","","","","","","998.1000000238419","<p> <b>Incorrect.</b> One animal lives in the upper part and one lives in the lower part of every place. </p>","0","comp_answer","","","","","","","","","","","","","",""
"comp-q","108","633788","0.0-3.0-15.0-0.3-0.3","spark_pilot_2","8163","1","20","Male","","","","","","","933","<p> <b> True or False? </b> </p><p> The same animal will always be there if you go up in the same place. </p>","0","comp_question","","","","true","","","","","","","","","",""
"comp-q","109","641108","0.0-3.0-15.0-0.3-1.3","spark_pilot_2","8163","1","20","Male","","","","","","","863.7999999523163","<p> <b> That's right! </b> One animal lives in the upper part and one lives in the lower part of every place. </p>","0","comp_answer","","","","","","","","","","","","","",""
"comp-q","110","647252","0.0-3.0-15.0-0.4-0.4","spark_pilot_2","8163","1","20","Male","","","","","","","598.2000000476837","<p> <b> True or False? </b> </p><p> If you see a different picture, it means you are in a new place. </p>","0","comp_question","","","","false","","","","","","","","","",""
"comp-q","111","659251","0.0-3.0-15.0-0.4-1.4","spark_pilot_2","8163","1","20","Male","","","","","","","847","<p> <b>Incorrect.</b> Lots of different images may show the same place. For example,  you may see three different images that all remind you that you are in outer space. </p>","0","comp_answer","","","","","","","","","","","","","",""
"comp-q","112","665324","0.0-3.0-15.0-0.5-0.5","spark_pilot_2","8163","1","20","Male","","","","","","","559.7000000476837","<p> <b> True or False? </b> </p><p> If you see a different picture, it means you are in a new place. </p>","1","comp_question","","","","true","","","","","","","","","",""
"comp-q","113","677810","0.0-3.0-15.0-0.5-1.5","spark_pilot_2","8163","1","20","Male","","","","","","","1175","<p> <b> That's right! </b> Lots of different images may show the same place. For example,  you may see three different images that all remind you that you are in outer space. </p>","0","comp_answer","","","","","","","","","","","","","",""
"learning-instructions","114","688669","0.0-3.0-16.0-0.0","spark_pilot_2","8163","1","20","Male","","","","","","","984.8000000715256","<p> Good job. Remember to do your best because the amount of treasure you earn will be converted into bonus money. </p>
            <p> It’s time to start the real game! </p>","","instructions","","","","","","","","","","","","","",""
"learning-instructions","115","692409","0.0-4.0-0.0-0.0","spark_pilot_2","8163","1","20","Male","","","","","","","1003.7000000476837","<p> This time you are searching for treasure in the <b>ocean</b>.</p>","","instructions","","","","","","","","","","","","","",""
"learning-instructions","116","710774","0.0-4.0-0.0-0.1","spark_pilot_2","8163","1","20","Male","","","","","","","1018.7000000476837","<p><b>New</b> animals with <b>new</b> treasure chests live here. You need to explore to discover where the animal with the best treasure chest is.</p>
                    <p> Like before, once you figure out which animal has the chest with the most treasure, you should try to get to that animal and select that chest! </p>","","instructions","","","","","","","","","","","","","",""
"learning-instructions","117","726405","0.0-4.0-1.0-0.0","spark_pilot_2","8163","1","20","Male","","","","","","","889.6000000238419","<p> Remember, when you see a picture of the place, use the up and down keys to <b>find an animal</b>.</p>
            <p> When you encounter an animal, you should use the left and right keys to <b>select a treasure chest</b>.</p>
            <p> Don't forget to look out for the robber! </p>","","instructions","","","","","","","","","","","","","",""
"revaluation","118","732416","0.0-4.0-2.0-0.0","spark_pilot_2","8163","1","20","Male","","false","","","","","[915.6999999284744,561.2999999523163]","./assets/img/ocean/memory/11.jpg","[""ArrowUp"",""ArrowRight""]","value training","ocean","10","{""ArrowUp,ArrowLeft"":26,""ArrowUp,ArrowRight"":10,""ArrowDown,ArrowLeft"":5,""ArrowDown,ArrowRight"":17}","false","ArrowUp,ArrowRight","false","","","original","1","0","","",""
"html-keyboard-response","119","732925","0.0-4.0-2.0-1.0","spark_pilot_2","8163","1","20","Male","","","","","","","null","<div style=""font-size:60px;"">+</div>","null","fixation","","","","","","","","","","","1","","",""
"revaluation","120","738933","0.0-4.0-2.0-0.1","spark_pilot_2","8163","1","20","Male","","false","","","","","[728.2999999523163,559.1000000238419]","./assets/img/ocean/memory/25.jpg","[""ArrowUp"",""ArrowLeft""]","value training","ocean","26","{""ArrowUp,ArrowLeft"":26,""ArrowUp,ArrowRight"":10,""ArrowDown,ArrowLeft"":5,""ArrowDown,ArrowRight"":17}","true","ArrowUp,ArrowLeft","false","","","original","1","2","","",""
"html-keyboard-response","121","739435","0.0-4.0-2.0-1.1","spark_pilot_2","8163","1","20","Male","","","","","","","null","<div style=""font-size:60px;"">+</div>","null","fixation","","","","","","","","","","","3","","",""
"revaluation","122","745446","0.0-4.0-2.0-0.2","spark_pilot_2","8163","1","20","Male","","false","","","","","[694.2999999523163,560.2000000476837]","./assets/img/ocean/memory/7.jpg","[""ArrowDown"",""ArrowRight""]","value training","ocean","17","{""ArrowUp,ArrowLeft"":26,""ArrowUp,ArrowRight"":10,""ArrowDown,ArrowLeft"":5,""ArrowDown,ArrowRight"":17}","false","ArrowDown,ArrowRight","false","","","original","1","4","","",""
"html-keyboard-response","123","745951","0.0-4.0-2.0-1.2","spark_pilot_2","8163","1","20","Male","","","","","","","null","<div style=""font-size:60px;"">+</div>","null","fixation","","","","","","","","","","","5","","",""
"revaluation","124","749960","0.0-4.0-2.0-0.3","spark_pilot_2","8163","1","20","Male","","false","","","","","[419.6999999284744]","./assets/img/ocean/catch/4.jpg","[""ArrowDown""]","value training","ocean","-10","{""ArrowUp,ArrowLeft"":26,""ArrowUp,ArrowRight"":10,""ArrowDown,ArrowLeft"":5,""ArrowDown,ArrowRight"":17}","false","ArrowDown","true","","","original","1","6","","",""
"html-keyboard-response","125","750463","0.0-4.0-2.0-1.3","spark_pilot_2","8163","1","20","Male","","","","","","","null","<div style=""font-size:60px;"">+</div>","null","fixation","","","","","","","","","","","7","","",""
"revaluation","126","756485","0.0-4.0-2.0-0.4","spark_pilot_2","8163","1","20","Male","","false","","","","","[820.5,385.1999999284744]","./assets/img/ocean/memory/11.jpg","[""ArrowDown"",""ArrowLeft""]","value training","ocean","5","{""ArrowUp,ArrowLeft"":26,""ArrowUp,ArrowRight"":10,""ArrowDown,ArrowLeft"":5,""ArrowDown,ArrowRight"":17}","false","ArrowDown,ArrowLeft","false","","","original","1","8","","",""
"html-keyboard-response","127","756996","0.0-4.0-2.0-1.4","spark_pilot_2","8163","1","20","Male","","","","","","","null","<div style=""font-size:60px;"">+</div>","null","fixation","","","","","","","","","","","9","","",""
"revaluation","128","763024","0.0-4.0-2.0-0.5","spark_pilot_2","8163","1","20","Male","","false","","","","","[886.5,366.2999999523163]","./assets/img/ocean/memory/31.jpg","[""ArrowDown"",""ArrowRight""]","value training","ocean","17","{""ArrowUp,ArrowLeft"":26,""ArrowUp,ArrowRight"":10,""ArrowDown,ArrowLeft"":5,""ArrowDown,ArrowRight"":17}","false","ArrowDown,ArrowRight","false","","","original","1","10","","",""
"html-keyboard-response","129","763526","0.0-4.0-2.0-1.5","spark_pilot_2","8163","1","20","Male","","","","","","","null","<div style=""font-size:60px;"">+</div>","null","fixation","","","","","","","","","","","11","","",""
"revaluation","130","767546","0.0-4.0-2.0-0.6","spark_pilot_2","8163","1","20","Male","","false","","","","","[592.7999999523163]","./assets/img/ocean/catch/2.jpg","[""spaceBar""]","value training","ocean","0","{""ArrowUp,ArrowLeft"":26,""ArrowUp,ArrowRight"":10,""ArrowDown,ArrowLeft"":5,""ArrowDown,ArrowRight"":17}","true","spaceBar","true","","","original","1","12","","",""
"html-keyboard-response","131","768062","0.0-4.0-2.0-1.6","spark_pilot_2","8163","1","20","Male","","","","","","","null","<div style=""font-size:60px;"">+</div>","null","fixation","","","","","","","","","","","13","","",""
"revaluation","132","774117","0.0-4.0-2.0-0.7","spark_pilot_2","8163","1","20","Male","","false","","","","","[739.3999999761581,291.5]","./assets/img/ocean/memory/19.jpg","[""ArrowUp"",""ArrowRight""]","value training","ocean","10","{""ArrowUp,ArrowLeft"":26,""ArrowUp,ArrowRight"":10,""ArrowDown,ArrowLeft"":5,""ArrowDown,ArrowRight"":17}","false","ArrowUp,ArrowRight","false","","","original","1","14","","",""
"html-keyboard-response","133","774627","0.0-4.0-2.0-1.7","spark_pilot_2","8163","1","20","Male","","","","","","","null","<div style=""font-size:60px;"">+</div>","null","fixation","","","","","","","","","","","15","","",""
"revaluation","134","780651","0.0-4.0-2.0-0.8","spark_pilot_2","8163","1","20","Male","","false","","","","","[784.1000000238419,261.3000000715256]","./assets/img/ocean/memory/1.jpg","[""ArrowUp"",""ArrowLeft""]","value training","ocean","26","{""ArrowUp,ArrowLeft"":26,""ArrowUp,ArrowRight"":10,""ArrowDown,ArrowLeft"":5,""ArrowDown,ArrowRight"":17}","true","ArrowUp,ArrowLeft","false","","","original","1","16","","",""
"html-keyboard-response","135","781166","0.0-4.0-2.0-1.8","spark_pilot_2","8163","1","20","Male","","","","","","","null","<div style=""font-size:60px;"">+</div>","null","fixation","","","","","","","","","","","17","","",""
"revaluation","136","787192","0.0-4.0-2.0-0.9","spark_pilot_2","8163","1","20","Male","","false","","","","","[601.4000000953674,251.10000002384186]","./assets/img/ocean/memory/19.jpg","[""ArrowUp"",""ArrowLeft""]","value training","ocean","26","{""ArrowUp,ArrowLeft"":26,""ArrowUp,ArrowRight"":10,""ArrowDown,ArrowLeft"":5,""ArrowDown,ArrowRight"":17}","true","ArrowUp,ArrowLeft","false","","","original","1","18","","",""
"html-keyboard-response","137","787701","0.0-4.0-2.0-1.9","spark_pilot_2","8163","1","20","Male","","","","","","","null","<div style=""font-size:60px;"">+</div>","null","fixation","","","","","","","","","","","19","","",""
"revaluation","138","791730","0.0-4.0-2.0-0.10","spark_pilot_2","8163","1","20","Male","","false","","","","","[522.5]","./assets/img/ocean/catch/5.jpg","[""spaceBar""]","value training","ocean","0","{""ArrowUp,ArrowLeft"":26,""ArrowUp,ArrowRight"":10,""ArrowDown,ArrowLeft"":5,""ArrowDown,ArrowRight"":17}","true","spaceBar","true","","","original","1","20","","",""
"html-keyboard-response","139","792242","0.0-4.0-2.0-1.10","spark_pilot_2","8163","1","20","Male","","","","","","","null","<div style=""font-size:60px;"">+</div>","null","fixation","","","","","","","","","","","21","","",""
"revaluation","140","796267","0.0-4.0-2.0-0.11","spark_pilot_2","8163","1","20","Male","","false","","","","","[244.20000004768372]","./assets/img/ocean/catch/3.jpg","[""ArrowUp""]","value training","ocean","-10","{""ArrowUp,ArrowLeft"":26,""ArrowUp,ArrowRight"":10,""ArrowDown,ArrowLeft"":5,""ArrowDown,ArrowRight"":17}","false","ArrowUp","true","","","original","1","22","","",""
"html-keyboard-response","141","796779","0.0-4.0-2.0-1.11","spark_pilot_2","8163","1","20","Male","","","","","","","null","<div style=""font-size:60px;"">+</div>","null","fixation","","","","","","","","","","","23","","",""
"revaluation","142","802810","0.0-4.0-2.0-0.12","spark_pilot_2","8163","1","20","Male","","false","","","","","[648,335.5]","./assets/img/ocean/memory/2.jpg","[""ArrowUp"",""ArrowLeft""]","value training","ocean","26","{""ArrowUp,ArrowLeft"":26,""ArrowUp,ArrowRight"":10,""ArrowDown,ArrowLeft"":5,""ArrowDown,ArrowRight"":17}","true","ArrowUp,ArrowLeft","false","","","original","1","24","","",""
"html-keyboard-response","143","803319","0.0-4.0-2.0-1.12","spark_pilot_2","8163","1","20","Male","","","","","","","null","<div style=""font-size:60px;"">+</div>","null","fixation","","","","","","","","","","","25","","",""
"revaluation","144","809340","0.0-4.0-2.0-0.13","spark_pilot_2","8163","1","20","Male","","false","","","","","[635.5,488.6999999284744]","./assets/img/ocean/memory/37.jpg","[""ArrowUp"",""ArrowLeft""]","value training","ocean","26","{""ArrowUp,ArrowLeft"":26,""ArrowUp,ArrowRight"":10,""ArrowDown,ArrowLeft"":5,""ArrowDown,ArrowRight"":17}","true","ArrowUp,ArrowLeft","false","","","original","1","26","","",""
"html-keyboard-response","145","809847","0.0-4.0-2.0-1.13","spark_pilot_2","8163","1","20","Male","","","","","","","null","<div style=""font-size:60px;"">+</div>","null","fixation","","","","","","","","","","","27","","",""
"revaluation","146","815882","0.0-4.0-2.0-0.14","spark_pilot_2","8163","1","20","Male","","false","","","","","[1483.8000000715256,389.09999990463257]","./assets/img/ocean/memory/24.jpg","[""ArrowUp"",""ArrowRight""]","value training","ocean","10","{""ArrowUp,ArrowLeft"":26,""ArrowUp,ArrowRight"":10,""ArrowDown,ArrowLeft"":5,""ArrowDown,ArrowRight"":17}","false","ArrowUp,ArrowRight","false","","","original","1","28","","",""
"html-keyboard-response","147","816388","0.0-4.0-2.0-1.14","spark_pilot_2","8163","1","20","Male","","","","","","","null","<div style=""font-size:60px;"">+</div>","null","fixation","","","","","","","","","","","29","","",""
"revaluation","148","822431","0.0-4.0-2.0-0.15","spark_pilot_2","8163","1","20","Male","","false","","","","","[585.1000000238419,962.3999999761581]","./assets/img/ocean/memory/16.jpg","[""ArrowDown"",""ArrowLeft""]","value training","ocean","5","{""ArrowUp,ArrowLeft"":26,""ArrowUp,ArrowRight"":10,""ArrowDown,ArrowLeft"":5,""ArrowDown,ArrowRight"":17}","false","ArrowDown,ArrowLeft","false","","","original","1","30","","",""
"html-keyboard-response","149","822942","0.0-4.0-2.0-1.15","spark_pilot_2","8163","1","20","Male","","","","","","","null","<div style=""font-size:60px;"">+</div>","null","fixation","","","","","","","","","","","31","","",""
"revaluation","150","828962","0.0-4.0-2.0-0.16","spark_pilot_2","8163","1","20","Male","","false","","","","","[827.1000000238419,226.20000004768372]","./assets/img/ocean/memory/18.jpg","[""ArrowUp"",""ArrowRight""]","value training","ocean","10","{""ArrowUp,ArrowLeft"":26,""ArrowUp,ArrowRight"":10,""ArrowDown,ArrowLeft"":5,""ArrowDown,ArrowRight"":17}","false","ArrowUp,ArrowRight","false","","","original","1","32","","",""
"html-keyboard-response","151","829466","0.0-4.0-2.0-1.16","spark_pilot_2","8163","1","20","Male","","","","","","","null","<div style=""font-size:60px;"">+</div>","null","fixation","","","","","","","","","","","33","","",""
"revaluation","152","835497","0.0-4.0-2.0-0.17","spark_pilot_2","8163","1","20","Male","","false","","","","","[569,382.5]","./assets/img/ocean/memory/33.jpg","[""ArrowUp"",""ArrowLeft""]","value training","ocean","26","{""ArrowUp,ArrowLeft"":26,""ArrowUp,ArrowRight"":10,""ArrowDown,ArrowLeft"":5,""ArrowDown,ArrowRight"":17}","true","ArrowUp,ArrowLeft","false","","","original","1","34","","",""
"html-keyboard-response","153","836000","0.0-4.0-2.0-1.17","spark_pilot_2","8163","1","20","Male","","","","","","","null","<div style=""font-size:60px;"">+</div>","null","fixation","","","","","","","","","","","35","","",""
"revaluation","154","840012","0.0-4.0-2.0-0.18","spark_pilot_2","8163","1","20","Male","","false","","","","","[575.3999999761581]","./assets/img/ocean/catch/0.jpg","[""spaceBar""]","value training","ocean","0","{""ArrowUp,ArrowLeft"":26,""ArrowUp,ArrowRight"":10,""ArrowDown,ArrowLeft"":5,""ArrowDown,ArrowRight"":17}","true","spaceBar","true","","","original","1","36","","",""
"html-keyboard-response","155","840517","0.0-4.0-2.0-1.18","spark_pilot_2","8163","1","20","Male","","","","","","","null","<div style=""font-size:60px;"">+</div>","null","fixation","","","","","","","","","","","37","","",""
"revaluation","156","846545","0.0-4.0-2.0-0.19","spark_pilot_2","8163","1","20","Male","","false","","","","","[663.6999999284744,383.1999999284744]","./assets/img/ocean/memory/9.jpg","[""ArrowUp"",""ArrowLeft""]","value training","ocean","26","{""ArrowUp,ArrowLeft"":26,""ArrowUp,ArrowRight"":10,""ArrowDown,ArrowLeft"":5,""ArrowDown,ArrowRight"":17}","true","ArrowUp,ArrowLeft","false","","","original","1","38","","",""
"html-keyboard-response","157","847063","0.0-4.0-2.0-1.19","spark_pilot_2","8163","1","20","Male","","","","","","","null","<div style=""font-size:60px;"">+</div>","null","fixation","","","","","","","","","","","39","","",""
"revaluation","158","853102","0.0-4.0-2.0-0.20","spark_pilot_2","8163","1","20","Male","","false","","","","","[582.4000000953674,273.60000002384186]","./assets/img/ocean/memory/9.jpg","[""ArrowUp"",""ArrowLeft""]","value training","ocean","26","{""ArrowUp,ArrowLeft"":26,""ArrowUp,ArrowRight"":10,""ArrowDown,ArrowLeft"":5,""ArrowDown,ArrowRight"":17}","true","ArrowUp,ArrowLeft","false","","","original","1","40","","",""
"html-keyboard-response","159","853606","0.0-4.0-2.0-1.20","spark_pilot_2","8163","1","20","Male","","","","","","","null","<div style=""font-size:60px;"">+</div>","null","fixation","","","","","","","","","","","41","","",""
"revaluation","160","859632","0.0-4.0-2.0-0.21","spark_pilot_2","8163","1","20","Male","","false","","","","","[643.8000000715256,278.89999997615814]","./assets/img/ocean/memory/14.jpg","[""ArrowUp"",""ArrowLeft""]","value training","ocean","26","{""ArrowUp,ArrowLeft"":26,""ArrowUp,ArrowRight"":10,""ArrowDown,ArrowLeft"":5,""ArrowDown,ArrowRight"":17}","true","ArrowUp,ArrowLeft","false","","","original","1","42","","",""
"html-keyboard-response","161","860139","0.0-4.0-2.0-1.21","spark_pilot_2","8163","1","20","Male","","","","","","","null","<div style=""font-size:60px;"">+</div>","null","fixation","","","","","","","","","","","43","","",""
"revaluation","162","866165","0.0-4.0-2.0-0.22","spark_pilot_2","8163","1","20","Male","","false","","","","","[487.39999997615814,374.3000000715256]","./assets/img/ocean/memory/12.jpg","[""ArrowDown"",""ArrowRight""]","value training","ocean","17","{""ArrowUp,ArrowLeft"":26,""ArrowUp,ArrowRight"":10,""ArrowDown,ArrowLeft"":5,""ArrowDown,ArrowRight"":17}","false","ArrowDown,ArrowRight","false","","","original","1","44","","",""
"html-keyboard-response","163","866674","0.0-4.0-2.0-1.22","spark_pilot_2","8163","1","20","Male","","","","","","","null","<div style=""font-size:60px;"">+</div>","null","fixation","","","","","","","","","","","45","","",""
"revaluation","164","872704","0.0-4.0-2.0-0.23","spark_pilot_2","8163","1","20","Male","","false","","","","","[587.2000000476837,274.39999997615814]","./assets/img/ocean/memory/7.jpg","[""ArrowUp"",""ArrowLeft""]","value training","ocean","26","{""ArrowUp,ArrowLeft"":26,""ArrowUp,ArrowRight"":10,""ArrowDown,ArrowLeft"":5,""ArrowDown,ArrowRight"":17}","true","ArrowUp,ArrowLeft","false","","","original","1","46","","",""
"html-keyboard-response","165","873211","0.0-4.0-2.0-1.23","spark_pilot_2","8163","1","20","Male","","","","","","","null","<div style=""font-size:60px;"">+</div>","null","fixation","","","","","","","","","","","47","","",""
"revaluation","166","879240","0.0-4.0-2.0-0.24","spark_pilot_2","8163","1","20","Male","","false","","","","","[586.6999999284744,282.10000002384186]","./assets/img/ocean/memory/25.jpg","[""ArrowUp"",""ArrowLeft""]","value training","ocean","26","{""ArrowUp,ArrowLeft"":26,""ArrowUp,ArrowRight"":10,""ArrowDown,ArrowLeft"":5,""ArrowDown,ArrowRight"":17}","true","ArrowUp,ArrowLeft","false","","","original","1","48","","",""
"html-keyboard-response","167","879747","0.0-4.0-2.0-1.24","spark_pilot_2","8163","1","20","Male","","","","","","","null","<div style=""font-size:60px;"">+</div>","null","fixation","","","","","","","","","","","49","","",""
"revaluation","168","885780","0.0-4.0-2.0-0.25","spark_pilot_2","8163","1","20","Male","","false","","","","","[708.8999999761581,276.5]","./assets/img/ocean/memory/20.jpg","[""ArrowUp"",""ArrowLeft""]","value training","ocean","26","{""ArrowUp,ArrowLeft"":26,""ArrowUp,ArrowRight"":10,""ArrowDown,ArrowLeft"":5,""ArrowDown,ArrowRight"":17}","true","ArrowUp,ArrowLeft","false","","","original","1","50","","",""
"html-keyboard-response","169","886291","0.0-4.0-2.0-1.25","spark_pilot_2","8163","1","20","Male","","","","","","","null","<div style=""font-size:60px;"">+</div>","null","fixation","","","","","","","","","","","51","","",""
"revaluation","170","890308","0.0-4.0-2.0-0.26","spark_pilot_2","8163","1","20","Male","","false","","","","","[662.7999999523163]","./assets/img/ocean/catch/1.jpg","[""spaceBar""]","value training","ocean","0","{""ArrowUp,ArrowLeft"":26,""ArrowUp,ArrowRight"":10,""ArrowDown,ArrowLeft"":5,""ArrowDown,ArrowRight"":17}","true","spaceBar","true","","","original","1","52","","",""
"html-keyboard-response","171","890819","0.0-4.0-2.0-1.26","spark_pilot_2","8163","1","20","Male","","","","","","","null","<div style=""font-size:60px;"">+</div>","null","fixation","","","","","","","","","","","53","","",""
"revaluation","172","896848","0.0-4.0-2.0-0.27","spark_pilot_2","8163","1","20","Male","","false","","","","","[659.2000000476837,285.10000002384186]","./assets/img/ocean/memory/20.jpg","[""ArrowUp"",""ArrowLeft""]","value training","ocean","26","{""ArrowUp,ArrowLeft"":26,""ArrowUp,ArrowRight"":10,""ArrowDown,ArrowLeft"":5,""ArrowDown,ArrowRight"":17}","true","ArrowUp,ArrowLeft","false","","","original","1","54","","",""
"html-keyboard-response","173","897359","0.0-4.0-2.0-1.27","spark_pilot_2","8163","1","20","Male","","","","","","","null","<div style=""font-size:60px;"">+</div>","null","fixation","","","","","","","","","","","55","","",""
"revaluation","174","903379","0.0-4.0-2.0-0.28","spark_pilot_2","8163","1","20","Male","","false","","","","","[453.7000000476837,245.39999997615814]","./assets/img/ocean/memory/16.jpg","[""ArrowUp"",""ArrowLeft""]","value training","ocean","26","{""ArrowUp,ArrowLeft"":26,""ArrowUp,ArrowRight"":10,""ArrowDown,ArrowLeft"":5,""ArrowDown,ArrowRight"":17}","true","ArrowUp,ArrowLeft","false","","","original","1","56","","",""
"html-keyboard-response","175","903891","0.0-4.0-2.0-1.28","spark_pilot_2","8163","1","20","Male","","","","","","","null","<div style=""font-size:60px;"">+</div>","null","fixation","","","","","","","","","","","57","","",""
"revaluation","176","909925","0.0-4.0-2.0-0.29","spark_pilot_2","8163","1","20","Male","","false","","","","","[536.3999999761581,251.90000009536743]","./assets/img/ocean/memory/39.jpg","[""ArrowUp"",""ArrowLeft""]","value training","ocean","26","{""ArrowUp,ArrowLeft"":26,""ArrowUp,ArrowRight"":10,""ArrowDown,ArrowLeft"":5,""ArrowDown,ArrowRight"":17}","true","ArrowUp,ArrowLeft","false","","","original","1","58","","",""
"html-keyboard-response","177","910428","0.0-4.0-2.0-1.29","spark_pilot_2","8163","1","20","Male","","","","","","","null","<div style=""font-size:60px;"">+</div>","null","fixation","","","","","","","","","","","59","","",""
"revaluation","178","914448","0.0-4.0-2.0-0.30","spark_pilot_2","8163","1","20","Male","","false","","","","","[609.2000000476837]","./assets/img/ocean/catch/7.jpg","[""spaceBar""]","value training","ocean","0","{""ArrowUp,ArrowLeft"":26,""ArrowUp,ArrowRight"":10,""ArrowDown,ArrowLeft"":5,""ArrowDown,ArrowRight"":17}","true","spaceBar","true","","","original","1","60","","",""
"html-keyboard-response","179","914961","0.0-4.0-2.0-1.30","spark_pilot_2","8163","1","20","Male","","","","","","","null","<div style=""font-size:60px;"">+</div>","null","fixation","","","","","","","","","","","61","","",""
"revaluation","180","920990","0.0-4.0-2.0-0.31","spark_pilot_2","8163","1","20","Male","","false","","","","","[511,420.3000000715256]","./assets/img/ocean/memory/0.jpg","[""ArrowUp"",""ArrowLeft""]","value training","ocean","26","{""ArrowUp,ArrowLeft"":26,""ArrowUp,ArrowRight"":10,""ArrowDown,ArrowLeft"":5,""ArrowDown,ArrowRight"":17}","true","ArrowUp,ArrowLeft","false","","","original","1","62","","",""
"html-keyboard-response","181","921500","0.0-4.0-2.0-1.31","spark_pilot_2","8163","1","20","Male","","","","","","","null","<div style=""font-size:60px;"">+</div>","null","fixation","","","","","","","","","","","63","","",""
"revaluation","182","927530","0.0-4.0-2.0-0.32","spark_pilot_2","8163","1","20","Male","","false","","","","","[533.8000000715256,405.7000000476837]","./assets/img/ocean/memory/39.jpg","[""ArrowUp"",""ArrowRight""]","value training","ocean","10","{""ArrowUp,ArrowLeft"":26,""ArrowUp,ArrowRight"":10,""ArrowDown,ArrowLeft"":5,""ArrowDown,ArrowRight"":17}","false","ArrowUp,ArrowRight","false","","","original","1","64","","",""
"html-keyboard-response","183","928034","0.0-4.0-2.0-1.32","spark_pilot_2","8163","1","20","Male","","","","","","","null","<div style=""font-size:60px;"">+</div>","null","fixation","","","","","","","","","","","65","","",""
"revaluation","184","934062","0.0-4.0-2.0-0.33","spark_pilot_2","8163","1","20","Male","","false","","","","","[627.5,300.2000000476837]","./assets/img/ocean/memory/24.jpg","[""ArrowUp"",""ArrowLeft""]","value training","ocean","26","{""ArrowUp,ArrowLeft"":26,""ArrowUp,ArrowRight"":10,""ArrowDown,ArrowLeft"":5,""ArrowDown,ArrowRight"":17}","true","ArrowUp,ArrowLeft","false","","","original","1","66","","",""
"html-keyboard-response","185","934567","0.0-4.0-2.0-1.33","spark_pilot_2","8163","1","20","Male","","","","","","","null","<div style=""font-size:60px;"">+</div>","null","fixation","","","","","","","","","","","67","","",""
"revaluation","186","940588","0.0-4.0-2.0-0.34","spark_pilot_2","8163","1","20","Male","","false","","","","","[453.10000002384186,228.60000002384186]","./assets/img/ocean/memory/37.jpg","[""ArrowUp"",""ArrowLeft""]","value training","ocean","26","{""ArrowUp,ArrowLeft"":26,""ArrowUp,ArrowRight"":10,""ArrowDown,ArrowLeft"":5,""ArrowDown,ArrowRight"":17}","true","ArrowUp,ArrowLeft","false","","","original","1","68","","",""
"html-keyboard-response","187","941091","0.0-4.0-2.0-1.34","spark_pilot_2","8163","1","20","Male","","","","","","","null","<div style=""font-size:60px;"">+</div>","null","fixation","","","","","","","","","","","69","","",""
"revaluation","188","947121","0.0-4.0-2.0-0.35","spark_pilot_2","8163","1","20","Male","","false","","","","","[436.10000002384186,236.79999995231628]","./assets/img/ocean/memory/0.jpg","[""ArrowUp"",""ArrowLeft""]","value training","ocean","26","{""ArrowUp,ArrowLeft"":26,""ArrowUp,ArrowRight"":10,""ArrowDown,ArrowLeft"":5,""ArrowDown,ArrowRight"":17}","true","ArrowUp,ArrowLeft","false","","","original","1","70","","",""
"html-keyboard-response","189","947636","0.0-4.0-2.0-1.35","spark_pilot_2","8163","1","20","Male","","","","","","","null","<div style=""font-size:60px;"">+</div>","null","fixation","","","","","","","","","","","71","","",""
"revaluation","190","953661","0.0-4.0-2.0-0.36","spark_pilot_2","8163","1","20","Male","","false","","","","","[753.3000000715256,231.89999997615814]","./assets/img/ocean/memory/21.jpg","[""ArrowUp"",""ArrowLeft""]","value training","ocean","26","{""ArrowUp,ArrowLeft"":26,""ArrowUp,ArrowRight"":10,""ArrowDown,ArrowLeft"":5,""ArrowDown,ArrowRight"":17}","true","ArrowUp,ArrowLeft","false","","","original","1","72","","",""
"html-keyboard-response","191","954167","0.0-4.0-2.0-1.36","spark_pilot_2","8163","1","20","Male","","","","","","","null","<div style=""font-size:60px;"">+</div>","null","fixation","","","","","","","","","","","73","","",""
"revaluation","192","960195","0.0-4.0-2.0-0.37","spark_pilot_2","8163","1","20","Male","","false","","","","","[467.2000000476837,272]","./assets/img/ocean/memory/18.jpg","[""ArrowDown"",""ArrowLeft""]","value training","ocean","5","{""ArrowUp,ArrowLeft"":26,""ArrowUp,ArrowRight"":10,""ArrowDown,ArrowLeft"":5,""ArrowDown,ArrowRight"":17}","false","ArrowDown,ArrowLeft","false","","","original","1","74","","",""
"html-keyboard-response","193","960700","0.0-4.0-2.0-1.37","spark_pilot_2","8163","1","20","Male","","","","","","","null","<div style=""font-size:60px;"">+</div>","null","fixation","","","","","","","","","","","75","","",""
"revaluation","194","964721","0.0-4.0-2.0-0.38","spark_pilot_2","8163","1","20","Male","","false","","","","","[662.1000000238419]","./assets/img/ocean/catch/6.jpg","[""spaceBar""]","value training","ocean","0","{""ArrowUp,ArrowLeft"":26,""ArrowUp,ArrowRight"":10,""ArrowDown,ArrowLeft"":5,""ArrowDown,ArrowRight"":17}","true","spaceBar","true","","","original","1","76","","",""
"html-keyboard-response","195","965224","0.0-4.0-2.0-1.38","spark_pilot_2","8163","1","20","Male","","","","","","","null","<div style=""font-size:60px;"">+</div>","null","fixation","","","","","","","","","","","77","","",""
"revaluation","196","971271","0.0-4.0-2.0-0.39","spark_pilot_2","8163","1","20","Male","","false","","","","","[375.8000000715256,354.2999999523163]","./assets/img/ocean/memory/1.jpg","[""ArrowUp"",""ArrowLeft""]","value training","ocean","26","{""ArrowUp,ArrowLeft"":26,""ArrowUp,ArrowRight"":10,""ArrowDown,ArrowLeft"":5,""ArrowDown,ArrowRight"":17}","true","ArrowUp,ArrowLeft","false","","","original","1","78","","",""
"html-keyboard-response","197","971785","0.0-4.0-2.0-1.39","spark_pilot_2","8163","1","20","Male","","","","","","","null","<div style=""font-size:60px;"">+</div>","null","fixation","","","","","","","","","","","79","","",""
"revaluation","198","977819","0.0-4.0-2.0-0.40","spark_pilot_2","8163","1","20","Male","","false","","","","","[412.5,359.60000002384186]","./assets/img/ocean/memory/10.jpg","[""ArrowUp"",""ArrowLeft""]","value training","ocean","26","{""ArrowUp,ArrowLeft"":26,""ArrowUp,ArrowRight"":10,""ArrowDown,ArrowLeft"":5,""ArrowDown,ArrowRight"":17}","true","ArrowUp,ArrowLeft","false","","","original","1","80","","",""
"html-keyboard-response","199","978338","0.0-4.0-2.0-1.40","spark_pilot_2","8163","1","20","Male","","","","","","","null","<div style=""font-size:60px;"">+</div>","null","fixation","","","","","","","","","","","81","","",""
"revaluation","200","984377","0.0-4.0-2.0-0.41","spark_pilot_2","8163","1","20","Male","","false","","","","","[469.6999999284744,441.7000000476837]","./assets/img/ocean/memory/31.jpg","[""ArrowUp"",""ArrowLeft""]","value training","ocean","26","{""ArrowUp,ArrowLeft"":26,""ArrowUp,ArrowRight"":10,""ArrowDown,ArrowLeft"":5,""ArrowDown,ArrowRight"":17}","true","ArrowUp,ArrowLeft","false","","","original","1","82","","",""
"html-keyboard-response","201","984881","0.0-4.0-2.0-1.41","spark_pilot_2","8163","1","20","Male","","","","","","","null","<div style=""font-size:60px;"">+</div>","null","fixation","","","","","","","","","","","83","","",""
"revaluation","202","990899","0.0-4.0-2.0-0.42","spark_pilot_2","8163","1","20","Male","","false","","","","","[458.5,274.7000000476837]","./assets/img/ocean/memory/10.jpg","[""ArrowUp"",""ArrowLeft""]","value training","ocean","26","{""ArrowUp,ArrowLeft"":26,""ArrowUp,ArrowRight"":10,""ArrowDown,ArrowLeft"":5,""ArrowDown,ArrowRight"":17}","true","ArrowUp,ArrowLeft","false","","","original","1","84","","",""
"html-keyboard-response","203","991418","0.0-4.0-2.0-1.42","spark_pilot_2","8163","1","20","Male","","","","","","","null","<div style=""font-size:60px;"">+</div>","null","fixation","","","","","","","","","","","85","","",""
"revaluation","204","997440","0.0-4.0-2.0-0.43","spark_pilot_2","8163","1","20","Male","","false","","","","","[756.7999999523163,251.39999997615814]","./assets/img/ocean/memory/15.jpg","[""ArrowUp"",""ArrowLeft""]","value training","ocean","26","{""ArrowUp,ArrowLeft"":26,""ArrowUp,ArrowRight"":10,""ArrowDown,ArrowLeft"":5,""ArrowDown,ArrowRight"":17}","true","ArrowUp,ArrowLeft","false","","","original","1","86","","",""
"html-keyboard-response","205","997945","0.0-4.0-2.0-1.43","spark_pilot_2","8163","1","20","Male","","","","","","","null","<div style=""font-size:60px;"">+</div>","null","fixation","","","","","","","","","","","87","","",""
"revaluation","206","1003978","0.0-4.0-2.0-0.44","spark_pilot_2","8163","1","20","Male","","false","","","","","[506.5,241.10000002384186]","./assets/img/ocean/memory/14.jpg","[""ArrowUp"",""ArrowLeft""]","value training","ocean","26","{""ArrowUp,ArrowLeft"":26,""ArrowUp,ArrowRight"":10,""ArrowDown,ArrowLeft"":5,""ArrowDown,ArrowRight"":17}","true","ArrowUp,ArrowLeft","false","","","original","1","88","","",""
"html-keyboard-response","207","1004493","0.0-4.0-2.0-1.44","spark_pilot_2","8163","1","20","Male","","","","","","","null","<div style=""font-size:60px;"">+</div>","null","fixation","","","","","","","","","","","89","","",""
"revaluation","208","1010514","0.0-4.0-2.0-0.45","spark_pilot_2","8163","1","20","Male","","false","","","","","[501,316.6999999284744]","./assets/img/ocean/memory/21.jpg","[""ArrowUp"",""ArrowLeft""]","value training","ocean","26","{""ArrowUp,ArrowLeft"":26,""ArrowUp,ArrowRight"":10,""ArrowDown,ArrowLeft"":5,""ArrowDown,ArrowRight"":17}","true","ArrowUp,ArrowLeft","false","","","original","1","90","","",""
"html-keyboard-response","209","1011023","0.0-4.0-2.0-1.45","spark_pilot_2","8163","1","20","Male","","","","","","","null","<div style=""font-size:60px;"">+</div>","null","fixation","","","","","","","","","","","91","","",""
"revaluation","210","1017048","0.0-4.0-2.0-0.46","spark_pilot_2","8163","1","20","Male","","false","","","","","[411.6999999284744,255.39999997615814]","./assets/img/ocean/memory/2.jpg","[""ArrowUp"",""ArrowLeft""]","value training","ocean","26","{""ArrowUp,ArrowLeft"":26,""ArrowUp,ArrowRight"":10,""ArrowDown,ArrowLeft"":5,""ArrowDown,ArrowRight"":17}","true","ArrowUp,ArrowLeft","false","","","original","1","92","","",""
"html-keyboard-response","211","1017563","0.0-4.0-2.0-1.46","spark_pilot_2","8163","1","20","Male","","","","","","","null","<div style=""font-size:60px;"">+</div>","null","fixation","","","","","","","","","","","93","","",""
"revaluation","212","1023586","0.0-4.0-2.0-0.47","spark_pilot_2","8163","1","20","Male","","false","","","","","[456.59999990463257,380.3000000715256]","./assets/img/ocean/memory/33.jpg","[""ArrowUp"",""ArrowLeft""]","value training","ocean","26","{""ArrowUp,ArrowLeft"":26,""ArrowUp,ArrowRight"":10,""ArrowDown,ArrowLeft"":5,""ArrowDown,ArrowRight"":17}","true","ArrowUp,ArrowLeft","false","","","original","1","94","","",""
"html-keyboard-response","213","1024098","0.0-4.0-2.0-1.47","spark_pilot_2","8163","1","20","Male","","","","","","","null","<div style=""font-size:60px;"">+</div>","null","fixation","","","","","","","","","","","95","","",""
"revaluation","214","1030122","0.0-4.0-2.0-0.48","spark_pilot_2","8163","1","20","Male","","false","","","","","[444.60000002384186,308.60000002384186]","./assets/img/ocean/memory/12.jpg","[""ArrowUp"",""ArrowLeft""]","value training","ocean","26","{""ArrowUp,ArrowLeft"":26,""ArrowUp,ArrowRight"":10,""ArrowDown,ArrowLeft"":5,""ArrowDown,ArrowRight"":17}","true","ArrowUp,ArrowLeft","false","","","original","1","96","","",""
"html-keyboard-response","215","1030631","0.0-4.0-2.0-1.48","spark_pilot_2","8163","1","20","Male","","","","","","","null","<div style=""font-size:60px;"">+</div>","null","fixation","","","","","","","","","","","97","","",""
"revaluation","216","1036661","0.0-4.0-2.0-0.49","spark_pilot_2","8163","1","20","Male","","false","","","","","[798.8999999761581,241]","./assets/img/ocean/memory/15.jpg","[""ArrowDown"",""ArrowRight""]","value training","ocean","17","{""ArrowUp,ArrowLeft"":26,""ArrowUp,ArrowRight"":10,""ArrowDown,ArrowLeft"":5,""ArrowDown,ArrowRight"":17}","false","ArrowDown,ArrowRight","false","","","original","1","98","","",""
"html-keyboard-response","217","1037166","0.0-4.0-2.0-1.49","spark_pilot_2","8163","1","20","Male","","","","","","","null","<div style=""font-size:60px;"">+</div>","null","fixation","","","","","","","","","","","99","","",""
"learning-instructions","218","1051887","0.0-4.0-3.0-0.0","spark_pilot_2","8163","1","20","Male","","","","","","","1463.1000000238419","<p> Now, you will travel with a friend who will choose whether you go up or down first. </p>
            <p> On these turns, you will just see the animal that they found. You will still get to choose which chest to search for treasure.</p>","","instructions","","","","","","","","","","","","","",""
"revaluation","219","1055897","0.0-4.0-4.0-0.0","spark_pilot_2","8163","1","20","Male","","false","","","","","[1127.1000000238419]","./assets/img/ocean/animals/seahorse.jpg","[""ArrowLeft""]","revaluation","ocean","26","{""ArrowUp,ArrowLeft"":26,""ArrowUp,ArrowRight"":10,""ArrowDown,ArrowLeft"":5,""ArrowDown,ArrowRight"":17}","true","ArrowUp,ArrowLeft","","","","original","1","0","","",""
"html-keyboard-response","220","1056404","0.0-4.0-4.0-1.0","spark_pilot_2","8163","1","20","Male","","","","","","","null","<div style=""font-size:60px;"">+</div>","null","fixation","","","","","","","","","","","1","","",""
"revaluation","221","1060414","0.0-4.0-4.0-0.1","spark_pilot_2","8163","1","20","Male","","false","","","","","[981.2999999523163]","./assets/img/ocean/animals/octopus.jpg","[""ArrowRight""]","revaluation","ocean","17","{""ArrowUp,ArrowLeft"":26,""ArrowUp,ArrowRight"":10,""ArrowDown,ArrowLeft"":5,""ArrowDown,ArrowRight"":17}","true","ArrowDown,ArrowRight","","","","original","1","2","","",""
"html-keyboard-response","222","1060919","0.0-4.0-4.0-1.1","spark_pilot_2","8163","1","20","Male","","","","","","","null","<div style=""font-size:60px;"">+</div>","null","fixation","","","","","","","","","","","3","","",""
"revaluation","223","1064927","0.0-4.0-4.0-0.2","spark_pilot_2","8163","1","20","Male","","false","","","","","[332.5]","./assets/img/ocean/animals/seahorse.jpg","[""ArrowLeft""]","revaluation","ocean","26","{""ArrowUp,ArrowLeft"":26,""ArrowUp,ArrowRight"":10,""ArrowDown,ArrowLeft"":5,""ArrowDown,ArrowRight"":17}","true","ArrowUp,ArrowLeft","","","","original","1","4","","",""
"html-keyboard-response","224","1065430","0.0-4.0-4.0-1.2","spark_pilot_2","8163","1","20","Male","","","","","","","null","<div style=""font-size:60px;"">+</div>","null","fixation","","","","","","","","","","","5","","",""
"revaluation","225","1069441","0.0-4.0-4.0-0.3","spark_pilot_2","8163","1","20","Male","","false","","","","","[356]","./assets/img/ocean/animals/seahorse.jpg","[""ArrowLeft""]","revaluation","ocean","26","{""ArrowUp,ArrowLeft"":26,""ArrowUp,ArrowRight"":10,""ArrowDown,ArrowLeft"":5,""ArrowDown,ArrowRight"":17}","true","ArrowUp,ArrowLeft","","","","original","1","6","","",""
"html-keyboard-response","226","1069944","0.0-4.0-4.0-1.3","spark_pilot_2","8163","1","20","Male","","","","","","","null","<div style=""font-size:60px;"">+</div>","null","fixation","","","","","","","","","","","7","","",""
"revaluation","227","1073953","0.0-4.0-4.0-0.4","spark_pilot_2","8163","1","20","Male","","false","","","","","[555.3999999761581]","./assets/img/ocean/animals/octopus.jpg","[""ArrowRight""]","revaluation","ocean","17","{""ArrowUp,ArrowLeft"":26,""ArrowUp,ArrowRight"":10,""ArrowDown,ArrowLeft"":5,""ArrowDown,ArrowRight"":17}","true","ArrowDown,ArrowRight","","","","original","1","8","","",""
"html-keyboard-response","228","1074456","0.0-4.0-4.0-1.4","spark_pilot_2","8163","1","20","Male","","","","","","","null","<div style=""font-size:60px;"">+</div>","null","fixation","","","","","","","","","","","9","","",""
"revaluation","229","1078465","0.0-4.0-4.0-0.5","spark_pilot_2","8163","1","20","Male","","false","","","","","[302]","./assets/img/ocean/animals/seahorse.jpg","[""ArrowLeft""]","revaluation","ocean","26","{""ArrowUp,ArrowLeft"":26,""ArrowUp,ArrowRight"":10,""ArrowDown,ArrowLeft"":5,""ArrowDown,ArrowRight"":17}","true","ArrowUp,ArrowLeft","","","","original","1","10","","",""
"html-keyboard-response","230","1078967","0.0-4.0-4.0-1.5","spark_pilot_2","8163","1","20","Male","","","","","","","null","<div style=""font-size:60px;"">+</div>","null","fixation","","","","","","","","","","","11","","",""
"revaluation","231","1082988","0.0-4.0-4.0-0.6","spark_pilot_2","8163","1","20","Male","","false","","","","","[615.7000000476837]","./assets/img/ocean/animals/octopus.jpg","[""ArrowRight""]","revaluation","ocean","17","{""ArrowUp,ArrowLeft"":26,""ArrowUp,ArrowRight"":10,""ArrowDown,ArrowLeft"":5,""ArrowDown,ArrowRight"":17}","true","ArrowDown,ArrowRight","","","","original","1","12","","",""
"html-keyboard-response","232","1083499","0.0-4.0-4.0-1.6","spark_pilot_2","8163","1","20","Male","","","","","","","null","<div style=""font-size:60px;"">+</div>","null","fixation","","","","","","","","","","","13","","",""
"revaluation","233","1087521","0.0-4.0-4.0-0.7","spark_pilot_2","8163","1","20","Male","","false","","","","","[250.10000002384186]","./assets/img/ocean/animals/seahorse.jpg","[""ArrowLeft""]","revaluation","ocean","26","{""ArrowUp,ArrowLeft"":26,""ArrowUp,ArrowRight"":10,""ArrowDown,ArrowLeft"":5,""ArrowDown,ArrowRight"":17}","true","ArrowUp,ArrowLeft","","","","original","1","14","","",""
"html-keyboard-response","234","1088036","0.0-4.0-4.0-1.7","spark_pilot_2","8163","1","20","Male","","","","","","","null","<div style=""font-size:60px;"">+</div>","null","fixation","","","","","","","","","","","15","","",""
"revaluation","235","1092053","0.0-4.0-4.0-0.8","spark_pilot_2","8163","1","20","Male","","false","","","","","[306.5]","./assets/img/ocean/animals/octopus.jpg","[""ArrowRight""]","revaluation","ocean","17","{""ArrowUp,ArrowLeft"":26,""ArrowUp,ArrowRight"":10,""ArrowDown,ArrowLeft"":5,""ArrowDown,ArrowRight"":17}","true","ArrowDown,ArrowRight","","","","original","1","16","","",""
"html-keyboard-response","236","1092558","0.0-4.0-4.0-1.8","spark_pilot_2","8163","1","20","Male","","","","","","","null","<div style=""font-size:60px;"">+</div>","null","fixation","","","","","","","","","","","17","","",""
"revaluation","237","1096578","0.0-4.0-4.0-0.9","spark_pilot_2","8163","1","20","Male","","false","","","","","[420.2000000476837]","./assets/img/ocean/animals/seahorse.jpg","[""ArrowLeft""]","revaluation","ocean","26","{""ArrowUp,ArrowLeft"":26,""ArrowUp,ArrowRight"":10,""ArrowDown,ArrowLeft"":5,""ArrowDown,ArrowRight"":17}","true","ArrowUp,ArrowLeft","","","","original","1","18","","",""
"html-keyboard-response","238","1097090","0.0-4.0-4.0-1.9","spark_pilot_2","8163","1","20","Male","","","","","","","null","<div style=""font-size:60px;"">+</div>","null","fixation","","","","","","","","","","","19","","",""
"revaluation","239","1101111","0.0-4.0-4.0-0.10","spark_pilot_2","8163","1","20","Male","","false","","","","","[409.60000002384186]","./assets/img/ocean/animals/octopus.jpg","[""ArrowRight""]","revaluation","ocean","17","{""ArrowUp,ArrowLeft"":26,""ArrowUp,ArrowRight"":10,""ArrowDown,ArrowLeft"":5,""ArrowDown,ArrowRight"":17}","true","ArrowDown,ArrowRight","","","","original","1","20","","",""
"html-keyboard-response","240","1101625","0.0-4.0-4.0-1.10","spark_pilot_2","8163","1","20","Male","","","","","","","null","<div style=""font-size:60px;"">+</div>","null","fixation","","","","","","","","","","","21","","",""
"revaluation","241","1105648","0.0-4.0-4.0-0.11","spark_pilot_2","8163","1","20","Male","","false","","","","","[275.7999999523163]","./assets/img/ocean/animals/octopus.jpg","[""ArrowLeft""]","revaluation","ocean","5","{""ArrowUp,ArrowLeft"":26,""ArrowUp,ArrowRight"":10,""ArrowDown,ArrowLeft"":5,""ArrowDown,ArrowRight"":17}","false","ArrowDown,ArrowLeft","","","","original","1","22","","",""
"html-keyboard-response","242","1106160","0.0-4.0-4.0-1.11","spark_pilot_2","8163","1","20","Male","","","","","","","null","<div style=""font-size:60px;"">+</div>","null","fixation","","","","","","","","","","","23","","",""
"revaluation","243","1110181","0.0-4.0-4.0-0.12","spark_pilot_2","8163","1","20","Male","","false","","","","","[338.89999997615814]","./assets/img/ocean/animals/seahorse.jpg","[""ArrowLeft""]","revaluation","ocean","26","{""ArrowUp,ArrowLeft"":26,""ArrowUp,ArrowRight"":10,""ArrowDown,ArrowLeft"":5,""ArrowDown,ArrowRight"":17}","true","ArrowUp,ArrowLeft","","","","original","1","24","","",""
"html-keyboard-response","244","1110689","0.0-4.0-4.0-1.12","spark_pilot_2","8163","1","20","Male","","","","","","","null","<div style=""font-size:60px;"">+</div>","null","fixation","","","","","","","","","","","25","","",""
"revaluation","245","1114721","0.0-4.0-4.0-0.13","spark_pilot_2","8163","1","20","Male","","false","","","","","[452.09999990463257]","./assets/img/ocean/animals/octopus.jpg","[""ArrowRight""]","revaluation","ocean","17","{""ArrowUp,ArrowLeft"":26,""ArrowUp,ArrowRight"":10,""ArrowDown,ArrowLeft"":5,""ArrowDown,ArrowRight"":17}","true","ArrowDown,ArrowRight","","","","original","1","26","","",""
"html-keyboard-response","246","1115229","0.0-4.0-4.0-1.13","spark_pilot_2","8163","1","20","Male","","","","","","","null","<div style=""font-size:60px;"">+</div>","null","fixation","","","","","","","","","","","27","","",""
"revaluation","247","1119256","0.0-4.0-4.0-0.14","spark_pilot_2","8163","1","20","Male","","false","","","","","[485.7999999523163]","./assets/img/ocean/animals/seahorse.jpg","[""ArrowLeft""]","revaluation","ocean","26","{""ArrowUp,ArrowLeft"":26,""ArrowUp,ArrowRight"":10,""ArrowDown,ArrowLeft"":5,""ArrowDown,ArrowRight"":17}","true","ArrowUp,ArrowLeft","","","","original","1","28","","",""
"html-keyboard-response","248","1119769","0.0-4.0-4.0-1.14","spark_pilot_2","8163","1","20","Male","","","","","","","null","<div style=""font-size:60px;"">+</div>","null","fixation","","","","","","","","","","","29","","",""
"revaluation","249","1123786","0.0-4.0-4.0-0.15","spark_pilot_2","8163","1","20","Male","","false","","","","","[286.7000000476837]","./assets/img/ocean/animals/octopus.jpg","[""ArrowRight""]","revaluation","ocean","17","{""ArrowUp,ArrowLeft"":26,""ArrowUp,ArrowRight"":10,""ArrowDown,ArrowLeft"":5,""ArrowDown,ArrowRight"":17}","true","ArrowDown,ArrowRight","","","","original","1","30","","",""
"html-keyboard-response","250","1124304","0.0-4.0-4.0-1.15","spark_pilot_2","8163","1","20","Male","","","","","","","null","<div style=""font-size:60px;"">+</div>","null","fixation","","","","","","","","","","","31","","",""
"revaluation","251","1128326","0.0-4.0-4.0-0.16","spark_pilot_2","8163","1","20","Male","","false","","","","","[566.0999999046326]","./assets/img/ocean/animals/seahorse.jpg","[""ArrowLeft""]","revaluation","ocean","26","{""ArrowUp,ArrowLeft"":26,""ArrowUp,ArrowRight"":10,""ArrowDown,ArrowLeft"":5,""ArrowDown,ArrowRight"":17}","true","ArrowUp,ArrowLeft","","","","original","1","32","","",""
"html-keyboard-response","252","1128838","0.0-4.0-4.0-1.16","spark_pilot_2","8163","1","20","Male","","","","","","","null","<div style=""font-size:60px;"">+</div>","null","fixation","","","","","","","","","","","33","","",""
"revaluation","253","1132852","0.0-4.0-4.0-0.17","spark_pilot_2","8163","1","20","Male","","false","","","","","[646.8999999761581]","./assets/img/ocean/animals/octopus.jpg","[""ArrowRight""]","revaluation","ocean","17","{""ArrowUp,ArrowLeft"":26,""ArrowUp,ArrowRight"":10,""ArrowDown,ArrowLeft"":5,""ArrowDown,ArrowRight"":17}","true","ArrowDown,ArrowRight","","","","original","1","34","","",""
"html-keyboard-response","254","1133356","0.0-4.0-4.0-1.17","spark_pilot_2","8163","1","20","Male","","","","","","","null","<div style=""font-size:60px;"">+</div>","null","fixation","","","","","","","","","","","35","","",""
"learning-instructions","255","1148644","0.0-4.0-5.0-0.0","spark_pilot_2","8163","1","20","Male","","","","","","","3260.7999999523163","<p> Time to play the dot game! </p>
            <p> For one minute, click the red dots on the following screen as they appear. </p>
            <p><b> Don't look away, as you will earn bonus for clicking dots</b>. </p>","","instructions","","","","","","","","","","","","","",""
"revaluation","256","1208650","0.0-4.0-6.0-0.0","spark_pilot_2","8163","1","20","Male","","","","","","","[77,128,119,99,55,76,75]","","","rest","","70","","","","","0","60000","","","","","",""
"learning-instructions","257","1215911","0.0-4.0-7.0-0.0","spark_pilot_2","8163","1","20","Male","","","","","","","1069.8999999761581","<p> You have almost finished this part of the game! </p>
            <p> We are going to ask you to make a few more choices. </p>","","instructions","","","","","","","","","","","","","",""
"learning-instructions","258","1230454","0.0-4.0-7.0-0.1","spark_pilot_2","8163","1","20","Male","","","","","","","571.3999999761581","<p> First, you need to decide whether to go up or down. When you see each picture, use the arrow keys to make your choice. </p>
            <p><b>You will not see which animal you found, but try to get to the one that will give you the most treasure.</b></p>","","instructions","","","","","","","","","","","","","",""
"revaluation","259","1231510","0.0-4.0-8.0-0.0","spark_pilot_2","8163","1","20","Male","","false","","","","","[1051.3999999761581]","./assets/img/ocean/test/3.jpg","[""ArrowUp""]","first stage test","ocean","0","{""ArrowUp,ArrowLeft"":26,""ArrowUp,ArrowRight"":10,""ArrowDown,ArrowLeft"":5,""ArrowDown,ArrowRight"":17}","true","ArrowUp","false","","","original","1","","","",""
"html-keyboard-response","260","1232013","0.0-4.0-8.0-1.0","spark_pilot_2","8163","1","20","Male","","","","","","","null","<div style=""font-size:60px;"">+</div>","null","fixation","","","","","","","","","","","","","",""
"revaluation","261","1233781","0.0-4.0-8.0-0.1","spark_pilot_2","8163","1","20","Male","","false","","","","","[1762.6000000238419]","./assets/img/ocean/test/0.jpg","[""ArrowUp""]","first stage test","ocean","0","{""ArrowUp,ArrowLeft"":26,""ArrowUp,ArrowRight"":10,""ArrowDown,ArrowLeft"":5,""ArrowDown,ArrowRight"":17}","true","ArrowUp","false","","","original","1","","","",""
"html-keyboard-response","262","1234283","0.0-4.0-8.0-1.1","spark_pilot_2","8163","1","20","Male","","","","","","","null","<div style=""font-size:60px;"">+</div>","null","fixation","","","","","","","","","","","","","",""
"revaluation","263","1234802","0.0-4.0-8.0-0.2","spark_pilot_2","8163","1","20","Male","","false","","","","","[513]","./assets/img/ocean/test/2.jpg","[""ArrowUp""]","first stage test","ocean","0","{""ArrowUp,ArrowLeft"":26,""ArrowUp,ArrowRight"":10,""ArrowDown,ArrowLeft"":5,""ArrowDown,ArrowRight"":17}","true","ArrowUp","false","","","original","1","","","",""
"html-keyboard-response","264","1235305","0.0-4.0-8.0-1.2","spark_pilot_2","8163","1","20","Male","","","","","","","null","<div style=""font-size:60px;"">+</div>","null","fixation","","","","","","","","","","","","","",""
"revaluation","265","1236122","0.0-4.0-8.0-0.3","spark_pilot_2","8163","1","20","Male","","false","","","","","[811.2000000476837]","./assets/img/ocean/test/1.jpg","[""ArrowUp""]","first stage test","ocean","0","{""ArrowUp,ArrowLeft"":26,""ArrowUp,ArrowRight"":10,""ArrowDown,ArrowLeft"":5,""ArrowDown,ArrowRight"":17}","true","ArrowUp","false","","","original","1","","","",""
"html-keyboard-response","266","1236625","0.0-4.0-8.0-1.3","spark_pilot_2","8163","1","20","Male","","","","","","","null","<div style=""font-size:60px;"">+</div>","null","fixation","","","","","","","","","","","","","",""
"learning-instructions","267","1249402","0.0-4.0-9.0-0.0","spark_pilot_2","8163","1","20","Male","","","","","","","1440","<p> Now you will see the animals again and can search their chests for treasure. </p>
            <p> This time, you will not see how much treasure you earned, but you will earn more bonus money for making better choices. </p>","","instructions","","","","","","","","","","","","","",""
"revaluation","268","1249973","0.0-4.0-10.0-0.0","spark_pilot_2","8163","1","20","Male","","false","","","","","[566.2000000476837]","./assets/img/ocean/animals/seahorse.jpg","[""ArrowLeft""]","second stage test","ocean","0","{""ArrowUp,ArrowLeft"":26,""ArrowUp,ArrowRight"":10,""ArrowDown,ArrowLeft"":5,""ArrowDown,ArrowRight"":17}","true","ArrowUp,ArrowLeft","","","","original","1","","","",""
"html-keyboard-response","269","1250476","0.0-4.0-10.0-1.0","spark_pilot_2","8163","1","20","Male","","","","","","","null","<div style=""font-size:60px;"">+</div>","null","fixation","","","","","","","","","","","","","",""
"revaluation","270","1250895","0.0-4.0-10.0-0.1","spark_pilot_2","8163","1","20","Male","","false","","","","","[413.89999997615814]","./assets/img/ocean/animals/seahorse.jpg","[""ArrowLeft""]","second stage test","ocean","0","{""ArrowUp,ArrowLeft"":26,""ArrowUp,ArrowRight"":10,""ArrowDown,ArrowLeft"":5,""ArrowDown,ArrowRight"":17}","true","ArrowUp,ArrowLeft","","","","original","1","","","",""
"html-keyboard-response","271","1251397","0.0-4.0-10.0-1.1","spark_pilot_2","8163","1","20","Male","","","","","","","null","<div style=""font-size:60px;"">+</div>","null","fixation","","","","","","","","","","","","","",""
"revaluation","272","1251798","0.0-4.0-10.0-0.2","spark_pilot_2","8163","1","20","Male","","false","","","","","[395.2999999523163]","./assets/img/ocean/animals/seahorse.jpg","[""ArrowLeft""]","second stage test","ocean","0","{""ArrowUp,ArrowLeft"":26,""ArrowUp,ArrowRight"":10,""ArrowDown,ArrowLeft"":5,""ArrowDown,ArrowRight"":17}","true","ArrowUp,ArrowLeft","","","","original","1","","","",""
"html-keyboard-response","273","1252301","0.0-4.0-10.0-1.2","spark_pilot_2","8163","1","20","Male","","","","","","","null","<div style=""font-size:60px;"">+</div>","null","fixation","","","","","","","","","","","","","",""
"revaluation","274","1252703","0.0-4.0-10.0-0.3","spark_pilot_2","8163","1","20","Male","","false","","","","","[396]","./assets/img/ocean/animals/seahorse.jpg","[""ArrowLeft""]","second stage test","ocean","0","{""ArrowUp,ArrowLeft"":26,""ArrowUp,ArrowRight"":10,""ArrowDown,ArrowLeft"":5,""ArrowDown,ArrowRight"":17}","true","ArrowUp,ArrowLeft","","","","original","1","","","",""
"html-keyboard-response","275","1253205","0.0-4.0-10.0-1.3","spark_pilot_2","8163","1","20","Male","","","","","","","null","<div style=""font-size:60px;"">+</div>","null","fixation","","","","","","","","","","","","","",""
"revaluation","276","1253805","0.0-4.0-10.0-0.4","spark_pilot_2","8163","1","20","Male","","false","","","","","[593.6999999284744]","./assets/img/ocean/animals/octopus.jpg","[""ArrowRight""]","second stage test","ocean","0","{""ArrowUp,ArrowLeft"":26,""ArrowUp,ArrowRight"":10,""ArrowDown,ArrowLeft"":5,""ArrowDown,ArrowRight"":17}","true","ArrowDown,ArrowRight","","","","original","1","","","",""
"html-keyboard-response","277","1254308","0.0-4.0-10.0-1.4","spark_pilot_2","8163","1","20","Male","","","","","","","null","<div style=""font-size:60px;"">+</div>","null","fixation","","","","","","","","","","","","","",""
"revaluation","278","1254728","0.0-4.0-10.0-0.5","spark_pilot_2","8163","1","20","Male","","false","","","","","[414.90000009536743]","./assets/img/ocean/animals/octopus.jpg","[""ArrowRight""]","second stage test","ocean","0","{""ArrowUp,ArrowLeft"":26,""ArrowUp,ArrowRight"":10,""ArrowDown,ArrowLeft"":5,""ArrowDown,ArrowRight"":17}","true","ArrowDown,ArrowRight","","","","original","1","","","",""
"html-keyboard-response","279","1255231","0.0-4.0-10.0-1.5","spark_pilot_2","8163","1","20","Male","","","","","","","null","<div style=""font-size:60px;"">+</div>","null","fixation","","","","","","","","","","","","","",""
"revaluation","280","1255571","0.0-4.0-10.0-0.6","spark_pilot_2","8163","1","20","Male","","false","","","","","[333.7999999523163]","./assets/img/ocean/animals/octopus.jpg","[""ArrowRight""]","second stage test","ocean","0","{""ArrowUp,ArrowLeft"":26,""ArrowUp,ArrowRight"":10,""ArrowDown,ArrowLeft"":5,""ArrowDown,ArrowRight"":17}","true","ArrowDown,ArrowRight","","","","original","1","","","",""
"html-keyboard-response","281","1256073","0.0-4.0-10.0-1.6","spark_pilot_2","8163","1","20","Male","","","","","","","null","<div style=""font-size:60px;"">+</div>","null","fixation","","","","","","","","","","","","","",""
"revaluation","282","1256412","0.0-4.0-10.0-0.7","spark_pilot_2","8163","1","20","Male","","false","","","","","[333.10000002384186]","./assets/img/ocean/animals/octopus.jpg","[""ArrowRight""]","second stage test","ocean","0","{""ArrowUp,ArrowLeft"":26,""ArrowUp,ArrowRight"":10,""ArrowDown,ArrowLeft"":5,""ArrowDown,ArrowRight"":17}","true","ArrowDown,ArrowRight","","","","original","1","","","",""
"html-keyboard-response","283","1256915","0.0-4.0-10.0-1.7","spark_pilot_2","8163","1","20","Male","","","","","","","null","<div style=""font-size:60px;"">+</div>","null","fixation","","","","","","","","","","","","","",""
"learning-instructions","284","1260942","0.0-4.0-0.1-0.2","spark_pilot_2","8163","1","20","Male","","","","","","","1219.6000000238419","<p> This time you are searching for treasure in the <b>canyon</b>.</p>","","instructions","","","","","","","","","","","","","",""
"learning-instructions","285","1284276","0.0-4.0-0.1-0.3","spark_pilot_2","8163","1","20","Male","","","","","","","6084","<p><b>New</b> animals with <b>new</b> treasure chests live here. You need to explore to discover where the animal with the best treasure chest is.</p>
                    <p> Like before, once you figure out which animal has the chest with the most treasure, you should try to get to that animal and select that chest! </p>","","instructions","","","","","","","","","","","","","",""
"learning-instructions","286","1299672","0.0-4.0-1.1-0.1","spark_pilot_2","8163","1","20","Male","","","","","","","670.2000000476837","<p> Remember, when you see a picture of the place, use the up and down keys to <b>find an animal</b>.</p>
            <p> When you encounter an animal, you should use the left and right keys to <b>select a treasure chest</b>.</p>
            <p> Don't forget to look out for the robber! </p>","","instructions","","","","","","","","","","","","","",""
"revaluation","287","1305683","0.0-4.0-2.1-0.50","spark_pilot_2","8163","1","20","Male","","false","","","","","[1316,1427.7000000476837]","./assets/img/canyon/memory/21.jpg","[""ArrowUp"",""ArrowRight""]","value training","canyon","10","{""ArrowUp,ArrowLeft"":23,""ArrowUp,ArrowRight"":10,""ArrowDown,ArrowLeft"":8,""ArrowDown,ArrowRight"":30}","false","ArrowUp,ArrowRight","false","","","revaluation","2","0","","",""
"html-keyboard-response","288","1306186","0.0-4.0-2.1-1.50","spark_pilot_2","8163","1","20","Male","","","","","","","null","<div style=""font-size:60px;"">+</div>","null","fixation","","","","","","","","","","","1","","",""
"revaluation","289","1312195","0.0-4.0-2.1-0.51","spark_pilot_2","8163","1","20","Male","","false","","","","","[646.6999999284744,407.89999997615814]","./assets/img/canyon/memory/14.jpg","[""ArrowUp"",""ArrowLeft""]","value training","canyon","23","{""ArrowUp,ArrowLeft"":23,""ArrowUp,ArrowRight"":10,""ArrowDown,ArrowLeft"":8,""ArrowDown,ArrowRight"":30}","false","ArrowUp,ArrowLeft","false","","","revaluation","2","2","","",""
"html-keyboard-response","290","1312698","0.0-4.0-2.1-1.51","spark_pilot_2","8163","1","20","Male","","","","","","","null","<div style=""font-size:60px;"">+</div>","null","fixation","","","","","","","","","","","3","","",""
"revaluation","291","1318709","0.0-4.0-2.1-0.52","spark_pilot_2","8163","1","20","Male","","false","","","","","[503.89999997615814,364]","./assets/img/canyon/memory/12.jpg","[""ArrowDown"",""ArrowRight""]","value training","canyon","30","{""ArrowUp,ArrowLeft"":23,""ArrowUp,ArrowRight"":10,""ArrowDown,ArrowLeft"":8,""ArrowDown,ArrowRight"":30}","true","ArrowDown,ArrowRight","false","","","revaluation","2","4","","",""
"html-keyboard-response","292","1319212","0.0-4.0-2.1-1.52","spark_pilot_2","8163","1","20","Male","","","","","","","null","<div style=""font-size:60px;"">+</div>","null","fixation","","","","","","","","","","","5","","",""
"revaluation","293","1325223","0.0-4.0-2.1-0.53","spark_pilot_2","8163","1","20","Male","","false","","","","","[754.3000000715256,350.60000002384186]","./assets/img/canyon/memory/1.jpg","[""ArrowDown"",""ArrowLeft""]","value training","canyon","8","{""ArrowUp,ArrowLeft"":23,""ArrowUp,ArrowRight"":10,""ArrowDown,ArrowLeft"":8,""ArrowDown,ArrowRight"":30}","false","ArrowDown,ArrowLeft","false","","","revaluation","2","6","","",""
"html-keyboard-response","294","1325726","0.0-4.0-2.1-1.53","spark_pilot_2","8163","1","20","Male","","","","","","","null","<div style=""font-size:60px;"">+</div>","null","fixation","","","","","","","","","","","7","","",""
"revaluation","295","1331750","0.0-4.0-2.1-0.54","spark_pilot_2","8163","1","20","Male","","false","","","","","[691.1000000238419,243.59999990463257]","./assets/img/canyon/memory/12.jpg","[""ArrowDown"",""ArrowRight""]","value training","canyon","30","{""ArrowUp,ArrowLeft"":23,""ArrowUp,ArrowRight"":10,""ArrowDown,ArrowLeft"":8,""ArrowDown,ArrowRight"":30}","true","ArrowDown,ArrowRight","false","","","revaluation","2","8","","",""
"html-keyboard-response","296","1332260","0.0-4.0-2.1-1.54","spark_pilot_2","8163","1","20","Male","","","","","","","null","<div style=""font-size:60px;"">+</div>","null","fixation","","","","","","","","","","","9","","",""
"revaluation","297","1338297","0.0-4.0-2.1-0.55","spark_pilot_2","8163","1","20","Male","","false","","","","","[489.2000000476837,338.09999990463257]","./assets/img/canyon/memory/31.jpg","[""ArrowDown"",""ArrowRight""]","value training","canyon","30","{""ArrowUp,ArrowLeft"":23,""ArrowUp,ArrowRight"":10,""ArrowDown,ArrowLeft"":8,""ArrowDown,ArrowRight"":30}","true","ArrowDown,ArrowRight","false","","","revaluation","2","10","","",""
"html-keyboard-response","298","1338808","0.0-4.0-2.1-1.55","spark_pilot_2","8163","1","20","Male","","","","","","","null","<div style=""font-size:60px;"">+</div>","null","fixation","","","","","","","","","","","11","","",""
"revaluation","299","1344834","0.0-4.0-2.1-0.56","spark_pilot_2","8163","1","20","Male","","false","","","","","[343.8000000715256,516.6999999284744]","./assets/img/canyon/memory/7.jpg","[""ArrowDown"",""ArrowRight""]","value training","canyon","30","{""ArrowUp,ArrowLeft"":23,""ArrowUp,ArrowRight"":10,""ArrowDown,ArrowLeft"":8,""ArrowDown,ArrowRight"":30}","true","ArrowDown,ArrowRight","false","","","revaluation","2","12","","",""
"html-keyboard-response","300","1345343","0.0-4.0-2.1-1.56","spark_pilot_2","8163","1","20","Male","","","","","","","null","<div style=""font-size:60px;"">+</div>","null","fixation","","","","","","","","","","","13","","",""
"revaluation","301","1351370","0.0-4.0-2.1-0.57","spark_pilot_2","8163","1","20","Male","","false","","","","","[553,311.1999999284744]","./assets/img/canyon/memory/9.jpg","[""ArrowDown"",""ArrowRight""]","value training","canyon","30","{""ArrowUp,ArrowLeft"":23,""ArrowUp,ArrowRight"":10,""ArrowDown,ArrowLeft"":8,""ArrowDown,ArrowRight"":30}","true","ArrowDown,ArrowRight","false","","","revaluation","2","14","","",""
"html-keyboard-response","302","1351875","0.0-4.0-2.1-1.57","spark_pilot_2","8163","1","20","Male","","","","","","","null","<div style=""font-size:60px;"">+</div>","null","fixation","","","","","","","","","","","15","","",""
"revaluation","303","1357908","0.0-4.0-2.1-0.58","spark_pilot_2","8163","1","20","Male","","false","","","","","[432.60000002384186,225.30000007152557]","./assets/img/canyon/memory/9.jpg","[""ArrowUp"",""ArrowRight""]","value training","canyon","10","{""ArrowUp,ArrowLeft"":23,""ArrowUp,ArrowRight"":10,""ArrowDown,ArrowLeft"":8,""ArrowDown,ArrowRight"":30}","false","ArrowUp,ArrowRight","false","","","revaluation","2","16","","",""
"html-keyboard-response","304","1358411","0.0-4.0-2.1-1.58","spark_pilot_2","8163","1","20","Male","","","","","","","null","<div style=""font-size:60px;"">+</div>","null","fixation","","","","","","","","","","","17","","",""
"revaluation","305","1364430","0.0-4.0-2.1-0.59","spark_pilot_2","8163","1","20","Male","","false","","","","","[504.10000002384186,344]","./assets/img/canyon/memory/11.jpg","[""ArrowDown"",""ArrowRight""]","value training","canyon","30","{""ArrowUp,ArrowLeft"":23,""ArrowUp,ArrowRight"":10,""ArrowDown,ArrowLeft"":8,""ArrowDown,ArrowRight"":30}","true","ArrowDown,ArrowRight","false","","","revaluation","2","18","","",""
"html-keyboard-response","306","1364941","0.0-4.0-2.1-1.59","spark_pilot_2","8163","1","20","Male","","","","","","","null","<div style=""font-size:60px;"">+</div>","null","fixation","","","","","","","","","","","19","","",""
"revaluation","307","1370963","0.0-4.0-2.1-0.60","spark_pilot_2","8163","1","20","Male","","false","","","","","[486.2000000476837,477.7000000476837]","./assets/img/canyon/memory/18.jpg","[""ArrowDown"",""ArrowRight""]","value training","canyon","30","{""ArrowUp,ArrowLeft"":23,""ArrowUp,ArrowRight"":10,""ArrowDown,ArrowLeft"":8,""ArrowDown,ArrowRight"":30}","true","ArrowDown,ArrowRight","false","","","revaluation","2","20","","",""
