"trial_type","trial_index","time_elapsed","internal_node_id","task_version","subject_id","assigned_condition","age","gender","success","timeout","failed_images","failed_audio","failed_video","browser_interaction","value","rt","stimulus","response","task_part","environment","score","rewardMap","correct","fullState","isCatch","numberMissed","duration","condition","order","trial_num","key_press","ground_truth","bonus"
"pavlovia","0","1244","0.0-0.0","spark_pilot_2","7487","5","21","Female","","","","","","","","","","","","","","","","","","","","","","","","",""
"preload","1","8772","0.0-1.0","spark_pilot_2","7487","5","21","Female","true","false","[]","[]","[]","[{""event"":""fullscreenenter"",""trial"":2,""time"":12426}]","","","","","","","","","","","","","","","","","","",""
"fullscreen","2","13396","0.0-2.0","spark_pilot_2","7487","5","21","Female","true","","","","","","","","","","","","","","","","","","","","","","","",""
"call-function","3","15435","0.0-3.0","spark_pilot_2","7487","5","21","Female","","","","","","","","","","","","","","","","","","","","","","","","",""
"audio-button-response","4","16776","0.0-4.0-0.0-0.0","spark_pilot_2","7487","5","21","Female","","","","","","","","1259","./assets/audio/audiotest/turtle.mp3","2","audio_test","","","","","","","","","","","","","",""
"learning-instructions","5","29273","0.0-4.0-1.0-0.0","spark_pilot_2","7487","5","21","Female","","","","","","","","5531.000000000004","<p> Welcome! Please remember to stay in fullscreen mode and don't click away from the experiment. </p>","","instructions","","","","","","","","","","","","","",""
"learning-instructions","6","39131","0.0-4.0-1.0-0.1","spark_pilot_2","7487","5","21","Female","","","","","","","","1463","<p> Today you will be playing a game to earn treasure. </p>
            <p> At the end of the experiment, you will earn a bonus based on how much treasure you find. </p>
            <img src='./assets/img/instructions/treasure.jpg' class='instructions-image'>","","instructions","","","","","","","","","","","","","",""
"learning-instructions","7","48300","0.0-4.0-1.0-0.2","spark_pilot_2","7487","5","21","Female","","","","","","","","924.0000000000073","<p> Animals have hidden treasure in treasure chests. </p>
            <p> You need to first find an animal and then choose which of their treasure chests to search. </p>
            <img src='./assets/img/space/animals/cat.jpg' class='instructions-image'>","","instructions","","","","","","","","","","","","","",""
"learning-instructions","8","62191","0.0-4.0-1.0-0.3","spark_pilot_2","7487","5","21","Female","","","","","","","","755.9999999999927","<p> In each round, you will search for treasure in a different place. In the real game, there will be two rounds. </p>
            <p> You will begin with a separate, practice round where you will search for treasure in outer space. </p>
            <img src='./assets/img/space/0.jpg' class='instructions-image'>","","instructions","","","","","","","","","","","","","",""
"learning-instructions","9","74662","0.0-4.0-1.0-0.4","spark_pilot_2","7487","5","21","Female","","","","","","","","1071","<p> On every turn, you will see a picture of the place that you are in, but the specific image may be different each time. </p>
            <p> For example, both of these images mean you are in outer space. </p>
            <img src='./assets/img/instructions/outerspace.jpg' class='instructions-image'>","","instructions","","","","","","","","","","","","","",""
"learning-instructions","10","83951","0.0-4.0-1.0-0.5","spark_pilot_2","7487","5","21","Female","","","","","","","","1474","<p> You need to decide which direction to travel in. </p>
            <p> You can choose between going <b>up or down</b> by using the arrow keys. </p>
            <img src='./assets/img/instructions/updown.jpg' class='instructions-image'>","","instructions","","","","","","","","","","","","","",""
"learning-instructions","11","93473","0.0-4.0-1.0-0.6","spark_pilot_2","7487","5","21","Female","","","","","","","","727","<p> You will have <b>2 seconds</b> to make your choice. </p>
            <p> If you do not make a choice within 2 seconds, you will not find an animal or earn treasure. </p>
            <img src='./assets/img/instructions/2seconds.jpg' class='instructions-image'>","","instructions","","","","","","","","","","","","","",""
"learning-instructions","12","101209","0.0-4.0-1.0-0.7","spark_pilot_2","7487","5","21","Female","","","","","","","","711","<p> Let’s try practicing that now! </p>
            <p> When you see a picture of the place you are in, press the <b>up</b> key to travel up. </p>
            <img src='./assets/img/instructions/pressUp.jpg' class='instructions-image'>","","instructions","","","","","","","","","","","","","",""
"revaluation","13","105239","0.0-4.0-2.0-0.0","spark_pilot_2","7487","5","21","Female","","false","","","","","","[811.0000000000146]","./assets/img/space/0.jpg","[""ArrowUp""]","first stage practice","space","0","null","null","ArrowUp","false","","","","","","","",""
"html-keyboard-response","14","105740","0.0-4.0-2.0-1.0","spark_pilot_2","7487","5","21","Female","","","","","","","","null","<div style=""font-size:60px;"">+</div>","null","fixation","","","","","","","","","","","","","",""
"revaluation","15","109787","0.0-4.0-2.0-0.1","spark_pilot_2","7487","5","21","Female","","false","","","","","","[1073.9999999999854]","./assets/img/space/1.jpg","[""ArrowUp""]","first stage practice","space","0","null","null","ArrowUp","false","","","","","","","",""
"html-keyboard-response","16","110289","0.0-4.0-2.0-1.1","spark_pilot_2","7487","5","21","Female","","","","","","","","null","<div style=""font-size:60px;"">+</div>","null","fixation","","","","","","","","","","","","","",""
"revaluation","17","114323","0.0-4.0-2.0-0.2","spark_pilot_2","7487","5","21","Female","","false","","","","","","[774]","./assets/img/space/2.jpg","[""ArrowUp""]","first stage practice","space","0","null","null","ArrowUp","false","","","","","","","",""
"html-keyboard-response","18","114824","0.0-4.0-2.0-1.2","spark_pilot_2","7487","5","21","Female","","","","","","","","null","<div style=""font-size:60px;"">+</div>","null","fixation","","","","","","","","","","","","","",""
"learning-instructions","19","120666","0.0-4.0-3.0-0.0","spark_pilot_2","7487","5","21","Female","","","","","","","","1147","<p> Great job! Now try pressing the <b>down</b> key to travel down. </p>
            <img src='./assets/img/instructions/pressDown.jpg' class='instructions-image'>","","instructions","","","","","","","","","","","","","",""
"revaluation","20","124690","0.0-4.0-4.0-0.0","spark_pilot_2","7487","5","21","Female","","false","","","","","","[728]","./assets/img/space/3.jpg","[""ArrowDown""]","first stage practice","space","0","null","null","ArrowDown","false","","","","","","","",""
"html-keyboard-response","21","125191","0.0-4.0-4.0-1.0","spark_pilot_2","7487","5","21","Female","","","","","","","","null","<div style=""font-size:60px;"">+</div>","null","fixation","","","","","","","","","","","","","",""
"revaluation","22","129219","0.0-4.0-4.0-0.1","spark_pilot_2","7487","5","21","Female","","false","","","","","","[829]","./assets/img/space/4.jpg","[""ArrowDown""]","first stage practice","space","0","null","null","ArrowDown","false","","","","","","","",""
"html-keyboard-response","23","129721","0.0-4.0-4.0-1.1","spark_pilot_2","7487","5","21","Female","","","","","","","","null","<div style=""font-size:60px;"">+</div>","null","fixation","","","","","","","","","","","","","",""
"revaluation","24","133755","0.0-4.0-4.0-0.2","spark_pilot_2","7487","5","21","Female","","false","","","","","","[773]","./assets/img/space/5.jpg","[""ArrowDown""]","first stage practice","space","0","null","null","ArrowDown","false","","","","","","","",""
"html-keyboard-response","25","134256","0.0-4.0-4.0-1.2","spark_pilot_2","7487","5","21","Female","","","","","","","","null","<div style=""font-size:60px;"">+</div>","null","fixation","","","","","","","","","","","","","",""
"learning-instructions","26","144998","0.0-4.0-5.0-0.0","spark_pilot_2","7487","5","21","Female","","","","","","","","913","<p> The animals don’t move, so the animal in the upper part of a place will stay in the upper part of a place, and the animal in the lower part of a place will stay in the lower part of a place. </p>","","instructions","","","","","","","","","","","","","",""
"learning-instructions","27","154614","0.0-4.0-5.0-0.1","spark_pilot_2","7487","5","21","Female","","","","","","","","507.9999999999709","<p> Each animal has two treasure chests for you to choose from. </p>
            <p> The amount of treasure in each chest can range from <b> 0 to 40 pieces.</b></p>","","instructions","","","","","","","","","","","","","",""
"learning-instructions","28","167336","0.0-4.0-5.0-0.2","spark_pilot_2","7487","5","21","Female","","","","","","","","1549","<p> You should decide which chest to search for treasure by using the <b>left</b> and <b>right</b> arrow keys. </p>
            <p><b> Pay attention to which animal is on the screen, as the animals have different treasure chests. </b></p>
            <img src='./assets/img/instructions/leftright.jpg' class='instructions-image'>","","instructions","","","","","","","","","","","","","",""
"learning-instructions","29","174715","0.0-4.0-5.0-0.3","spark_pilot_2","7487","5","21","Female","","","","","","","","1024","<p> Let’s try practicing that now. </p>
            <p> When you see an animal, choose which chest to search for treasure. </p>
            <img src='./assets/img/instructions/chooseChest.jpg' class='instructions-image'>","","instructions","","","","","","","","","","","","","",""
"revaluation","30","178739","0.0-4.0-6.0-0.0","spark_pilot_2","7487","5","21","Female","","false","","","","","","[492]","./assets/img/space/animals/rabbit.jpg","[""ArrowLeft""]","second stage practice","space","15","{""ArrowUp,ArrowLeft"":3,""ArrowUp,ArrowRight"":36,""ArrowDown,ArrowLeft"":15,""ArrowDown,ArrowRight"":23}","false","ArrowDown,ArrowLeft","","","","","","","","",""
"html-keyboard-response","31","179240","0.0-4.0-6.0-1.0","spark_pilot_2","7487","5","21","Female","","","","","","","","null","<div style=""font-size:60px;"">+</div>","null","fixation","","","","","","","","","","","","","",""
"revaluation","32","183267","0.0-4.0-6.0-0.1","spark_pilot_2","7487","5","21","Female","","false","","","","","","[774]","./assets/img/space/animals/cat.jpg","[""ArrowRight""]","second stage practice","space","36","{""ArrowUp,ArrowLeft"":3,""ArrowUp,ArrowRight"":36,""ArrowDown,ArrowLeft"":15,""ArrowDown,ArrowRight"":23}","true","ArrowUp,ArrowRight","","","","","","","","",""
"html-keyboard-response","33","183769","0.0-4.0-6.0-1.1","spark_pilot_2","7487","5","21","Female","","","","","","","","null","<div style=""font-size:60px;"">+</div>","null","fixation","","","","","","","","","","","","","",""
"revaluation","34","187794","0.0-4.0-6.0-0.2","spark_pilot_2","7487","5","21","Female","","false","","","","","","[745]","./assets/img/space/animals/cat.jpg","[""ArrowRight""]","second stage practice","space","36","{""ArrowUp,ArrowLeft"":3,""ArrowUp,ArrowRight"":36,""ArrowDown,ArrowLeft"":15,""ArrowDown,ArrowRight"":23}","true","ArrowUp,ArrowRight","","","","","","","","",""
"html-keyboard-response","35","188294","0.0-4.0-6.0-1.2","spark_pilot_2","7487","5","21","Female","","","","","","","","null","<div style=""font-size:60px;"">+</div>","null","fixation","","","","","","","","","","","","","",""
"revaluation","36","192319","0.0-4.0-6.0-0.3","spark_pilot_2","7487","5","21","Female","","false","","","","","","[559]","./assets/img/space/animals/rabbit.jpg","[""ArrowLeft""]","second stage practice","space","15","{""ArrowUp,ArrowLeft"":3,""ArrowUp,ArrowRight"":36,""ArrowDown,ArrowLeft"":15,""ArrowDown,ArrowRight"":23}","false","ArrowDown,ArrowLeft","","","","","","","","",""
"html-keyboard-response","37","192821","0.0-4.0-6.0-1.3","spark_pilot_2","7487","5","21","Female","","","","","","","","null","<div style=""font-size:60px;"">+</div>","null","fixation","","","","","","","","","","","","","",""
"learning-instructions","38","211223","0.0-4.0-7.0-0.0","spark_pilot_2","7487","5","21","Female","","","","","","","","1610","<p> Great job. Now let’s try putting it together. </p>
            <p> On each turn, you will first see a picture to remind you of the place you are in, and you need to choose whether to go up or down. </p>
            <p> Then you will see an animal and choose which of its chests to search for treasure. </p>","","instructions","","","","","","","","","","","","","",""
"learning-instructions","39","221308","0.0-4.0-7.0-0.1","spark_pilot_2","7487","5","21","Female","","","","","","","","1847","<p> When you choose whether to go up or down, try to go to the animal with the chest with the most treasure. </p>
            <p> Try practicing that now! </p>","","instructions","","","","","","","","","","","","","",""
"revaluation","40","227335","0.0-4.0-8.0-0.0","spark_pilot_2","7487","5","21","Female","","false","","","","","","[935,635]","./assets/img/space/6.jpg","[""ArrowUp"",""ArrowRight""]","full practice","space","36","{""ArrowUp,ArrowLeft"":3,""ArrowUp,ArrowRight"":36,""ArrowDown,ArrowLeft"":15,""ArrowDown,ArrowRight"":23}","true","ArrowUp,ArrowRight","false","","","","","","","",""
"html-keyboard-response","41","227837","0.0-4.0-8.0-1.0","spark_pilot_2","7487","5","21","Female","","","","","","","","null","<div style=""font-size:60px;"">+</div>","null","fixation","","","","","","","","","","","","","",""
"revaluation","42","233869","0.0-4.0-8.0-0.1","spark_pilot_2","7487","5","21","Female","","false","","","","","","[971.0000000000291,510]","./assets/img/space/7.jpg","[""ArrowUp"",""ArrowRight""]","full practice","space","36","{""ArrowUp,ArrowLeft"":3,""ArrowUp,ArrowRight"":36,""ArrowDown,ArrowLeft"":15,""ArrowDown,ArrowRight"":23}","true","ArrowUp,ArrowRight","false","","","","","","","",""
"html-keyboard-response","43","234370","0.0-4.0-8.0-1.1","spark_pilot_2","7487","5","21","Female","","","","","","","","null","<div style=""font-size:60px;"">+</div>","null","fixation","","","","","","","","","","","","","",""
"revaluation","44","240402","0.0-4.0-8.0-0.2","spark_pilot_2","7487","5","21","Female","","false","","","","","","[889,529]","./assets/img/space/8.jpg","[""ArrowUp"",""ArrowRight""]","full practice","space","36","{""ArrowUp,ArrowLeft"":3,""ArrowUp,ArrowRight"":36,""ArrowDown,ArrowLeft"":15,""ArrowDown,ArrowRight"":23}","true","ArrowUp,ArrowRight","false","","","","","","","",""
"html-keyboard-response","45","240904","0.0-4.0-8.0-1.2","spark_pilot_2","7487","5","21","Female","","","","","","","","null","<div style=""font-size:60px;"">+</div>","null","fixation","","","","","","","","","","","","","",""
"revaluation","46","246934","0.0-4.0-8.0-0.3","spark_pilot_2","7487","5","21","Female","","false","","","","","","[795,483.9999999999709]","./assets/img/space/9.jpg","[""ArrowUp"",""ArrowRight""]","full practice","space","36","{""ArrowUp,ArrowLeft"":3,""ArrowUp,ArrowRight"":36,""ArrowDown,ArrowLeft"":15,""ArrowDown,ArrowRight"":23}","true","ArrowUp,ArrowRight","false","","","","","","","",""
"html-keyboard-response","47","247438","0.0-4.0-8.0-1.3","spark_pilot_2","7487","5","21","Female","","","","","","","","null","<div style=""font-size:60px;"">+</div>","null","fixation","","","","","","","","","","","","","",""
"revaluation","48","253476","0.0-4.0-8.0-0.4","spark_pilot_2","7487","5","21","Female","","false","","","","","","[786,425]","./assets/img/space/10.jpg","[""ArrowUp"",""ArrowRight""]","full practice","space","36","{""ArrowUp,ArrowLeft"":3,""ArrowUp,ArrowRight"":36,""ArrowDown,ArrowLeft"":15,""ArrowDown,ArrowRight"":23}","true","ArrowUp,ArrowRight","false","","","","","","","",""
"html-keyboard-response","49","253977","0.0-4.0-8.0-1.4","spark_pilot_2","7487","5","21","Female","","","","","","","","null","<div style=""font-size:60px;"">+</div>","null","fixation","","","","","","","","","","","","","",""
"learning-instructions","50","265001","0.0-4.0-9.0-0.0","spark_pilot_2","7487","5","21","Female","","","","","","","","723","<p> One last thing: sometimes, you will see a robber. The robber can be anywhere in the picture. </p>
            <p> If you do not stop them, you will lose treasure. </p>
            <img src='./assets/img/instructions/robber.jpg' class='instructions-image'>","","instructions","","","","","","","","","","","","","",""
"learning-instructions","51","272671","0.0-4.0-9.0-0.1","spark_pilot_2","7487","5","21","Female","","","","","","","","518","<p> If you see the robber, you should <b>press the space bar</b> rather than using the arrow keys. </p>
            <p> Try practicing that now! </p>","","instructions","","","","","","","","","","","","","",""
"revaluation","52","276696","0.0-4.0-10.0-0.0","spark_pilot_2","7487","5","21","Female","","false","","","","","","[1014]","./assets/img/space/catch/0.jpg","[""ArrowUp""]","catch practice","space","-10","{""ArrowUp,ArrowLeft"":3,""ArrowUp,ArrowRight"":36,""ArrowDown,ArrowLeft"":15,""ArrowDown,ArrowRight"":23}","false","ArrowUp","true","","","","","","","",""
"html-keyboard-response","53","277198","0.0-4.0-10.0-1.0","spark_pilot_2","7487","5","21","Female","","","","","","","","null","<div style=""font-size:60px;"">+</div>","null","fixation","","","","","","","","","","","","","",""
"revaluation","54","281227","0.0-4.0-10.0-0.1","spark_pilot_2","7487","5","21","Female","","false","","","","","","[555]","./assets/img/space/catch/1.jpg","[""spaceBar""]","catch practice","space","0","{""ArrowUp,ArrowLeft"":3,""ArrowUp,ArrowRight"":36,""ArrowDown,ArrowLeft"":15,""ArrowDown,ArrowRight"":23}","true","spaceBar","true","","","","","","","",""
"html-keyboard-response","55","281729","0.0-4.0-10.0-1.1","spark_pilot_2","7487","5","21","Female","","","","","","","","null","<div style=""font-size:60px;"">+</div>","null","fixation","","","","","","","","","","","","","",""
"revaluation","56","285756","0.0-4.0-10.0-0.2","spark_pilot_2","7487","5","21","Female","","false","","","","","","[560]","./assets/img/space/catch/2.jpg","[""spaceBar""]","catch practice","space","0","{""ArrowUp,ArrowLeft"":3,""ArrowUp,ArrowRight"":36,""ArrowDown,ArrowLeft"":15,""ArrowDown,ArrowRight"":23}","true","spaceBar","true","","","","","","","",""
"html-keyboard-response","57","286258","0.0-4.0-10.0-1.2","spark_pilot_2","7487","5","21","Female","","","","","","","","null","<div style=""font-size:60px;"">+</div>","null","fixation","","","","","","","","","","","","","",""
"learning-instructions","58","301308","0.0-4.0-11.0-0.0","spark_pilot_2","7487","5","21","Female","","","","","","","","1472","<p> After you explore a place to find treasure, it will be time to play a different game. </p>
            <p> During this game, red dots will appear on the screen and fall down slowly. </p>
            <p><b> You must click on them before they reach the bottom. </b></p>
            <img src='./assets/img/instructions/dotGame.jpg' class='instructions-image'>","","instructions","","","","","","","","","","","","","",""
"learning-instructions","59","307723","0.0-4.0-11.0-0.1","spark_pilot_2","7487","5","21","Female","","","","","","","","754","<p> For every dot you click, you will earn additional treasure. </p>
            <p> Let’s try practicing that now. </p>","","instructions","","","","","","","","","","","","","",""
"revaluation","60","322726","0.0-4.0-12.0-0.0","spark_pilot_2","7487","5","21","Female","","","","","","","","[72]","","","rest practice","","10","","","","","0","15000","","","","","",""
"learning-instructions","61","331326","0.0-4.0-13.0-0.0-0.0","spark_pilot_2","7487","5","21","Female","","","","","","","","3370","<p> Now, you will practice a shortened version of the game to get a sense of how it all fits together. </p>","","instructions","","","","","","","","","","","","","",""
"learning-instructions","62","335473","0.0-4.0-13.0-0.0-0.1","spark_pilot_2","7487","5","21","Female","","","","","","","","970","<p>This time you are searching for treasure in outer space.</p>","","instructions","","","","","","","","","","","","","",""
"learning-instructions","63","351833","0.0-4.0-13.0-1.0-0.0","spark_pilot_2","7487","5","21","Female","","","","","","","","1614","<p> Remember, when you see a picture of the place, use the up and down keys to <b>find an animal</b>.</p>
            <p> When you encounter an animal, you should use the left and right keys to <b>select a treasure chest</b>.</p>
            <p> Don't forget to look out for the robber! </p>","","instructions","","","","","","","","","","","","","",""
"revaluation","64","357858","0.0-4.0-13.0-2.0-0.0","spark_pilot_2","7487","5","21","Female","","false","","","","","","[1102,501.0000000000582]","./assets/img/space/11.jpg","[""ArrowUp"",""ArrowRight""]","practice block","space","36","{""ArrowUp,ArrowLeft"":3,""ArrowUp,ArrowRight"":36,""ArrowDown,ArrowLeft"":15,""ArrowDown,ArrowRight"":23}","true","ArrowUp,ArrowRight","false","","","","","","","",""
"html-keyboard-response","65","358359","0.0-4.0-13.0-2.0-1.0","spark_pilot_2","7487","5","21","Female","","","","","","","","null","<div style=""font-size:60px;"">+</div>","null","fixation","","","","","","","","","","","","","",""
"revaluation","66","364395","0.0-4.0-13.0-2.0-0.1","spark_pilot_2","7487","5","21","Female","","false","","","","","","[907.0000000000582,495]","./assets/img/space/12.jpg","[""ArrowUp"",""ArrowRight""]","practice block","space","36","{""ArrowUp,ArrowLeft"":3,""ArrowUp,ArrowRight"":36,""ArrowDown,ArrowLeft"":15,""ArrowDown,ArrowRight"":23}","true","ArrowUp,ArrowRight","false","","","","","","","",""
"html-keyboard-response","67","364896","0.0-4.0-13.0-2.0-1.1","spark_pilot_2","7487","5","21","Female","","","","","","","","null","<div style=""font-size:60px;"">+</div>","null","fixation","","","","","","","","","","","","","",""
"revaluation","68","370929","0.0-4.0-13.0-2.0-0.2","spark_pilot_2","7487","5","21","Female","","false","","","","","","[954,692]","./assets/img/space/13.jpg","[""ArrowUp"",""ArrowRight""]","practice block","space","36","{""ArrowUp,ArrowLeft"":3,""ArrowUp,ArrowRight"":36,""ArrowDown,ArrowLeft"":15,""ArrowDown,ArrowRight"":23}","true","ArrowUp,ArrowRight","false","","","","","","","",""
"html-keyboard-response","69","371431","0.0-4.0-13.0-2.0-1.2","spark_pilot_2","7487","5","21","Female","","","","","","","","null","<div style=""font-size:60px;"">+</div>","null","fixation","","","","","","","","","","","","","",""
"revaluation","70","377463","0.0-4.0-13.0-2.0-0.3","spark_pilot_2","7487","5","21","Female","","false","","","","","","[849.9999999999418,518]","./assets/img/space/14.jpg","[""ArrowUp"",""ArrowRight""]","practice block","space","36","{""ArrowUp,ArrowLeft"":3,""ArrowUp,ArrowRight"":36,""ArrowDown,ArrowLeft"":15,""ArrowDown,ArrowRight"":23}","true","ArrowUp,ArrowRight","false","","","","","","","",""
"html-keyboard-response","71","377964","0.0-4.0-13.0-2.0-1.3","spark_pilot_2","7487","5","21","Female","","","","","","","","null","<div style=""font-size:60px;"">+</div>","null","fixation","","","","","","","","","","","","","",""
"revaluation","72","383988","0.0-4.0-13.0-2.0-0.4","spark_pilot_2","7487","5","21","Female","","false","","","","","","[862,532]","./assets/img/space/11.jpg","[""ArrowUp"",""ArrowRight""]","practice block","space","36","{""ArrowUp,ArrowLeft"":3,""ArrowUp,ArrowRight"":36,""ArrowDown,ArrowLeft"":15,""ArrowDown,ArrowRight"":23}","true","ArrowUp,ArrowRight","false","","","","","","","",""
"html-keyboard-response","73","384489","0.0-4.0-13.0-2.0-1.4","spark_pilot_2","7487","5","21","Female","","","","","","","","null","<div style=""font-size:60px;"">+</div>","null","fixation","","","","","","","","","","","","","",""
"revaluation","74","390515","0.0-4.0-13.0-2.0-0.5","spark_pilot_2","7487","5","21","Female","","false","","","","","","[899,467]","./assets/img/space/12.jpg","[""ArrowUp"",""ArrowRight""]","practice block","space","36","{""ArrowUp,ArrowLeft"":3,""ArrowUp,ArrowRight"":36,""ArrowDown,ArrowLeft"":15,""ArrowDown,ArrowRight"":23}","true","ArrowUp,ArrowRight","false","","","","","","","",""
"html-keyboard-response","75","391017","0.0-4.0-13.0-2.0-1.5","spark_pilot_2","7487","5","21","Female","","","","","","","","null","<div style=""font-size:60px;"">+</div>","null","fixation","","","","","","","","","","","","","",""
"revaluation","76","397043","0.0-4.0-13.0-2.0-0.6","spark_pilot_2","7487","5","21","Female","","false","","","","","","[730,490]","./assets/img/space/13.jpg","[""ArrowUp"",""ArrowLeft""]","practice block","space","3","{""ArrowUp,ArrowLeft"":3,""ArrowUp,ArrowRight"":36,""ArrowDown,ArrowLeft"":15,""ArrowDown,ArrowRight"":23}","false","ArrowUp,ArrowLeft","false","","","","","","","",""
"html-keyboard-response","77","397544","0.0-4.0-13.0-2.0-1.6","spark_pilot_2","7487","5","21","Female","","","","","","","","null","<div style=""font-size:60px;"">+</div>","null","fixation","","","","","","","","","","","","","",""
"revaluation","78","403571","0.0-4.0-13.0-2.0-0.7","spark_pilot_2","7487","5","21","Female","","false","","","","","","[762,532]","./assets/img/space/14.jpg","[""ArrowDown"",""ArrowRight""]","practice block","space","23","{""ArrowUp,ArrowLeft"":3,""ArrowUp,ArrowRight"":36,""ArrowDown,ArrowLeft"":15,""ArrowDown,ArrowRight"":23}","false","ArrowDown,ArrowRight","false","","","","","","","",""
"html-keyboard-response","79","404072","0.0-4.0-13.0-2.0-1.7","spark_pilot_2","7487","5","21","Female","","","","","","","","null","<div style=""font-size:60px;"">+</div>","null","fixation","","","","","","","","","","","","","",""
"revaluation","80","408099","0.0-4.0-13.0-2.0-0.8","spark_pilot_2","7487","5","21","Female","","false","","","","","","[697]","./assets/img/space/catch/3.jpg","[""spaceBar""]","practice block","space","0","{""ArrowUp,ArrowLeft"":3,""ArrowUp,ArrowRight"":36,""ArrowDown,ArrowLeft"":15,""ArrowDown,ArrowRight"":23}","true","spaceBar","true","","","","","","","",""
"html-keyboard-response","81","408600","0.0-4.0-13.0-2.0-1.8","spark_pilot_2","7487","5","21","Female","","","","","","","","null","<div style=""font-size:60px;"">+</div>","null","fixation","","","","","","","","","","","","","",""
"learning-instructions","82","422231","0.0-4.0-13.0-3.0-0.0","spark_pilot_2","7487","5","21","Female","","","","","","","","735","<p> Now, you will travel with a friend who will choose whether you go up or down first. </p>
            <p> On these turns, you will just see the animal that they found. You will still get to choose which chest to search for treasure.</p>","","instructions","","","","","","","","","","","","","",""
"revaluation","83","426256","0.0-4.0-13.0-4.0-0.0","spark_pilot_2","7487","5","21","Female","","false","","","","","","[1434]","./assets/img/space/animals/rabbit.jpg","[""ArrowRight""]","practice block","space","23","{""ArrowUp,ArrowLeft"":3,""ArrowUp,ArrowRight"":36,""ArrowDown,ArrowLeft"":15,""ArrowDown,ArrowRight"":23}","true","ArrowDown,ArrowRight","","","","","","","","",""
"html-keyboard-response","84","426757","0.0-4.0-13.0-4.0-1.0","spark_pilot_2","7487","5","21","Female","","","","","","","","null","<div style=""font-size:60px;"">+</div>","null","fixation","","","","","","","","","","","","","",""
"revaluation","85","430783","0.0-4.0-13.0-4.0-0.1","spark_pilot_2","7487","5","21","Female","","false","","","","","","[758.9999999999418]","./assets/img/space/animals/rabbit.jpg","[""ArrowRight""]","practice block","space","23","{""ArrowUp,ArrowLeft"":3,""ArrowUp,ArrowRight"":36,""ArrowDown,ArrowLeft"":15,""ArrowDown,ArrowRight"":23}","true","ArrowDown,ArrowRight","","","","","","","","",""
"html-keyboard-response","86","431285","0.0-4.0-13.0-4.0-1.1","spark_pilot_2","7487","5","21","Female","","","","","","","","null","<div style=""font-size:60px;"">+</div>","null","fixation","","","","","","","","","","","","","",""
"revaluation","87","435312","0.0-4.0-13.0-4.0-0.2","spark_pilot_2","7487","5","21","Female","","false","","","","","","[702]","./assets/img/space/animals/cat.jpg","[""ArrowRight""]","practice block","space","36","{""ArrowUp,ArrowLeft"":3,""ArrowUp,ArrowRight"":36,""ArrowDown,ArrowLeft"":15,""ArrowDown,ArrowRight"":23}","true","ArrowUp,ArrowRight","","","","","","","","",""
"html-keyboard-response","88","435812","0.0-4.0-13.0-4.0-1.2","spark_pilot_2","7487","5","21","Female","","","","","","","","null","<div style=""font-size:60px;"">+</div>","null","fixation","","","","","","","","","","","","","",""
"revaluation","89","439838","0.0-4.0-13.0-4.0-0.3","spark_pilot_2","7487","5","21","Female","","false","","","","","","[643]","./assets/img/space/animals/cat.jpg","[""ArrowRight""]","practice block","space","36","{""ArrowUp,ArrowLeft"":3,""ArrowUp,ArrowRight"":36,""ArrowDown,ArrowLeft"":15,""ArrowDown,ArrowRight"":23}","true","ArrowUp,ArrowRight","","","","","","","","",""
"html-keyboard-response","90","440340","0.0-4.0-13.0-4.0-1.3","spark_pilot_2","7487","5","21","Female","","","","","","","","null","<div style=""font-size:60px;"">+</div>","null","fixation","","","","","","","","","","","","","",""
"learning-instructions","91","448718","0.0-4.0-13.0-5.0-0.0","spark_pilot_2","7487","5","21","Female","","","","","","","","1029","<p> Time to play the dot game! </p>
            <p> For 15 seconds, click the red dots on the following screen as they appear. </p>","","instructions","","","","","","","","","","","","","",""
"revaluation","92","463720","0.0-4.0-13.0-6.0-0.0","spark_pilot_2","7487","5","21","Female","","","","","","","","[85]","","","rest practice","","10","","","","","0","15000","","","","","",""
"learning-instructions","93","470608","0.0-4.0-13.0-7.0-0.0","spark_pilot_2","7487","5","21","Female","","","","","","","","778","<p> You have almost finished this part of the game! </p>
            <p> We are going to ask you to make a few more choices. </p>","","instructions","","","","","","","","","","","","","",""
"learning-instructions","94","485417","0.0-4.0-13.0-7.0-0.1","spark_pilot_2","7487","5","21","Female","","","","","","","","824.0000000000582","<p> First, you need to decide whether to go up or down. When you see each picture, use the arrow keys to make your choice. </p>
            <p><b>You will not see which animal you found, but try to get to the one that will give you the most treasure.</b></p>","","instructions","","","","","","","","","","","","","",""
"revaluation","95","486287","0.0-4.0-13.0-8.0","spark_pilot_2","7487","5","21","Female","","false","","","","","","[849]","./assets/img/space/15.jpg","[""ArrowUp""]","practice block","space","0","{""ArrowUp,ArrowLeft"":3,""ArrowUp,ArrowRight"":36,""ArrowDown,ArrowLeft"":15,""ArrowDown,ArrowRight"":23}","true","ArrowUp","false","","","","","","","",""
"html-keyboard-response","96","486788","0.0-4.0-13.0-9.0","spark_pilot_2","7487","5","21","Female","","","","","","","","null","<div style=""font-size:60px;"">+</div>","null","fixation","","","","","","","","","","","","","",""
"learning-instructions","97","498746","0.0-4.0-13.0-10.0-0.0","spark_pilot_2","7487","5","21","Female","","","","","","","","604","<p> Now you will see the animals again and can search their chests for treasure. </p>
            <p> This time, you will not see how much treasure you earned, but you will earn more bonus money for making better choices. </p>","","instructions","","","","","","","","","","","","","",""
"revaluation","98","499438","0.0-4.0-13.0-11.0-0.0","spark_pilot_2","7487","5","21","Female","","false","","","","","","[672]","./assets/img/space/animals/cat.jpg","[""ArrowRight""]","practice block","space","0","{""ArrowUp,ArrowLeft"":3,""ArrowUp,ArrowRight"":36,""ArrowDown,ArrowLeft"":15,""ArrowDown,ArrowRight"":23}","true","ArrowUp,ArrowRight","","","","","","","","",""
"html-keyboard-response","99","499940","0.0-4.0-13.0-11.0-1.0","spark_pilot_2","7487","5","21","Female","","","","","","","","null","<div style=""font-size:60px;"">+</div>","null","fixation","","","","","","","","","","","","","",""
"revaluation","100","500798","0.0-4.0-13.0-11.0-0.1","spark_pilot_2","7487","5","21","Female","","false","","","","","","[834]","./assets/img/space/animals/rabbit.jpg","[""ArrowRight""]","practice block","space","0","{""ArrowUp,ArrowLeft"":3,""ArrowUp,ArrowRight"":36,""ArrowDown,ArrowLeft"":15,""ArrowDown,ArrowRight"":23}","true","ArrowDown,ArrowRight","","","","","","","","",""
"html-keyboard-response","101","501300","0.0-4.0-13.0-11.0-1.1","spark_pilot_2","7487","5","21","Female","","","","","","","","null","<div style=""font-size:60px;"">+</div>","null","fixation","","","","","","","","","","","","","",""
"learning-instructions","102","506568","0.0-4.0-14.0-0.0","spark_pilot_2","7487","5","21","Female","","","","","","","","701","<p> Before you start, we're going to ask you a few questions about how the game works. </p>","","instructions","","","","","","","","","","","","","",""
"comp-q","103","514214","0.0-4.0-15.0-0.0-0.0","spark_pilot_2","7487","5","21","Female","","","","","","","","1187","<p> <b> True or False? </b> </p>
            <p> There can be 50 pieces of treasure in a given animal's chest. </p>","1","comp_question","","","","true","","","","","","","","","",""
"comp-q","104","521874","0.0-4.0-15.0-0.0-1.0","spark_pilot_2","7487","5","21","Female","","","","","","","","1016.0000000001164","<p> <b> That's right! </b> The amount of treasure in each chest can range from 0 to 40 pieces. </p>","0","comp_answer","","","","","","","","","","","","","",""
"comp-q","105","529515","0.0-4.0-15.0-0.1-0.1","spark_pilot_2","7487","5","21","Female","","","","","","","","542","<p> <b> True or False? </b> </p><p> In this game, all animals have the same amount of treasure in their left and right chests. </p>","1","comp_question","","","","true","","","","","","","","","",""
"comp-q","106","535964","0.0-4.0-15.0-0.1-1.1","spark_pilot_2","7487","5","21","Female","","","","","","","","1234.0000000001164","<p> <b> That's right! </b> Animals have different amounts of treasure in their treasure chests. </p>","0","comp_answer","","","","","","","","","","","","","",""
"comp-q","107","542392","0.0-4.0-15.0-0.2-0.2","spark_pilot_2","7487","5","21","Female","","","","","","","","598.0000000001164","<p> <b> True or False? </b> </p><p> The same animal will always be there if you go up in the same place. </p>","0","comp_question","","","","true","","","","","","","","","",""
"comp-q","108","549690","0.0-4.0-15.0-0.2-1.2","spark_pilot_2","7487","5","21","Female","","","","","","","","869.0000000001164","<p> <b> That's right! </b> One animal lives in the upper part and one lives in the lower part of every place. </p>","0","comp_answer","","","","","","","","","","","","","",""
"comp-q","109","555776","0.0-4.0-15.0-0.3-0.3","spark_pilot_2","7487","5","21","Female","","","","","","","","577","<p> <b> True or False? </b> </p><p> If you see a different picture, it means you are in a new place. </p>","1","comp_question","","","","true","","","","","","","","","",""
"comp-q","110","569528","0.0-4.0-15.0-0.3-1.3","spark_pilot_2","7487","5","21","Female","","","","","","","","2548","<p> <b> That's right! </b> Lots of different images may show the same place. For example,  you may see three different images that all remind you that you are in outer space. </p>","0","comp_answer","","","","","","","","","","","","","",""
"learning-instructions","111","581060","0.0-4.0-16.0-0.0","spark_pilot_2","7487","5","21","Female","","","","","","","","1699.0000000001164","<p> Good job. Remember to do your best because the amount of treasure you earn will be converted into bonus money. </p>
            <p> It’s time to start the real game! </p>","","instructions","","","","","","","","","","","","","",""
"learning-instructions","112","585382","0.0-5.0-0.0-0.0","spark_pilot_2","7487","5","21","Female","","","","","","","","1565","<p> This time you are searching for treasure in the <b>canyon</b>.</p>","","instructions","","","","","","","","","","","","","",""
"learning-instructions","113","603279","0.0-5.0-0.0-0.1","spark_pilot_2","7487","5","21","Female","","","","","","","","630","<p><b>New</b> animals with <b>new</b> treasure chests live here. You need to explore to discover where the animal with the best treasure chest is.</p>
                    <p> Like before, once you figure out which animal has the chest with the most treasure, you should try to get to that animal and select that chest! </p>","","instructions","","","","","","","","","","","","","",""
"learning-instructions","114","618666","0.0-5.0-1.0-0.0","spark_pilot_2","7487","5","21","Female","","","","","","","","656","<p> Remember, when you see a picture of the place, use the up and down keys to <b>find an animal</b>.</p>
            <p> When you encounter an animal, you should use the left and right keys to <b>select a treasure chest</b>.</p>
            <p> Don't forget to look out for the robber! </p>","","instructions","","","","","","","","","","","","","",""
"revaluation","115","624692","0.0-5.0-2.0-0.0","spark_pilot_2","7487","5","21","Female","","false","","","","","","[870,489]","./assets/img/canyon/memory/40.jpg","[""ArrowUp"",""ArrowLeft""]","value training","canyon","26","{""ArrowUp,ArrowLeft"":26,""ArrowUp,ArrowRight"":10,""ArrowDown,ArrowLeft"":5,""ArrowDown,ArrowRight"":17}","true","ArrowUp,ArrowLeft","false","","","original","1","0","","",""
"html-keyboard-response","116","625194","0.0-5.0-2.0-1.0","spark_pilot_2","7487","5","21","Female","","","","","","","","null","<div style=""font-size:60px;"">+</div>","null","fixation","","","","","","","","","","","1","","",""
"revaluation","117","631221","0.0-5.0-2.0-0.1","spark_pilot_2","7487","5","21","Female","","false","","","","","","[589,508]","./assets/img/canyon/memory/40.jpg","[""ArrowUp"",""ArrowRight""]","value training","canyon","10","{""ArrowUp,ArrowLeft"":26,""ArrowUp,ArrowRight"":10,""ArrowDown,ArrowLeft"":5,""ArrowDown,ArrowRight"":17}","false","ArrowUp,ArrowRight","false","","","original","1","2","","",""
"html-keyboard-response","118","631722","0.0-5.0-2.0-1.1","spark_pilot_2","7487","5","21","Female","","","","","","","","null","<div style=""font-size:60px;"">+</div>","null","fixation","","","","","","","","","","","3","","",""
"revaluation","119","637750","0.0-5.0-2.0-0.2","spark_pilot_2","7487","5","21","Female","","false","","","","","","[702,601]","./assets/img/canyon/memory/34.jpg","[""ArrowDown"",""ArrowLeft""]","value training","canyon","5","{""ArrowUp,ArrowLeft"":26,""ArrowUp,ArrowRight"":10,""ArrowDown,ArrowLeft"":5,""ArrowDown,ArrowRight"":17}","false","ArrowDown,ArrowLeft","false","","","original","1","4","","",""
"html-keyboard-response","120","638252","0.0-5.0-2.0-1.2","spark_pilot_2","7487","5","21","Female","","","","","","","","null","<div style=""font-size:60px;"">+</div>","null","fixation","","","","","","","","","","","5","","",""
"revaluation","121","644278","0.0-5.0-2.0-0.3","spark_pilot_2","7487","5","21","Female","","false","","","","","","[753,502]","./assets/img/canyon/memory/19.jpg","[""ArrowDown"",""ArrowRight""]","value training","canyon","17","{""ArrowUp,ArrowLeft"":26,""ArrowUp,ArrowRight"":10,""ArrowDown,ArrowLeft"":5,""ArrowDown,ArrowRight"":17}","false","ArrowDown,ArrowRight","false","","","original","1","6","","",""
"html-keyboard-response","122","644779","0.0-5.0-2.0-1.3","spark_pilot_2","7487","5","21","Female","","","","","","","","null","<div style=""font-size:60px;"">+</div>","null","fixation","","","","","","","","","","","7","","",""
"revaluation","123","650807","0.0-5.0-2.0-0.4","spark_pilot_2","7487","5","21","Female","","false","","","","","","[964,546]","./assets/img/canyon/memory/33.jpg","[""ArrowUp"",""ArrowLeft""]","value training","canyon","26","{""ArrowUp,ArrowLeft"":26,""ArrowUp,ArrowRight"":10,""ArrowDown,ArrowLeft"":5,""ArrowDown,ArrowRight"":17}","true","ArrowUp,ArrowLeft","false","","","original","1","8","","",""
"html-keyboard-response","124","651308","0.0-5.0-2.0-1.4","spark_pilot_2","7487","5","21","Female","","","","","","","","null","<div style=""font-size:60px;"">+</div>","null","fixation","","","","","","","","","","","9","","",""
"revaluation","125","657335","0.0-5.0-2.0-0.5","spark_pilot_2","7487","5","21","Female","","false","","","","","","[738,547]","./assets/img/canyon/memory/17.jpg","[""ArrowUp"",""ArrowLeft""]","value training","canyon","26","{""ArrowUp,ArrowLeft"":26,""ArrowUp,ArrowRight"":10,""ArrowDown,ArrowLeft"":5,""ArrowDown,ArrowRight"":17}","true","ArrowUp,ArrowLeft","false","","","original","1","10","","",""
"html-keyboard-response","126","657836","0.0-5.0-2.0-1.5","spark_pilot_2","7487","5","21","Female","","","","","","","","null","<div style=""font-size:60px;"">+</div>","null","fixation","","","","","","","","","","","11","","",""
"revaluation","127","663861","0.0-5.0-2.0-0.6","spark_pilot_2","7487","5","21","Female","","false","","","","","","[722,751]","./assets/img/canyon/memory/35.jpg","[""ArrowUp"",""ArrowLeft""]","value training","canyon","26","{""ArrowUp,ArrowLeft"":26,""ArrowUp,ArrowRight"":10,""ArrowDown,ArrowLeft"":5,""ArrowDown,ArrowRight"":17}","true","ArrowUp,ArrowLeft","false","","","original","1","12","","",""
"html-keyboard-response","128","664363","0.0-5.0-2.0-1.6","spark_pilot_2","7487","5","21","Female","","","","","","","","null","<div style=""font-size:60px;"">+</div>","null","fixation","","","","","","","","","","","13","","",""
"revaluation","129","670390","0.0-5.0-2.0-0.7","spark_pilot_2","7487","5","21","Female","","false","","","","","","[755,744]","./assets/img/canyon/memory/20.jpg","[""ArrowUp"",""ArrowLeft""]","value training","canyon","26","{""ArrowUp,ArrowLeft"":26,""ArrowUp,ArrowRight"":10,""ArrowDown,ArrowLeft"":5,""ArrowDown,ArrowRight"":17}","true","ArrowUp,ArrowLeft","false","","","original","1","14","","",""
"html-keyboard-response","130","670892","0.0-5.0-2.0-1.7","spark_pilot_2","7487","5","21","Female","","","","","","","","null","<div style=""font-size:60px;"">+</div>","null","fixation","","","","","","","","","","","15","","",""
"revaluation","131","676918","0.0-5.0-2.0-0.8","spark_pilot_2","7487","5","21","Female","","false","","","","","","[686,665]","./assets/img/canyon/memory/34.jpg","[""ArrowUp"",""ArrowLeft""]","value training","canyon","26","{""ArrowUp,ArrowLeft"":26,""ArrowUp,ArrowRight"":10,""ArrowDown,ArrowLeft"":5,""ArrowDown,ArrowRight"":17}","true","ArrowUp,ArrowLeft","false","","","original","1","16","","",""
"html-keyboard-response","132","677419","0.0-5.0-2.0-1.8","spark_pilot_2","7487","5","21","Female","","","","","","","","null","<div style=""font-size:60px;"">+</div>","null","fixation","","","","","","","","","","","17","","",""
"revaluation","133","681446","0.0-5.0-2.0-0.9","spark_pilot_2","7487","5","21","Female","","false","","","","","","[459]","./assets/img/canyon/catch/6.jpg","[""spaceBar""]","value training","canyon","0","{""ArrowUp,ArrowLeft"":26,""ArrowUp,ArrowRight"":10,""ArrowDown,ArrowLeft"":5,""ArrowDown,ArrowRight"":17}","true","spaceBar","true","","","original","1","18","","",""
"html-keyboard-response","134","681947","0.0-5.0-2.0-1.9","spark_pilot_2","7487","5","21","Female","","","","","","","","null","<div style=""font-size:60px;"">+</div>","null","fixation","","","","","","","","","","","19","","",""
"revaluation","135","687973","0.0-5.0-2.0-0.10","spark_pilot_2","7487","5","21","Female","","false","","","","","","[740,569]","./assets/img/canyon/memory/32.jpg","[""ArrowUp"",""ArrowLeft""]","value training","canyon","26","{""ArrowUp,ArrowLeft"":26,""ArrowUp,ArrowRight"":10,""ArrowDown,ArrowLeft"":5,""ArrowDown,ArrowRight"":17}","true","ArrowUp,ArrowLeft","false","","","original","1","20","","",""
"html-keyboard-response","136","688474","0.0-5.0-2.0-1.10","spark_pilot_2","7487","5","21","Female","","","","","","","","null","<div style=""font-size:60px;"">+</div>","null","fixation","","","","","","","","","","","21","","",""
"revaluation","137","694499","0.0-5.0-2.0-0.11","spark_pilot_2","7487","5","21","Female","","false","","","","","","[645,525]","./assets/img/canyon/memory/18.jpg","[""ArrowUp"",""ArrowLeft""]","value training","canyon","26","{""ArrowUp,ArrowLeft"":26,""ArrowUp,ArrowRight"":10,""ArrowDown,ArrowLeft"":5,""ArrowDown,ArrowRight"":17}","true","ArrowUp,ArrowLeft","false","","","original","1","22","","",""
"html-keyboard-response","138","695000","0.0-5.0-2.0-1.11","spark_pilot_2","7487","5","21","Female","","","","","","","","null","<div style=""font-size:60px;"">+</div>","null","fixation","","","","","","","","","","","23","","",""
"revaluation","139","699026","0.0-5.0-2.0-0.12","spark_pilot_2","7487","5","21","Female","","false","","","","","","[605]","./assets/img/canyon/catch/1.jpg","[""spaceBar""]","value training","canyon","0","{""ArrowUp,ArrowLeft"":26,""ArrowUp,ArrowRight"":10,""ArrowDown,ArrowLeft"":5,""ArrowDown,ArrowRight"":17}","true","spaceBar","true","","","original","1","24","","",""
"html-keyboard-response","140","699527","0.0-5.0-2.0-1.12","spark_pilot_2","7487","5","21","Female","","","","","","","","null","<div style=""font-size:60px;"">+</div>","null","fixation","","","","","","","","","","","25","","",""
"revaluation","141","705553","0.0-5.0-2.0-0.13","spark_pilot_2","7487","5","21","Female","","false","","","","","","[752,490]","./assets/img/canyon/memory/19.jpg","[""ArrowUp"",""ArrowLeft""]","value training","canyon","26","{""ArrowUp,ArrowLeft"":26,""ArrowUp,ArrowRight"":10,""ArrowDown,ArrowLeft"":5,""ArrowDown,ArrowRight"":17}","true","ArrowUp,ArrowLeft","false","","","original","1","26","","",""
"html-keyboard-response","142","706055","0.0-5.0-2.0-1.13","spark_pilot_2","7487","5","21","Female","","","","","","","","null","<div style=""font-size:60px;"">+</div>","null","fixation","","","","","","","","","","","27","","",""
"revaluation","143","712081","0.0-5.0-2.0-0.14","spark_pilot_2","7487","5","21","Female","","false","","","","","","[762,481]","./assets/img/canyon/memory/38.jpg","[""ArrowUp"",""ArrowLeft""]","value training","canyon","26","{""ArrowUp,ArrowLeft"":26,""ArrowUp,ArrowRight"":10,""ArrowDown,ArrowLeft"":5,""ArrowDown,ArrowRight"":17}","true","ArrowUp,ArrowLeft","false","","","original","1","28","","",""
"html-keyboard-response","144","712582","0.0-5.0-2.0-1.14","spark_pilot_2","7487","5","21","Female","","","","","","","","null","<div style=""font-size:60px;"">+</div>","null","fixation","","","","","","","","","","","29","","",""
"revaluation","145","718611","0.0-5.0-2.0-0.15","spark_pilot_2","7487","5","21","Female","","false","","","","","","[823.9999999998836,593]","./assets/img/canyon/memory/41.jpg","[""ArrowUp"",""ArrowLeft""]","value training","canyon","26","{""ArrowUp,ArrowLeft"":26,""ArrowUp,ArrowRight"":10,""ArrowDown,ArrowLeft"":5,""ArrowDown,ArrowRight"":17}","true","ArrowUp,ArrowLeft","false","","","original","1","30","","",""
"html-keyboard-response","146","719112","0.0-5.0-2.0-1.15","spark_pilot_2","7487","5","21","Female","","","","","","","","null","<div style=""font-size:60px;"">+</div>","null","fixation","","","","","","","","","","","31","","",""
"revaluation","147","725139","0.0-5.0-2.0-0.16","spark_pilot_2","7487","5","21","Female","","false","","","","","","[705,553]","./assets/img/canyon/memory/37.jpg","[""ArrowUp"",""ArrowLeft""]","value training","canyon","26","{""ArrowUp,ArrowLeft"":26,""ArrowUp,ArrowRight"":10,""ArrowDown,ArrowLeft"":5,""ArrowDown,ArrowRight"":17}","true","ArrowUp,ArrowLeft","false","","","original","1","32","","",""
"html-keyboard-response","148","725640","0.0-5.0-2.0-1.16","spark_pilot_2","7487","5","21","Female","","","","","","","","null","<div style=""font-size:60px;"">+</div>","null","fixation","","","","","","","","","","","33","","",""
"revaluation","149","731670","0.0-5.0-2.0-0.17","spark_pilot_2","7487","5","21","Female","","false","","","","","","[763,491.0000000001164]","./assets/img/canyon/memory/37.jpg","[""ArrowUp"",""ArrowLeft""]","value training","canyon","26","{""ArrowUp,ArrowLeft"":26,""ArrowUp,ArrowRight"":10,""ArrowDown,ArrowLeft"":5,""ArrowDown,ArrowRight"":17}","true","ArrowUp,ArrowLeft","false","","","original","1","34","","",""
"html-keyboard-response","150","732171","0.0-5.0-2.0-1.17","spark_pilot_2","7487","5","21","Female","","","","","","","","null","<div style=""font-size:60px;"">+</div>","null","fixation","","","","","","","","","","","35","","",""
"revaluation","151","736197","0.0-5.0-2.0-0.18","spark_pilot_2","7487","5","21","Female","","false","","","","","","[655]","./assets/img/canyon/catch/4.jpg","[""spaceBar""]","value training","canyon","0","{""ArrowUp,ArrowLeft"":26,""ArrowUp,ArrowRight"":10,""ArrowDown,ArrowLeft"":5,""ArrowDown,ArrowRight"":17}","true","spaceBar","true","","","original","1","36","","",""
"html-keyboard-response","152","736698","0.0-5.0-2.0-1.18","spark_pilot_2","7487","5","21","Female","","","","","","","","null","<div style=""font-size:60px;"">+</div>","null","fixation","","","","","","","","","","","37","","",""
"revaluation","153","742724","0.0-5.0-2.0-0.19","spark_pilot_2","7487","5","21","Female","","false","","","","","","[867,657]","./assets/img/canyon/memory/8.jpg","[""ArrowUp"",""ArrowLeft""]","value training","canyon","26","{""ArrowUp,ArrowLeft"":26,""ArrowUp,ArrowRight"":10,""ArrowDown,ArrowLeft"":5,""ArrowDown,ArrowRight"":17}","true","ArrowUp,ArrowLeft","false","","","original","1","38","","",""
"html-keyboard-response","154","743225","0.0-5.0-2.0-1.19","spark_pilot_2","7487","5","21","Female","","","","","","","","null","<div style=""font-size:60px;"">+</div>","null","fixation","","","","","","","","","","","39","","",""
"revaluation","155","749251","0.0-5.0-2.0-0.20","spark_pilot_2","7487","5","21","Female","","false","","","","","","[619,497]","./assets/img/canyon/memory/0.jpg","[""ArrowUp"",""ArrowLeft""]","value training","canyon","26","{""ArrowUp,ArrowLeft"":26,""ArrowUp,ArrowRight"":10,""ArrowDown,ArrowLeft"":5,""ArrowDown,ArrowRight"":17}","true","ArrowUp,ArrowLeft","false","","","original","1","40","","",""
"html-keyboard-response","156","749752","0.0-5.0-2.0-1.20","spark_pilot_2","7487","5","21","Female","","","","","","","","null","<div style=""font-size:60px;"">+</div>","null","fixation","","","","","","","","","","","41","","",""
"revaluation","157","755779","0.0-5.0-2.0-0.21","spark_pilot_2","7487","5","21","Female","","false","","","","","","[912.0000000001164,531.0000000001164]","./assets/img/canyon/memory/9.jpg","[""ArrowUp"",""ArrowLeft""]","value training","canyon","26","{""ArrowUp,ArrowLeft"":26,""ArrowUp,ArrowRight"":10,""ArrowDown,ArrowLeft"":5,""ArrowDown,ArrowRight"":17}","true","ArrowUp,ArrowLeft","false","","","original","1","42","","",""
"html-keyboard-response","158","756280","0.0-5.0-2.0-1.21","spark_pilot_2","7487","5","21","Female","","","","","","","","null","<div style=""font-size:60px;"">+</div>","null","fixation","","","","","","","","","","","43","","",""
"revaluation","159","762307","0.0-5.0-2.0-0.22","spark_pilot_2","7487","5","21","Female","","false","","","","","","[694,503.0000000001164]","./assets/img/canyon/memory/20.jpg","[""ArrowUp"",""ArrowLeft""]","value training","canyon","26","{""ArrowUp,ArrowLeft"":26,""ArrowUp,ArrowRight"":10,""ArrowDown,ArrowLeft"":5,""ArrowDown,ArrowRight"":17}","true","ArrowUp,ArrowLeft","false","","","original","1","44","","",""
"html-keyboard-response","160","762808","0.0-5.0-2.0-1.22","spark_pilot_2","7487","5","21","Female","","","","","","","","null","<div style=""font-size:60px;"">+</div>","null","fixation","","","","","","","","","","","45","","",""
"revaluation","161","766834","0.0-5.0-2.0-0.23","spark_pilot_2","7487","5","21","Female","","false","","","","","","[711.9999999998836]","./assets/img/canyon/catch/0.jpg","[""spaceBar""]","value training","canyon","0","{""ArrowUp,ArrowLeft"":26,""ArrowUp,ArrowRight"":10,""ArrowDown,ArrowLeft"":5,""ArrowDown,ArrowRight"":17}","true","spaceBar","true","","","original","1","46","","",""
"html-keyboard-response","162","767336","0.0-5.0-2.0-1.23","spark_pilot_2","7487","5","21","Female","","","","","","","","null","<div style=""font-size:60px;"">+</div>","null","fixation","","","","","","","","","","","47","","",""
"revaluation","163","773363","0.0-5.0-2.0-0.24","spark_pilot_2","7487","5","21","Female","","false","","","","","","[1048,605.9999999998836]","./assets/img/canyon/memory/18.jpg","[""ArrowUp"",""ArrowLeft""]","value training","canyon","26","{""ArrowUp,ArrowLeft"":26,""ArrowUp,ArrowRight"":10,""ArrowDown,ArrowLeft"":5,""ArrowDown,ArrowRight"":17}","true","ArrowUp,ArrowLeft","false","","","original","1","48","","",""
"html-keyboard-response","164","773865","0.0-5.0-2.0-1.24","spark_pilot_2","7487","5","21","Female","","","","","","","","null","<div style=""font-size:60px;"">+</div>","null","fixation","","","","","","","","","","","49","","",""
"revaluation","165","779891","0.0-5.0-2.0-0.25","spark_pilot_2","7487","5","21","Female","","false","","","","","","[719,437.9999999998836]","./assets/img/canyon/memory/11.jpg","[""ArrowUp"",""ArrowLeft""]","value training","canyon","26","{""ArrowUp,ArrowLeft"":26,""ArrowUp,ArrowRight"":10,""ArrowDown,ArrowLeft"":5,""ArrowDown,ArrowRight"":17}","true","ArrowUp,ArrowLeft","false","","","original","1","50","","",""
"html-keyboard-response","166","780393","0.0-5.0-2.0-1.25","spark_pilot_2","7487","5","21","Female","","","","","","","","null","<div style=""font-size:60px;"">+</div>","null","fixation","","","","","","","","","","","51","","",""
"revaluation","167","786419","0.0-5.0-2.0-0.26","spark_pilot_2","7487","5","21","Female","","false","","","","","","[832,571]","./assets/img/canyon/memory/17.jpg","[""ArrowUp"",""ArrowLeft""]","value training","canyon","26","{""ArrowUp,ArrowLeft"":26,""ArrowUp,ArrowRight"":10,""ArrowDown,ArrowLeft"":5,""ArrowDown,ArrowRight"":17}","true","ArrowUp,ArrowLeft","false","","","original","1","52","","",""
"html-keyboard-response","168","786920","0.0-5.0-2.0-1.26","spark_pilot_2","7487","5","21","Female","","","","","","","","null","<div style=""font-size:60px;"">+</div>","null","fixation","","","","","","","","","","","53","","",""
"revaluation","169","792947","0.0-5.0-2.0-0.27","spark_pilot_2","7487","5","21","Female","","false","","","","","","[895,463.0000000001164]","./assets/img/canyon/memory/39.jpg","[""ArrowUp"",""ArrowLeft""]","value training","canyon","26","{""ArrowUp,ArrowLeft"":26,""ArrowUp,ArrowRight"":10,""ArrowDown,ArrowLeft"":5,""ArrowDown,ArrowRight"":17}","true","ArrowUp,ArrowLeft","false","","","original","1","54","","",""
"html-keyboard-response","170","793448","0.0-5.0-2.0-1.27","spark_pilot_2","7487","5","21","Female","","","","","","","","null","<div style=""font-size:60px;"">+</div>","null","fixation","","","","","","","","","","","55","","",""
"revaluation","171","799476","0.0-5.0-2.0-0.28","spark_pilot_2","7487","5","21","Female","","false","","","","","","[828,437]","./assets/img/canyon/memory/32.jpg","[""ArrowUp"",""ArrowLeft""]","value training","canyon","26","{""ArrowUp,ArrowLeft"":26,""ArrowUp,ArrowRight"":10,""ArrowDown,ArrowLeft"":5,""ArrowDown,ArrowRight"":17}","true","ArrowUp,ArrowLeft","false","","","original","1","56","","",""
"html-keyboard-response","172","799977","0.0-5.0-2.0-1.28","spark_pilot_2","7487","5","21","Female","","","","","","","","null","<div style=""font-size:60px;"">+</div>","null","fixation","","","","","","","","","","","57","","",""
"revaluation","173","806004","0.0-5.0-2.0-0.29","spark_pilot_2","7487","5","21","Female","","false","","","","","","[949,478]","./assets/img/canyon/memory/11.jpg","[""ArrowUp"",""ArrowLeft""]","value training","canyon","26","{""ArrowUp,ArrowLeft"":26,""ArrowUp,ArrowRight"":10,""ArrowDown,ArrowLeft"":5,""ArrowDown,ArrowRight"":17}","true","ArrowUp,ArrowLeft","false","","","original","1","58","","",""
"html-keyboard-response","174","806505","0.0-5.0-2.0-1.29","spark_pilot_2","7487","5","21","Female","","","","","","","","null","<div style=""font-size:60px;"">+</div>","null","fixation","","","","","","","","","","","59","","",""
"revaluation","175","810531","0.0-5.0-2.0-0.30","spark_pilot_2","7487","5","21","Female","","false","","","","","","[892]","./assets/img/canyon/catch/2.jpg","[""ArrowUp""]","value training","canyon","-10","{""ArrowUp,ArrowLeft"":26,""ArrowUp,ArrowRight"":10,""ArrowDown,ArrowLeft"":5,""ArrowDown,ArrowRight"":17}","false","ArrowUp","true","","","original","1","60","","",""
"html-keyboard-response","176","811032","0.0-5.0-2.0-1.30","spark_pilot_2","7487","5","21","Female","","","","","","","","null","<div style=""font-size:60px;"">+</div>","null","fixation","","","","","","","","","","","61","","",""
"revaluation","177","817060","0.0-5.0-2.0-0.31","spark_pilot_2","7487","5","21","Female","","false","","","","","","[1034.9999999998836,564.9999999998836]","./assets/img/canyon/memory/0.jpg","[""ArrowUp"",""ArrowLeft""]","value training","canyon","26","{""ArrowUp,ArrowLeft"":26,""ArrowUp,ArrowRight"":10,""ArrowDown,ArrowLeft"":5,""ArrowDown,ArrowRight"":17}","true","ArrowUp,ArrowLeft","false","","","original","1","62","","",""
"html-keyboard-response","178","817560","0.0-5.0-2.0-1.31","spark_pilot_2","7487","5","21","Female","","","","","","","","null","<div style=""font-size:60px;"">+</div>","null","fixation","","","","","","","","","","","63","","",""
"revaluation","179","823588","0.0-5.0-2.0-0.32","spark_pilot_2","7487","5","21","Female","","false","","","","","","[1009,537]","./assets/img/canyon/memory/36.jpg","[""ArrowUp"",""ArrowLeft""]","value training","canyon","26","{""ArrowUp,ArrowLeft"":26,""ArrowUp,ArrowRight"":10,""ArrowDown,ArrowLeft"":5,""ArrowDown,ArrowRight"":17}","true","ArrowUp,ArrowLeft","false","","","original","1","64","","",""
"html-keyboard-response","180","824089","0.0-5.0-2.0-1.32","spark_pilot_2","7487","5","21","Female","","","","","","","","null","<div style=""font-size:60px;"">+</div>","null","fixation","","","","","","","","","","","65","","",""
"revaluation","181","828116","0.0-5.0-2.0-0.33","spark_pilot_2","7487","5","21","Female","","false","","","","","","[609]","./assets/img/canyon/catch/7.jpg","[""spaceBar""]","value training","canyon","0","{""ArrowUp,ArrowLeft"":26,""ArrowUp,ArrowRight"":10,""ArrowDown,ArrowLeft"":5,""ArrowDown,ArrowRight"":17}","true","spaceBar","true","","","original","1","66","","",""
"html-keyboard-response","182","828618","0.0-5.0-2.0-1.33","spark_pilot_2","7487","5","21","Female","","","","","","","","null","<div style=""font-size:60px;"">+</div>","null","fixation","","","","","","","","","","","67","","",""
"revaluation","183","834645","0.0-5.0-2.0-0.34","spark_pilot_2","7487","5","21","Female","","false","","","","","","[1132,642.0000000001164]","./assets/img/canyon/memory/12.jpg","[""ArrowUp"",""ArrowLeft""]","value training","canyon","26","{""ArrowUp,ArrowLeft"":26,""ArrowUp,ArrowRight"":10,""ArrowDown,ArrowLeft"":5,""ArrowDown,ArrowRight"":17}","true","ArrowUp,ArrowLeft","false","","","original","1","68","","",""
"html-keyboard-response","184","835146","0.0-5.0-2.0-1.34","spark_pilot_2","7487","5","21","Female","","","","","","","","null","<div style=""font-size:60px;"">+</div>","null","fixation","","","","","","","","","","","69","","",""
"revaluation","185","841172","0.0-5.0-2.0-0.35","spark_pilot_2","7487","5","21","Female","","false","","","","","","[896,575]","./assets/img/canyon/memory/39.jpg","[""ArrowUp"",""ArrowLeft""]","value training","canyon","26","{""ArrowUp,ArrowLeft"":26,""ArrowUp,ArrowRight"":10,""ArrowDown,ArrowLeft"":5,""ArrowDown,ArrowRight"":17}","true","ArrowUp,ArrowLeft","false","","","original","1","70","","",""
"html-keyboard-response","186","841674","0.0-5.0-2.0-1.35","spark_pilot_2","7487","5","21","Female","","","","","","","","null","<div style=""font-size:60px;"">+</div>","null","fixation","","","","","","","","","","","71","","",""
"revaluation","187","847700","0.0-5.0-2.0-0.36","spark_pilot_2","7487","5","21","Female","","false","","","","","","[816,865.0000000001164]","./assets/img/canyon/memory/12.jpg","[""ArrowUp"",""ArrowLeft""]","value training","canyon","26","{""ArrowUp,ArrowLeft"":26,""ArrowUp,ArrowRight"":10,""ArrowDown,ArrowLeft"":5,""ArrowDown,ArrowRight"":17}","true","ArrowUp,ArrowLeft","false","","","original","1","72","","",""
"html-keyboard-response","188","848202","0.0-5.0-2.0-1.36","spark_pilot_2","7487","5","21","Female","","","","","","","","null","<div style=""font-size:60px;"">+</div>","null","fixation","","","","","","","","","","","73","","",""
"revaluation","189","852226","0.0-5.0-2.0-0.37","spark_pilot_2","7487","5","21","Female","","false","","","","","","[667]","./assets/img/canyon/catch/5.jpg","[""spaceBar""]","value training","canyon","0","{""ArrowUp,ArrowLeft"":26,""ArrowUp,ArrowRight"":10,""ArrowDown,ArrowLeft"":5,""ArrowDown,ArrowRight"":17}","true","spaceBar","true","","","original","1","74","","",""
"html-keyboard-response","190","852728","0.0-5.0-2.0-1.37","spark_pilot_2","7487","5","21","Female","","","","","","","","null","<div style=""font-size:60px;"">+</div>","null","fixation","","","","","","","","","","","75","","",""
"revaluation","191","858755","0.0-5.0-2.0-0.38","spark_pilot_2","7487","5","21","Female","","false","","","","","","[1012,721]","./assets/img/canyon/memory/41.jpg","[""ArrowUp"",""ArrowLeft""]","value training","canyon","26","{""ArrowUp,ArrowLeft"":26,""ArrowUp,ArrowRight"":10,""ArrowDown,ArrowLeft"":5,""ArrowDown,ArrowRight"":17}","true","ArrowUp,ArrowLeft","false","","","original","1","76","","",""
"html-keyboard-response","192","859256","0.0-5.0-2.0-1.38","spark_pilot_2","7487","5","21","Female","","","","","","","","null","<div style=""font-size:60px;"">+</div>","null","fixation","","","","","","","","","","","77","","",""
"revaluation","193","865284","0.0-5.0-2.0-0.39","spark_pilot_2","7487","5","21","Female","","false","","","","","","[1104.0000000001164,912]","./assets/img/canyon/memory/8.jpg","[""ArrowUp"",""ArrowLeft""]","value training","canyon","26","{""ArrowUp,ArrowLeft"":26,""ArrowUp,ArrowRight"":10,""ArrowDown,ArrowLeft"":5,""ArrowDown,ArrowRight"":17}","true","ArrowUp,ArrowLeft","false","","","original","1","78","","",""
"html-keyboard-response","194","865785","0.0-5.0-2.0-1.39","spark_pilot_2","7487","5","21","Female","","","","","","","","null","<div style=""font-size:60px;"">+</div>","null","fixation","","","","","","","","","","","79","","",""
"revaluation","195","871812","0.0-5.0-2.0-0.40","spark_pilot_2","7487","5","21","Female","","false","","","","","","[736,495]","./assets/img/canyon/memory/35.jpg","[""ArrowUp"",""ArrowLeft""]","value training","canyon","26","{""ArrowUp,ArrowLeft"":26,""ArrowUp,ArrowRight"":10,""ArrowDown,ArrowLeft"":5,""ArrowDown,ArrowRight"":17}","true","ArrowUp,ArrowLeft","false","","","original","1","80","","",""
"html-keyboard-response","196","872313","0.0-5.0-2.0-1.40","spark_pilot_2","7487","5","21","Female","","","","","","","","null","<div style=""font-size:60px;"">+</div>","null","fixation","","","","","","","","","","","81","","",""
"revaluation","197","878338","0.0-5.0-2.0-0.41","spark_pilot_2","7487","5","21","Female","","false","","","","","","[777.9999999998836,1097.9999999998836]","./assets/img/canyon/memory/33.jpg","[""ArrowUp"",""ArrowLeft""]","value training","canyon","26","{""ArrowUp,ArrowLeft"":26,""ArrowUp,ArrowRight"":10,""ArrowDown,ArrowLeft"":5,""ArrowDown,ArrowRight"":17}","true","ArrowUp,ArrowLeft","false","","","original","1","82","","",""
"html-keyboard-response","198","878840","0.0-5.0-2.0-1.41","spark_pilot_2","7487","5","21","Female","","","","","","","","null","<div style=""font-size:60px;"">+</div>","null","fixation","","","","","","","","","","","83","","",""
"revaluation","199","882865","0.0-5.0-2.0-0.42","spark_pilot_2","7487","5","21","Female","","false","","","","","","[520.0000000001164]","./assets/img/canyon/catch/3.jpg","[""spaceBar""]","value training","canyon","0","{""ArrowUp,ArrowLeft"":26,""ArrowUp,ArrowRight"":10,""ArrowDown,ArrowLeft"":5,""ArrowDown,ArrowRight"":17}","true","spaceBar","true","","","original","1","84","","",""
"html-keyboard-response","200","883366","0.0-5.0-2.0-1.42","spark_pilot_2","7487","5","21","Female","","","","","","","","null","<div style=""font-size:60px;"">+</div>","null","fixation","","","","","","","","","","","85","","",""
"revaluation","201","889402","0.0-5.0-2.0-0.43","spark_pilot_2","7487","5","21","Female","","false","","","","","","[835.0000000001164,454]","./assets/img/canyon/memory/1.jpg","[""ArrowUp"",""ArrowLeft""]","value training","canyon","26","{""ArrowUp,ArrowLeft"":26,""ArrowUp,ArrowRight"":10,""ArrowDown,ArrowLeft"":5,""ArrowDown,ArrowRight"":17}","true","ArrowUp,ArrowLeft","false","","","original","1","86","","",""
"html-keyboard-response","202","889904","0.0-5.0-2.0-1.43","spark_pilot_2","7487","5","21","Female","","","","","","","","null","<div style=""font-size:60px;"">+</div>","null","fixation","","","","","","","","","","","87","","",""
"revaluation","203","895940","0.0-5.0-2.0-0.44","spark_pilot_2","7487","5","21","Female","","false","","","","","","[668.0000000001164,407.0000000001164]","./assets/img/canyon/memory/9.jpg","[""ArrowUp"",""ArrowLeft""]","value training","canyon","26","{""ArrowUp,ArrowLeft"":26,""ArrowUp,ArrowRight"":10,""ArrowDown,ArrowLeft"":5,""ArrowDown,ArrowRight"":17}","true","ArrowUp,ArrowLeft","false","","","original","1","88","","",""
"html-keyboard-response","204","896441","0.0-5.0-2.0-1.44","spark_pilot_2","7487","5","21","Female","","","","","","","","null","<div style=""font-size:60px;"">+</div>","null","fixation","","","","","","","","","","","89","","",""
"revaluation","205","902474","0.0-5.0-2.0-0.45","spark_pilot_2","7487","5","21","Female","","false","","","","","","[820,670]","./assets/img/canyon/memory/26.jpg","[""ArrowUp"",""ArrowLeft""]","value training","canyon","26","{""ArrowUp,ArrowLeft"":26,""ArrowUp,ArrowRight"":10,""ArrowDown,ArrowLeft"":5,""ArrowDown,ArrowRight"":17}","true","ArrowUp,ArrowLeft","false","","","original","1","90","","",""
"html-keyboard-response","206","902975","0.0-5.0-2.0-1.45","spark_pilot_2","7487","5","21","Female","","","","","","","","null","<div style=""font-size:60px;"">+</div>","null","fixation","","","","","","","","","","","91","","",""
"revaluation","207","909004","0.0-5.0-2.0-0.46","spark_pilot_2","7487","5","21","Female","","false","","","","","","[682,483.0000000001164]","./assets/img/canyon/memory/38.jpg","[""ArrowUp"",""ArrowLeft""]","value training","canyon","26","{""ArrowUp,ArrowLeft"":26,""ArrowUp,ArrowRight"":10,""ArrowDown,ArrowLeft"":5,""ArrowDown,ArrowRight"":17}","true","ArrowUp,ArrowLeft","false","","","original","1","92","","",""
"html-keyboard-response","208","909505","0.0-5.0-2.0-1.46","spark_pilot_2","7487","5","21","Female","","","","","","","","null","<div style=""font-size:60px;"">+</div>","null","fixation","","","","","","","","","","","93","","",""
"revaluation","209","915534","0.0-5.0-2.0-0.47","spark_pilot_2","7487","5","21","Female","","false","","","","","","[746,516]","./assets/img/canyon/memory/26.jpg","[""ArrowUp"",""ArrowLeft""]","value training","canyon","26","{""ArrowUp,ArrowLeft"":26,""ArrowUp,ArrowRight"":10,""ArrowDown,ArrowLeft"":5,""ArrowDown,ArrowRight"":17}","true","ArrowUp,ArrowLeft","false","","","original","1","94","","",""
"html-keyboard-response","210","916035","0.0-5.0-2.0-1.47","spark_pilot_2","7487","5","21","Female","","","","","","","","null","<div style=""font-size:60px;"">+</div>","null","fixation","","","","","","","","","","","95","","",""
"revaluation","211","922064","0.0-5.0-2.0-0.48","spark_pilot_2","7487","5","21","Female","","false","","","","","","[691,500]","./assets/img/canyon/memory/36.jpg","[""ArrowUp"",""ArrowLeft""]","value training","canyon","26","{""ArrowUp,ArrowLeft"":26,""ArrowUp,ArrowRight"":10,""ArrowDown,ArrowLeft"":5,""ArrowDown,ArrowRight"":17}","true","ArrowUp,ArrowLeft","false","","","original","1","96","","",""
"html-keyboard-response","212","922566","0.0-5.0-2.0-1.48","spark_pilot_2","7487","5","21","Female","","","","","","","","null","<div style=""font-size:60px;"">+</div>","null","fixation","","","","","","","","","","","97","","",""
"revaluation","213","928594","0.0-5.0-2.0-0.49","spark_pilot_2","7487","5","21","Female","","false","","","","","","[1353.0000000001164,591]","./assets/img/canyon/memory/1.jpg","[""ArrowUp"",""ArrowLeft""]","value training","canyon","26","{""ArrowUp,ArrowLeft"":26,""ArrowUp,ArrowRight"":10,""ArrowDown,ArrowLeft"":5,""ArrowDown,ArrowRight"":17}","true","ArrowUp,ArrowLeft","false","","","original","1","98","","",""
"html-keyboard-response","214","929095","0.0-5.0-2.0-1.49","spark_pilot_2","7487","5","21","Female","","","","","","","","null","<div style=""font-size:60px;"">+</div>","null","fixation","","","","","","","","","","","99","","",""
"learning-instructions","215","944503","0.0-5.0-3.0-0.0","spark_pilot_2","7487","5","21","Female","","","","","","","","2527","<p> Now, you will travel with a friend who will choose whether you go up or down first. </p>
            <p> On these turns, you will just see the animal that they found. You will still get to choose which chest to search for treasure.</p>","","instructions","","","","","","","","","","","","","",""
"revaluation","216","948526","0.0-5.0-4.0-0.0","spark_pilot_2","7487","5","21","Female","","false","","","","","","[952]","./assets/img/canyon/animals/giraffe.jpg","[""ArrowRight""]","revaluation","canyon","17","{""ArrowUp,ArrowLeft"":26,""ArrowUp,ArrowRight"":10,""ArrowDown,ArrowLeft"":5,""ArrowDown,ArrowRight"":17}","true","ArrowDown,ArrowRight","","","","original","1","0","","",""
"html-keyboard-response","217","949028","0.0-5.0-4.0-1.0","spark_pilot_2","7487","5","21","Female","","","","","","","","null","<div style=""font-size:60px;"">+</div>","null","fixation","","","","","","","","","","","1","","",""
"revaluation","218","953054","0.0-5.0-4.0-0.1","spark_pilot_2","7487","5","21","Female","","false","","","","","","[616]","./assets/img/canyon/animals/lion.jpg","[""ArrowLeft""]","revaluation","canyon","26","{""ArrowUp,ArrowLeft"":26,""ArrowUp,ArrowRight"":10,""ArrowDown,ArrowLeft"":5,""ArrowDown,ArrowRight"":17}","true","ArrowUp,ArrowLeft","","","","original","1","2","","",""
"html-keyboard-response","219","953555","0.0-5.0-4.0-1.1","spark_pilot_2","7487","5","21","Female","","","","","","","","null","<div style=""font-size:60px;"">+</div>","null","fixation","","","","","","","","","","","3","","",""
"revaluation","220","957581","0.0-5.0-4.0-0.2","spark_pilot_2","7487","5","21","Female","","false","","","","","","[469.0000000001164]","./assets/img/canyon/animals/lion.jpg","[""ArrowLeft""]","revaluation","canyon","26","{""ArrowUp,ArrowLeft"":26,""ArrowUp,ArrowRight"":10,""ArrowDown,ArrowLeft"":5,""ArrowDown,ArrowRight"":17}","true","ArrowUp,ArrowLeft","","","","original","1","4","","",""
"html-keyboard-response","221","958083","0.0-5.0-4.0-1.2","spark_pilot_2","7487","5","21","Female","","","","","","","","null","<div style=""font-size:60px;"">+</div>","null","fixation","","","","","","","","","","","5","","",""
"revaluation","222","962108","0.0-5.0-4.0-0.3","spark_pilot_2","7487","5","21","Female","","false","","","","","","[673.0000000001164]","./assets/img/canyon/animals/giraffe.jpg","[""ArrowRight""]","revaluation","canyon","17","{""ArrowUp,ArrowLeft"":26,""ArrowUp,ArrowRight"":10,""ArrowDown,ArrowLeft"":5,""ArrowDown,ArrowRight"":17}","true","ArrowDown,ArrowRight","","","","original","1","6","","",""
"html-keyboard-response","223","962609","0.0-5.0-4.0-1.3","spark_pilot_2","7487","5","21","Female","","","","","","","","null","<div style=""font-size:60px;"">+</div>","null","fixation","","","","","","","","","","","7","","",""
"revaluation","224","966635","0.0-5.0-4.0-0.4","spark_pilot_2","7487","5","21","Female","","false","","","","","","[638.0000000001164]","./assets/img/canyon/animals/lion.jpg","[""ArrowLeft""]","revaluation","canyon","26","{""ArrowUp,ArrowLeft"":26,""ArrowUp,ArrowRight"":10,""ArrowDown,ArrowLeft"":5,""ArrowDown,ArrowRight"":17}","true","ArrowUp,ArrowLeft","","","","original","1","8","","",""
"html-keyboard-response","225","967137","0.0-5.0-4.0-1.4","spark_pilot_2","7487","5","21","Female","","","","","","","","null","<div style=""font-size:60px;"">+</div>","null","fixation","","","","","","","","","","","9","","",""
"revaluation","226","971162","0.0-5.0-4.0-0.5","spark_pilot_2","7487","5","21","Female","","false","","","","","","[990.0000000001164]","./assets/img/canyon/animals/lion.jpg","[""ArrowLeft""]","revaluation","canyon","26","{""ArrowUp,ArrowLeft"":26,""ArrowUp,ArrowRight"":10,""ArrowDown,ArrowLeft"":5,""ArrowDown,ArrowRight"":17}","true","ArrowUp,ArrowLeft","","","","original","1","10","","",""
"html-keyboard-response","227","971663","0.0-5.0-4.0-1.5","spark_pilot_2","7487","5","21","Female","","","","","","","","null","<div style=""font-size:60px;"">+</div>","null","fixation","","","","","","","","","","","11","","",""
"revaluation","228","975688","0.0-5.0-4.0-0.6","spark_pilot_2","7487","5","21","Female","","false","","","","","","[745]","./assets/img/canyon/animals/giraffe.jpg","[""ArrowRight""]","revaluation","canyon","17","{""ArrowUp,ArrowLeft"":26,""ArrowUp,ArrowRight"":10,""ArrowDown,ArrowLeft"":5,""ArrowDown,ArrowRight"":17}","true","ArrowDown,ArrowRight","","","","original","1","12","","",""
"html-keyboard-response","229","976190","0.0-5.0-4.0-1.6","spark_pilot_2","7487","5","21","Female","","","","","","","","null","<div style=""font-size:60px;"">+</div>","null","fixation","","","","","","","","","","","13","","",""
"revaluation","230","980215","0.0-5.0-4.0-0.7","spark_pilot_2","7487","5","21","Female","","false","","","","","","[587]","./assets/img/canyon/animals/lion.jpg","[""ArrowLeft""]","revaluation","canyon","26","{""ArrowUp,ArrowLeft"":26,""ArrowUp,ArrowRight"":10,""ArrowDown,ArrowLeft"":5,""ArrowDown,ArrowRight"":17}","true","ArrowUp,ArrowLeft","","","","original","1","14","","",""
"html-keyboard-response","231","980716","0.0-5.0-4.0-1.7","spark_pilot_2","7487","5","21","Female","","","","","","","","null","<div style=""font-size:60px;"">+</div>","null","fixation","","","","","","","","","","","15","","",""
"revaluation","232","984742","0.0-5.0-4.0-0.8","spark_pilot_2","7487","5","21","Female","","false","","","","","","[661.0000000001164]","./assets/img/canyon/animals/giraffe.jpg","[""ArrowRight""]","revaluation","canyon","17","{""ArrowUp,ArrowLeft"":26,""ArrowUp,ArrowRight"":10,""ArrowDown,ArrowLeft"":5,""ArrowDown,ArrowRight"":17}","true","ArrowDown,ArrowRight","","","","original","1","16","","",""
"html-keyboard-response","233","985243","0.0-5.0-4.0-1.8","spark_pilot_2","7487","5","21","Female","","","","","","","","null","<div style=""font-size:60px;"">+</div>","null","fixation","","","","","","","","","","","17","","",""
"revaluation","234","989268","0.0-5.0-4.0-0.9","spark_pilot_2","7487","5","21","Female","","false","","","","","","[663.0000000001164]","./assets/img/canyon/animals/lion.jpg","[""ArrowLeft""]","revaluation","canyon","26","{""ArrowUp,ArrowLeft"":26,""ArrowUp,ArrowRight"":10,""ArrowDown,ArrowLeft"":5,""ArrowDown,ArrowRight"":17}","true","ArrowUp,ArrowLeft","","","","original","1","18","","",""
"html-keyboard-response","235","989770","0.0-5.0-4.0-1.9","spark_pilot_2","7487","5","21","Female","","","","","","","","null","<div style=""font-size:60px;"">+</div>","null","fixation","","","","","","","","","","","19","","",""
"revaluation","236","993795","0.0-5.0-4.0-0.10","spark_pilot_2","7487","5","21","Female","","false","","","","","","[1567]","./assets/img/canyon/animals/giraffe.jpg","[""ArrowRight""]","revaluation","canyon","17","{""ArrowUp,ArrowLeft"":26,""ArrowUp,ArrowRight"":10,""ArrowDown,ArrowLeft"":5,""ArrowDown,ArrowRight"":17}","true","ArrowDown,ArrowRight","","","","original","1","20","","",""
"html-keyboard-response","237","994297","0.0-5.0-4.0-1.10","spark_pilot_2","7487","5","21","Female","","","","","","","","null","<div style=""font-size:60px;"">+</div>","null","fixation","","","","","","","","","","","21","","",""
"revaluation","238","998323","0.0-5.0-4.0-0.11","spark_pilot_2","7487","5","21","Female","","false","","","","","","[500]","./assets/img/canyon/animals/lion.jpg","[""ArrowLeft""]","revaluation","canyon","26","{""ArrowUp,ArrowLeft"":26,""ArrowUp,ArrowRight"":10,""ArrowDown,ArrowLeft"":5,""ArrowDown,ArrowRight"":17}","true","ArrowUp,ArrowLeft","","","","original","1","22","","",""
"html-keyboard-response","239","998825","0.0-5.0-4.0-1.11","spark_pilot_2","7487","5","21","Female","","","","","","","","null","<div style=""font-size:60px;"">+</div>","null","fixation","","","","","","","","","","","23","","",""
"revaluation","240","1002850","0.0-5.0-4.0-0.12","spark_pilot_2","7487","5","21","Female","","false","","","","","","[721]","./assets/img/canyon/animals/lion.jpg","[""ArrowLeft""]","revaluation","canyon","26","{""ArrowUp,ArrowLeft"":26,""ArrowUp,ArrowRight"":10,""ArrowDown,ArrowLeft"":5,""ArrowDown,ArrowRight"":17}","true","ArrowUp,ArrowLeft","","","","original","1","24","","",""
"html-keyboard-response","241","1003351","0.0-5.0-4.0-1.12","spark_pilot_2","7487","5","21","Female","","","","","","","","null","<div style=""font-size:60px;"">+</div>","null","fixation","","","","","","","","","","","25","","",""
"revaluation","242","1007376","0.0-5.0-4.0-0.13","spark_pilot_2","7487","5","21","Female","","false","","","","","","[726]","./assets/img/canyon/animals/lion.jpg","[""ArrowLeft""]","revaluation","canyon","26","{""ArrowUp,ArrowLeft"":26,""ArrowUp,ArrowRight"":10,""ArrowDown,ArrowLeft"":5,""ArrowDown,ArrowRight"":17}","true","ArrowUp,ArrowLeft","","","","original","1","26","","",""
"html-keyboard-response","243","1007876","0.0-5.0-4.0-1.13","spark_pilot_2","7487","5","21","Female","","","","","","","","null","<div style=""font-size:60px;"">+</div>","null","fixation","","","","","","","","","","","27","","",""
"revaluation","244","1011901","0.0-5.0-4.0-0.14","spark_pilot_2","7487","5","21","Female","","false","","","","","","[759]","./assets/img/canyon/animals/giraffe.jpg","[""ArrowRight""]","revaluation","canyon","17","{""ArrowUp,ArrowLeft"":26,""ArrowUp,ArrowRight"":10,""ArrowDown,ArrowLeft"":5,""ArrowDown,ArrowRight"":17}","true","ArrowDown,ArrowRight","","","","original","1","28","","",""
"html-keyboard-response","245","1012402","0.0-5.0-4.0-1.14","spark_pilot_2","7487","5","21","Female","","","","","","","","null","<div style=""font-size:60px;"">+</div>","null","fixation","","","","","","","","","","","29","","",""
"revaluation","246","1016429","0.0-5.0-4.0-0.15","spark_pilot_2","7487","5","21","Female","","false","","","","","","[992]","./assets/img/canyon/animals/giraffe.jpg","[""ArrowRight""]","revaluation","canyon","17","{""ArrowUp,ArrowLeft"":26,""ArrowUp,ArrowRight"":10,""ArrowDown,ArrowLeft"":5,""ArrowDown,ArrowRight"":17}","true","ArrowDown,ArrowRight","","","","original","1","30","","",""
"html-keyboard-response","247","1016930","0.0-5.0-4.0-1.15","spark_pilot_2","7487","5","21","Female","","","","","","","","null","<div style=""font-size:60px;"">+</div>","null","fixation","","","","","","","","","","","31","","",""
"revaluation","248","1020955","0.0-5.0-4.0-0.16","spark_pilot_2","7487","5","21","Female","","false","","","","","","[656]","./assets/img/canyon/animals/giraffe.jpg","[""ArrowRight""]","revaluation","canyon","17","{""ArrowUp,ArrowLeft"":26,""ArrowUp,ArrowRight"":10,""ArrowDown,ArrowLeft"":5,""ArrowDown,ArrowRight"":17}","true","ArrowDown,ArrowRight","","","","original","1","32","","",""
"html-keyboard-response","249","1021457","0.0-5.0-4.0-1.16","spark_pilot_2","7487","5","21","Female","","","","","","","","null","<div style=""font-size:60px;"">+</div>","null","fixation","","","","","","","","","","","33","","",""
"revaluation","250","1025482","0.0-5.0-4.0-0.17","spark_pilot_2","7487","5","21","Female","","false","","","","","","[720]","./assets/img/canyon/animals/giraffe.jpg","[""ArrowRight""]","revaluation","canyon","17","{""ArrowUp,ArrowLeft"":26,""ArrowUp,ArrowRight"":10,""ArrowDown,ArrowLeft"":5,""ArrowDown,ArrowRight"":17}","true","ArrowDown,ArrowRight","","","","original","1","34","","",""
"html-keyboard-response","251","1025983","0.0-5.0-4.0-1.17","spark_pilot_2","7487","5","21","Female","","","","","","","","null","<div style=""font-size:60px;"">+</div>","null","fixation","","","","","","","","","","","35","","",""
"learning-instructions","252","1039756","0.0-5.0-5.0-0.0","spark_pilot_2","7487","5","21","Female","","","","","","","","2477.0000000001164","<p> Time to play the dot game! </p>
            <p> For one minute, click the red dots on the following screen as they appear. </p>
            <p><b> Don't look away, as you will earn bonus for clicking dots</b>. </p>","","instructions","","","","","","","","","","","","","",""
"revaluation","253","1099760","0.0-5.0-6.0-0.0","spark_pilot_2","7487","5","21","Female","","","","","","","","[48,92,68,88,64,57]","","","rest","","60","","","","","0","60000","","","","","",""
"learning-instructions","254","1107382","0.0-5.0-7.0-0.0","spark_pilot_2","7487","5","21","Female","","","","","","","","1520.0000000002328","<p> You have almost finished this part of the game! </p>
            <p> We are going to ask you to make a few more choices. </p>","","instructions","","","","","","","","","","","","","",""
"learning-instructions","255","1122751","0.0-5.0-7.0-0.1","spark_pilot_2","7487","5","21","Female","","","","","","","","1399","<p> First, you need to decide whether to go up or down. When you see each picture, use the arrow keys to make your choice. </p>
            <p><b>You will not see which animal you found, but try to get to the one that will give you the most treasure.</b></p>","","instructions","","","","","","","","","","","","","",""
"revaluation","256","1123598","0.0-5.0-8.0-0.0","spark_pilot_2","7487","5","21","Female","","false","","","","","","[826]","./assets/img/canyon/test/2.jpg","[""ArrowUp""]","first stage test","canyon","0","{""ArrowUp,ArrowLeft"":26,""ArrowUp,ArrowRight"":10,""ArrowDown,ArrowLeft"":5,""ArrowDown,ArrowRight"":17}","true","ArrowUp","false","","","original","1","","","",""
"html-keyboard-response","257","1124100","0.0-5.0-8.0-1.0","spark_pilot_2","7487","5","21","Female","","","","","","","","null","<div style=""font-size:60px;"">+</div>","null","fixation","","","","","","","","","","","","","",""
"revaluation","258","1125568","0.0-5.0-8.0-0.1","spark_pilot_2","7487","5","21","Female","","false","","","","","","[1444]","./assets/img/canyon/test/3.jpg","[""ArrowUp""]","first stage test","canyon","0","{""ArrowUp,ArrowLeft"":26,""ArrowUp,ArrowRight"":10,""ArrowDown,ArrowLeft"":5,""ArrowDown,ArrowRight"":17}","true","ArrowUp","false","","","original","1","","","",""
"html-keyboard-response","259","1126069","0.0-5.0-8.0-1.1","spark_pilot_2","7487","5","21","Female","","","","","","","","null","<div style=""font-size:60px;"">+</div>","null","fixation","","","","","","","","","","","","","",""
"revaluation","260","1127378","0.0-5.0-8.0-0.2","spark_pilot_2","7487","5","21","Female","","false","","","","","","[1285]","./assets/img/canyon/test/1.jpg","[""ArrowUp""]","first stage test","canyon","0","{""ArrowUp,ArrowLeft"":26,""ArrowUp,ArrowRight"":10,""ArrowDown,ArrowLeft"":5,""ArrowDown,ArrowRight"":17}","true","ArrowUp","false","","","original","1","","","",""
"html-keyboard-response","261","1127879","0.0-5.0-8.0-1.2","spark_pilot_2","7487","5","21","Female","","","","","","","","null","<div style=""font-size:60px;"">+</div>","null","fixation","","","","","","","","","","","","","",""
"revaluation","262","1128779","0.0-5.0-8.0-0.3","spark_pilot_2","7487","5","21","Female","","false","","","","","","[874]","./assets/img/canyon/test/0.jpg","[""ArrowUp""]","first stage test","canyon","0","{""ArrowUp,ArrowLeft"":26,""ArrowUp,ArrowRight"":10,""ArrowDown,ArrowLeft"":5,""ArrowDown,ArrowRight"":17}","true","ArrowUp","false","","","original","1","","","",""
"html-keyboard-response","263","1129280","0.0-5.0-8.0-1.3","spark_pilot_2","7487","5","21","Female","","","","","","","","null","<div style=""font-size:60px;"">+</div>","null","fixation","","","","","","","","","","","","","",""
"learning-instructions","264","1142270","0.0-5.0-9.0-0.0","spark_pilot_2","7487","5","21","Female","","","","","","","","1648","<p> Now you will see the animals again and can search their chests for treasure. </p>
            <p> This time, you will not see how much treasure you earned, but you will earn more bonus money for making better choices. </p>","","instructions","","","","","","","","","","","","","",""
"revaluation","265","1143116","0.0-5.0-10.0-0.0","spark_pilot_2","7487","5","21","Female","","false","","","","","","[824]","./assets/img/canyon/animals/lion.jpg","[""ArrowLeft""]","second stage test","canyon","0","{""ArrowUp,ArrowLeft"":26,""ArrowUp,ArrowRight"":10,""ArrowDown,ArrowLeft"":5,""ArrowDown,ArrowRight"":17}","true","ArrowUp,ArrowLeft","","","","original","1","","","",""
"html-keyboard-response","266","1143618","0.0-5.0-10.0-1.0","spark_pilot_2","7487","5","21","Female","","","","","","","","null","<div style=""font-size:60px;"">+</div>","null","fixation","","","","","","","","","","","","","",""
"revaluation","267","1145158","0.0-5.0-10.0-0.1","spark_pilot_2","7487","5","21","Female","","false","","","","","","[1516]","./assets/img/canyon/animals/lion.jpg","[""ArrowLeft""]","second stage test","canyon","0","{""ArrowUp,ArrowLeft"":26,""ArrowUp,ArrowRight"":10,""ArrowDown,ArrowLeft"":5,""ArrowDown,ArrowRight"":17}","true","ArrowUp,ArrowLeft","","","","original","1","","","",""
"html-keyboard-response","268","1145659","0.0-5.0-10.0-1.1","spark_pilot_2","7487","5","21","Female","","","","","","","","null","<div style=""font-size:60px;"">+</div>","null","fixation","","","","","","","","","","","","","",""
"revaluation","269","1147727","0.0-5.0-10.0-0.2","spark_pilot_2","7487","5","21","Female","","false","","","","","","[2045]","./assets/img/canyon/animals/lion.jpg","[""ArrowLeft""]","second stage test","canyon","0","{""ArrowUp,ArrowLeft"":26,""ArrowUp,ArrowRight"":10,""ArrowDown,ArrowLeft"":5,""ArrowDown,ArrowRight"":17}","true","ArrowUp,ArrowLeft","","","","original","1","","","",""
"html-keyboard-response","270","1148228","0.0-5.0-10.0-1.2","spark_pilot_2","7487","5","21","Female","","","","","","","","null","<div style=""font-size:60px;"">+</div>","null","fixation","","","","","","","","","","","","","",""
"revaluation","271","1149227","0.0-5.0-10.0-0.3","spark_pilot_2","7487","5","21","Female","","false","","","","","","[975]","./assets/img/canyon/animals/lion.jpg","[""ArrowLeft""]","second stage test","canyon","0","{""ArrowUp,ArrowLeft"":26,""ArrowUp,ArrowRight"":10,""ArrowDown,ArrowLeft"":5,""ArrowDown,ArrowRight"":17}","true","ArrowUp,ArrowLeft","","","","original","1","","","",""
"html-keyboard-response","272","1149728","0.0-5.0-10.0-1.3","spark_pilot_2","7487","5","21","Female","","","","","","","","null","<div style=""font-size:60px;"">+</div>","null","fixation","","","","","","","","","","","","","",""
"revaluation","273","1151057","0.0-5.0-10.0-0.4","spark_pilot_2","7487","5","21","Female","","false","","","","","","[1305.0000000002328]","./assets/img/canyon/animals/giraffe.jpg","[""ArrowRight""]","second stage test","canyon","0","{""ArrowUp,ArrowLeft"":26,""ArrowUp,ArrowRight"":10,""ArrowDown,ArrowLeft"":5,""ArrowDown,ArrowRight"":17}","true","ArrowDown,ArrowRight","","","","original","1","","","",""
"html-keyboard-response","274","1151557","0.0-5.0-10.0-1.4","spark_pilot_2","7487","5","21","Female","","","","","","","","null","<div style=""font-size:60px;"">+</div>","null","fixation","","","","","","","","","","","","","",""
"revaluation","275","1152256","0.0-5.0-10.0-0.5","spark_pilot_2","7487","5","21","Female","","false","","","","","","[675]","./assets/img/canyon/animals/giraffe.jpg","[""ArrowRight""]","second stage test","canyon","0","{""ArrowUp,ArrowLeft"":26,""ArrowUp,ArrowRight"":10,""ArrowDown,ArrowLeft"":5,""ArrowDown,ArrowRight"":17}","true","ArrowDown,ArrowRight","","","","original","1","","","",""
"html-keyboard-response","276","1152757","0.0-5.0-10.0-1.5","spark_pilot_2","7487","5","21","Female","","","","","","","","null","<div style=""font-size:60px;"">+</div>","null","fixation","","","","","","","","","","","","","",""
"revaluation","277","1153526","0.0-5.0-10.0-0.6","spark_pilot_2","7487","5","21","Female","","false","","","","","","[746]","./assets/img/canyon/animals/giraffe.jpg","[""ArrowRight""]","second stage test","canyon","0","{""ArrowUp,ArrowLeft"":26,""ArrowUp,ArrowRight"":10,""ArrowDown,ArrowLeft"":5,""ArrowDown,ArrowRight"":17}","true","ArrowDown,ArrowRight","","","","original","1","","","",""
"html-keyboard-response","278","1154027","0.0-5.0-10.0-1.6","spark_pilot_2","7487","5","21","Female","","","","","","","","null","<div style=""font-size:60px;"">+</div>","null","fixation","","","","","","","","","","","","","",""
"revaluation","279","1154826","0.0-5.0-10.0-0.7","spark_pilot_2","7487","5","21","Female","","false","","","","","","[775.0000000002328]","./assets/img/canyon/animals/giraffe.jpg","[""ArrowRight""]","second stage test","canyon","0","{""ArrowUp,ArrowLeft"":26,""ArrowUp,ArrowRight"":10,""ArrowDown,ArrowLeft"":5,""ArrowDown,ArrowRight"":17}","true","ArrowDown,ArrowRight","","","","original","1","","","",""
"html-keyboard-response","280","1155326","0.0-5.0-10.0-1.7","spark_pilot_2","7487","5","21","Female","","","","","","","","null","<div style=""font-size:60px;"">+</div>","null","fixation","","","","","","","","","","","","","",""
"learning-instructions","281","1162065","0.0-5.0-0.1-0.2","spark_pilot_2","7487","5","21","Female","","","","","","","","4043","<p> This time you are searching for treasure in the <b>ocean</b>.</p>","","instructions","","","","","","","","","","","","","",""
"learning-instructions","282","1183161","0.0-5.0-0.1-0.3","spark_pilot_2","7487","5","21","Female","","","","","","","","3843","<p><b>New</b> animals with <b>new</b> treasure chests live here. You need to explore to discover where the animal with the best treasure chest is.</p>
                    <p> Like before, once you figure out which animal has the chest with the most treasure, you should try to get to that animal and select that chest! </p>","","instructions","","","","","","","","","","","","","",""
"learning-instructions","283","1201815","0.0-5.0-1.1-0.1","spark_pilot_2","7487","5","21","Female","","","","","","","","3924","<p> Remember, when you see a picture of the place, use the up and down keys to <b>find an animal</b>.</p>
            <p> When you encounter an animal, you should use the left and right keys to <b>select a treasure chest</b>.</p>
            <p> Don't forget to look out for the robber! </p>","","instructions","","","","","","","","","","","","","",""
"revaluation","284","1207839","0.0-5.0-2.1-0.50","spark_pilot_2","7487","5","21","Female","","false","","","","","","[1210.9999999997672,748]","./assets/img/ocean/memory/36.jpg","[""ArrowUp"",""ArrowLeft""]","value training","ocean","23","{""ArrowUp,ArrowLeft"":23,""ArrowUp,ArrowRight"":10,""ArrowDown,ArrowLeft"":8,""ArrowDown,ArrowRight"":30}","false","ArrowUp,ArrowLeft","false","","","revaluation","2","0","","",""
"html-keyboard-response","285","1208341","0.0-5.0-2.1-1.50","spark_pilot_2","7487","5","21","Female","","","","","","","","null","<div style=""font-size:60px;"">+</div>","null","fixation","","","","","","","","","","","1","","",""
"revaluation","286","1214368","0.0-5.0-2.1-0.51","spark_pilot_2","7487","5","21","Female","","false","","","","","","[810,538]","./assets/img/ocean/memory/0.jpg","[""ArrowUp"",""ArrowRight""]","value training","ocean","10","{""ArrowUp,ArrowLeft"":23,""ArrowUp,ArrowRight"":10,""ArrowDown,ArrowLeft"":8,""ArrowDown,ArrowRight"":30}","false","ArrowUp,ArrowRight","false","","","revaluation","2","2","","",""
"html-keyboard-response","287","1214870","0.0-5.0-2.1-1.51","spark_pilot_2","7487","5","21","Female","","","","","","","","null","<div style=""font-size:60px;"">+</div>","null","fixation","","","","","","","","","","","3","","",""
"revaluation","288","1220896","0.0-5.0-2.1-0.52","spark_pilot_2","7487","5","21","Female","","false","","","","","","[731,539.0000000002328]","./assets/img/ocean/memory/37.jpg","[""ArrowDown"",""ArrowLeft""]","value training","ocean","8","{""ArrowUp,ArrowLeft"":23,""ArrowUp,ArrowRight"":10,""ArrowDown,ArrowLeft"":8,""ArrowDown,ArrowRight"":30}","false","ArrowDown,ArrowLeft","false","","","revaluation","2","4","","",""
"html-keyboard-response","289","1221398","0.0-5.0-2.1-1.52","spark_pilot_2","7487","5","21","Female","","","","","","","","null","<div style=""font-size:60px;"">+</div>","null","fixation","","","","","","","","","","","5","","",""
"revaluation","290","1227425","0.0-5.0-2.1-0.53","spark_pilot_2","7487","5","21","Female","","false","","","","","","[661,551]","./assets/img/ocean/memory/26.jpg","[""ArrowDown"",""ArrowRight""]","value training","ocean","30","{""ArrowUp,ArrowLeft"":23,""ArrowUp,ArrowRight"":10,""ArrowDown,ArrowLeft"":8,""ArrowDown,ArrowRight"":30}","true","ArrowDown,ArrowRight","false","","","revaluation","2","6","","",""
"html-keyboard-response","291","1227926","0.0-5.0-2.1-1.53","spark_pilot_2","7487","5","21","Female","","","","","","","","null","<div style=""font-size:60px;"">+</div>","null","fixation","","","","","","","","","","","7","","",""
"revaluation","292","1233953","0.0-5.0-2.1-0.54","spark_pilot_2","7487","5","21","Female","","false","","","","","","[1084,531.0000000002328]","./assets/img/ocean/memory/20.jpg","[""ArrowDown"",""ArrowRight""]","value training","ocean","30","{""ArrowUp,ArrowLeft"":23,""ArrowUp,ArrowRight"":10,""ArrowDown,ArrowLeft"":8,""ArrowDown,ArrowRight"":30}","true","ArrowDown,ArrowRight","false","","","revaluation","2","8","","",""
"html-keyboard-response","293","1234454","0.0-5.0-2.1-1.54","spark_pilot_2","7487","5","21","Female","","","","","","","","null","<div style=""font-size:60px;"">+</div>","null","fixation","","","","","","","","","","","9","","",""
"revaluation","294","1240481","0.0-5.0-2.1-0.55","spark_pilot_2","7487","5","21","Female","","false","","","","","","[593,462]","./assets/img/ocean/memory/8.jpg","[""ArrowDown"",""ArrowRight""]","value training","ocean","30","{""ArrowUp,ArrowLeft"":23,""ArrowUp,ArrowRight"":10,""ArrowDown,ArrowLeft"":8,""ArrowDown,ArrowRight"":30}","true","ArrowDown,ArrowRight","false","","","revaluation","2","10","","",""
"html-keyboard-response","295","1240982","0.0-5.0-2.1-1.55","spark_pilot_2","7487","5","21","Female","","","","","","","","null","<div style=""font-size:60px;"">+</div>","null","fixation","","","","","","","","","","","11","","",""
"revaluation","296","1245008","0.0-5.0-2.1-0.56","spark_pilot_2","7487","5","21","Female","","false","","","","","","[799]","./assets/img/ocean/catch/5.jpg","[""spaceBar""]","value training","ocean","0","{""ArrowUp,ArrowLeft"":23,""ArrowUp,ArrowRight"":10,""ArrowDown,ArrowLeft"":8,""ArrowDown,ArrowRight"":30}","true","spaceBar","true","","","revaluation","2","12","","",""
"html-keyboard-response","297","1245509","0.0-5.0-2.1-1.56","spark_pilot_2","7487","5","21","Female","","","","","","","","null","<div style=""font-size:60px;"">+</div>","null","fixation","","","","","","","","","","","13","","",""
"revaluation","298","1251537","0.0-5.0-2.1-0.57","spark_pilot_2","7487","5","21","Female","","false","","","","","","[588,466.00000000023283]","./assets/img/ocean/memory/37.jpg","[""ArrowDown"",""ArrowRight""]","value training","ocean","30","{""ArrowUp,ArrowLeft"":23,""ArrowUp,ArrowRight"":10,""ArrowDown,ArrowLeft"":8,""ArrowDown,ArrowRight"":30}","true","ArrowDown,ArrowRight","false","","","revaluation","2","14","","",""
"html-keyboard-response","299","1252038","0.0-5.0-2.1-1.57","spark_pilot_2","7487","5","21","Female","","","","","","","","null","<div style=""font-size:60px;"">+</div>","null","fixation","","","","","","","","","","","15","","",""
"revaluation","300","1258065","0.0-5.0-2.1-0.58","spark_pilot_2","7487","5","21","Female","","false","","","","","","[619,539]","./assets/img/ocean/memory/17.jpg","[""ArrowDown"",""ArrowRight""]","value training","ocean","30","{""ArrowUp,ArrowLeft"":23,""ArrowUp,ArrowRight"":10,""ArrowDown,ArrowLeft"":8,""ArrowDown,ArrowRight"":30}","true","ArrowDown,ArrowRight","false","","","revaluation","2","16","","",""
"html-keyboard-response","301","1258566","0.0-5.0-2.1-1.58","spark_pilot_2","7487","5","21","Female","","","","","","","","null","<div style=""font-size:60px;"">+</div>","null","fixation","","","","","","","","","","","17","","",""
"revaluation","302","1264593","0.0-5.0-2.1-0.59","spark_pilot_2","7487","5","21","Female","","false","","","","","","[911,660]","./assets/img/ocean/memory/32.jpg","[""ArrowDown"",""ArrowRight""]","value training","ocean","30","{""ArrowUp,ArrowLeft"":23,""ArrowUp,ArrowRight"":10,""ArrowDown,ArrowLeft"":8,""ArrowDown,ArrowRight"":30}","true","ArrowDown,ArrowRight","false","","","revaluation","2","18","","",""
"html-keyboard-response","303","1265094","0.0-5.0-2.1-1.59","spark_pilot_2","7487","5","21","Female","","","","","","","","null","<div style=""font-size:60px;"">+</div>","null","fixation","","","","","","","","","","","19","","",""
"revaluation","304","1271120","0.0-5.0-2.1-0.60","spark_pilot_2","7487","5","21","Female","","false","","","","","","[852.9999999997672,932]","./assets/img/ocean/memory/39.jpg","[""ArrowDown"",""ArrowRight""]","value training","ocean","30","{""ArrowUp,ArrowLeft"":23,""ArrowUp,ArrowRight"":10,""ArrowDown,ArrowLeft"":8,""ArrowDown,ArrowRight"":30}","true","ArrowDown,ArrowRight","false","","","revaluation","2","20","","",""
"html-keyboard-response","305","1271622","0.0-5.0-2.1-1.60","spark_pilot_2","7487","5","21","Female","","","","","","","","null","<div style=""font-size:60px;"">+</div>","null","fixation","","","","","","","","","","","21","","",""
"revaluation","306","1275648","0.0-5.0-2.1-0.61","spark_pilot_2","7487","5","21","Female","","false","","","","","","[608.9999999997672]","./assets/img/ocean/catch/1.jpg","[""spaceBar""]","value training","ocean","0","{""ArrowUp,ArrowLeft"":23,""ArrowUp,ArrowRight"":10,""ArrowDown,ArrowLeft"":8,""ArrowDown,ArrowRight"":30}","true","spaceBar","true","","","revaluation","2","22","","",""
"html-keyboard-response","307","1276149","0.0-5.0-2.1-1.61","spark_pilot_2","7487","5","21","Female","","","","","","","","null","<div style=""font-size:60px;"">+</div>","null","fixation","","","","","","","","","","","23","","",""
"revaluation","308","1282176","0.0-5.0-2.1-0.62","spark_pilot_2","7487","5","21","Female","","false","","","","","","[898,516]","./assets/img/ocean/memory/41.jpg","[""ArrowDown"",""ArrowRight""]","value training","ocean","30","{""ArrowUp,ArrowLeft"":23,""ArrowUp,ArrowRight"":10,""ArrowDown,ArrowLeft"":8,""ArrowDown,ArrowRight"":30}","true","ArrowDown,ArrowRight","false","","","revaluation","2","24","","",""
"html-keyboard-response","309","1282677","0.0-5.0-2.1-1.62","spark_pilot_2","7487","5","21","Female","","","","","","","","null","<div style=""font-size:60px;"">+</div>","null","fixation","","","","","","","","","","","25","","",""
