"trial_type","trial_index","time_elapsed","internal_node_id","task_version","subject_id","assigned_condition","age","gender","success","timeout","failed_images","failed_audio","failed_video","browser_interaction","rt","stimulus","response","task_part","environment","score","rewardMap","correct","fullState","isCatch","numberMissed","duration","condition","order","trial_num","key_press","ground_truth","bonus"
"pavlovia","0","1498","0.0-0.0","spark_pilot_2","7464","6","20","Male","","","","","","","","","","","","","","","","","","","","","","","",""
"preload","1","18299","0.0-1.0","spark_pilot_2","7464","6","20","Male","true","false","[]","[]","[]","[{""event"":""fullscreenenter"",""trial"":2,""time"":23705},{""event"":""blur"",""trial"":455,""time"":1805267},{""event"":""focus"",""trial"":455,""time"":1810179}]","","","","","","","","","","","","","","","","","",""
"fullscreen","2","24688","0.0-2.0","spark_pilot_2","7464","6","20","Male","true","","","","","","","","","","","","","","","","","","","","","","",""
"audio-button-response","3","26084","0.0-3.0-0.0-0.0","spark_pilot_2","7464","6","20","Male","","","","","","","1101","./assets/audio/audiotest/turtle.mp3","2","audio_test","","","","","","","","","","","","","",""
"learning-instructions","4","36802","0.0-3.0-1.0-0.0","spark_pilot_2","7464","6","20","Male","","","","","","","3738.7999999523163","<p> Welcome! Please remember to stay in fullscreen mode and don't click away from the experiment. </p>","","instructions","","","","","","","","","","","","","",""
"learning-instructions","5","50284","0.0-3.0-1.0-0.1","spark_pilot_2","7464","6","20","Male","","","","","","","5080.600000023842","<p> Today you will be playing a game to earn treasure. </p>
            <p> At the end of the experiment, you will earn a bonus based on how much treasure you find. </p>
            <img src='./assets/img/instructions/treasure.jpg' class='instructions-image'>","","instructions","","","","","","","","","","","","","",""
"learning-instructions","6","60326","0.0-3.0-1.0-0.2","spark_pilot_2","7464","6","20","Male","","","","","","","1782.8999999761581","<p> Animals have hidden treasure in treasure chests. </p>
            <p> You need to first find an animal and then choose which of their treasure chests to search. </p>
            <img src='./assets/img/space/animals/cat.jpg' class='instructions-image'>","","instructions","","","","","","","","","","","","","",""
"learning-instructions","7","76368","0.0-3.0-1.0-0.3","spark_pilot_2","7464","6","20","Male","","","","","","","2894.6999999284744","<p> In each round, you will search for treasure in a different place. In the real game, there will be two rounds. </p>
            <p> You will begin with a separate, practice round where you will search for treasure in outer space. </p>
            <img src='./assets/img/space/0.jpg' class='instructions-image'>","","instructions","","","","","","","","","","","","","",""
"learning-instructions","8","91002","0.0-3.0-1.0-0.4","spark_pilot_2","7464","6","20","Male","","","","","","","3218.5","<p> On every turn, you will see a picture of the place that you are in, but the specific image may be different each time. </p>
            <p> For example, both of these images mean you are in outer space. </p>
            <img src='./assets/img/instructions/outerspace.jpg' class='instructions-image'>","","instructions","","","","","","","","","","","","","",""
"learning-instructions","9","101483","0.0-3.0-1.0-0.5","spark_pilot_2","7464","6","20","Male","","","","","","","2660.2000000476837","<p> You need to decide which direction to travel in. </p>
            <p> You can choose between going <b>up or down</b> by using the arrow keys. </p>
            <img src='./assets/img/instructions/updown.jpg' class='instructions-image'>","","instructions","","","","","","","","","","","","","",""
"learning-instructions","10","115108","0.0-3.0-1.0-0.6","spark_pilot_2","7464","6","20","Male","","","","","","","4824","<p> You will have <b>2 seconds</b> to make your choice. </p>
            <p> If you do not make a choice within 2 seconds, you will not find an animal or earn treasure. </p>
            <img src='./assets/img/instructions/2seconds.jpg' class='instructions-image'>","","instructions","","","","","","","","","","","","","",""
"learning-instructions","11","124005","0.0-3.0-1.0-0.7","spark_pilot_2","7464","6","20","Male","","","","","","","1861.2999999523163","<p> Let’s try practicing that now! </p>
            <p> When you see a picture of the place you are in, press the <b>up</b> key to travel up. </p>
            <img src='./assets/img/instructions/pressUp.jpg' class='instructions-image'>","","instructions","","","","","","","","","","","","","",""
"revaluation","12","128028","0.0-3.0-2.0-0.0","spark_pilot_2","7464","6","20","Male","","false","","","","","[720.7999999523163]","./assets/img/space/0.jpg","[""ArrowUp""]","first stage practice","space","0","null","null","ArrowUp","false","","","","","","","",""
"html-keyboard-response","13","128537","0.0-3.0-2.0-1.0","spark_pilot_2","7464","6","20","Male","","","","","","","null","<div style=""font-size:60px;"">+</div>","null","fixation","","","","","","","","","","","","","",""
"revaluation","14","132553","0.0-3.0-2.0-0.1","spark_pilot_2","7464","6","20","Male","","false","","","","","[628]","./assets/img/space/1.jpg","[""ArrowUp""]","first stage practice","space","0","null","null","ArrowUp","false","","","","","","","",""
"html-keyboard-response","15","133068","0.0-3.0-2.0-1.1","spark_pilot_2","7464","6","20","Male","","","","","","","null","<div style=""font-size:60px;"">+</div>","null","fixation","","","","","","","","","","","","","",""
"revaluation","16","137091","0.0-3.0-2.0-0.2","spark_pilot_2","7464","6","20","Male","","false","","","","","[320.09999990463257]","./assets/img/space/2.jpg","[""ArrowUp""]","first stage practice","space","0","null","null","ArrowUp","false","","","","","","","",""
"html-keyboard-response","17","137593","0.0-3.0-2.0-1.2","spark_pilot_2","7464","6","20","Male","","","","","","","null","<div style=""font-size:60px;"">+</div>","null","fixation","","","","","","","","","","","","","",""
"learning-instructions","18","176039","0.0-3.0-3.0-0.0","spark_pilot_2","7464","6","20","Male","","","","","","","33756.09999990463","<p> Great job! Now try pressing the <b>down</b> key to travel down. </p>
            <img src='./assets/img/instructions/pressDown.jpg' class='instructions-image'>","","instructions","","","","","","","","","","","","","",""
"revaluation","19","180043","0.0-3.0-4.0-0.0","spark_pilot_2","7464","6","20","Male","","true","","","","","[]","./assets/img/space/3.jpg","[]","first stage practice","space","-5","null","null","","false","","","","","","","",""
"html-keyboard-response","20","180545","0.0-3.0-4.0-1.0","spark_pilot_2","7464","6","20","Male","","","","","","","null","<div style=""font-size:60px;"">+</div>","null","fixation","","","","","","","","","","","","","",""
"revaluation","21","184550","0.0-3.0-4.0-0.1","spark_pilot_2","7464","6","20","Male","","false","","","","","[357.60000002384186]","./assets/img/space/4.jpg","[""ArrowDown""]","first stage practice","space","0","null","null","ArrowDown","false","","","","","","","",""
"html-keyboard-response","22","185052","0.0-3.0-4.0-1.1","spark_pilot_2","7464","6","20","Male","","","","","","","null","<div style=""font-size:60px;"">+</div>","null","fixation","","","","","","","","","","","","","",""
"revaluation","23","189055","0.0-3.0-4.0-0.2","spark_pilot_2","7464","6","20","Male","","false","","","","","[275.8000000715256]","./assets/img/space/5.jpg","[""ArrowDown""]","first stage practice","space","0","null","null","ArrowDown","false","","","","","","","",""
"html-keyboard-response","24","189557","0.0-3.0-4.0-1.2","spark_pilot_2","7464","6","20","Male","","","","","","","null","<div style=""font-size:60px;"">+</div>","null","fixation","","","","","","","","","","","","","",""
"learning-instructions","25","201128","0.0-3.0-5.0-0.0","spark_pilot_2","7464","6","20","Male","","","","","","","1487.8999999761581","<p> The animals don’t move, so the animal in the upper part of a place will stay in the upper part of a place, and the animal in the lower part of a place will stay in the lower part of a place. </p>","","instructions","","","","","","","","","","","","","",""
"learning-instructions","26","211951","0.0-3.0-5.0-0.1","spark_pilot_2","7464","6","20","Male","","","","","","","1690","<p> Each animal has two treasure chests for you to choose from. </p>
            <p> The amount of treasure in each chest can range from <b> 0 to 40 pieces.</b></p>","","instructions","","","","","","","","","","","","","",""
"learning-instructions","27","224808","0.0-3.0-5.0-0.2","spark_pilot_2","7464","6","20","Male","","","","","","","1686.7000000476837","<p> You should decide which chest to search for treasure by using the <b>left</b> and <b>right</b> arrow keys. </p>
            <p><b> Pay attention to which animal is on the screen, as the animals have different treasure chests. </b></p>
            <img src='./assets/img/instructions/leftright.jpg' class='instructions-image'>","","instructions","","","","","","","","","","","","","",""
"learning-instructions","28","233014","0.0-3.0-5.0-0.3","spark_pilot_2","7464","6","20","Male","","","","","","","1853.7000000476837","<p> Let’s try practicing that now. </p>
            <p> When you see an animal, choose which chest to search for treasure. </p>
            <img src='./assets/img/instructions/chooseChest.jpg' class='instructions-image'>","","instructions","","","","","","","","","","","","","",""
"revaluation","29","237039","0.0-3.0-6.0-0.0","spark_pilot_2","7464","6","20","Male","","false","","","","","[1070.6000000238419]","./assets/img/space/animals/cat.jpg","[""ArrowLeft""]","second stage practice","space","3","{""ArrowUp,ArrowLeft"":3,""ArrowUp,ArrowRight"":36,""ArrowDown,ArrowLeft"":15,""ArrowDown,ArrowRight"":23}","false","ArrowUp,ArrowLeft","","","","","","","","",""
"html-keyboard-response","30","237555","0.0-3.0-6.0-1.0","spark_pilot_2","7464","6","20","Male","","","","","","","null","<div style=""font-size:60px;"">+</div>","null","fixation","","","","","","","","","","","","","",""
"revaluation","31","241575","0.0-3.0-6.0-0.1","spark_pilot_2","7464","6","20","Male","","false","","","","","[608.6000000238419]","./assets/img/space/animals/cat.jpg","[""ArrowRight""]","second stage practice","space","36","{""ArrowUp,ArrowLeft"":3,""ArrowUp,ArrowRight"":36,""ArrowDown,ArrowLeft"":15,""ArrowDown,ArrowRight"":23}","true","ArrowUp,ArrowRight","","","","","","","","",""
"html-keyboard-response","32","242092","0.0-3.0-6.0-1.1","spark_pilot_2","7464","6","20","Male","","","","","","","null","<div style=""font-size:60px;"">+</div>","null","fixation","","","","","","","","","","","","","",""
"revaluation","33","246106","0.0-3.0-6.0-0.2","spark_pilot_2","7464","6","20","Male","","false","","","","","[1254.7000000476837]","./assets/img/space/animals/rabbit.jpg","[""ArrowRight""]","second stage practice","space","23","{""ArrowUp,ArrowLeft"":3,""ArrowUp,ArrowRight"":36,""ArrowDown,ArrowLeft"":15,""ArrowDown,ArrowRight"":23}","true","ArrowDown,ArrowRight","","","","","","","","",""
"html-keyboard-response","34","246620","0.0-3.0-6.0-1.2","spark_pilot_2","7464","6","20","Male","","","","","","","null","<div style=""font-size:60px;"">+</div>","null","fixation","","","","","","","","","","","","","",""
"revaluation","35","250632","0.0-3.0-6.0-0.3","spark_pilot_2","7464","6","20","Male","","false","","","","","[520.5]","./assets/img/space/animals/rabbit.jpg","[""ArrowRight""]","second stage practice","space","23","{""ArrowUp,ArrowLeft"":3,""ArrowUp,ArrowRight"":36,""ArrowDown,ArrowLeft"":15,""ArrowDown,ArrowRight"":23}","true","ArrowDown,ArrowRight","","","","","","","","",""
"html-keyboard-response","36","251146","0.0-3.0-6.0-1.3","spark_pilot_2","7464","6","20","Male","","","","","","","null","<div style=""font-size:60px;"">+</div>","null","fixation","","","","","","","","","","","","","",""
"learning-instructions","37","269046","0.0-3.0-7.0-0.0","spark_pilot_2","7464","6","20","Male","","","","","","","1097","<p> Great job. Now let’s try putting it together. </p>
            <p> On each turn, you will first see a picture to remind you of the place you are in, and you need to choose whether to go up or down. </p>
            <p> Then you will see an animal and choose which of its chests to search for treasure. </p>","","instructions","","","","","","","","","","","","","",""
"learning-instructions","38","277850","0.0-3.0-7.0-0.1","spark_pilot_2","7464","6","20","Male","","","","","","","550.2999999523163","<p> When you choose whether to go up or down, try to go to the animal with the chest with the most treasure. </p>
            <p> Try practicing that now! </p>","","instructions","","","","","","","","","","","","","",""
"revaluation","39","283886","0.0-3.0-8.0-0.0","spark_pilot_2","7464","6","20","Male","","false","","","","","[457.7999999523163,540.6000000238419]","./assets/img/space/6.jpg","[""ArrowUp"",""ArrowRight""]","full practice","space","36","{""ArrowUp,ArrowLeft"":3,""ArrowUp,ArrowRight"":36,""ArrowDown,ArrowLeft"":15,""ArrowDown,ArrowRight"":23}","true","ArrowUp,ArrowRight","false","","","","","","","",""
"html-keyboard-response","40","284390","0.0-3.0-8.0-1.0","spark_pilot_2","7464","6","20","Male","","","","","","","null","<div style=""font-size:60px;"">+</div>","null","fixation","","","","","","","","","","","","","",""
"revaluation","41","290420","0.0-3.0-8.0-0.1","spark_pilot_2","7464","6","20","Male","","false","","","","","[850.1000000238419,751.1000000238419]","./assets/img/space/7.jpg","[""ArrowDown"",""ArrowRight""]","full practice","space","23","{""ArrowUp,ArrowLeft"":3,""ArrowUp,ArrowRight"":36,""ArrowDown,ArrowLeft"":15,""ArrowDown,ArrowRight"":23}","false","ArrowDown,ArrowRight","false","","","","","","","",""
"html-keyboard-response","42","290933","0.0-3.0-8.0-1.1","spark_pilot_2","7464","6","20","Male","","","","","","","null","<div style=""font-size:60px;"">+</div>","null","fixation","","","","","","","","","","","","","",""
"revaluation","43","296965","0.0-3.0-8.0-0.2","spark_pilot_2","7464","6","20","Male","","false","","","","","[714.5,670.3999999761581]","./assets/img/space/8.jpg","[""ArrowDown"",""ArrowLeft""]","full practice","space","15","{""ArrowUp,ArrowLeft"":3,""ArrowUp,ArrowRight"":36,""ArrowDown,ArrowLeft"":15,""ArrowDown,ArrowRight"":23}","false","ArrowDown,ArrowLeft","false","","","","","","","",""
"html-keyboard-response","44","297482","0.0-3.0-8.0-1.2","spark_pilot_2","7464","6","20","Male","","","","","","","null","<div style=""font-size:60px;"">+</div>","null","fixation","","","","","","","","","","","","","",""
"revaluation","45","303514","0.0-3.0-8.0-0.3","spark_pilot_2","7464","6","20","Male","","false","","","","","[735.3999999761581,542]","./assets/img/space/9.jpg","[""ArrowUp"",""ArrowRight""]","full practice","space","36","{""ArrowUp,ArrowLeft"":3,""ArrowUp,ArrowRight"":36,""ArrowDown,ArrowLeft"":15,""ArrowDown,ArrowRight"":23}","true","ArrowUp,ArrowRight","false","","","","","","","",""
"html-keyboard-response","46","304027","0.0-3.0-8.0-1.3","spark_pilot_2","7464","6","20","Male","","","","","","","null","<div style=""font-size:60px;"">+</div>","null","fixation","","","","","","","","","","","","","",""
"revaluation","47","310045","0.0-3.0-8.0-0.4","spark_pilot_2","7464","6","20","Male","","false","","","","","[814.5,417.10000002384186]","./assets/img/space/10.jpg","[""ArrowUp"",""ArrowRight""]","full practice","space","36","{""ArrowUp,ArrowLeft"":3,""ArrowUp,ArrowRight"":36,""ArrowDown,ArrowLeft"":15,""ArrowDown,ArrowRight"":23}","true","ArrowUp,ArrowRight","false","","","","","","","",""
"html-keyboard-response","48","310546","0.0-3.0-8.0-1.4","spark_pilot_2","7464","6","20","Male","","","","","","","null","<div style=""font-size:60px;"">+</div>","null","fixation","","","","","","","","","","","","","",""
"learning-instructions","49","322339","0.0-3.0-9.0-0.0","spark_pilot_2","7464","6","20","Male","","","","","","","1509.6999999284744","<p> One last thing: sometimes, you will see a robber. The robber can be anywhere in the picture. </p>
            <p> If you do not stop them, you will lose treasure. </p>
            <img src='./assets/img/instructions/robber.jpg' class='instructions-image'>","","instructions","","","","","","","","","","","","","",""
"learning-instructions","50","330440","0.0-3.0-9.0-0.1","spark_pilot_2","7464","6","20","Male","","","","","","","940.6999999284744","<p> If you see the robber, you should <b>press the space bar</b> rather than using the arrow keys. </p>
            <p> Try practicing that now! </p>","","instructions","","","","","","","","","","","","","",""
"revaluation","51","334460","0.0-3.0-10.0-0.0","spark_pilot_2","7464","6","20","Male","","false","","","","","[698]","./assets/img/space/catch/0.jpg","[""spaceBar""]","catch practice","space","0","{""ArrowUp,ArrowLeft"":3,""ArrowUp,ArrowRight"":36,""ArrowDown,ArrowLeft"":15,""ArrowDown,ArrowRight"":23}","true","spaceBar","true","","","","","","","",""
"html-keyboard-response","52","334975","0.0-3.0-10.0-1.0","spark_pilot_2","7464","6","20","Male","","","","","","","null","<div style=""font-size:60px;"">+</div>","null","fixation","","","","","","","","","","","","","",""
"revaluation","53","339006","0.0-3.0-10.0-0.1","spark_pilot_2","7464","6","20","Male","","false","","","","","[468.89999997615814]","./assets/img/space/catch/1.jpg","[""spaceBar""]","catch practice","space","0","{""ArrowUp,ArrowLeft"":3,""ArrowUp,ArrowRight"":36,""ArrowDown,ArrowLeft"":15,""ArrowDown,ArrowRight"":23}","true","spaceBar","true","","","","","","","",""
"html-keyboard-response","54","339521","0.0-3.0-10.0-1.1","spark_pilot_2","7464","6","20","Male","","","","","","","null","<div style=""font-size:60px;"">+</div>","null","fixation","","","","","","","","","","","","","",""
"revaluation","55","343541","0.0-3.0-10.0-0.2","spark_pilot_2","7464","6","20","Male","","false","","","","","[653.1999999284744]","./assets/img/space/catch/2.jpg","[""spaceBar""]","catch practice","space","0","{""ArrowUp,ArrowLeft"":3,""ArrowUp,ArrowRight"":36,""ArrowDown,ArrowLeft"":15,""ArrowDown,ArrowRight"":23}","true","spaceBar","true","","","","","","","",""
"html-keyboard-response","56","344044","0.0-3.0-10.0-1.2","spark_pilot_2","7464","6","20","Male","","","","","","","null","<div style=""font-size:60px;"">+</div>","null","fixation","","","","","","","","","","","","","",""
"learning-instructions","57","359452","0.0-3.0-11.0-0.0","spark_pilot_2","7464","6","20","Male","","","","","","","1832.2999999523163","<p> After you explore a place to find treasure, it will be time to play a different game. </p>
            <p> During this game, red dots will appear on the screen and fall down slowly. </p>
            <p><b> You must click on them before they reach the bottom. </b></p>
            <img src='./assets/img/instructions/dotGame.jpg' class='instructions-image'>","","instructions","","","","","","","","","","","","","",""
"learning-instructions","58","365600","0.0-3.0-11.0-0.1","spark_pilot_2","7464","6","20","Male","","","","","","","481.60000002384186","<p> For every dot you click, you will earn additional treasure. </p>
            <p> Let’s try practicing that now. </p>","","instructions","","","","","","","","","","","","","",""
"revaluation","59","380606","0.0-3.0-12.0-0.0","spark_pilot_2","7464","6","20","Male","","","","","","","[89]","","","rest practice","","10","","","","","0","15000","","","","","",""
"learning-instructions","60","387138","0.0-3.0-13.0-0.0-0.0","spark_pilot_2","7464","6","20","Male","","","","","","","1289","<p> Now, you will practice a shortened version of the game to get a sense of how it all fits together. </p>","","instructions","","","","","","","","","","","","","",""
"learning-instructions","61","390898","0.0-3.0-13.0-0.0-0.1","spark_pilot_2","7464","6","20","Male","","","","","","","579.6999999284744","<p>This time you are searching for treasure in outer space.</p>","","instructions","","","","","","","","","","","","","",""
"learning-instructions","62","406051","0.0-3.0-13.0-1.0-0.0","spark_pilot_2","7464","6","20","Male","","","","","","","392.1999999284744","<p> Remember, when you see a picture of the place, use the up and down keys to <b>find an animal</b>.</p>
            <p> When you encounter an animal, you should use the left and right keys to <b>select a treasure chest</b>.</p>
            <p> Don't forget to look out for the robber! </p>","","instructions","","","","","","","","","","","","","",""
"revaluation","63","412077","0.0-3.0-13.0-2.0-0.0","spark_pilot_2","7464","6","20","Male","","false","","","","","[1348.5999999046326,592.3999999761581]","./assets/img/space/11.jpg","[""ArrowUp"",""ArrowRight""]","practice block","space","36","{""ArrowUp,ArrowLeft"":3,""ArrowUp,ArrowRight"":36,""ArrowDown,ArrowLeft"":15,""ArrowDown,ArrowRight"":23}","true","ArrowUp,ArrowRight","false","","","","","","","",""
"html-keyboard-response","64","412590","0.0-3.0-13.0-2.0-1.0","spark_pilot_2","7464","6","20","Male","","","","","","","null","<div style=""font-size:60px;"">+</div>","null","fixation","","","","","","","","","","","","","",""
"revaluation","65","418620","0.0-3.0-13.0-2.0-0.1","spark_pilot_2","7464","6","20","Male","","false","","","","","[920.7000000476837,942.4000000953674]","./assets/img/space/12.jpg","[""ArrowDown"",""ArrowRight""]","practice block","space","23","{""ArrowUp,ArrowLeft"":3,""ArrowUp,ArrowRight"":36,""ArrowDown,ArrowLeft"":15,""ArrowDown,ArrowRight"":23}","false","ArrowDown,ArrowRight","false","","","","","","","",""
"html-keyboard-response","66","419121","0.0-3.0-13.0-2.0-1.1","spark_pilot_2","7464","6","20","Male","","","","","","","null","<div style=""font-size:60px;"">+</div>","null","fixation","","","","","","","","","","","","","",""
"revaluation","67","425156","0.0-3.0-13.0-2.0-0.2","spark_pilot_2","7464","6","20","Male","","false","","","","","[602,463.8000000715256]","./assets/img/space/13.jpg","[""ArrowUp"",""ArrowRight""]","practice block","space","36","{""ArrowUp,ArrowLeft"":3,""ArrowUp,ArrowRight"":36,""ArrowDown,ArrowLeft"":15,""ArrowDown,ArrowRight"":23}","true","ArrowUp,ArrowRight","false","","","","","","","",""
"html-keyboard-response","68","425658","0.0-3.0-13.0-2.0-1.2","spark_pilot_2","7464","6","20","Male","","","","","","","null","<div style=""font-size:60px;"">+</div>","null","fixation","","","","","","","","","","","","","",""
"revaluation","69","431686","0.0-3.0-13.0-2.0-0.3","spark_pilot_2","7464","6","20","Male","","false","","","","","[951.8999999761581,577.3000000715256]","./assets/img/space/14.jpg","[""ArrowDown"",""ArrowRight""]","practice block","space","23","{""ArrowUp,ArrowLeft"":3,""ArrowUp,ArrowRight"":36,""ArrowDown,ArrowLeft"":15,""ArrowDown,ArrowRight"":23}","false","ArrowDown,ArrowRight","false","","","","","","","",""
"html-keyboard-response","70","432190","0.0-3.0-13.0-2.0-1.3","spark_pilot_2","7464","6","20","Male","","","","","","","null","<div style=""font-size:60px;"">+</div>","null","fixation","","","","","","","","","","","","","",""
"revaluation","71","438198","0.0-3.0-13.0-2.0-0.4","spark_pilot_2","7464","6","20","Male","","false","","","","","[384.39999997615814,480.60000002384186]","./assets/img/space/11.jpg","[""ArrowUp"",""ArrowRight""]","practice block","space","36","{""ArrowUp,ArrowLeft"":3,""ArrowUp,ArrowRight"":36,""ArrowDown,ArrowLeft"":15,""ArrowDown,ArrowRight"":23}","true","ArrowUp,ArrowRight","false","","","","","","","",""
"html-keyboard-response","72","438700","0.0-3.0-13.0-2.0-1.4","spark_pilot_2","7464","6","20","Male","","","","","","","null","<div style=""font-size:60px;"">+</div>","null","fixation","","","","","","","","","","","","","",""
"revaluation","73","444705","0.0-3.0-13.0-2.0-0.5","spark_pilot_2","7464","6","20","Male","","false","","","","","[409.7000000476837,353.5]","./assets/img/space/12.jpg","[""ArrowUp"",""ArrowRight""]","practice block","space","36","{""ArrowUp,ArrowLeft"":3,""ArrowUp,ArrowRight"":36,""ArrowDown,ArrowLeft"":15,""ArrowDown,ArrowRight"":23}","true","ArrowUp,ArrowRight","false","","","","","","","",""
"html-keyboard-response","74","445207","0.0-3.0-13.0-2.0-1.5","spark_pilot_2","7464","6","20","Male","","","","","","","null","<div style=""font-size:60px;"">+</div>","null","fixation","","","","","","","","","","","","","",""
"revaluation","75","451214","0.0-3.0-13.0-2.0-0.6","spark_pilot_2","7464","6","20","Male","","false","","","","","[1443.2999999523163,422.89999997615814]","./assets/img/space/13.jpg","[""ArrowUp"",""ArrowRight""]","practice block","space","36","{""ArrowUp,ArrowLeft"":3,""ArrowUp,ArrowRight"":36,""ArrowDown,ArrowLeft"":15,""ArrowDown,ArrowRight"":23}","true","ArrowUp,ArrowRight","false","","","","","","","",""
"html-keyboard-response","76","451715","0.0-3.0-13.0-2.0-1.6","spark_pilot_2","7464","6","20","Male","","","","","","","null","<div style=""font-size:60px;"">+</div>","null","fixation","","","","","","","","","","","","","",""
"revaluation","77","457720","0.0-3.0-13.0-2.0-0.7","spark_pilot_2","7464","6","20","Male","","false","","","","","[1022.8000000715256,372]","./assets/img/space/14.jpg","[""ArrowUp"",""ArrowRight""]","practice block","space","36","{""ArrowUp,ArrowLeft"":3,""ArrowUp,ArrowRight"":36,""ArrowDown,ArrowLeft"":15,""ArrowDown,ArrowRight"":23}","true","ArrowUp,ArrowRight","false","","","","","","","",""
"html-keyboard-response","78","458221","0.0-3.0-13.0-2.0-1.7","spark_pilot_2","7464","6","20","Male","","","","","","","null","<div style=""font-size:60px;"">+</div>","null","fixation","","","","","","","","","","","","","",""
"revaluation","79","462226","0.0-3.0-13.0-2.0-0.8","spark_pilot_2","7464","6","20","Male","","false","","","","","[716]","./assets/img/space/catch/3.jpg","[""spaceBar""]","practice block","space","0","{""ArrowUp,ArrowLeft"":3,""ArrowUp,ArrowRight"":36,""ArrowDown,ArrowLeft"":15,""ArrowDown,ArrowRight"":23}","true","spaceBar","true","","","","","","","",""
"html-keyboard-response","80","462728","0.0-3.0-13.0-2.0-1.8","spark_pilot_2","7464","6","20","Male","","","","","","","null","<div style=""font-size:60px;"">+</div>","null","fixation","","","","","","","","","","","","","",""
"learning-instructions","81","476731","0.0-3.0-13.0-3.0-0.0","spark_pilot_2","7464","6","20","Male","","","","","","","837","<p> Now, you will travel with a friend who will choose whether you go up or down first. </p>
            <p> On these turns, you will just see the animal that they found. You will still get to choose which chest to search for treasure.</p>","","instructions","","","","","","","","","","","","","",""
"revaluation","82","480748","0.0-3.0-13.0-4.0-0.0","spark_pilot_2","7464","6","20","Male","","false","","","","","[761.3999999761581]","./assets/img/space/animals/cat.jpg","[""ArrowRight""]","practice block","space","36","{""ArrowUp,ArrowLeft"":3,""ArrowUp,ArrowRight"":36,""ArrowDown,ArrowLeft"":15,""ArrowDown,ArrowRight"":23}","true","ArrowUp,ArrowRight","","","","","","","","",""
"html-keyboard-response","83","481251","0.0-3.0-13.0-4.0-1.0","spark_pilot_2","7464","6","20","Male","","","","","","","null","<div style=""font-size:60px;"">+</div>","null","fixation","","","","","","","","","","","","","",""
"revaluation","84","485258","0.0-3.0-13.0-4.0-0.1","spark_pilot_2","7464","6","20","Male","","false","","","","","[455]","./assets/img/space/animals/rabbit.jpg","[""ArrowRight""]","practice block","space","23","{""ArrowUp,ArrowLeft"":3,""ArrowUp,ArrowRight"":36,""ArrowDown,ArrowLeft"":15,""ArrowDown,ArrowRight"":23}","true","ArrowDown,ArrowRight","","","","","","","","",""
"html-keyboard-response","85","485760","0.0-3.0-13.0-4.0-1.1","spark_pilot_2","7464","6","20","Male","","","","","","","null","<div style=""font-size:60px;"">+</div>","null","fixation","","","","","","","","","","","","","",""
"revaluation","86","489787","0.0-3.0-13.0-4.0-0.2","spark_pilot_2","7464","6","20","Male","","false","","","","","[382.2999999523163]","./assets/img/space/animals/cat.jpg","[""ArrowRight""]","practice block","space","36","{""ArrowUp,ArrowLeft"":3,""ArrowUp,ArrowRight"":36,""ArrowDown,ArrowLeft"":15,""ArrowDown,ArrowRight"":23}","true","ArrowUp,ArrowRight","","","","","","","","",""
"html-keyboard-response","87","490300","0.0-3.0-13.0-4.0-1.2","spark_pilot_2","7464","6","20","Male","","","","","","","null","<div style=""font-size:60px;"">+</div>","null","fixation","","","","","","","","","","","","","",""
"revaluation","88","494318","0.0-3.0-13.0-4.0-0.3","spark_pilot_2","7464","6","20","Male","","false","","","","","[486]","./assets/img/space/animals/rabbit.jpg","[""ArrowRight""]","practice block","space","23","{""ArrowUp,ArrowLeft"":3,""ArrowUp,ArrowRight"":36,""ArrowDown,ArrowLeft"":15,""ArrowDown,ArrowRight"":23}","true","ArrowDown,ArrowRight","","","","","","","","",""
"html-keyboard-response","89","494822","0.0-3.0-13.0-4.0-1.3","spark_pilot_2","7464","6","20","Male","","","","","","","null","<div style=""font-size:60px;"">+</div>","null","fixation","","","","","","","","","","","","","",""
"learning-instructions","90","502699","0.0-3.0-13.0-5.0-0.0","spark_pilot_2","7464","6","20","Male","","","","","","","514.8999999761581","<p> Time to play the dot game! </p>
            <p> For 15 seconds, click the red dots on the following screen as they appear. </p>","","instructions","","","","","","","","","","","","","",""
"revaluation","91","517700","0.0-3.0-13.0-6.0-0.0","spark_pilot_2","7464","6","20","Male","","","","","","","[64,76]","","","rest practice","","20","","","","","0","15000","","","","","",""
"learning-instructions","92","524864","0.0-3.0-13.0-7.0-0.0","spark_pilot_2","7464","6","20","Male","","","","","","","1040.1000000238419","<p> You have almost finished this part of the game! </p>
            <p> We are going to ask you to make a few more choices. </p>","","instructions","","","","","","","","","","","","","",""
"learning-instructions","93","539395","0.0-3.0-13.0-7.0-0.1","spark_pilot_2","7464","6","20","Male","","","","","","","531","<p> First, you need to decide whether to go up or down. When you see each picture, use the arrow keys to make your choice. </p>
            <p><b>You will not see which animal you found, but try to get to the one that will give you the most treasure.</b></p>","","instructions","","","","","","","","","","","","","",""
"revaluation","94","540367","0.0-3.0-13.0-8.0","spark_pilot_2","7464","6","20","Male","","false","","","","","[971.2000000476837]","./assets/img/space/15.jpg","[""ArrowUp""]","practice block","space","0","{""ArrowUp,ArrowLeft"":3,""ArrowUp,ArrowRight"":36,""ArrowDown,ArrowLeft"":15,""ArrowDown,ArrowRight"":23}","true","ArrowUp","false","","","","","","","",""
"html-keyboard-response","95","540872","0.0-3.0-13.0-9.0","spark_pilot_2","7464","6","20","Male","","","","","","","null","<div style=""font-size:60px;"">+</div>","null","fixation","","","","","","","","","","","","","",""
"learning-instructions","96","552702","0.0-3.0-13.0-10.0-0.0","spark_pilot_2","7464","6","20","Male","","","","","","","468.2999999523163","<p> Now you will see the animals again and can search their chests for treasure. </p>
            <p> This time, you will not see how much treasure you earned, but you will earn more bonus money for making better choices. </p>","","instructions","","","","","","","","","","","","","",""
"revaluation","97","553524","0.0-3.0-13.0-11.0-0.0","spark_pilot_2","7464","6","20","Male","","false","","","","","[820.7000000476837]","./assets/img/space/animals/cat.jpg","[""ArrowRight""]","practice block","space","0","{""ArrowUp,ArrowLeft"":3,""ArrowUp,ArrowRight"":36,""ArrowDown,ArrowLeft"":15,""ArrowDown,ArrowRight"":23}","true","ArrowUp,ArrowRight","","","","","","","","",""
"html-keyboard-response","98","554037","0.0-3.0-13.0-11.0-1.0","spark_pilot_2","7464","6","20","Male","","","","","","","null","<div style=""font-size:60px;"">+</div>","null","fixation","","","","","","","","","","","","","",""
"revaluation","99","554791","0.0-3.0-13.0-11.0-0.1","spark_pilot_2","7464","6","20","Male","","false","","","","","[752.1000000238419]","./assets/img/space/animals/rabbit.jpg","[""ArrowRight""]","practice block","space","0","{""ArrowUp,ArrowLeft"":3,""ArrowUp,ArrowRight"":36,""ArrowDown,ArrowLeft"":15,""ArrowDown,ArrowRight"":23}","true","ArrowDown,ArrowRight","","","","","","","","",""
"html-keyboard-response","100","555307","0.0-3.0-13.0-11.0-1.1","spark_pilot_2","7464","6","20","Male","","","","","","","null","<div style=""font-size:60px;"">+</div>","null","fixation","","","","","","","","","","","","","",""
"learning-instructions","101","560535","0.0-3.0-14.0-0.0","spark_pilot_2","7464","6","20","Male","","","","","","","660.5","<p> Before you start, we're going to ask you a few questions about how the game works. </p>","","instructions","","","","","","","","","","","","","",""
"comp-q","102","567363","0.0-3.0-15.0-0.0-0.0","spark_pilot_2","7464","6","20","Male","","","","","","","1257.8999999761581","<p> <b> True or False? </b> </p>
            <p> There can be 50 pieces of treasure in a given animal's chest. </p>","1","comp_question","","","","true","","","","","","","","","",""
"comp-q","103","578275","0.0-3.0-15.0-0.0-1.0","spark_pilot_2","7464","6","20","Male","","","","","","","4261.100000023842","<p> <b> That's right! </b> The amount of treasure in each chest can range from 0 to 40 pieces. </p>","0","comp_answer","","","","","","","","","","","","","",""
"comp-q","104","588594","0.0-3.0-15.0-0.1-0.1","spark_pilot_2","7464","6","20","Male","","","","","","","3210.600000023842","<p> <b> True or False? </b> </p><p> In this game, all animals have the same amount of treasure in their left and right chests. </p>","1","comp_question","","","","true","","","","","","","","","",""
"comp-q","105","600835","0.0-3.0-15.0-0.1-1.1","spark_pilot_2","7464","6","20","Male","","","","","","","7021.5","<p> <b> That's right! </b> Animals have different amounts of treasure in their treasure chests. </p>","0","comp_answer","","","","","","","","","","","","","",""
"comp-q","106","607338","0.0-3.0-15.0-0.2-0.2","spark_pilot_2","7464","6","20","Male","","","","","","","673.7000000476837","<p> <b> True or False? </b> </p><p> The same animal will always be there if you go up in the same place. </p>","0","comp_question","","","","true","","","","","","","","","",""
"comp-q","107","614740","0.0-3.0-15.0-0.2-1.2","spark_pilot_2","7464","6","20","Male","","","","","","","955.8999999761581","<p> <b> That's right! </b> One animal lives in the upper part and one lives in the lower part of every place. </p>","0","comp_answer","","","","","","","","","","","","","",""
"comp-q","108","620822","0.0-3.0-15.0-0.3-0.3","spark_pilot_2","7464","6","20","Male","","","","","","","558.6999999284744","<p> <b> True or False? </b> </p><p> If you see a different picture, it means you are in a new place. </p>","0","comp_question","","","","false","","","","","","","","","",""
"comp-q","109","632748","0.0-3.0-15.0-0.3-1.3","spark_pilot_2","7464","6","20","Male","","","","","","","844.8000000715256","<p> <b>Incorrect.</b> Lots of different images may show the same place. For example,  you may see three different images that all remind you that you are in outer space. </p>","0","comp_answer","","","","","","","","","","","","","",""
"comp-q","110","638926","0.0-3.0-15.0-0.4-0.4","spark_pilot_2","7464","6","20","Male","","","","","","","672.7999999523163","<p> <b> True or False? </b> </p><p> If you see a different picture, it means you are in a new place. </p>","1","comp_question","","","","true","","","","","","","","","",""
"comp-q","111","650769","0.0-3.0-15.0-0.4-1.4","spark_pilot_2","7464","6","20","Male","","","","","","","626","<p> <b> That's right! </b> Lots of different images may show the same place. For example,  you may see three different images that all remind you that you are in outer space. </p>","0","comp_answer","","","","","","","","","","","","","",""
"learning-instructions","112","661768","0.0-3.0-16.0-0.0","spark_pilot_2","7464","6","20","Male","","","","","","","1155.3999999761581","<p> Good job. Remember to do your best because the amount of treasure you earn will be converted into bonus money. </p>
            <p> It’s time to start the real game! </p>","","instructions","","","","","","","","","","","","","",""
"learning-instructions","113","665052","0.0-4.0-0.0-0.0","spark_pilot_2","7464","6","20","Male","","","","","","","518.7000000476837","<p> This time you are searching for treasure in the <b>canyon</b>.</p>","","instructions","","","","","","","","","","","","","",""
"learning-instructions","114","682719","0.0-4.0-0.0-0.1","spark_pilot_2","7464","6","20","Male","","","","","","","385.89999997615814","<p><b>New</b> animals with <b>new</b> treasure chests live here. You need to explore to discover where the animal with the best treasure chest is.</p>
                    <p> Like before, once you figure out which animal has the chest with the most treasure, you should try to get to that animal and select that chest! </p>","","instructions","","","","","","","","","","","","","",""
"learning-instructions","115","697968","0.0-4.0-1.0-0.0","spark_pilot_2","7464","6","20","Male","","","","","","","514.5","<p> Remember, when you see a picture of the place, use the up and down keys to <b>find an animal</b>.</p>
            <p> When you encounter an animal, you should use the left and right keys to <b>select a treasure chest</b>.</p>
            <p> Don't forget to look out for the robber! </p>","","instructions","","","","","","","","","","","","","",""
"revaluation","116","704002","0.0-4.0-2.0-0.0","spark_pilot_2","7464","6","20","Male","","false","","","","","[1085.1000000238419,659.8999999761581]","./assets/img/canyon/memory/25.jpg","[""ArrowUp"",""ArrowRight""]","value training","canyon","10","{""ArrowUp,ArrowLeft"":23,""ArrowUp,ArrowRight"":10,""ArrowDown,ArrowLeft"":8,""ArrowDown,ArrowRight"":30}","false","ArrowUp,ArrowRight","false","","","revaluation","1","0","","",""
"html-keyboard-response","117","704518","0.0-4.0-2.0-1.0","spark_pilot_2","7464","6","20","Male","","","","","","","null","<div style=""font-size:60px;"">+</div>","null","fixation","","","","","","","","","","","1","","",""
"revaluation","118","710547","0.0-4.0-2.0-0.1","spark_pilot_2","7464","6","20","Male","","false","","","","","[610.8999999761581,618.3000000715256]","./assets/img/canyon/memory/9.jpg","[""ArrowDown"",""ArrowLeft""]","value training","canyon","8","{""ArrowUp,ArrowLeft"":23,""ArrowUp,ArrowRight"":10,""ArrowDown,ArrowLeft"":8,""ArrowDown,ArrowRight"":30}","false","ArrowDown,ArrowLeft","false","","","revaluation","1","2","","",""
"html-keyboard-response","119","711061","0.0-4.0-2.0-1.1","spark_pilot_2","7464","6","20","Male","","","","","","","null","<div style=""font-size:60px;"">+</div>","null","fixation","","","","","","","","","","","3","","",""
"revaluation","120","717084","0.0-4.0-2.0-0.2","spark_pilot_2","7464","6","20","Male","","false","","","","","[702.1000000238419,489.59999990463257]","./assets/img/canyon/memory/16.jpg","[""ArrowUp"",""ArrowRight""]","value training","canyon","10","{""ArrowUp,ArrowLeft"":23,""ArrowUp,ArrowRight"":10,""ArrowDown,ArrowLeft"":8,""ArrowDown,ArrowRight"":30}","false","ArrowUp,ArrowRight","false","","","revaluation","1","4","","",""
"html-keyboard-response","121","717598","0.0-4.0-2.0-1.2","spark_pilot_2","7464","6","20","Male","","","","","","","null","<div style=""font-size:60px;"">+</div>","null","fixation","","","","","","","","","","","5","","",""
"revaluation","122","723626","0.0-4.0-2.0-0.3","spark_pilot_2","7464","6","20","Male","","false","","","","","[543.8999999761581,413.59999990463257]","./assets/img/canyon/memory/29.jpg","[""ArrowDown"",""ArrowRight""]","value training","canyon","30","{""ArrowUp,ArrowLeft"":23,""ArrowUp,ArrowRight"":10,""ArrowDown,ArrowLeft"":8,""ArrowDown,ArrowRight"":30}","true","ArrowDown,ArrowRight","false","","","revaluation","1","6","","",""
"html-keyboard-response","123","724140","0.0-4.0-2.0-1.3","spark_pilot_2","7464","6","20","Male","","","","","","","null","<div style=""font-size:60px;"">+</div>","null","fixation","","","","","","","","","","","7","","",""
"revaluation","124","730159","0.0-4.0-2.0-0.4","spark_pilot_2","7464","6","20","Male","","false","","","","","[540,430.60000002384186]","./assets/img/canyon/memory/21.jpg","[""ArrowDown"",""ArrowRight""]","value training","canyon","30","{""ArrowUp,ArrowLeft"":23,""ArrowUp,ArrowRight"":10,""ArrowDown,ArrowLeft"":8,""ArrowDown,ArrowRight"":30}","true","ArrowDown,ArrowRight","false","","","revaluation","1","8","","",""
"html-keyboard-response","125","730661","0.0-4.0-2.0-1.4","spark_pilot_2","7464","6","20","Male","","","","","","","null","<div style=""font-size:60px;"">+</div>","null","fixation","","","","","","","","","","","9","","",""
"revaluation","126","736666","0.0-4.0-2.0-0.5","spark_pilot_2","7464","6","20","Male","","false","","","","","[325.5,331.60000002384186]","./assets/img/canyon/memory/12.jpg","[""ArrowUp"",""ArrowLeft""]","value training","canyon","23","{""ArrowUp,ArrowLeft"":23,""ArrowUp,ArrowRight"":10,""ArrowDown,ArrowLeft"":8,""ArrowDown,ArrowRight"":30}","false","ArrowUp,ArrowLeft","false","","","revaluation","1","10","","",""
"html-keyboard-response","127","737167","0.0-4.0-2.0-1.5","spark_pilot_2","7464","6","20","Male","","","","","","","null","<div style=""font-size:60px;"">+</div>","null","fixation","","","","","","","","","","","11","","",""
"revaluation","128","743173","0.0-4.0-2.0-0.6","spark_pilot_2","7464","6","20","Male","","false","","","","","[860.1999999284744,301.89999997615814]","./assets/img/canyon/memory/41.jpg","[""ArrowDown"",""ArrowRight""]","value training","canyon","30","{""ArrowUp,ArrowLeft"":23,""ArrowUp,ArrowRight"":10,""ArrowDown,ArrowLeft"":8,""ArrowDown,ArrowRight"":30}","true","ArrowDown,ArrowRight","false","","","revaluation","1","12","","",""
"html-keyboard-response","129","743674","0.0-4.0-2.0-1.6","spark_pilot_2","7464","6","20","Male","","","","","","","null","<div style=""font-size:60px;"">+</div>","null","fixation","","","","","","","","","","","13","","",""
"revaluation","130","749680","0.0-4.0-2.0-0.7","spark_pilot_2","7464","6","20","Male","","false","","","","","[453.7000000476837,480.1999999284744]","./assets/img/canyon/memory/14.jpg","[""ArrowDown"",""ArrowRight""]","value training","canyon","30","{""ArrowUp,ArrowLeft"":23,""ArrowUp,ArrowRight"":10,""ArrowDown,ArrowLeft"":8,""ArrowDown,ArrowRight"":30}","true","ArrowDown,ArrowRight","false","","","revaluation","1","14","","",""
"html-keyboard-response","131","750181","0.0-4.0-2.0-1.7","spark_pilot_2","7464","6","20","Male","","","","","","","null","<div style=""font-size:60px;"">+</div>","null","fixation","","","","","","","","","","","15","","",""
"revaluation","132","756186","0.0-4.0-2.0-0.8","spark_pilot_2","7464","6","20","Male","","false","","","","","[1231.8999999761581,408.3000000715256]","./assets/img/canyon/memory/11.jpg","[""ArrowDown"",""ArrowRight""]","value training","canyon","30","{""ArrowUp,ArrowLeft"":23,""ArrowUp,ArrowRight"":10,""ArrowDown,ArrowLeft"":8,""ArrowDown,ArrowRight"":30}","true","ArrowDown,ArrowRight","false","","","revaluation","1","16","","",""
"html-keyboard-response","133","756688","0.0-4.0-2.0-1.8","spark_pilot_2","7464","6","20","Male","","","","","","","null","<div style=""font-size:60px;"">+</div>","null","fixation","","","","","","","","","","","17","","",""
"revaluation","134","762694","0.0-4.0-2.0-0.9","spark_pilot_2","7464","6","20","Male","","false","","","","","[1176.3999999761581,446.2000000476837]","./assets/img/canyon/memory/20.jpg","[""ArrowDown"",""ArrowRight""]","value training","canyon","30","{""ArrowUp,ArrowLeft"":23,""ArrowUp,ArrowRight"":10,""ArrowDown,ArrowLeft"":8,""ArrowDown,ArrowRight"":30}","true","ArrowDown,ArrowRight","false","","","revaluation","1","18","","",""
"html-keyboard-response","135","763196","0.0-4.0-2.0-1.9","spark_pilot_2","7464","6","20","Male","","","","","","","null","<div style=""font-size:60px;"">+</div>","null","fixation","","","","","","","","","","","19","","",""
"revaluation","136","769202","0.0-4.0-2.0-0.10","spark_pilot_2","7464","6","20","Male","","false","","","","","[1392.3999999761581,652.7000000476837]","./assets/img/canyon/memory/7.jpg","[""ArrowDown"",""ArrowRight""]","value training","canyon","30","{""ArrowUp,ArrowLeft"":23,""ArrowUp,ArrowRight"":10,""ArrowDown,ArrowLeft"":8,""ArrowDown,ArrowRight"":30}","true","ArrowDown,ArrowRight","false","","","revaluation","1","20","","",""
"html-keyboard-response","137","769703","0.0-4.0-2.0-1.10","spark_pilot_2","7464","6","20","Male","","","","","","","null","<div style=""font-size:60px;"">+</div>","null","fixation","","","","","","","","","","","21","","",""
"revaluation","138","775710","0.0-4.0-2.0-0.11","spark_pilot_2","7464","6","20","Male","","false","","","","","[1912.7999999523163,544]","./assets/img/canyon/memory/24.jpg","[""ArrowDown"",""ArrowRight""]","value training","canyon","30","{""ArrowUp,ArrowLeft"":23,""ArrowUp,ArrowRight"":10,""ArrowDown,ArrowLeft"":8,""ArrowDown,ArrowRight"":30}","true","ArrowDown,ArrowRight","false","","","revaluation","1","22","","",""
"html-keyboard-response","139","776212","0.0-4.0-2.0-1.11","spark_pilot_2","7464","6","20","Male","","","","","","","null","<div style=""font-size:60px;"">+</div>","null","fixation","","","","","","","","","","","23","","",""
"revaluation","140","780215","0.0-4.0-2.0-0.12","spark_pilot_2","7464","6","20","Male","","false","","","","","[680.7000000476837]","./assets/img/canyon/catch/4.jpg","[""spaceBar""]","value training","canyon","0","{""ArrowUp,ArrowLeft"":23,""ArrowUp,ArrowRight"":10,""ArrowDown,ArrowLeft"":8,""ArrowDown,ArrowRight"":30}","true","spaceBar","true","","","revaluation","1","24","","",""
"html-keyboard-response","141","780717","0.0-4.0-2.0-1.12","spark_pilot_2","7464","6","20","Male","","","","","","","null","<div style=""font-size:60px;"">+</div>","null","fixation","","","","","","","","","","","25","","",""
"revaluation","142","786722","0.0-4.0-2.0-0.13","spark_pilot_2","7464","6","20","Male","","false","","","","","[731.1000000238419,419.1999999284744]","./assets/img/canyon/memory/15.jpg","[""ArrowDown"",""ArrowRight""]","value training","canyon","30","{""ArrowUp,ArrowLeft"":23,""ArrowUp,ArrowRight"":10,""ArrowDown,ArrowLeft"":8,""ArrowDown,ArrowRight"":30}","true","ArrowDown,ArrowRight","false","","","revaluation","1","26","","",""
"html-keyboard-response","143","787224","0.0-4.0-2.0-1.13","spark_pilot_2","7464","6","20","Male","","","","","","","null","<div style=""font-size:60px;"">+</div>","null","fixation","","","","","","","","","","","27","","",""
"revaluation","144","791228","0.0-4.0-2.0-0.14","spark_pilot_2","7464","6","20","Male","","false","","","","","[725]","./assets/img/canyon/catch/0.jpg","[""spaceBar""]","value training","canyon","0","{""ArrowUp,ArrowLeft"":23,""ArrowUp,ArrowRight"":10,""ArrowDown,ArrowLeft"":8,""ArrowDown,ArrowRight"":30}","true","spaceBar","true","","","revaluation","1","28","","",""
"html-keyboard-response","145","791729","0.0-4.0-2.0-1.14","spark_pilot_2","7464","6","20","Male","","","","","","","null","<div style=""font-size:60px;"">+</div>","null","fixation","","","","","","","","","","","29","","",""
"revaluation","146","797735","0.0-4.0-2.0-0.15","spark_pilot_2","7464","6","20","Male","","false","","","","","[693.2000000476837,341.5]","./assets/img/canyon/memory/37.jpg","[""ArrowDown"",""ArrowRight""]","value training","canyon","30","{""ArrowUp,ArrowLeft"":23,""ArrowUp,ArrowRight"":10,""ArrowDown,ArrowLeft"":8,""ArrowDown,ArrowRight"":30}","true","ArrowDown,ArrowRight","false","","","revaluation","1","30","","",""
"html-keyboard-response","147","798237","0.0-4.0-2.0-1.15","spark_pilot_2","7464","6","20","Male","","","","","","","null","<div style=""font-size:60px;"">+</div>","null","fixation","","","","","","","","","","","31","","",""
"revaluation","148","804242","0.0-4.0-2.0-0.16","spark_pilot_2","7464","6","20","Male","","false","","","","","[706.3000000715256,535.3999999761581]","./assets/img/canyon/memory/2.jpg","[""ArrowDown"",""ArrowRight""]","value training","canyon","30","{""ArrowUp,ArrowLeft"":23,""ArrowUp,ArrowRight"":10,""ArrowDown,ArrowLeft"":8,""ArrowDown,ArrowRight"":30}","true","ArrowDown,ArrowRight","false","","","revaluation","1","32","","",""
"html-keyboard-response","149","804744","0.0-4.0-2.0-1.16","spark_pilot_2","7464","6","20","Male","","","","","","","null","<div style=""font-size:60px;"">+</div>","null","fixation","","","","","","","","","","","33","","",""
"revaluation","150","810748","0.0-4.0-2.0-0.17","spark_pilot_2","7464","6","20","Male","","false","","","","","[871.1000000238419,544]","./assets/img/canyon/memory/36.jpg","[""ArrowDown"",""ArrowRight""]","value training","canyon","30","{""ArrowUp,ArrowLeft"":23,""ArrowUp,ArrowRight"":10,""ArrowDown,ArrowLeft"":8,""ArrowDown,ArrowRight"":30}","true","ArrowDown,ArrowRight","false","","","revaluation","1","34","","",""
"html-keyboard-response","151","811250","0.0-4.0-2.0-1.17","spark_pilot_2","7464","6","20","Male","","","","","","","null","<div style=""font-size:60px;"">+</div>","null","fixation","","","","","","","","","","","35","","",""
"revaluation","152","817256","0.0-4.0-2.0-0.18","spark_pilot_2","7464","6","20","Male","","false","","","","","[1075.3000000715256,544.6000000238419]","./assets/img/canyon/memory/26.jpg","[""ArrowDown"",""ArrowRight""]","value training","canyon","30","{""ArrowUp,ArrowLeft"":23,""ArrowUp,ArrowRight"":10,""ArrowDown,ArrowLeft"":8,""ArrowDown,ArrowRight"":30}","true","ArrowDown,ArrowRight","false","","","revaluation","1","36","","",""
"html-keyboard-response","153","817758","0.0-4.0-2.0-1.18","spark_pilot_2","7464","6","20","Male","","","","","","","null","<div style=""font-size:60px;"">+</div>","null","fixation","","","","","","","","","","","37","","",""
"revaluation","154","823763","0.0-4.0-2.0-0.19","spark_pilot_2","7464","6","20","Male","","false","","","","","[743.3999999761581,560.3000000715256]","./assets/img/canyon/memory/14.jpg","[""ArrowDown"",""ArrowRight""]","value training","canyon","30","{""ArrowUp,ArrowLeft"":23,""ArrowUp,ArrowRight"":10,""ArrowDown,ArrowLeft"":8,""ArrowDown,ArrowRight"":30}","true","ArrowDown,ArrowRight","false","","","revaluation","1","38","","",""
"html-keyboard-response","155","824265","0.0-4.0-2.0-1.19","spark_pilot_2","7464","6","20","Male","","","","","","","null","<div style=""font-size:60px;"">+</div>","null","fixation","","","","","","","","","","","39","","",""
"revaluation","156","828269","0.0-4.0-2.0-0.20","spark_pilot_2","7464","6","20","Male","","false","","","","","[525.2999999523163]","./assets/img/canyon/catch/3.jpg","[""spaceBar""]","value training","canyon","0","{""ArrowUp,ArrowLeft"":23,""ArrowUp,ArrowRight"":10,""ArrowDown,ArrowLeft"":8,""ArrowDown,ArrowRight"":30}","true","spaceBar","true","","","revaluation","1","40","","",""
"html-keyboard-response","157","828771","0.0-4.0-2.0-1.20","spark_pilot_2","7464","6","20","Male","","","","","","","null","<div style=""font-size:60px;"">+</div>","null","fixation","","","","","","","","","","","41","","",""
"revaluation","158","834776","0.0-4.0-2.0-0.21","spark_pilot_2","7464","6","20","Male","","false","","","","","[543.6999999284744,467.8000000715256]","./assets/img/canyon/memory/21.jpg","[""ArrowDown"",""ArrowRight""]","value training","canyon","30","{""ArrowUp,ArrowLeft"":23,""ArrowUp,ArrowRight"":10,""ArrowDown,ArrowLeft"":8,""ArrowDown,ArrowRight"":30}","true","ArrowDown,ArrowRight","false","","","revaluation","1","42","","",""
"html-keyboard-response","159","835277","0.0-4.0-2.0-1.21","spark_pilot_2","7464","6","20","Male","","","","","","","null","<div style=""font-size:60px;"">+</div>","null","fixation","","","","","","","","","","","43","","",""
"revaluation","160","841282","0.0-4.0-2.0-0.22","spark_pilot_2","7464","6","20","Male","","false","","","","","[536.5,373.7999999523163]","./assets/img/canyon/memory/0.jpg","[""ArrowDown"",""ArrowRight""]","value training","canyon","30","{""ArrowUp,ArrowLeft"":23,""ArrowUp,ArrowRight"":10,""ArrowDown,ArrowLeft"":8,""ArrowDown,ArrowRight"":30}","true","ArrowDown,ArrowRight","false","","","revaluation","1","44","","",""
"html-keyboard-response","161","841784","0.0-4.0-2.0-1.22","spark_pilot_2","7464","6","20","Male","","","","","","","null","<div style=""font-size:60px;"">+</div>","null","fixation","","","","","","","","","","","45","","",""
"revaluation","162","847790","0.0-4.0-2.0-0.23","spark_pilot_2","7464","6","20","Male","","false","","","","","[893.7000000476837,336.10000002384186]","./assets/img/canyon/memory/20.jpg","[""ArrowDown"",""ArrowRight""]","value training","canyon","30","{""ArrowUp,ArrowLeft"":23,""ArrowUp,ArrowRight"":10,""ArrowDown,ArrowLeft"":8,""ArrowDown,ArrowRight"":30}","true","ArrowDown,ArrowRight","false","","","revaluation","1","46","","",""
"html-keyboard-response","163","848292","0.0-4.0-2.0-1.23","spark_pilot_2","7464","6","20","Male","","","","","","","null","<div style=""font-size:60px;"">+</div>","null","fixation","","","","","","","","","","","47","","",""
"revaluation","164","854310","0.0-4.0-2.0-0.24","spark_pilot_2","7464","6","20","Male","","false","","","","","[884.1999999284744,425.3000000715256]","./assets/img/canyon/memory/26.jpg","[""ArrowDown"",""ArrowRight""]","value training","canyon","30","{""ArrowUp,ArrowLeft"":23,""ArrowUp,ArrowRight"":10,""ArrowDown,ArrowLeft"":8,""ArrowDown,ArrowRight"":30}","true","ArrowDown,ArrowRight","false","","","revaluation","1","48","","",""
"html-keyboard-response","165","854812","0.0-4.0-2.0-1.24","spark_pilot_2","7464","6","20","Male","","","","","","","null","<div style=""font-size:60px;"">+</div>","null","fixation","","","","","","","","","","","49","","",""
"revaluation","166","860816","0.0-4.0-2.0-0.25","spark_pilot_2","7464","6","20","Male","","false","","","","","[596.5999999046326,362.7000000476837]","./assets/img/canyon/memory/9.jpg","[""ArrowDown"",""ArrowRight""]","value training","canyon","30","{""ArrowUp,ArrowLeft"":23,""ArrowUp,ArrowRight"":10,""ArrowDown,ArrowLeft"":8,""ArrowDown,ArrowRight"":30}","true","ArrowDown,ArrowRight","false","","","revaluation","1","50","","",""
"html-keyboard-response","167","861318","0.0-4.0-2.0-1.25","spark_pilot_2","7464","6","20","Male","","","","","","","null","<div style=""font-size:60px;"">+</div>","null","fixation","","","","","","","","","","","51","","",""
"revaluation","168","865322","0.0-4.0-2.0-0.26","spark_pilot_2","7464","6","20","Male","","false","","","","","[575.6000000238419]","./assets/img/canyon/catch/5.jpg","[""spaceBar""]","value training","canyon","0","{""ArrowUp,ArrowLeft"":23,""ArrowUp,ArrowRight"":10,""ArrowDown,ArrowLeft"":8,""ArrowDown,ArrowRight"":30}","true","spaceBar","true","","","revaluation","1","52","","",""
"html-keyboard-response","169","865823","0.0-4.0-2.0-1.26","spark_pilot_2","7464","6","20","Male","","","","","","","null","<div style=""font-size:60px;"">+</div>","null","fixation","","","","","","","","","","","53","","",""
"revaluation","170","871828","0.0-4.0-2.0-0.27","spark_pilot_2","7464","6","20","Male","","false","","","","","[1019.3000000715256,580.8999999761581]","./assets/img/canyon/memory/33.jpg","[""ArrowDown"",""ArrowRight""]","value training","canyon","30","{""ArrowUp,ArrowLeft"":23,""ArrowUp,ArrowRight"":10,""ArrowDown,ArrowLeft"":8,""ArrowDown,ArrowRight"":30}","true","ArrowDown,ArrowRight","false","","","revaluation","1","54","","",""
"html-keyboard-response","171","872329","0.0-4.0-2.0-1.27","spark_pilot_2","7464","6","20","Male","","","","","","","null","<div style=""font-size:60px;"">+</div>","null","fixation","","","","","","","","","","","55","","",""
"revaluation","172","878334","0.0-4.0-2.0-0.28","spark_pilot_2","7464","6","20","Male","","false","","","","","[594.6000000238419,382.2000000476837]","./assets/img/canyon/memory/33.jpg","[""ArrowDown"",""ArrowRight""]","value training","canyon","30","{""ArrowUp,ArrowLeft"":23,""ArrowUp,ArrowRight"":10,""ArrowDown,ArrowLeft"":8,""ArrowDown,ArrowRight"":30}","true","ArrowDown,ArrowRight","false","","","revaluation","1","56","","",""
"html-keyboard-response","173","878836","0.0-4.0-2.0-1.28","spark_pilot_2","7464","6","20","Male","","","","","","","null","<div style=""font-size:60px;"">+</div>","null","fixation","","","","","","","","","","","57","","",""
"revaluation","174","884842","0.0-4.0-2.0-0.29","spark_pilot_2","7464","6","20","Male","","false","","","","","[472.7000000476837,407.2000000476837]","./assets/img/canyon/memory/12.jpg","[""ArrowDown"",""ArrowRight""]","value training","canyon","30","{""ArrowUp,ArrowLeft"":23,""ArrowUp,ArrowRight"":10,""ArrowDown,ArrowLeft"":8,""ArrowDown,ArrowRight"":30}","true","ArrowDown,ArrowRight","false","","","revaluation","1","58","","",""
"html-keyboard-response","175","885343","0.0-4.0-2.0-1.29","spark_pilot_2","7464","6","20","Male","","","","","","","null","<div style=""font-size:60px;"">+</div>","null","fixation","","","","","","","","","","","59","","",""
"revaluation","176","891348","0.0-4.0-2.0-0.30","spark_pilot_2","7464","6","20","Male","","false","","","","","[431.5,401.5]","./assets/img/canyon/memory/29.jpg","[""ArrowDown"",""ArrowRight""]","value training","canyon","30","{""ArrowUp,ArrowLeft"":23,""ArrowUp,ArrowRight"":10,""ArrowDown,ArrowLeft"":8,""ArrowDown,ArrowRight"":30}","true","ArrowDown,ArrowRight","false","","","revaluation","1","60","","",""
"html-keyboard-response","177","891849","0.0-4.0-2.0-1.30","spark_pilot_2","7464","6","20","Male","","","","","","","null","<div style=""font-size:60px;"">+</div>","null","fixation","","","","","","","","","","","61","","",""
"revaluation","178","897856","0.0-4.0-2.0-0.31","spark_pilot_2","7464","6","20","Male","","false","","","","","[325.7999999523163,289.7000000476837]","./assets/img/canyon/memory/7.jpg","[""ArrowDown"",""ArrowRight""]","value training","canyon","30","{""ArrowUp,ArrowLeft"":23,""ArrowUp,ArrowRight"":10,""ArrowDown,ArrowLeft"":8,""ArrowDown,ArrowRight"":30}","true","ArrowDown,ArrowRight","false","","","revaluation","1","62","","",""
"html-keyboard-response","179","898358","0.0-4.0-2.0-1.31","spark_pilot_2","7464","6","20","Male","","","","","","","null","<div style=""font-size:60px;"">+</div>","null","fixation","","","","","","","","","","","63","","",""
"revaluation","180","902362","0.0-4.0-2.0-0.32","spark_pilot_2","7464","6","20","Male","","false","","","","","[531.5999999046326]","./assets/img/canyon/catch/7.jpg","[""spaceBar""]","value training","canyon","0","{""ArrowUp,ArrowLeft"":23,""ArrowUp,ArrowRight"":10,""ArrowDown,ArrowLeft"":8,""ArrowDown,ArrowRight"":30}","true","spaceBar","true","","","revaluation","1","64","","",""
"html-keyboard-response","181","902863","0.0-4.0-2.0-1.32","spark_pilot_2","7464","6","20","Male","","","","","","","null","<div style=""font-size:60px;"">+</div>","null","fixation","","","","","","","","","","","65","","",""
"revaluation","182","908867","0.0-4.0-2.0-0.33","spark_pilot_2","7464","6","20","Male","","false","","","","","[511.6999999284744,431.1999999284744]","./assets/img/canyon/memory/0.jpg","[""ArrowDown"",""ArrowRight""]","value training","canyon","30","{""ArrowUp,ArrowLeft"":23,""ArrowUp,ArrowRight"":10,""ArrowDown,ArrowLeft"":8,""ArrowDown,ArrowRight"":30}","true","ArrowDown,ArrowRight","false","","","revaluation","1","66","","",""
"html-keyboard-response","183","909369","0.0-4.0-2.0-1.33","spark_pilot_2","7464","6","20","Male","","","","","","","null","<div style=""font-size:60px;"">+</div>","null","fixation","","","","","","","","","","","67","","",""
"revaluation","184","915375","0.0-4.0-2.0-0.34","spark_pilot_2","7464","6","20","Male","","false","","","","","[614.6000000238419,375.39999997615814]","./assets/img/canyon/memory/36.jpg","[""ArrowDown"",""ArrowRight""]","value training","canyon","30","{""ArrowUp,ArrowLeft"":23,""ArrowUp,ArrowRight"":10,""ArrowDown,ArrowLeft"":8,""ArrowDown,ArrowRight"":30}","true","ArrowDown,ArrowRight","false","","","revaluation","1","68","","",""
"html-keyboard-response","185","915877","0.0-4.0-2.0-1.34","spark_pilot_2","7464","6","20","Male","","","","","","","null","<div style=""font-size:60px;"">+</div>","null","fixation","","","","","","","","","","","69","","",""
"revaluation","186","921883","0.0-4.0-2.0-0.35","spark_pilot_2","7464","6","20","Male","","false","","","","","[595.5,352.8000000715256]","./assets/img/canyon/memory/17.jpg","[""ArrowDown"",""ArrowRight""]","value training","canyon","30","{""ArrowUp,ArrowLeft"":23,""ArrowUp,ArrowRight"":10,""ArrowDown,ArrowLeft"":8,""ArrowDown,ArrowRight"":30}","true","ArrowDown,ArrowRight","false","","","revaluation","1","70","","",""
"html-keyboard-response","187","922388","0.0-4.0-2.0-1.35","spark_pilot_2","7464","6","20","Male","","","","","","","null","<div style=""font-size:60px;"">+</div>","null","fixation","","","","","","","","","","","71","","",""
"revaluation","188","928393","0.0-4.0-2.0-0.36","spark_pilot_2","7464","6","20","Male","","false","","","","","[649.6000000238419,375.09999990463257]","./assets/img/canyon/memory/15.jpg","[""ArrowDown"",""ArrowRight""]","value training","canyon","30","{""ArrowUp,ArrowLeft"":23,""ArrowUp,ArrowRight"":10,""ArrowDown,ArrowLeft"":8,""ArrowDown,ArrowRight"":30}","true","ArrowDown,ArrowRight","false","","","revaluation","1","72","","",""
"html-keyboard-response","189","928895","0.0-4.0-2.0-1.36","spark_pilot_2","7464","6","20","Male","","","","","","","null","<div style=""font-size:60px;"">+</div>","null","fixation","","","","","","","","","","","73","","",""
"revaluation","190","934901","0.0-4.0-2.0-0.37","spark_pilot_2","7464","6","20","Male","","false","","","","","[1197.7999999523163,432.10000002384186]","./assets/img/canyon/memory/18.jpg","[""ArrowDown"",""ArrowRight""]","value training","canyon","30","{""ArrowUp,ArrowLeft"":23,""ArrowUp,ArrowRight"":10,""ArrowDown,ArrowLeft"":8,""ArrowDown,ArrowRight"":30}","true","ArrowDown,ArrowRight","false","","","revaluation","1","74","","",""
"html-keyboard-response","191","935403","0.0-4.0-2.0-1.37","spark_pilot_2","7464","6","20","Male","","","","","","","null","<div style=""font-size:60px;"">+</div>","null","fixation","","","","","","","","","","","75","","",""
"revaluation","192","939408","0.0-4.0-2.0-0.38","spark_pilot_2","7464","6","20","Male","","false","","","","","[624]","./assets/img/canyon/catch/1.jpg","[""spaceBar""]","value training","canyon","0","{""ArrowUp,ArrowLeft"":23,""ArrowUp,ArrowRight"":10,""ArrowDown,ArrowLeft"":8,""ArrowDown,ArrowRight"":30}","true","spaceBar","true","","","revaluation","1","76","","",""
"html-keyboard-response","193","939909","0.0-4.0-2.0-1.38","spark_pilot_2","7464","6","20","Male","","","","","","","null","<div style=""font-size:60px;"">+</div>","null","fixation","","","","","","","","","","","77","","",""
"revaluation","194","945914","0.0-4.0-2.0-0.39","spark_pilot_2","7464","6","20","Male","","false","","","","","[717.5,514.5]","./assets/img/canyon/memory/16.jpg","[""ArrowDown"",""ArrowRight""]","value training","canyon","30","{""ArrowUp,ArrowLeft"":23,""ArrowUp,ArrowRight"":10,""ArrowDown,ArrowLeft"":8,""ArrowDown,ArrowRight"":30}","true","ArrowDown,ArrowRight","false","","","revaluation","1","78","","",""
"html-keyboard-response","195","946415","0.0-4.0-2.0-1.39","spark_pilot_2","7464","6","20","Male","","","","","","","null","<div style=""font-size:60px;"">+</div>","null","fixation","","","","","","","","","","","79","","",""
"revaluation","196","950418","0.0-4.0-2.0-0.40","spark_pilot_2","7464","6","20","Male","","false","","","","","[650.8999999761581]","./assets/img/canyon/catch/6.jpg","[""spaceBar""]","value training","canyon","0","{""ArrowUp,ArrowLeft"":23,""ArrowUp,ArrowRight"":10,""ArrowDown,ArrowLeft"":8,""ArrowDown,ArrowRight"":30}","true","spaceBar","true","","","revaluation","1","80","","",""
"html-keyboard-response","197","950920","0.0-4.0-2.0-1.40","spark_pilot_2","7464","6","20","Male","","","","","","","null","<div style=""font-size:60px;"">+</div>","null","fixation","","","","","","","","","","","81","","",""
"revaluation","198","956924","0.0-4.0-2.0-0.41","spark_pilot_2","7464","6","20","Male","","false","","","","","[592.5,303.39999997615814]","./assets/img/canyon/memory/37.jpg","[""ArrowDown"",""ArrowRight""]","value training","canyon","30","{""ArrowUp,ArrowLeft"":23,""ArrowUp,ArrowRight"":10,""ArrowDown,ArrowLeft"":8,""ArrowDown,ArrowRight"":30}","true","ArrowDown,ArrowRight","false","","","revaluation","1","82","","",""
"html-keyboard-response","199","957426","0.0-4.0-2.0-1.41","spark_pilot_2","7464","6","20","Male","","","","","","","null","<div style=""font-size:60px;"">+</div>","null","fixation","","","","","","","","","","","83","","",""
"revaluation","200","963430","0.0-4.0-2.0-0.42","spark_pilot_2","7464","6","20","Male","","false","","","","","[1061.5,312.2999999523163]","./assets/img/canyon/memory/24.jpg","[""ArrowDown"",""ArrowRight""]","value training","canyon","30","{""ArrowUp,ArrowLeft"":23,""ArrowUp,ArrowRight"":10,""ArrowDown,ArrowLeft"":8,""ArrowDown,ArrowRight"":30}","true","ArrowDown,ArrowRight","false","","","revaluation","1","84","","",""
"html-keyboard-response","201","963932","0.0-4.0-2.0-1.42","spark_pilot_2","7464","6","20","Male","","","","","","","null","<div style=""font-size:60px;"">+</div>","null","fixation","","","","","","","","","","","85","","",""
"revaluation","202","967935","0.0-4.0-2.0-0.43","spark_pilot_2","7464","6","20","Male","","false","","","","","[705.3999999761581]","./assets/img/canyon/catch/2.jpg","[""spaceBar""]","value training","canyon","0","{""ArrowUp,ArrowLeft"":23,""ArrowUp,ArrowRight"":10,""ArrowDown,ArrowLeft"":8,""ArrowDown,ArrowRight"":30}","true","spaceBar","true","","","revaluation","1","86","","",""
"html-keyboard-response","203","968437","0.0-4.0-2.0-1.43","spark_pilot_2","7464","6","20","Male","","","","","","","null","<div style=""font-size:60px;"">+</div>","null","fixation","","","","","","","","","","","87","","",""
"revaluation","204","974441","0.0-4.0-2.0-0.44","spark_pilot_2","7464","6","20","Male","","false","","","","","[642.6000000238419,489.3000000715256]","./assets/img/canyon/memory/25.jpg","[""ArrowDown"",""ArrowRight""]","value training","canyon","30","{""ArrowUp,ArrowLeft"":23,""ArrowUp,ArrowRight"":10,""ArrowDown,ArrowLeft"":8,""ArrowDown,ArrowRight"":30}","true","ArrowDown,ArrowRight","false","","","revaluation","1","88","","",""
"html-keyboard-response","205","974942","0.0-4.0-2.0-1.44","spark_pilot_2","7464","6","20","Male","","","","","","","null","<div style=""font-size:60px;"">+</div>","null","fixation","","","","","","","","","","","89","","",""
"revaluation","206","980948","0.0-4.0-2.0-0.45","spark_pilot_2","7464","6","20","Male","","false","","","","","[473.2999999523163,308]","./assets/img/canyon/memory/2.jpg","[""ArrowDown"",""ArrowRight""]","value training","canyon","30","{""ArrowUp,ArrowLeft"":23,""ArrowUp,ArrowRight"":10,""ArrowDown,ArrowLeft"":8,""ArrowDown,ArrowRight"":30}","true","ArrowDown,ArrowRight","false","","","revaluation","1","90","","",""
"html-keyboard-response","207","981449","0.0-4.0-2.0-1.45","spark_pilot_2","7464","6","20","Male","","","","","","","null","<div style=""font-size:60px;"">+</div>","null","fixation","","","","","","","","","","","91","","",""
"revaluation","208","987455","0.0-4.0-2.0-0.46","spark_pilot_2","7464","6","20","Male","","false","","","","","[629.8999999761581,403]","./assets/img/canyon/memory/11.jpg","[""ArrowDown"",""ArrowRight""]","value training","canyon","30","{""ArrowUp,ArrowLeft"":23,""ArrowUp,ArrowRight"":10,""ArrowDown,ArrowLeft"":8,""ArrowDown,ArrowRight"":30}","true","ArrowDown,ArrowRight","false","","","revaluation","1","92","","",""
"html-keyboard-response","209","987956","0.0-4.0-2.0-1.46","spark_pilot_2","7464","6","20","Male","","","","","","","null","<div style=""font-size:60px;"">+</div>","null","fixation","","","","","","","","","","","93","","",""
"revaluation","210","993974","0.0-4.0-2.0-0.47","spark_pilot_2","7464","6","20","Male","","false","","","","","[488.8000000715256,364.7999999523163]","./assets/img/canyon/memory/41.jpg","[""ArrowDown"",""ArrowRight""]","value training","canyon","30","{""ArrowUp,ArrowLeft"":23,""ArrowUp,ArrowRight"":10,""ArrowDown,ArrowLeft"":8,""ArrowDown,ArrowRight"":30}","true","ArrowDown,ArrowRight","false","","","revaluation","1","94","","",""
"html-keyboard-response","211","994475","0.0-4.0-2.0-1.47","spark_pilot_2","7464","6","20","Male","","","","","","","null","<div style=""font-size:60px;"">+</div>","null","fixation","","","","","","","","","","","95","","",""
"revaluation","212","1000482","0.0-4.0-2.0-0.48","spark_pilot_2","7464","6","20","Male","","false","","","","","[740.1000000238419,475.5]","./assets/img/canyon/memory/18.jpg","[""ArrowDown"",""ArrowRight""]","value training","canyon","30","{""ArrowUp,ArrowLeft"":23,""ArrowUp,ArrowRight"":10,""ArrowDown,ArrowLeft"":8,""ArrowDown,ArrowRight"":30}","true","ArrowDown,ArrowRight","false","","","revaluation","1","96","","",""
"html-keyboard-response","213","1000983","0.0-4.0-2.0-1.48","spark_pilot_2","7464","6","20","Male","","","","","","","null","<div style=""font-size:60px;"">+</div>","null","fixation","","","","","","","","","","","97","","",""
"revaluation","214","1006987","0.0-4.0-2.0-0.49","spark_pilot_2","7464","6","20","Male","","false","","","","","[457.6999999284744,332.7999999523163]","./assets/img/canyon/memory/17.jpg","[""ArrowDown"",""ArrowRight""]","value training","canyon","30","{""ArrowUp,ArrowLeft"":23,""ArrowUp,ArrowRight"":10,""ArrowDown,ArrowLeft"":8,""ArrowDown,ArrowRight"":30}","true","ArrowDown,ArrowRight","false","","","revaluation","1","98","","",""
"html-keyboard-response","215","1007488","0.0-4.0-2.0-1.49","spark_pilot_2","7464","6","20","Male","","","","","","","null","<div style=""font-size:60px;"">+</div>","null","fixation","","","","","","","","","","","99","","",""
"learning-instructions","216","1021098","0.0-4.0-3.0-0.0","spark_pilot_2","7464","6","20","Male","","","","","","","492.1999999284744","<p> Now, you will travel with a friend who will choose whether you go up or down first. </p>
            <p> On these turns, you will just see the animal that they found. You will still get to choose which chest to search for treasure.</p>","","instructions","","","","","","","","","","","","","",""
"revaluation","217","1025116","0.0-4.0-4.0-0.0","spark_pilot_2","7464","6","20","Male","","false","","","","","[690.6999999284744]","./assets/img/canyon/animals/lion.jpg","[""ArrowRight""]","revaluation","canyon","7","{""ArrowUp,ArrowLeft"":27,""ArrowUp,ArrowRight"":15,""ArrowDown,ArrowLeft"":21,""ArrowDown,ArrowRight"":7}","false","ArrowDown,ArrowRight","","","","revaluation","1","0","","",""
"html-keyboard-response","218","1025630","0.0-4.0-4.0-1.0","spark_pilot_2","7464","6","20","Male","","","","","","","null","<div style=""font-size:60px;"">+</div>","null","fixation","","","","","","","","","","","1","","",""
"revaluation","219","1029650","0.0-4.0-4.0-0.1","spark_pilot_2","7464","6","20","Male","","false","","","","","[437]","./assets/img/canyon/animals/lion.jpg","[""ArrowLeft""]","revaluation","canyon","21","{""ArrowUp,ArrowLeft"":27,""ArrowUp,ArrowRight"":15,""ArrowDown,ArrowLeft"":21,""ArrowDown,ArrowRight"":7}","true","ArrowDown,ArrowLeft","","","","revaluation","1","2","","",""
"html-keyboard-response","220","1030164","0.0-4.0-4.0-1.1","spark_pilot_2","7464","6","20","Male","","","","","","","null","<div style=""font-size:60px;"">+</div>","null","fixation","","","","","","","","","","","3","","",""
"revaluation","221","1034191","0.0-4.0-4.0-0.2","spark_pilot_2","7464","6","20","Male","","false","","","","","[688.1999999284744]","./assets/img/canyon/animals/giraffe.jpg","[""ArrowLeft""]","revaluation","canyon","27","{""ArrowUp,ArrowLeft"":27,""ArrowUp,ArrowRight"":15,""ArrowDown,ArrowLeft"":21,""ArrowDown,ArrowRight"":7}","true","ArrowUp,ArrowLeft","","","","revaluation","1","4","","",""
"html-keyboard-response","222","1034705","0.0-4.0-4.0-1.2","spark_pilot_2","7464","6","20","Male","","","","","","","null","<div style=""font-size:60px;"">+</div>","null","fixation","","","","","","","","","","","5","","",""
"revaluation","223","1038734","0.0-4.0-4.0-0.3","spark_pilot_2","7464","6","20","Male","","false","","","","","[371.60000002384186]","./assets/img/canyon/animals/lion.jpg","[""ArrowLeft""]","revaluation","canyon","21","{""ArrowUp,ArrowLeft"":27,""ArrowUp,ArrowRight"":15,""ArrowDown,ArrowLeft"":21,""ArrowDown,ArrowRight"":7}","true","ArrowDown,ArrowLeft","","","","revaluation","1","6","","",""
"html-keyboard-response","224","1039247","0.0-4.0-4.0-1.3","spark_pilot_2","7464","6","20","Male","","","","","","","null","<div style=""font-size:60px;"">+</div>","null","fixation","","","","","","","","","","","7","","",""
"revaluation","225","1043278","0.0-4.0-4.0-0.4","spark_pilot_2","7464","6","20","Male","","false","","","","","[470.7000000476837]","./assets/img/canyon/animals/giraffe.jpg","[""ArrowRight""]","revaluation","canyon","15","{""ArrowUp,ArrowLeft"":27,""ArrowUp,ArrowRight"":15,""ArrowDown,ArrowLeft"":21,""ArrowDown,ArrowRight"":7}","false","ArrowUp,ArrowRight","","","","revaluation","1","8","","",""
"html-keyboard-response","226","1043790","0.0-4.0-4.0-1.4","spark_pilot_2","7464","6","20","Male","","","","","","","null","<div style=""font-size:60px;"">+</div>","null","fixation","","","","","","","","","","","9","","",""
"revaluation","227","1047815","0.0-4.0-4.0-0.5","spark_pilot_2","7464","6","20","Male","","false","","","","","[355.5]","./assets/img/canyon/animals/lion.jpg","[""ArrowLeft""]","revaluation","canyon","21","{""ArrowUp,ArrowLeft"":27,""ArrowUp,ArrowRight"":15,""ArrowDown,ArrowLeft"":21,""ArrowDown,ArrowRight"":7}","true","ArrowDown,ArrowLeft","","","","revaluation","1","10","","",""
"html-keyboard-response","228","1048332","0.0-4.0-4.0-1.5","spark_pilot_2","7464","6","20","Male","","","","","","","null","<div style=""font-size:60px;"">+</div>","null","fixation","","","","","","","","","","","11","","",""
"revaluation","229","1052344","0.0-4.0-4.0-0.6","spark_pilot_2","7464","6","20","Male","","false","","","","","[302.89999997615814]","./assets/img/canyon/animals/giraffe.jpg","[""ArrowLeft""]","revaluation","canyon","27","{""ArrowUp,ArrowLeft"":27,""ArrowUp,ArrowRight"":15,""ArrowDown,ArrowLeft"":21,""ArrowDown,ArrowRight"":7}","true","ArrowUp,ArrowLeft","","","","revaluation","1","12","","",""
"html-keyboard-response","230","1052846","0.0-4.0-4.0-1.6","spark_pilot_2","7464","6","20","Male","","","","","","","null","<div style=""font-size:60px;"">+</div>","null","fixation","","","","","","","","","","","13","","",""
"revaluation","231","1056849","0.0-4.0-4.0-0.7","spark_pilot_2","7464","6","20","Male","","false","","","","","[297.7999999523163]","./assets/img/canyon/animals/giraffe.jpg","[""ArrowLeft""]","revaluation","canyon","27","{""ArrowUp,ArrowLeft"":27,""ArrowUp,ArrowRight"":15,""ArrowDown,ArrowLeft"":21,""ArrowDown,ArrowRight"":7}","true","ArrowUp,ArrowLeft","","","","revaluation","1","14","","",""
"html-keyboard-response","232","1057350","0.0-4.0-4.0-1.7","spark_pilot_2","7464","6","20","Male","","","","","","","null","<div style=""font-size:60px;"">+</div>","null","fixation","","","","","","","","","","","15","","",""
"revaluation","233","1061354","0.0-4.0-4.0-0.8","spark_pilot_2","7464","6","20","Male","","false","","","","","[299.5]","./assets/img/canyon/animals/giraffe.jpg","[""ArrowLeft""]","revaluation","canyon","27","{""ArrowUp,ArrowLeft"":27,""ArrowUp,ArrowRight"":15,""ArrowDown,ArrowLeft"":21,""ArrowDown,ArrowRight"":7}","true","ArrowUp,ArrowLeft","","","","revaluation","1","16","","",""
"html-keyboard-response","234","1061856","0.0-4.0-4.0-1.8","spark_pilot_2","7464","6","20","Male","","","","","","","null","<div style=""font-size:60px;"">+</div>","null","fixation","","","","","","","","","","","17","","",""
"revaluation","235","1065861","0.0-4.0-4.0-0.9","spark_pilot_2","7464","6","20","Male","","false","","","","","[460.2000000476837]","./assets/img/canyon/animals/lion.jpg","[""ArrowLeft""]","revaluation","canyon","21","{""ArrowUp,ArrowLeft"":27,""ArrowUp,ArrowRight"":15,""ArrowDown,ArrowLeft"":21,""ArrowDown,ArrowRight"":7}","true","ArrowDown,ArrowLeft","","","","revaluation","1","18","","",""
"html-keyboard-response","236","1066363","0.0-4.0-4.0-1.9","spark_pilot_2","7464","6","20","Male","","","","","","","null","<div style=""font-size:60px;"">+</div>","null","fixation","","","","","","","","","","","19","","",""
"revaluation","237","1070368","0.0-4.0-4.0-0.10","spark_pilot_2","7464","6","20","Male","","false","","","","","[433.8000000715256]","./assets/img/canyon/animals/giraffe.jpg","[""ArrowLeft""]","revaluation","canyon","27","{""ArrowUp,ArrowLeft"":27,""ArrowUp,ArrowRight"":15,""ArrowDown,ArrowLeft"":21,""ArrowDown,ArrowRight"":7}","true","ArrowUp,ArrowLeft","","","","revaluation","1","20","","",""
"html-keyboard-response","238","1070870","0.0-4.0-4.0-1.10","spark_pilot_2","7464","6","20","Male","","","","","","","null","<div style=""font-size:60px;"">+</div>","null","fixation","","","","","","","","","","","21","","",""
"revaluation","239","1074874","0.0-4.0-4.0-0.11","spark_pilot_2","7464","6","20","Male","","false","","","","","[266.2999999523163]","./assets/img/canyon/animals/lion.jpg","[""ArrowLeft""]","revaluation","canyon","21","{""ArrowUp,ArrowLeft"":27,""ArrowUp,ArrowRight"":15,""ArrowDown,ArrowLeft"":21,""ArrowDown,ArrowRight"":7}","true","ArrowDown,ArrowLeft","","","","revaluation","1","22","","",""
"html-keyboard-response","240","1075380","0.0-4.0-4.0-1.11","spark_pilot_2","7464","6","20","Male","","","","","","","null","<div style=""font-size:60px;"">+</div>","null","fixation","","","","","","","","","","","23","","",""
"revaluation","241","1079385","0.0-4.0-4.0-0.12","spark_pilot_2","7464","6","20","Male","","false","","","","","[420.5]","./assets/img/canyon/animals/giraffe.jpg","[""ArrowLeft""]","revaluation","canyon","27","{""ArrowUp,ArrowLeft"":27,""ArrowUp,ArrowRight"":15,""ArrowDown,ArrowLeft"":21,""ArrowDown,ArrowRight"":7}","true","ArrowUp,ArrowLeft","","","","revaluation","1","24","","",""
"html-keyboard-response","242","1079886","0.0-4.0-4.0-1.12","spark_pilot_2","7464","6","20","Male","","","","","","","null","<div style=""font-size:60px;"">+</div>","null","fixation","","","","","","","","","","","25","","",""
"revaluation","243","1083890","0.0-4.0-4.0-0.13","spark_pilot_2","7464","6","20","Male","","false","","","","","[368.2999999523163]","./assets/img/canyon/animals/giraffe.jpg","[""ArrowLeft""]","revaluation","canyon","27","{""ArrowUp,ArrowLeft"":27,""ArrowUp,ArrowRight"":15,""ArrowDown,ArrowLeft"":21,""ArrowDown,ArrowRight"":7}","true","ArrowUp,ArrowLeft","","","","revaluation","1","26","","",""
"html-keyboard-response","244","1084391","0.0-4.0-4.0-1.13","spark_pilot_2","7464","6","20","Male","","","","","","","null","<div style=""font-size:60px;"">+</div>","null","fixation","","","","","","","","","","","27","","",""
"revaluation","245","1088395","0.0-4.0-4.0-0.14","spark_pilot_2","7464","6","20","Male","","false","","","","","[369.5]","./assets/img/canyon/animals/lion.jpg","[""ArrowLeft""]","revaluation","canyon","21","{""ArrowUp,ArrowLeft"":27,""ArrowUp,ArrowRight"":15,""ArrowDown,ArrowLeft"":21,""ArrowDown,ArrowRight"":7}","true","ArrowDown,ArrowLeft","","","","revaluation","1","28","","",""
"html-keyboard-response","246","1088896","0.0-4.0-4.0-1.14","spark_pilot_2","7464","6","20","Male","","","","","","","null","<div style=""font-size:60px;"">+</div>","null","fixation","","","","","","","","","","","29","","",""
"revaluation","247","1092899","0.0-4.0-4.0-0.15","spark_pilot_2","7464","6","20","Male","","false","","","","","[352.5]","./assets/img/canyon/animals/giraffe.jpg","[""ArrowLeft""]","revaluation","canyon","27","{""ArrowUp,ArrowLeft"":27,""ArrowUp,ArrowRight"":15,""ArrowDown,ArrowLeft"":21,""ArrowDown,ArrowRight"":7}","true","ArrowUp,ArrowLeft","","","","revaluation","1","30","","",""
"html-keyboard-response","248","1093401","0.0-4.0-4.0-1.15","spark_pilot_2","7464","6","20","Male","","","","","","","null","<div style=""font-size:60px;"">+</div>","null","fixation","","","","","","","","","","","31","","",""
"revaluation","249","1097404","0.0-4.0-4.0-0.16","spark_pilot_2","7464","6","20","Male","","false","","","","","[288.6999999284744]","./assets/img/canyon/animals/lion.jpg","[""ArrowLeft""]","revaluation","canyon","21","{""ArrowUp,ArrowLeft"":27,""ArrowUp,ArrowRight"":15,""ArrowDown,ArrowLeft"":21,""ArrowDown,ArrowRight"":7}","true","ArrowDown,ArrowLeft","","","","revaluation","1","32","","",""
"html-keyboard-response","250","1097917","0.0-4.0-4.0-1.16","spark_pilot_2","7464","6","20","Male","","","","","","","null","<div style=""font-size:60px;"">+</div>","null","fixation","","","","","","","","","","","33","","",""
"revaluation","251","1101920","0.0-4.0-4.0-0.17","spark_pilot_2","7464","6","20","Male","","false","","","","","[323.60000002384186]","./assets/img/canyon/animals/lion.jpg","[""ArrowLeft""]","revaluation","canyon","21","{""ArrowUp,ArrowLeft"":27,""ArrowUp,ArrowRight"":15,""ArrowDown,ArrowLeft"":21,""ArrowDown,ArrowRight"":7}","true","ArrowDown,ArrowLeft","","","","revaluation","1","34","","",""
"html-keyboard-response","252","1102422","0.0-4.0-4.0-1.17","spark_pilot_2","7464","6","20","Male","","","","","","","null","<div style=""font-size:60px;"">+</div>","null","fixation","","","","","","","","","","","35","","",""
"learning-instructions","253","1114325","0.0-4.0-5.0-0.0","spark_pilot_2","7464","6","20","Male","","","","","","","353.60000002384186","<p> Time to play the dot game! </p>
            <p> For one minute, click the red dots on the following screen as they appear. </p>
            <p><b> Don't look away, as you will earn bonus for clicking dots</b>. </p>","","instructions","","","","","","","","","","","","","",""
"revaluation","254","1174327","0.0-4.0-6.0-0.0","spark_pilot_2","7464","6","20","Male","","","","","","","[45,59,65,65,51,48,53]","","","rest","","70","","","","","0","60000","","","","","",""
"learning-instructions","255","1181182","0.0-4.0-7.0-0.0","spark_pilot_2","7464","6","20","Male","","","","","","","505.5","<p> You have almost finished this part of the game! </p>
            <p> We are going to ask you to make a few more choices. </p>","","instructions","","","","","","","","","","","","","",""
"learning-instructions","256","1195600","0.0-4.0-7.0-0.1","spark_pilot_2","7464","6","20","Male","","","","","","","443.5","<p> First, you need to decide whether to go up or down. When you see each picture, use the arrow keys to make your choice. </p>
            <p><b>You will not see which animal you found, but try to get to the one that will give you the most treasure.</b></p>","","instructions","","","","","","","","","","","","","",""
"revaluation","257","1196512","0.0-4.0-8.0-0.0","spark_pilot_2","7464","6","20","Male","","false","","","","","[910]","./assets/img/canyon/test/1.jpg","[""ArrowDown""]","first stage test","canyon","0","{""ArrowUp,ArrowLeft"":27,""ArrowUp,ArrowRight"":15,""ArrowDown,ArrowLeft"":21,""ArrowDown,ArrowRight"":7}","false","ArrowDown","false","","","revaluation","1","","","",""
"html-keyboard-response","258","1197021","0.0-4.0-8.0-1.0","spark_pilot_2","7464","6","20","Male","","","","","","","null","<div style=""font-size:60px;"">+</div>","null","fixation","","","","","","","","","","","","","",""
"revaluation","259","1197993","0.0-4.0-8.0-0.1","spark_pilot_2","7464","6","20","Male","","false","","","","","[970.2999999523163]","./assets/img/canyon/test/2.jpg","[""ArrowDown""]","first stage test","canyon","0","{""ArrowUp,ArrowLeft"":27,""ArrowUp,ArrowRight"":15,""ArrowDown,ArrowLeft"":21,""ArrowDown,ArrowRight"":7}","false","ArrowDown","false","","","revaluation","1","","","",""
"html-keyboard-response","260","1198495","0.0-4.0-8.0-1.1","spark_pilot_2","7464","6","20","Male","","","","","","","null","<div style=""font-size:60px;"">+</div>","null","fixation","","","","","","","","","","","","","",""
"revaluation","261","1199084","0.0-4.0-8.0-0.2","spark_pilot_2","7464","6","20","Male","","false","","","","","[586.8999999761581]","./assets/img/canyon/test/0.jpg","[""ArrowUp""]","first stage test","canyon","0","{""ArrowUp,ArrowLeft"":27,""ArrowUp,ArrowRight"":15,""ArrowDown,ArrowLeft"":21,""ArrowDown,ArrowRight"":7}","true","ArrowUp","false","","","revaluation","1","","","",""
"html-keyboard-response","262","1199587","0.0-4.0-8.0-1.2","spark_pilot_2","7464","6","20","Male","","","","","","","null","<div style=""font-size:60px;"">+</div>","null","fixation","","","","","","","","","","","","","",""
"revaluation","263","1200628","0.0-4.0-8.0-0.3","spark_pilot_2","7464","6","20","Male","","false","","","","","[1039.7999999523163]","./assets/img/canyon/test/3.jpg","[""ArrowUp""]","first stage test","canyon","0","{""ArrowUp,ArrowLeft"":27,""ArrowUp,ArrowRight"":15,""ArrowDown,ArrowLeft"":21,""ArrowDown,ArrowRight"":7}","true","ArrowUp","false","","","revaluation","1","","","",""
"html-keyboard-response","264","1201137","0.0-4.0-8.0-1.3","spark_pilot_2","7464","6","20","Male","","","","","","","null","<div style=""font-size:60px;"">+</div>","null","fixation","","","","","","","","","","","","","",""
"learning-instructions","265","1212913","0.0-4.0-9.0-0.0","spark_pilot_2","7464","6","20","Male","","","","","","","425.8000000715256","<p> Now you will see the animals again and can search their chests for treasure. </p>
            <p> This time, you will not see how much treasure you earned, but you will earn more bonus money for making better choices. </p>","","instructions","","","","","","","","","","","","","",""
"revaluation","266","1213608","0.0-4.0-10.0-0.0","spark_pilot_2","7464","6","20","Male","","false","","","","","[694]","./assets/img/canyon/animals/giraffe.jpg","[""ArrowLeft""]","second stage test","canyon","0","{""ArrowUp,ArrowLeft"":27,""ArrowUp,ArrowRight"":15,""ArrowDown,ArrowLeft"":21,""ArrowDown,ArrowRight"":7}","true","ArrowUp,ArrowLeft","","","","revaluation","1","","","",""
"html-keyboard-response","267","1214125","0.0-4.0-10.0-1.0","spark_pilot_2","7464","6","20","Male","","","","","","","null","<div style=""font-size:60px;"">+</div>","null","fixation","","","","","","","","","","","","","",""
"revaluation","268","1214699","0.0-4.0-10.0-0.1","spark_pilot_2","7464","6","20","Male","","false","","","","","[572.2000000476837]","./assets/img/canyon/animals/giraffe.jpg","[""ArrowLeft""]","second stage test","canyon","0","{""ArrowUp,ArrowLeft"":27,""ArrowUp,ArrowRight"":15,""ArrowDown,ArrowLeft"":21,""ArrowDown,ArrowRight"":7}","true","ArrowUp,ArrowLeft","","","","revaluation","1","","","",""
"html-keyboard-response","269","1215207","0.0-4.0-10.0-1.1","spark_pilot_2","7464","6","20","Male","","","","","","","null","<div style=""font-size:60px;"">+</div>","null","fixation","","","","","","","","","","","","","",""
"revaluation","270","1215605","0.0-4.0-10.0-0.2","spark_pilot_2","7464","6","20","Male","","false","","","","","[396.10000002384186]","./assets/img/canyon/animals/giraffe.jpg","[""ArrowLeft""]","second stage test","canyon","0","{""ArrowUp,ArrowLeft"":27,""ArrowUp,ArrowRight"":15,""ArrowDown,ArrowLeft"":21,""ArrowDown,ArrowRight"":7}","true","ArrowUp,ArrowLeft","","","","revaluation","1","","","",""
"html-keyboard-response","271","1216112","0.0-4.0-10.0-1.2","spark_pilot_2","7464","6","20","Male","","","","","","","null","<div style=""font-size:60px;"">+</div>","null","fixation","","","","","","","","","","","","","",""
"revaluation","272","1216405","0.0-4.0-10.0-0.3","spark_pilot_2","7464","6","20","Male","","false","","","","","[291.2000000476837]","./assets/img/canyon/animals/giraffe.jpg","[""ArrowLeft""]","second stage test","canyon","0","{""ArrowUp,ArrowLeft"":27,""ArrowUp,ArrowRight"":15,""ArrowDown,ArrowLeft"":21,""ArrowDown,ArrowRight"":7}","true","ArrowUp,ArrowLeft","","","","revaluation","1","","","",""
"html-keyboard-response","273","1216913","0.0-4.0-10.0-1.3","spark_pilot_2","7464","6","20","Male","","","","","","","null","<div style=""font-size:60px;"">+</div>","null","fixation","","","","","","","","","","","","","",""
"revaluation","274","1217328","0.0-4.0-10.0-0.4","spark_pilot_2","7464","6","20","Male","","false","","","","","[413.39999997615814]","./assets/img/canyon/animals/lion.jpg","[""ArrowLeft""]","second stage test","canyon","0","{""ArrowUp,ArrowLeft"":27,""ArrowUp,ArrowRight"":15,""ArrowDown,ArrowLeft"":21,""ArrowDown,ArrowRight"":7}","true","ArrowDown,ArrowLeft","","","","revaluation","1","","","",""
"html-keyboard-response","275","1217838","0.0-4.0-10.0-1.4","spark_pilot_2","7464","6","20","Male","","","","","","","null","<div style=""font-size:60px;"">+</div>","null","fixation","","","","","","","","","","","","","",""
"revaluation","276","1218157","0.0-4.0-10.0-0.5","spark_pilot_2","7464","6","20","Male","","false","","","","","[317.60000002384186]","./assets/img/canyon/animals/lion.jpg","[""ArrowLeft""]","second stage test","canyon","0","{""ArrowUp,ArrowLeft"":27,""ArrowUp,ArrowRight"":15,""ArrowDown,ArrowLeft"":21,""ArrowDown,ArrowRight"":7}","true","ArrowDown,ArrowLeft","","","","revaluation","1","","","",""
"html-keyboard-response","277","1218665","0.0-4.0-10.0-1.5","spark_pilot_2","7464","6","20","Male","","","","","","","null","<div style=""font-size:60px;"">+</div>","null","fixation","","","","","","","","","","","","","",""
"revaluation","278","1218928","0.0-4.0-10.0-0.6","spark_pilot_2","7464","6","20","Male","","false","","","","","[260.6999999284744]","./assets/img/canyon/animals/lion.jpg","[""ArrowLeft""]","second stage test","canyon","0","{""ArrowUp,ArrowLeft"":27,""ArrowUp,ArrowRight"":15,""ArrowDown,ArrowLeft"":21,""ArrowDown,ArrowRight"":7}","true","ArrowDown,ArrowLeft","","","","revaluation","1","","","",""
"html-keyboard-response","279","1219432","0.0-4.0-10.0-1.6","spark_pilot_2","7464","6","20","Male","","","","","","","null","<div style=""font-size:60px;"">+</div>","null","fixation","","","","","","","","","","","","","",""
"revaluation","280","1219671","0.0-4.0-10.0-0.7","spark_pilot_2","7464","6","20","Male","","false","","","","","[238.19999992847443]","./assets/img/canyon/animals/lion.jpg","[""ArrowLeft""]","second stage test","canyon","0","{""ArrowUp,ArrowLeft"":27,""ArrowUp,ArrowRight"":15,""ArrowDown,ArrowLeft"":21,""ArrowDown,ArrowRight"":7}","true","ArrowDown,ArrowLeft","","","","revaluation","1","","","",""
"html-keyboard-response","281","1220182","0.0-4.0-10.0-1.7","spark_pilot_2","7464","6","20","Male","","","","","","","null","<div style=""font-size:60px;"">+</div>","null","fixation","","","","","","","","","","","","","",""
"learning-instructions","282","1223468","0.0-4.0-0.1-0.2","spark_pilot_2","7464","6","20","Male","","","","","","","591.1000000238419","<p> This time you are searching for treasure in the <b>ocean</b>.</p>","","instructions","","","","","","","","","","","","","",""
"learning-instructions","283","1241156","0.0-4.0-0.1-0.3","spark_pilot_2","7464","6","20","Male","","","","","","","439.10000002384186","<p><b>New</b> animals with <b>new</b> treasure chests live here. You need to explore to discover where the animal with the best treasure chest is.</p>
                    <p> Like before, once you figure out which animal has the chest with the most treasure, you should try to get to that animal and select that chest! </p>","","instructions","","","","","","","","","","","","","",""
"learning-instructions","284","1256493","0.0-4.0-1.1-0.1","spark_pilot_2","7464","6","20","Male","","","","","","","606.3999999761581","<p> Remember, when you see a picture of the place, use the up and down keys to <b>find an animal</b>.</p>
            <p> When you encounter an animal, you should use the left and right keys to <b>select a treasure chest</b>.</p>
            <p> Don't forget to look out for the robber! </p>","","instructions","","","","","","","","","","","","","",""
"revaluation","285","1262521","0.0-4.0-2.1-0.50","spark_pilot_2","7464","6","20","Male","","false","","","","","[769.8999999761581,497.5]","./assets/img/ocean/memory/37.jpg","[""ArrowDown"",""ArrowLeft""]","value training","ocean","5","{""ArrowUp,ArrowLeft"":26,""ArrowUp,ArrowRight"":10,""ArrowDown,ArrowLeft"":5,""ArrowDown,ArrowRight"":17}","false","ArrowDown,ArrowLeft","false","","","original","2","0","","",""
"html-keyboard-response","286","1263037","0.0-4.0-2.1-1.50","spark_pilot_2","7464","6","20","Male","","","","","","","null","<div style=""font-size:60px;"">+</div>","null","fixation","","","","","","","","","","","1","","",""
"revaluation","287","1267047","0.0-4.0-2.1-0.51","spark_pilot_2","7464","6","20","Male","","false","","","","","[409.7000000476837]","./assets/img/ocean/catch/5.jpg","[""ArrowUp""]","value training","ocean","-10","{""ArrowUp,ArrowLeft"":26,""ArrowUp,ArrowRight"":10,""ArrowDown,ArrowLeft"":5,""ArrowDown,ArrowRight"":17}","false","ArrowUp","true","","","original","2","2","","",""
"html-keyboard-response","288","1267562","0.0-4.0-2.1-1.51","spark_pilot_2","7464","6","20","Male","","","","","","","null","<div style=""font-size:60px;"">+</div>","null","fixation","","","","","","","","","","","3","","",""
"revaluation","289","1273597","0.0-4.0-2.1-0.52","spark_pilot_2","7464","6","20","Male","","false","","","","","[626.3999999761581,524.2999999523163]","./assets/img/ocean/memory/2.jpg","[""ArrowUp"",""ArrowRight""]","value training","ocean","10","{""ArrowUp,ArrowLeft"":26,""ArrowUp,ArrowRight"":10,""ArrowDown,ArrowLeft"":5,""ArrowDown,ArrowRight"":17}","false","ArrowUp,ArrowRight","false","","","original","2","4","","",""
"html-keyboard-response","290","1274100","0.0-4.0-2.1-1.52","spark_pilot_2","7464","6","20","Male","","","","","","","null","<div style=""font-size:60px;"">+</div>","null","fixation","","","","","","","","","","","5","","",""
"revaluation","291","1280136","0.0-4.0-2.1-0.53","spark_pilot_2","7464","6","20","Male","","false","","","","","[842.7999999523163,325.89999997615814]","./assets/img/ocean/memory/33.jpg","[""ArrowUp"",""ArrowLeft""]","value training","ocean","26","{""ArrowUp,ArrowLeft"":26,""ArrowUp,ArrowRight"":10,""ArrowDown,ArrowLeft"":5,""ArrowDown,ArrowRight"":17}","true","ArrowUp,ArrowLeft","false","","","original","2","6","","",""
"html-keyboard-response","292","1280650","0.0-4.0-2.1-1.53","spark_pilot_2","7464","6","20","Male","","","","","","","null","<div style=""font-size:60px;"">+</div>","null","fixation","","","","","","","","","","","7","","",""
"revaluation","293","1286664","0.0-4.0-2.1-0.54","spark_pilot_2","7464","6","20","Male","","false","","","","","[1043.3999999761581,368]","./assets/img/ocean/memory/14.jpg","[""ArrowDown"",""ArrowRight""]","value training","ocean","17","{""ArrowUp,ArrowLeft"":26,""ArrowUp,ArrowRight"":10,""ArrowDown,ArrowLeft"":5,""ArrowDown,ArrowRight"":17}","false","ArrowDown,ArrowRight","false","","","original","2","8","","",""
"html-keyboard-response","294","1287166","0.0-4.0-2.1-1.54","spark_pilot_2","7464","6","20","Male","","","","","","","null","<div style=""font-size:60px;"">+</div>","null","fixation","","","","","","","","","","","9","","",""
"revaluation","295","1293172","0.0-4.0-2.1-0.55","spark_pilot_2","7464","6","20","Male","","false","","","","","[528.2999999523163,459.7999999523163]","./assets/img/ocean/memory/2.jpg","[""ArrowUp"",""ArrowLeft""]","value training","ocean","26","{""ArrowUp,ArrowLeft"":26,""ArrowUp,ArrowRight"":10,""ArrowDown,ArrowLeft"":5,""ArrowDown,ArrowRight"":17}","true","ArrowUp,ArrowLeft","false","","","original","2","10","","",""
"html-keyboard-response","296","1293673","0.0-4.0-2.1-1.55","spark_pilot_2","7464","6","20","Male","","","","","","","null","<div style=""font-size:60px;"">+</div>","null","fixation","","","","","","","","","","","11","","",""
"revaluation","297","1299679","0.0-4.0-2.1-0.56","spark_pilot_2","7464","6","20","Male","","false","","","","","[642.3000000715256,517.1999999284744]","./assets/img/ocean/memory/41.jpg","[""ArrowUp"",""ArrowLeft""]","value training","ocean","26","{""ArrowUp,ArrowLeft"":26,""ArrowUp,ArrowRight"":10,""ArrowDown,ArrowLeft"":5,""ArrowDown,ArrowRight"":17}","true","ArrowUp,ArrowLeft","false","","","original","2","12","","",""
"html-keyboard-response","298","1300181","0.0-4.0-2.1-1.56","spark_pilot_2","7464","6","20","Male","","","","","","","null","<div style=""font-size:60px;"">+</div>","null","fixation","","","","","","","","","","","13","","",""
"revaluation","299","1306187","0.0-4.0-2.1-0.57","spark_pilot_2","7464","6","20","Male","","false","","","","","[767,484.7999999523163]","./assets/img/ocean/memory/9.jpg","[""ArrowUp"",""ArrowLeft""]","value training","ocean","26","{""ArrowUp,ArrowLeft"":26,""ArrowUp,ArrowRight"":10,""ArrowDown,ArrowLeft"":5,""ArrowDown,ArrowRight"":17}","true","ArrowUp,ArrowLeft","false","","","original","2","14","","",""
"html-keyboard-response","300","1306700","0.0-4.0-2.1-1.57","spark_pilot_2","7464","6","20","Male","","","","","","","null","<div style=""font-size:60px;"">+</div>","null","fixation","","","","","","","","","","","15","","",""
"revaluation","301","1312704","0.0-4.0-2.1-0.58","spark_pilot_2","7464","6","20","Male","","false","","","","","[637,448.1999999284744]","./assets/img/ocean/memory/17.jpg","[""ArrowUp"",""ArrowLeft""]","value training","ocean","26","{""ArrowUp,ArrowLeft"":26,""ArrowUp,ArrowRight"":10,""ArrowDown,ArrowLeft"":5,""ArrowDown,ArrowRight"":17}","true","ArrowUp,ArrowLeft","false","","","original","2","16","","",""
"html-keyboard-response","302","1313215","0.0-4.0-2.1-1.58","spark_pilot_2","7464","6","20","Male","","","","","","","null","<div style=""font-size:60px;"">+</div>","null","fixation","","","","","","","","","","","17","","",""
"revaluation","303","1319230","0.0-4.0-2.1-0.59","spark_pilot_2","7464","6","20","Male","","false","","","","","[564.2000000476837,422]","./assets/img/ocean/memory/41.jpg","[""ArrowUp"",""ArrowLeft""]","value training","ocean","26","{""ArrowUp,ArrowLeft"":26,""ArrowUp,ArrowRight"":10,""ArrowDown,ArrowLeft"":5,""ArrowDown,ArrowRight"":17}","true","ArrowUp,ArrowLeft","false","","","original","2","18","","",""
"html-keyboard-response","304","1319732","0.0-4.0-2.1-1.59","spark_pilot_2","7464","6","20","Male","","","","","","","null","<div style=""font-size:60px;"">+</div>","null","fixation","","","","","","","","","","","19","","",""
"revaluation","305","1325737","0.0-4.0-2.1-0.60","spark_pilot_2","7464","6","20","Male","","false","","","","","[811.3999999761581,415]","./assets/img/ocean/memory/0.jpg","[""ArrowUp"",""ArrowLeft""]","value training","ocean","26","{""ArrowUp,ArrowLeft"":26,""ArrowUp,ArrowRight"":10,""ArrowDown,ArrowLeft"":5,""ArrowDown,ArrowRight"":17}","true","ArrowUp,ArrowLeft","false","","","original","2","20","","",""
"html-keyboard-response","306","1326239","0.0-4.0-2.1-1.60","spark_pilot_2","7464","6","20","Male","","","","","","","null","<div style=""font-size:60px;"">+</div>","null","fixation","","","","","","","","","","","21","","",""
