"trial_type","trial_index","time_elapsed","internal_node_id","task_version","subject_id","assigned_condition","age","gender","success","timeout","failed_images","failed_audio","failed_video","browser_interaction","rt","stimulus","response","task_part","environment","score","rewardMap","correct","fullState","isCatch","numberMissed","duration","condition","order","trial_num","key_press","ground_truth","bonus"
"pavlovia","0","1872","0.0-0.0","spark_pilot_2","7404","7","16","Female","","","","","","","","","","","","","","","","","","","","","","","",""
"preload","1","25209","0.0-1.0","spark_pilot_2","7404","7","16","Female","true","false","[]","[]","[]","[{""event"":""fullscreenenter"",""trial"":2,""time"":30693}]","","","","","","","","","","","","","","","","","",""
"fullscreen","2","31606","0.0-2.0","spark_pilot_2","7404","7","16","Female","true","","","","","","","","","","","","","","","","","","","","","","",""
"audio-button-response","3","34168","0.0-3.0-0.0-0.0","spark_pilot_2","7404","7","16","Female","","","","","","","2293","./assets/audio/audiotest/turtle.mp3","2","audio_test","","","","","","","","","","","","","",""
"learning-instructions","4","44089","0.0-3.0-1.0-0.0","spark_pilot_2","7404","7","16","Female","","","","","","","2701","<p> Welcome! Please remember to stay in fullscreen mode and don't click away from the experiment. </p>","","instructions","","","","","","","","","","","","","",""
"learning-instructions","5","54494","0.0-3.0-1.0-0.1","spark_pilot_2","7404","7","16","Female","","","","","","","1906.3000001907349","<p> Today you will be playing a game to earn treasure. </p>
            <p> At the end of the experiment, you will earn a bonus based on how much treasure you find. </p>
            <img src='./assets/img/instructions/treasure.jpg' class='instructions-image'>","","instructions","","","","","","","","","","","","","",""
"learning-instructions","6","69031","0.0-3.0-1.0-0.2","spark_pilot_2","7404","7","16","Female","","","","","","","6148.199999809265","<p> Animals have hidden treasure in treasure chests. </p>
            <p> You need to first find an animal and then choose which of their treasure chests to search. </p>
            <img src='./assets/img/space/animals/cat.jpg' class='instructions-image'>","","instructions","","","","","","","","","","","","","",""
"learning-instructions","7","83058","0.0-3.0-1.0-0.3","spark_pilot_2","7404","7","16","Female","","","","","","","773.5999999046326","<p> In each round, you will search for treasure in a different place. In the real game, there will be two rounds. </p>
            <p> You will begin with a separate, practice round where you will search for treasure in outer space. </p>
            <img src='./assets/img/space/0.jpg' class='instructions-image'>","","instructions","","","","","","","","","","","","","",""
"learning-instructions","8","131751","0.0-3.0-1.0-0.4","spark_pilot_2","7404","7","16","Female","","","","","","","36688.699999809265","<p> On every turn, you will see a picture of the place that you are in, but the specific image may be different each time. </p>
            <p> For example, both of these images mean you are in outer space. </p>
            <img src='./assets/img/instructions/outerspace.jpg' class='instructions-image'>","","instructions","","","","","","","","","","","","","",""
"learning-instructions","9","147453","0.0-3.0-1.0-0.5","spark_pilot_2","7404","7","16","Female","","","","","","","7686","<p> You need to decide which direction to travel in. </p>
            <p> You can choose between going <b>up or down</b> by using the arrow keys. </p>
            <img src='./assets/img/instructions/updown.jpg' class='instructions-image'>","","instructions","","","","","","","","","","","","","",""
"learning-instructions","10","156829","0.0-3.0-1.0-0.6","spark_pilot_2","7404","7","16","Female","","","","","","","486","<p> You will have <b>2 seconds</b> to make your choice. </p>
            <p> If you do not make a choice within 2 seconds, you will not find an animal or earn treasure. </p>
            <img src='./assets/img/instructions/2seconds.jpg' class='instructions-image'>","","instructions","","","","","","","","","","","","","",""
"learning-instructions","11","179948","0.0-3.0-1.0-0.7","spark_pilot_2","7404","7","16","Female","","","","","","","16028.200000286102","<p> Let’s try practicing that now! </p>
            <p> When you see a picture of the place you are in, press the <b>up</b> key to travel up. </p>
            <img src='./assets/img/instructions/pressUp.jpg' class='instructions-image'>","","instructions","","","","","","","","","","","","","",""
"revaluation","12","184088","0.0-3.0-2.0-0.0","spark_pilot_2","7404","7","16","Female","","false","","","","","[1150.7999997138977]","./assets/img/space/0.jpg","[""ArrowUp""]","first stage practice","space","0","null","null","ArrowUp","false","","","","","","","",""
"html-keyboard-response","13","184612","0.0-3.0-2.0-1.0","spark_pilot_2","7404","7","16","Female","","","","","","","null","<div style=""font-size:60px;"">+</div>","null","fixation","","","","","","","","","","","","","",""
"revaluation","14","188623","0.0-3.0-2.0-0.1","spark_pilot_2","7404","7","16","Female","","true","","","","","[]","./assets/img/space/1.jpg","[]","first stage practice","space","-5","null","null","","false","","","","","","","",""
"html-keyboard-response","15","189130","0.0-3.0-2.0-1.1","spark_pilot_2","7404","7","16","Female","","","","","","","null","<div style=""font-size:60px;"">+</div>","null","fixation","","","","","","","","","","","","","",""
"revaluation","16","193164","0.0-3.0-2.0-0.2","spark_pilot_2","7404","7","16","Female","","true","","","","","[]","./assets/img/space/2.jpg","[]","first stage practice","space","-5","null","null","","false","","","","","","","",""
"html-keyboard-response","17","193670","0.0-3.0-2.0-1.2","spark_pilot_2","7404","7","16","Female","","","","","","","null","<div style=""font-size:60px;"">+</div>","null","fixation","","","","","","","","","","","","","",""
"learning-instructions","18","199838","0.0-3.0-3.0-0.0","spark_pilot_2","7404","7","16","Female","","","","","","","1435.7000002861023","<p> Great job! Now try pressing the <b>down</b> key to travel down. </p>
            <img src='./assets/img/instructions/pressDown.jpg' class='instructions-image'>","","instructions","","","","","","","","","","","","","",""
"revaluation","19","203874","0.0-3.0-4.0-0.0","spark_pilot_2","7404","7","16","Female","","false","","","","","[343.5]","./assets/img/space/3.jpg","[""ArrowDown""]","first stage practice","space","0","null","null","ArrowDown","false","","","","","","","",""
"html-keyboard-response","20","204385","0.0-3.0-4.0-1.0","spark_pilot_2","7404","7","16","Female","","","","","","","null","<div style=""font-size:60px;"">+</div>","null","fixation","","","","","","","","","","","","","",""
"revaluation","21","208422","0.0-3.0-4.0-0.1","spark_pilot_2","7404","7","16","Female","","false","","","","","[151.5]","./assets/img/space/4.jpg","[""ArrowDown""]","first stage practice","space","0","null","null","ArrowDown","false","","","","","","","",""
"html-keyboard-response","22","208948","0.0-3.0-4.0-1.1","spark_pilot_2","7404","7","16","Female","","","","","","","null","<div style=""font-size:60px;"">+</div>","null","fixation","","","","","","","","","","","","","",""
"revaluation","23","212987","0.0-3.0-4.0-0.2","spark_pilot_2","7404","7","16","Female","","false","","","","","[304.19999980926514]","./assets/img/space/5.jpg","[""ArrowDown""]","first stage practice","space","0","null","null","ArrowDown","false","","","","","","","",""
"html-keyboard-response","24","213493","0.0-3.0-4.0-1.2","spark_pilot_2","7404","7","16","Female","","","","","","","null","<div style=""font-size:60px;"">+</div>","null","fixation","","","","","","","","","","","","","",""
"learning-instructions","25","227190","0.0-3.0-5.0-0.0","spark_pilot_2","7404","7","16","Female","","","","","","","3794.199999809265","<p> The animals don’t move, so the animal in the upper part of a place will stay in the upper part of a place, and the animal in the lower part of a place will stay in the lower part of a place. </p>","","instructions","","","","","","","","","","","","","",""
"learning-instructions","26","237378","0.0-3.0-5.0-0.1","spark_pilot_2","7404","7","16","Female","","","","","","","992","<p> Each animal has two treasure chests for you to choose from. </p>
            <p> The amount of treasure in each chest can range from <b> 0 to 40 pieces.</b></p>","","instructions","","","","","","","","","","","","","",""
"learning-instructions","27","271298","0.0-3.0-5.0-0.2","spark_pilot_2","7404","7","16","Female","","","","","","","22614.299999713898","<p> You should decide which chest to search for treasure by using the <b>left</b> and <b>right</b> arrow keys. </p>
            <p><b> Pay attention to which animal is on the screen, as the animals have different treasure chests. </b></p>
            <img src='./assets/img/instructions/leftright.jpg' class='instructions-image'>","","instructions","","","","","","","","","","","","","",""
"learning-instructions","28","279191","0.0-3.0-5.0-0.3","spark_pilot_2","7404","7","16","Female","","","","","","","1481.3999996185303","<p> Let’s try practicing that now. </p>
            <p> When you see an animal, choose which chest to search for treasure. </p>
            <img src='./assets/img/instructions/chooseChest.jpg' class='instructions-image'>","","instructions","","","","","","","","","","","","","",""
"revaluation","29","283237","0.0-3.0-6.0-0.0","spark_pilot_2","7404","7","16","Female","","false","","","","","[1607.3000001907349]","./assets/img/space/animals/cat.jpg","[""ArrowRight""]","second stage practice","space","36","{""ArrowUp,ArrowLeft"":3,""ArrowUp,ArrowRight"":36,""ArrowDown,ArrowLeft"":15,""ArrowDown,ArrowRight"":23}","true","ArrowUp,ArrowRight","","","","","","","","",""
"html-keyboard-response","30","283741","0.0-3.0-6.0-1.0","spark_pilot_2","7404","7","16","Female","","","","","","","null","<div style=""font-size:60px;"">+</div>","null","fixation","","","","","","","","","","","","","",""
"revaluation","31","287763","0.0-3.0-6.0-0.1","spark_pilot_2","7404","7","16","Female","","false","","","","","[546.4000000953674]","./assets/img/space/animals/rabbit.jpg","[""ArrowLeft""]","second stage practice","space","15","{""ArrowUp,ArrowLeft"":3,""ArrowUp,ArrowRight"":36,""ArrowDown,ArrowLeft"":15,""ArrowDown,ArrowRight"":23}","false","ArrowDown,ArrowLeft","","","","","","","","",""
"html-keyboard-response","32","288275","0.0-3.0-6.0-1.1","spark_pilot_2","7404","7","16","Female","","","","","","","null","<div style=""font-size:60px;"">+</div>","null","fixation","","","","","","","","","","","","","",""
"revaluation","33","292292","0.0-3.0-6.0-0.2","spark_pilot_2","7404","7","16","Female","","false","","","","","[438]","./assets/img/space/animals/cat.jpg","[""ArrowRight""]","second stage practice","space","36","{""ArrowUp,ArrowLeft"":3,""ArrowUp,ArrowRight"":36,""ArrowDown,ArrowLeft"":15,""ArrowDown,ArrowRight"":23}","true","ArrowUp,ArrowRight","","","","","","","","",""
"html-keyboard-response","34","292804","0.0-3.0-6.0-1.2","spark_pilot_2","7404","7","16","Female","","","","","","","null","<div style=""font-size:60px;"">+</div>","null","fixation","","","","","","","","","","","","","",""
"revaluation","35","296828","0.0-3.0-6.0-0.3","spark_pilot_2","7404","7","16","Female","","false","","","","","[258.3999996185303]","./assets/img/space/animals/rabbit.jpg","[""ArrowLeft""]","second stage practice","space","15","{""ArrowUp,ArrowLeft"":3,""ArrowUp,ArrowRight"":36,""ArrowDown,ArrowLeft"":15,""ArrowDown,ArrowRight"":23}","false","ArrowDown,ArrowLeft","","","","","","","","",""
"html-keyboard-response","36","297334","0.0-3.0-6.0-1.3","spark_pilot_2","7404","7","16","Female","","","","","","","null","<div style=""font-size:60px;"">+</div>","null","fixation","","","","","","","","","","","","","",""
"learning-instructions","37","331470","0.0-3.0-7.0-0.0","spark_pilot_2","7404","7","16","Female","","","","","","","16950.200000286102","<p> Great job. Now let’s try putting it together. </p>
            <p> On each turn, you will first see a picture to remind you of the place you are in, and you need to choose whether to go up or down. </p>
            <p> Then you will see an animal and choose which of its chests to search for treasure. </p>","","instructions","","","","","","","","","","","","","",""
"learning-instructions","38","340568","0.0-3.0-7.0-0.1","spark_pilot_2","7404","7","16","Female","","","","","","","778.7999997138977","<p> When you choose whether to go up or down, try to go to the animal with the chest with the most treasure. </p>
            <p> Try practicing that now! </p>","","instructions","","","","","","","","","","","","","",""
"revaluation","39","346623","0.0-3.0-8.0-0.0","spark_pilot_2","7404","7","16","Female","","false","","","","","[1077.5999999046326,690.7999997138977]","./assets/img/space/6.jpg","[""ArrowDown"",""ArrowRight""]","full practice","space","23","{""ArrowUp,ArrowLeft"":3,""ArrowUp,ArrowRight"":36,""ArrowDown,ArrowLeft"":15,""ArrowDown,ArrowRight"":23}","false","ArrowDown,ArrowRight","false","","","","","","","",""
"html-keyboard-response","40","347138","0.0-3.0-8.0-1.0","spark_pilot_2","7404","7","16","Female","","","","","","","null","<div style=""font-size:60px;"">+</div>","null","fixation","","","","","","","","","","","","","",""
"revaluation","41","353190","0.0-3.0-8.0-0.1","spark_pilot_2","7404","7","16","Female","","false","","","","","[463.7000002861023,517.1000003814697]","./assets/img/space/7.jpg","[""ArrowUp"",""ArrowLeft""]","full practice","space","3","{""ArrowUp,ArrowLeft"":3,""ArrowUp,ArrowRight"":36,""ArrowDown,ArrowLeft"":15,""ArrowDown,ArrowRight"":23}","false","ArrowUp,ArrowLeft","false","","","","","","","",""
"html-keyboard-response","42","353711","0.0-3.0-8.0-1.1","spark_pilot_2","7404","7","16","Female","","","","","","","null","<div style=""font-size:60px;"">+</div>","null","fixation","","","","","","","","","","","","","",""
"revaluation","43","359779","0.0-3.0-8.0-0.2","spark_pilot_2","7404","7","16","Female","","false","","","","","[732.5999999046326,558.8000001907349]","./assets/img/space/8.jpg","[""ArrowDown"",""ArrowRight""]","full practice","space","23","{""ArrowUp,ArrowLeft"":3,""ArrowUp,ArrowRight"":36,""ArrowDown,ArrowLeft"":15,""ArrowDown,ArrowRight"":23}","false","ArrowDown,ArrowRight","false","","","","","","","",""
"html-keyboard-response","44","360290","0.0-3.0-8.0-1.2","spark_pilot_2","7404","7","16","Female","","","","","","","null","<div style=""font-size:60px;"">+</div>","null","fixation","","","","","","","","","","","","","",""
"revaluation","45","366341","0.0-3.0-8.0-0.3","spark_pilot_2","7404","7","16","Female","","false","","","","","[498.5,326.30000019073486]","./assets/img/space/9.jpg","[""ArrowUp"",""ArrowRight""]","full practice","space","36","{""ArrowUp,ArrowLeft"":3,""ArrowUp,ArrowRight"":36,""ArrowDown,ArrowLeft"":15,""ArrowDown,ArrowRight"":23}","true","ArrowUp,ArrowRight","false","","","","","","","",""
"html-keyboard-response","46","366855","0.0-3.0-8.0-1.3","spark_pilot_2","7404","7","16","Female","","","","","","","null","<div style=""font-size:60px;"">+</div>","null","fixation","","","","","","","","","","","","","",""
"revaluation","47","372884","0.0-3.0-8.0-0.4","spark_pilot_2","7404","7","16","Female","","false","","","","","[498.19999980926514,695.5999999046326]","./assets/img/space/10.jpg","[""ArrowDown"",""ArrowRight""]","full practice","space","23","{""ArrowUp,ArrowLeft"":3,""ArrowUp,ArrowRight"":36,""ArrowDown,ArrowLeft"":15,""ArrowDown,ArrowRight"":23}","false","ArrowDown,ArrowRight","false","","","","","","","",""
"html-keyboard-response","48","373397","0.0-3.0-8.0-1.4","spark_pilot_2","7404","7","16","Female","","","","","","","null","<div style=""font-size:60px;"">+</div>","null","fixation","","","","","","","","","","","","","",""
"learning-instructions","49","400846","0.0-3.0-9.0-0.0","spark_pilot_2","7404","7","16","Female","","","","","","","17078.599999904633","<p> One last thing: sometimes, you will see a robber. The robber can be anywhere in the picture. </p>
            <p> If you do not stop them, you will lose treasure. </p>
            <img src='./assets/img/instructions/robber.jpg' class='instructions-image'>","","instructions","","","","","","","","","","","","","",""
"learning-instructions","50","408321","0.0-3.0-9.0-0.1","spark_pilot_2","7404","7","16","Female","","","","","","","266.80000019073486","<p> If you see the robber, you should <b>press the space bar</b> rather than using the arrow keys. </p>
            <p> Try practicing that now! </p>","","instructions","","","","","","","","","","","","","",""
"revaluation","51","412347","0.0-3.0-10.0-0.0","spark_pilot_2","7404","7","16","Female","","false","","","","","[1031.7000002861023]","./assets/img/space/catch/0.jpg","[""spaceBar""]","catch practice","space","0","{""ArrowUp,ArrowLeft"":3,""ArrowUp,ArrowRight"":36,""ArrowDown,ArrowLeft"":15,""ArrowDown,ArrowRight"":23}","true","spaceBar","true","","","","","","","",""
"html-keyboard-response","52","412856","0.0-3.0-10.0-1.0","spark_pilot_2","7404","7","16","Female","","","","","","","null","<div style=""font-size:60px;"">+</div>","null","fixation","","","","","","","","","","","","","",""
"revaluation","53","416895","0.0-3.0-10.0-0.1","spark_pilot_2","7404","7","16","Female","","false","","","","","[540.8000001907349]","./assets/img/space/catch/1.jpg","[""spaceBar""]","catch practice","space","0","{""ArrowUp,ArrowLeft"":3,""ArrowUp,ArrowRight"":36,""ArrowDown,ArrowLeft"":15,""ArrowDown,ArrowRight"":23}","true","spaceBar","true","","","","","","","",""
"html-keyboard-response","54","417417","0.0-3.0-10.0-1.1","spark_pilot_2","7404","7","16","Female","","","","","","","null","<div style=""font-size:60px;"">+</div>","null","fixation","","","","","","","","","","","","","",""
"revaluation","55","421440","0.0-3.0-10.0-0.2","spark_pilot_2","7404","7","16","Female","","false","","","","","[273.09999990463257]","./assets/img/space/catch/2.jpg","[""spaceBar""]","catch practice","space","0","{""ArrowUp,ArrowLeft"":3,""ArrowUp,ArrowRight"":36,""ArrowDown,ArrowLeft"":15,""ArrowDown,ArrowRight"":23}","true","spaceBar","true","","","","","","","",""
"html-keyboard-response","56","421962","0.0-3.0-10.0-1.2","spark_pilot_2","7404","7","16","Female","","","","","","","null","<div style=""font-size:60px;"">+</div>","null","fixation","","","","","","","","","","","","","",""
"learning-instructions","57","536644","0.0-3.0-11.0-0.0","spark_pilot_2","7404","7","16","Female","","","","","","","101047.90000009537","<p> After you explore a place to find treasure, it will be time to play a different game. </p>
            <p> During this game, red dots will appear on the screen and fall down slowly. </p>
            <p><b> You must click on them before they reach the bottom. </b></p>
            <img src='./assets/img/instructions/dotGame.jpg' class='instructions-image'>","","instructions","","","","","","","","","","","","","",""
"learning-instructions","58","547952","0.0-3.0-11.0-0.1","spark_pilot_2","7404","7","16","Female","","","","","","","5549.700000286102","<p> For every dot you click, you will earn additional treasure. </p>
            <p> Let’s try practicing that now. </p>","","instructions","","","","","","","","","","","","","",""
"revaluation","59","562968","0.0-3.0-12.0-0.0","spark_pilot_2","7404","7","16","Female","","","","","","","[96,116]","","","rest practice","","20","","","","","0","15000","","","","","",""
"learning-instructions","60","634028","0.0-3.0-13.0-0.0-0.0","spark_pilot_2","7404","7","16","Female","","","","","","","65780.59999990463","<p> Now, you will practice a shortened version of the game to get a sense of how it all fits together. </p>","","instructions","","","","","","","","","","","","","",""
"learning-instructions","61","639366","0.0-3.0-13.0-0.0-0.1","spark_pilot_2","7404","7","16","Female","","","","","","","1817.5999999046326","<p>This time you are searching for treasure in outer space.</p>","","instructions","","","","","","","","","","","","","",""
"learning-instructions","62","658192","0.0-3.0-13.0-1.0-0.0","spark_pilot_2","7404","7","16","Female","","","","","","","4025.199999809265","<p> Remember, when you see a picture of the place, use the up and down keys to <b>find an animal</b>.</p>
            <p> When you encounter an animal, you should use the left and right keys to <b>select a treasure chest</b>.</p>
            <p> Don't forget to look out for the robber! </p>","","instructions","","","","","","","","","","","","","",""
"revaluation","63","664234","0.0-3.0-13.0-2.0-0.0","spark_pilot_2","7404","7","16","Female","","false","","","","","[956.0999999046326,789.8000001907349]","./assets/img/space/11.jpg","[""ArrowUp"",""ArrowRight""]","practice block","space","36","{""ArrowUp,ArrowLeft"":3,""ArrowUp,ArrowRight"":36,""ArrowDown,ArrowLeft"":15,""ArrowDown,ArrowRight"":23}","true","ArrowUp,ArrowRight","false","","","","","","","",""
"html-keyboard-response","64","664741","0.0-3.0-13.0-2.0-1.0","spark_pilot_2","7404","7","16","Female","","","","","","","null","<div style=""font-size:60px;"">+</div>","null","fixation","","","","","","","","","","","","","",""
"revaluation","65","670783","0.0-3.0-13.0-2.0-0.1","spark_pilot_2","7404","7","16","Female","","false","","","","","[427.19999980926514,444]","./assets/img/space/12.jpg","[""ArrowDown"",""ArrowLeft""]","practice block","space","15","{""ArrowUp,ArrowLeft"":3,""ArrowUp,ArrowRight"":36,""ArrowDown,ArrowLeft"":15,""ArrowDown,ArrowRight"":23}","false","ArrowDown,ArrowLeft","false","","","","","","","",""
"html-keyboard-response","66","671292","0.0-3.0-13.0-2.0-1.1","spark_pilot_2","7404","7","16","Female","","","","","","","null","<div style=""font-size:60px;"">+</div>","null","fixation","","","","","","","","","","","","","",""
"revaluation","67","677355","0.0-3.0-13.0-2.0-0.2","spark_pilot_2","7404","7","16","Female","","false","","","","","[656.7999997138977,245.09999990463257]","./assets/img/space/13.jpg","[""ArrowUp"",""ArrowLeft""]","practice block","space","3","{""ArrowUp,ArrowLeft"":3,""ArrowUp,ArrowRight"":36,""ArrowDown,ArrowLeft"":15,""ArrowDown,ArrowRight"":23}","false","ArrowUp,ArrowLeft","false","","","","","","","",""
"html-keyboard-response","68","677863","0.0-3.0-13.0-2.0-1.2","spark_pilot_2","7404","7","16","Female","","","","","","","null","<div style=""font-size:60px;"">+</div>","null","fixation","","","","","","","","","","","","","",""
"revaluation","69","683900","0.0-3.0-13.0-2.0-0.3","spark_pilot_2","7404","7","16","Female","","false","","","","","[490.90000009536743,292.5]","./assets/img/space/14.jpg","[""ArrowDown"",""ArrowRight""]","practice block","space","23","{""ArrowUp,ArrowLeft"":3,""ArrowUp,ArrowRight"":36,""ArrowDown,ArrowLeft"":15,""ArrowDown,ArrowRight"":23}","false","ArrowDown,ArrowRight","false","","","","","","","",""
"html-keyboard-response","70","684405","0.0-3.0-13.0-2.0-1.3","spark_pilot_2","7404","7","16","Female","","","","","","","null","<div style=""font-size:60px;"">+</div>","null","fixation","","","","","","","","","","","","","",""
"revaluation","71","690436","0.0-3.0-13.0-2.0-0.4","spark_pilot_2","7404","7","16","Female","","false","","","","","[450.59999990463257,667.5999999046326]","./assets/img/space/11.jpg","[""ArrowUp"",""ArrowRight""]","practice block","space","36","{""ArrowUp,ArrowLeft"":3,""ArrowUp,ArrowRight"":36,""ArrowDown,ArrowLeft"":15,""ArrowDown,ArrowRight"":23}","true","ArrowUp,ArrowRight","false","","","","","","","",""
"html-keyboard-response","72","690940","0.0-3.0-13.0-2.0-1.4","spark_pilot_2","7404","7","16","Female","","","","","","","null","<div style=""font-size:60px;"">+</div>","null","fixation","","","","","","","","","","","","","",""
"revaluation","73","696964","0.0-3.0-13.0-2.0-0.5","spark_pilot_2","7404","7","16","Female","","false","","","","","[565.7999997138977,397.09999990463257]","./assets/img/space/12.jpg","[""ArrowUp"",""ArrowLeft""]","practice block","space","3","{""ArrowUp,ArrowLeft"":3,""ArrowUp,ArrowRight"":36,""ArrowDown,ArrowLeft"":15,""ArrowDown,ArrowRight"":23}","false","ArrowUp,ArrowLeft","false","","","","","","","",""
"html-keyboard-response","74","697468","0.0-3.0-13.0-2.0-1.5","spark_pilot_2","7404","7","16","Female","","","","","","","null","<div style=""font-size:60px;"">+</div>","null","fixation","","","","","","","","","","","","","",""
"revaluation","75","703492","0.0-3.0-13.0-2.0-0.6","spark_pilot_2","7404","7","16","Female","","false","","","","","[317.2999997138977,373.7000002861023]","./assets/img/space/13.jpg","[""ArrowUp"",""ArrowRight""]","practice block","space","36","{""ArrowUp,ArrowLeft"":3,""ArrowUp,ArrowRight"":36,""ArrowDown,ArrowLeft"":15,""ArrowDown,ArrowRight"":23}","true","ArrowUp,ArrowRight","false","","","","","","","",""
"html-keyboard-response","76","703997","0.0-3.0-13.0-2.0-1.6","spark_pilot_2","7404","7","16","Female","","","","","","","null","<div style=""font-size:60px;"">+</div>","null","fixation","","","","","","","","","","","","","",""
"revaluation","77","710021","0.0-3.0-13.0-2.0-0.7","spark_pilot_2","7404","7","16","Female","","false","","","","","[668.1999998092651,284.7999997138977]","./assets/img/space/14.jpg","[""ArrowUp"",""ArrowRight""]","practice block","space","36","{""ArrowUp,ArrowLeft"":3,""ArrowUp,ArrowRight"":36,""ArrowDown,ArrowLeft"":15,""ArrowDown,ArrowRight"":23}","true","ArrowUp,ArrowRight","false","","","","","","","",""
"html-keyboard-response","78","710525","0.0-3.0-13.0-2.0-1.7","spark_pilot_2","7404","7","16","Female","","","","","","","null","<div style=""font-size:60px;"">+</div>","null","fixation","","","","","","","","","","","","","",""
"revaluation","79","714540","0.0-3.0-13.0-2.0-0.8","spark_pilot_2","7404","7","16","Female","","false","","","","","[941]","./assets/img/space/catch/3.jpg","[""spaceBar""]","practice block","space","0","{""ArrowUp,ArrowLeft"":3,""ArrowUp,ArrowRight"":36,""ArrowDown,ArrowLeft"":15,""ArrowDown,ArrowRight"":23}","true","spaceBar","true","","","","","","","",""
"html-keyboard-response","80","715044","0.0-3.0-13.0-2.0-1.8","spark_pilot_2","7404","7","16","Female","","","","","","","null","<div style=""font-size:60px;"">+</div>","null","fixation","","","","","","","","","","","","","",""
"learning-instructions","81","8015261","0.0-3.0-13.0-3.0-0.0","spark_pilot_2","7404","7","16","Female","","","","","","","7287148.5","<p> Now, you will travel with a friend who will choose whether you go up or down first. </p>
            <p> On these turns, you will just see the animal that they found. You will still get to choose which chest to search for treasure.</p>","","instructions","","","","","","","","","","","","","",""
"revaluation","82","8019461","0.0-3.0-13.0-4.0-0.0","spark_pilot_2","7404","7","16","Female","","false","","","","","[1402.5999999046326]","./assets/img/space/animals/rabbit.jpg","[""ArrowLeft""]","practice block","space","15","{""ArrowUp,ArrowLeft"":3,""ArrowUp,ArrowRight"":36,""ArrowDown,ArrowLeft"":15,""ArrowDown,ArrowRight"":23}","false","ArrowDown,ArrowLeft","","","","","","","","",""
"html-keyboard-response","83","8019972","0.0-3.0-13.0-4.0-1.0","spark_pilot_2","7404","7","16","Female","","","","","","","null","<div style=""font-size:60px;"">+</div>","null","fixation","","","","","","","","","","","","","",""
"revaluation","84","8023980","0.0-3.0-13.0-4.0-0.1","spark_pilot_2","7404","7","16","Female","","false","","","","","[840.2000002861023]","./assets/img/space/animals/cat.jpg","[""ArrowRight""]","practice block","space","36","{""ArrowUp,ArrowLeft"":3,""ArrowUp,ArrowRight"":36,""ArrowDown,ArrowLeft"":15,""ArrowDown,ArrowRight"":23}","true","ArrowUp,ArrowRight","","","","","","","","",""
"html-keyboard-response","85","8024484","0.0-3.0-13.0-4.0-1.1","spark_pilot_2","7404","7","16","Female","","","","","","","null","<div style=""font-size:60px;"">+</div>","null","fixation","","","","","","","","","","","","","",""
"revaluation","86","8028501","0.0-3.0-13.0-4.0-0.2","spark_pilot_2","7404","7","16","Female","","false","","","","","[308.90000009536743]","./assets/img/space/animals/cat.jpg","[""ArrowLeft""]","practice block","space","3","{""ArrowUp,ArrowLeft"":3,""ArrowUp,ArrowRight"":36,""ArrowDown,ArrowLeft"":15,""ArrowDown,ArrowRight"":23}","false","ArrowUp,ArrowLeft","","","","","","","","",""
"html-keyboard-response","87","8029004","0.0-3.0-13.0-4.0-1.2","spark_pilot_2","7404","7","16","Female","","","","","","","null","<div style=""font-size:60px;"">+</div>","null","fixation","","","","","","","","","","","","","",""
"revaluation","88","8033020","0.0-3.0-13.0-4.0-0.3","spark_pilot_2","7404","7","16","Female","","false","","","","","[423.8999996185303]","./assets/img/space/animals/rabbit.jpg","[""ArrowRight""]","practice block","space","23","{""ArrowUp,ArrowLeft"":3,""ArrowUp,ArrowRight"":36,""ArrowDown,ArrowLeft"":15,""ArrowDown,ArrowRight"":23}","true","ArrowDown,ArrowRight","","","","","","","","",""
"html-keyboard-response","89","8033524","0.0-3.0-13.0-4.0-1.3","spark_pilot_2","7404","7","16","Female","","","","","","","null","<div style=""font-size:60px;"">+</div>","null","fixation","","","","","","","","","","","","","",""
"learning-instructions","90","8044783","0.0-3.0-13.0-5.0-0.0","spark_pilot_2","7404","7","16","Female","","","","","","","3396.199999809265","<p> Time to play the dot game! </p>
            <p> For 15 seconds, click the red dots on the following screen as they appear. </p>","","instructions","","","","","","","","","","","","","",""
"revaluation","91","8059789","0.0-3.0-13.0-6.0-0.0","spark_pilot_2","7404","7","16","Female","","","","","","","[71,73]","","","rest practice","","20","","","","","0","15000","","","","","",""
"learning-instructions","92","8073679","0.0-3.0-13.0-7.0-0.0","spark_pilot_2","7404","7","16","Female","","","","","","","7744.300000190735","<p> You have almost finished this part of the game! </p>
            <p> We are going to ask you to make a few more choices. </p>","","instructions","","","","","","","","","","","","","",""
"learning-instructions","93","8089351","0.0-3.0-13.0-7.0-0.1","spark_pilot_2","7404","7","16","Female","","","","","","","1604.5999999046326","<p> First, you need to decide whether to go up or down. When you see each picture, use the arrow keys to make your choice. </p>
            <p><b>You will not see which animal you found, but try to get to the one that will give you the most treasure.</b></p>","","instructions","","","","","","","","","","","","","",""
"revaluation","94","8090281","0.0-3.0-13.0-8.0","spark_pilot_2","7404","7","16","Female","","false","","","","","[925.5]","./assets/img/space/15.jpg","[""ArrowUp""]","practice block","space","0","{""ArrowUp,ArrowLeft"":3,""ArrowUp,ArrowRight"":36,""ArrowDown,ArrowLeft"":15,""ArrowDown,ArrowRight"":23}","true","ArrowUp","false","","","","","","","",""
"html-keyboard-response","95","8090798","0.0-3.0-13.0-9.0","spark_pilot_2","7404","7","16","Female","","","","","","","null","<div style=""font-size:60px;"">+</div>","null","fixation","","","","","","","","","","","","","",""
"learning-instructions","96","8114818","0.0-3.0-13.0-10.0-0.0","spark_pilot_2","7404","7","16","Female","","","","","","","12616.800000190735","<p> Now you will see the animals again and can search their chests for treasure. </p>
            <p> This time, you will not see how much treasure you earned, but you will earn more bonus money for making better choices. </p>","","instructions","","","","","","","","","","","","","",""
"revaluation","97","8115873","0.0-3.0-13.0-11.0-0.0","spark_pilot_2","7404","7","16","Female","","false","","","","","[1052.4000000953674]","./assets/img/space/animals/cat.jpg","[""ArrowRight""]","practice block","space","0","{""ArrowUp,ArrowLeft"":3,""ArrowUp,ArrowRight"":36,""ArrowDown,ArrowLeft"":15,""ArrowDown,ArrowRight"":23}","true","ArrowUp,ArrowRight","","","","","","","","",""
"html-keyboard-response","98","8116394","0.0-3.0-13.0-11.0-1.0","spark_pilot_2","7404","7","16","Female","","","","","","","null","<div style=""font-size:60px;"">+</div>","null","fixation","","","","","","","","","","","","","",""
"revaluation","99","8116884","0.0-3.0-13.0-11.0-0.1","spark_pilot_2","7404","7","16","Female","","false","","","","","[485.6000003814697]","./assets/img/space/animals/rabbit.jpg","[""ArrowRight""]","practice block","space","0","{""ArrowUp,ArrowLeft"":3,""ArrowUp,ArrowRight"":36,""ArrowDown,ArrowLeft"":15,""ArrowDown,ArrowRight"":23}","true","ArrowDown,ArrowRight","","","","","","","","",""
"html-keyboard-response","100","8117397","0.0-3.0-13.0-11.0-1.1","spark_pilot_2","7404","7","16","Female","","","","","","","null","<div style=""font-size:60px;"">+</div>","null","fixation","","","","","","","","","","","","","",""
"learning-instructions","101","8124496","0.0-3.0-14.0-0.0","spark_pilot_2","7404","7","16","Female","","","","","","","2495.7999997138977","<p> Before you start, we're going to ask you a few questions about how the game works. </p>","","instructions","","","","","","","","","","","","","",""
"comp-q","102","8132527","0.0-3.0-15.0-0.0-0.0","spark_pilot_2","7404","7","16","Female","","","","","","","2388.7999997138977","<p> <b> True or False? </b> </p>
            <p> There can be 50 pieces of treasure in a given animal's chest. </p>","0","comp_question","","","","false","","","","","","","","","",""
"comp-q","103","22928645","0.0-3.0-15.0-0.0-1.0","spark_pilot_2","7404","7","16","Female","","","","","","","14789539.19999981","<p> <b>Incorrect.</b> The amount of treasure in each chest can range from 0 to 40 pieces. </p>","0","comp_answer","","","","","","","","","","","","","",""
"comp-q","104","22936098","0.0-3.0-15.0-0.1-0.1","spark_pilot_2","7404","7","16","Female","","","","","","","1632.5999999046326","<p> <b> True or False? </b> </p>
            <p> There can be 50 pieces of treasure in a given animal's chest. </p>","1","comp_question","","","","true","","","","","","","","","",""
"comp-q","105","22948240","0.0-3.0-15.0-0.1-1.1","spark_pilot_2","7404","7","16","Female","","","","","","","4236.89999961853","<p> <b> That's right! </b> The amount of treasure in each chest can range from 0 to 40 pieces. </p>","0","comp_answer","","","","","","","","","","","","","",""
"comp-q","106","22956672","0.0-3.0-15.0-0.2-0.2","spark_pilot_2","7404","7","16","Female","","","","","","","1276.2999997138977","<p> <b> True or False? </b> </p><p> In this game, all animals have the same amount of treasure in their left and right chests. </p>","1","comp_question","","","","true","","","","","","","","","",""
"comp-q","107","22965673","0.0-3.0-15.0-0.2-1.2","spark_pilot_2","7404","7","16","Female","","","","","","","3707.2999997138977","<p> <b> That's right! </b> Animals have different amounts of treasure in their treasure chests. </p>","0","comp_answer","","","","","","","","","","","","","",""
"comp-q","108","22974738","0.0-3.0-15.0-0.3-0.3","spark_pilot_2","7404","7","16","Female","","","","","","","2134.5","<p> <b> True or False? </b> </p><p> The same animal will always be there if you go up in the same place. </p>","1","comp_question","","","","false","","","","","","","","","",""
"comp-q","109","22982607","0.0-3.0-15.0-0.3-1.3","spark_pilot_2","7404","7","16","Female","","","","","","","1527.0999999046326","<p> <b>Incorrect.</b> One animal lives in the upper part and one lives in the lower part of every place. </p>","0","comp_answer","","","","","","","","","","","","","",""
"comp-q","110","22990166","0.0-3.0-15.0-0.4-0.4","spark_pilot_2","7404","7","16","Female","","","","","","","1735.0999999046326","<p> <b> True or False? </b> </p><p> The same animal will always be there if you go up in the same place. </p>","0","comp_question","","","","true","","","","","","","","","",""
"comp-q","111","22998057","0.0-3.0-15.0-0.4-1.4","spark_pilot_2","7404","7","16","Female","","","","","","","1382.8000001907349","<p> <b> That's right! </b> One animal lives in the upper part and one lives in the lower part of every place. </p>","0","comp_answer","","","","","","","","","","","","","",""
"comp-q","112","23004792","0.0-3.0-15.0-0.5-0.5","spark_pilot_2","7404","7","16","Female","","","","","","","1161.6999998092651","<p> <b> True or False? </b> </p><p> If you see a different picture, it means you are in a new place. </p>","0","comp_question","","","","false","","","","","","","","","",""
"comp-q","113","23016622","0.0-3.0-15.0-0.5-1.5","spark_pilot_2","7404","7","16","Female","","","","","","","671.6000003814697","<p> <b>Incorrect.</b> Lots of different images may show the same place. For example,  you may see three different images that all remind you that you are in outer space. </p>","0","comp_answer","","","","","","","","","","","","","",""
"comp-q","114","23023313","0.0-3.0-15.0-0.6-0.6","spark_pilot_2","7404","7","16","Female","","","","","","","1187.5999999046326","<p> <b> True or False? </b> </p><p> If you see a different picture, it means you are in a new place. </p>","1","comp_question","","","","true","","","","","","","","","",""
"comp-q","115","23036978","0.0-3.0-15.0-0.6-1.6","spark_pilot_2","7404","7","16","Female","","","","","","","2350.0999999046326","<p> <b> That's right! </b> Lots of different images may show the same place. For example,  you may see three different images that all remind you that you are in outer space. </p>","0","comp_answer","","","","","","","","","","","","","",""
"learning-instructions","116","23048932","0.0-3.0-16.0-0.0","spark_pilot_2","7404","7","16","Female","","","","","","","1995.3999996185303","<p> Good job. Remember to do your best because the amount of treasure you earn will be converted into bonus money. </p>
            <p> It’s time to start the real game! </p>","","instructions","","","","","","","","","","","","","",""
"learning-instructions","117","23053241","0.0-4.0-0.0-0.0","spark_pilot_2","7404","7","16","Female","","","","","","","1483.6999998092651","<p> This time you are searching for treasure in the <b>canyon</b>.</p>","","instructions","","","","","","","","","","","","","",""
"learning-instructions","118","23072081","0.0-4.0-0.0-0.1","spark_pilot_2","7404","7","16","Female","","","","","","","1442.5","<p><b>New</b> animals with <b>new</b> treasure chests live here. You need to explore to discover where the animal with the best treasure chest is.</p>
                    <p> Like before, once you figure out which animal has the chest with the most treasure, you should try to get to that animal and select that chest! </p>","","instructions","","","","","","","","","","","","","",""
"learning-instructions","119","23088507","0.0-4.0-1.0-0.0","spark_pilot_2","7404","7","16","Female","","","","","","","1665.8999996185303","<p> Remember, when you see a picture of the place, use the up and down keys to <b>find an animal</b>.</p>
            <p> When you encounter an animal, you should use the left and right keys to <b>select a treasure chest</b>.</p>
            <p> Don't forget to look out for the robber! </p>","","instructions","","","","","","","","","","","","","",""
"revaluation","120","23094575","0.0-4.0-2.0-0.0","spark_pilot_2","7404","7","16","Female","","false","","","","","[1131.1999998092651,710.4000000953674]","./assets/img/canyon/memory/17.jpg","[""ArrowUp"",""ArrowLeft""]","value training","canyon","23","{""ArrowUp,ArrowLeft"":23,""ArrowUp,ArrowRight"":10,""ArrowDown,ArrowLeft"":8,""ArrowDown,ArrowRight"":30}","false","ArrowUp,ArrowLeft","false","","","original","1","0","","",""
"html-keyboard-response","121","23095104","0.0-4.0-2.0-1.0","spark_pilot_2","7404","7","16","Female","","","","","","","null","<div style=""font-size:60px;"">+</div>","null","fixation","","","","","","","","","","","1","","",""
"revaluation","122","23099138","0.0-4.0-2.0-0.1","spark_pilot_2","7404","7","16","Female","","false","","","","","[461.5]","./assets/img/canyon/catch/6.jpg","[""ArrowUp""]","value training","canyon","-10","{""ArrowUp,ArrowLeft"":23,""ArrowUp,ArrowRight"":10,""ArrowDown,ArrowLeft"":8,""ArrowDown,ArrowRight"":30}","false","ArrowUp","true","","","original","1","2","","",""
"html-keyboard-response","123","23099657","0.0-4.0-2.0-1.1","spark_pilot_2","7404","7","16","Female","","","","","","","null","<div style=""font-size:60px;"">+</div>","null","fixation","","","","","","","","","","","3","","",""
"revaluation","124","23105700","0.0-4.0-2.0-0.2","spark_pilot_2","7404","7","16","Female","","false","","","","","[406.69999980926514,460.69999980926514]","./assets/img/canyon/memory/31.jpg","[""ArrowDown"",""ArrowRight""]","value training","canyon","30","{""ArrowUp,ArrowLeft"":23,""ArrowUp,ArrowRight"":10,""ArrowDown,ArrowLeft"":8,""ArrowDown,ArrowRight"":30}","true","ArrowDown,ArrowRight","false","","","original","1","4","","",""
"html-keyboard-response","125","23106216","0.0-4.0-2.0-1.2","spark_pilot_2","7404","7","16","Female","","","","","","","null","<div style=""font-size:60px;"">+</div>","null","fixation","","","","","","","","","","","5","","",""
"revaluation","126","23112269","0.0-4.0-2.0-0.3","spark_pilot_2","7404","7","16","Female","","false","","","","","[558.5999999046326,408.19999980926514]","./assets/img/canyon/memory/15.jpg","[""ArrowUp"",""ArrowRight""]","value training","canyon","10","{""ArrowUp,ArrowLeft"":23,""ArrowUp,ArrowRight"":10,""ArrowDown,ArrowLeft"":8,""ArrowDown,ArrowRight"":30}","false","ArrowUp,ArrowRight","false","","","original","1","6","","",""
"html-keyboard-response","127","23112783","0.0-4.0-2.0-1.3","spark_pilot_2","7404","7","16","Female","","","","","","","null","<div style=""font-size:60px;"">+</div>","null","fixation","","","","","","","","","","","7","","",""
"revaluation","128","23118831","0.0-4.0-2.0-0.4","spark_pilot_2","7404","7","16","Female","","false","","","","","[664.5,343.1000003814697]","./assets/img/canyon/memory/30.jpg","[""ArrowDown"",""ArrowRight""]","value training","canyon","30","{""ArrowUp,ArrowLeft"":23,""ArrowUp,ArrowRight"":10,""ArrowDown,ArrowLeft"":8,""ArrowDown,ArrowRight"":30}","true","ArrowDown,ArrowRight","false","","","original","1","8","","",""
"html-keyboard-response","129","23119341","0.0-4.0-2.0-1.4","spark_pilot_2","7404","7","16","Female","","","","","","","null","<div style=""font-size:60px;"">+</div>","null","fixation","","","","","","","","","","","9","","",""
"revaluation","130","23125366","0.0-4.0-2.0-0.5","spark_pilot_2","7404","7","16","Female","","false","","","","","[695.1999998092651,315.2999997138977]","./assets/img/canyon/memory/35.jpg","[""ArrowDown"",""ArrowLeft""]","value training","canyon","8","{""ArrowUp,ArrowLeft"":23,""ArrowUp,ArrowRight"":10,""ArrowDown,ArrowLeft"":8,""ArrowDown,ArrowRight"":30}","false","ArrowDown,ArrowLeft","false","","","original","1","10","","",""
"html-keyboard-response","131","23125868","0.0-4.0-2.0-1.5","spark_pilot_2","7404","7","16","Female","","","","","","","null","<div style=""font-size:60px;"">+</div>","null","fixation","","","","","","","","","","","11","","",""
"revaluation","132","23131892","0.0-4.0-2.0-0.6","spark_pilot_2","7404","7","16","Female","","false","","","","","[341.19999980926514,348.3999996185303]","./assets/img/canyon/memory/33.jpg","[""ArrowUp"",""ArrowLeft""]","value training","canyon","23","{""ArrowUp,ArrowLeft"":23,""ArrowUp,ArrowRight"":10,""ArrowDown,ArrowLeft"":8,""ArrowDown,ArrowRight"":30}","false","ArrowUp,ArrowLeft","false","","","original","1","12","","",""
"html-keyboard-response","133","23132396","0.0-4.0-2.0-1.6","spark_pilot_2","7404","7","16","Female","","","","","","","null","<div style=""font-size:60px;"">+</div>","null","fixation","","","","","","","","","","","13","","",""
"revaluation","134","23136414","0.0-4.0-2.0-0.7","spark_pilot_2","7404","7","16","Female","","false","","","","","[926.6999998092651]","./assets/img/canyon/catch/3.jpg","[""spaceBar""]","value training","canyon","0","{""ArrowUp,ArrowLeft"":23,""ArrowUp,ArrowRight"":10,""ArrowDown,ArrowLeft"":8,""ArrowDown,ArrowRight"":30}","true","spaceBar","true","","","original","1","14","","",""
"html-keyboard-response","135","23136917","0.0-4.0-2.0-1.7","spark_pilot_2","7404","7","16","Female","","","","","","","null","<div style=""font-size:60px;"">+</div>","null","fixation","","","","","","","","","","","15","","",""
"revaluation","136","23142942","0.0-4.0-2.0-0.8","spark_pilot_2","7404","7","16","Female","","false","","","","","[1709.1999998092651,405.90000009536743]","./assets/img/canyon/memory/13.jpg","[""ArrowDown"",""ArrowRight""]","value training","canyon","30","{""ArrowUp,ArrowLeft"":23,""ArrowUp,ArrowRight"":10,""ArrowDown,ArrowLeft"":8,""ArrowDown,ArrowRight"":30}","true","ArrowDown,ArrowRight","false","","","original","1","16","","",""
"html-keyboard-response","137","23143452","0.0-4.0-2.0-1.8","spark_pilot_2","7404","7","16","Female","","","","","","","null","<div style=""font-size:60px;"">+</div>","null","fixation","","","","","","","","","","","17","","",""
"revaluation","138","23149478","0.0-4.0-2.0-0.9","spark_pilot_2","7404","7","16","Female","","false","","","","","[348,564.8000001907349]","./assets/img/canyon/memory/38.jpg","[""ArrowDown"",""ArrowRight""]","value training","canyon","30","{""ArrowUp,ArrowLeft"":23,""ArrowUp,ArrowRight"":10,""ArrowDown,ArrowLeft"":8,""ArrowDown,ArrowRight"":30}","true","ArrowDown,ArrowRight","false","","","original","1","18","","",""
"html-keyboard-response","139","23149981","0.0-4.0-2.0-1.9","spark_pilot_2","7404","7","16","Female","","","","","","","null","<div style=""font-size:60px;"">+</div>","null","fixation","","","","","","","","","","","19","","",""
"revaluation","140","23156004","0.0-4.0-2.0-0.10","spark_pilot_2","7404","7","16","Female","","false","","","","","[550,293.7000002861023]","./assets/img/canyon/memory/17.jpg","[""ArrowDown"",""ArrowRight""]","value training","canyon","30","{""ArrowUp,ArrowLeft"":23,""ArrowUp,ArrowRight"":10,""ArrowDown,ArrowLeft"":8,""ArrowDown,ArrowRight"":30}","true","ArrowDown,ArrowRight","false","","","original","1","20","","",""
"html-keyboard-response","141","23156512","0.0-4.0-2.0-1.10","spark_pilot_2","7404","7","16","Female","","","","","","","null","<div style=""font-size:60px;"">+</div>","null","fixation","","","","","","","","","","","21","","",""
"revaluation","142","23162541","0.0-4.0-2.0-0.11","spark_pilot_2","7404","7","16","Female","","false","","","","","[935.2999997138977,758.3000001907349]","./assets/img/canyon/memory/1.jpg","[""ArrowDown"",""ArrowRight""]","value training","canyon","30","{""ArrowUp,ArrowLeft"":23,""ArrowUp,ArrowRight"":10,""ArrowDown,ArrowLeft"":8,""ArrowDown,ArrowRight"":30}","true","ArrowDown,ArrowRight","false","","","original","1","22","","",""
"html-keyboard-response","143","23163046","0.0-4.0-2.0-1.11","spark_pilot_2","7404","7","16","Female","","","","","","","null","<div style=""font-size:60px;"">+</div>","null","fixation","","","","","","","","","","","23","","",""
"revaluation","144","23169069","0.0-4.0-2.0-0.12","spark_pilot_2","7404","7","16","Female","","false","","","","","[707.3999996185303,483.69999980926514]","./assets/img/canyon/memory/24.jpg","[""ArrowDown"",""ArrowRight""]","value training","canyon","30","{""ArrowUp,ArrowLeft"":23,""ArrowUp,ArrowRight"":10,""ArrowDown,ArrowLeft"":8,""ArrowDown,ArrowRight"":30}","true","ArrowDown,ArrowRight","false","","","original","1","24","","",""
"html-keyboard-response","145","23169572","0.0-4.0-2.0-1.12","spark_pilot_2","7404","7","16","Female","","","","","","","null","<div style=""font-size:60px;"">+</div>","null","fixation","","","","","","","","","","","25","","",""
"revaluation","146","23175597","0.0-4.0-2.0-0.13","spark_pilot_2","7404","7","16","Female","","false","","","","","[446.2999997138977,743.0999999046326]","./assets/img/canyon/memory/9.jpg","[""ArrowDown"",""ArrowRight""]","value training","canyon","30","{""ArrowUp,ArrowLeft"":23,""ArrowUp,ArrowRight"":10,""ArrowDown,ArrowLeft"":8,""ArrowDown,ArrowRight"":30}","true","ArrowDown,ArrowRight","false","","","original","1","26","","",""
"html-keyboard-response","147","23176100","0.0-4.0-2.0-1.13","spark_pilot_2","7404","7","16","Female","","","","","","","null","<div style=""font-size:60px;"">+</div>","null","fixation","","","","","","","","","","","27","","",""
"revaluation","148","23182125","0.0-4.0-2.0-0.14","spark_pilot_2","7404","7","16","Female","","false","","","","","[731.8000001907349,524.7999997138977]","./assets/img/canyon/memory/19.jpg","[""ArrowDown"",""ArrowRight""]","value training","canyon","30","{""ArrowUp,ArrowLeft"":23,""ArrowUp,ArrowRight"":10,""ArrowDown,ArrowLeft"":8,""ArrowDown,ArrowRight"":30}","true","ArrowDown,ArrowRight","false","","","original","1","28","","",""
"html-keyboard-response","149","23182628","0.0-4.0-2.0-1.14","spark_pilot_2","7404","7","16","Female","","","","","","","null","<div style=""font-size:60px;"">+</div>","null","fixation","","","","","","","","","","","29","","",""
"revaluation","150","23188653","0.0-4.0-2.0-0.15","spark_pilot_2","7404","7","16","Female","","false","","","","","[500.09999990463257,363.7000002861023]","./assets/img/canyon/memory/18.jpg","[""ArrowDown"",""ArrowRight""]","value training","canyon","30","{""ArrowUp,ArrowLeft"":23,""ArrowUp,ArrowRight"":10,""ArrowDown,ArrowLeft"":8,""ArrowDown,ArrowRight"":30}","true","ArrowDown,ArrowRight","false","","","original","1","30","","",""
"html-keyboard-response","151","23189157","0.0-4.0-2.0-1.15","spark_pilot_2","7404","7","16","Female","","","","","","","null","<div style=""font-size:60px;"">+</div>","null","fixation","","","","","","","","","","","31","","",""
"revaluation","152","23195181","0.0-4.0-2.0-0.16","spark_pilot_2","7404","7","16","Female","","false","","","","","[1704.9000000953674,364.6000003814697]","./assets/img/canyon/memory/20.jpg","[""ArrowDown"",""ArrowRight""]","value training","canyon","30","{""ArrowUp,ArrowLeft"":23,""ArrowUp,ArrowRight"":10,""ArrowDown,ArrowLeft"":8,""ArrowDown,ArrowRight"":30}","true","ArrowDown,ArrowRight","false","","","original","1","32","","",""
"html-keyboard-response","153","23195683","0.0-4.0-2.0-1.16","spark_pilot_2","7404","7","16","Female","","","","","","","null","<div style=""font-size:60px;"">+</div>","null","fixation","","","","","","","","","","","33","","",""
"revaluation","154","23201709","0.0-4.0-2.0-0.17","spark_pilot_2","7404","7","16","Female","","false","","","","","[612,535.7999997138977]","./assets/img/canyon/memory/24.jpg","[""ArrowDown"",""ArrowRight""]","value training","canyon","30","{""ArrowUp,ArrowLeft"":23,""ArrowUp,ArrowRight"":10,""ArrowDown,ArrowLeft"":8,""ArrowDown,ArrowRight"":30}","true","ArrowDown,ArrowRight","false","","","original","1","34","","",""
"html-keyboard-response","155","23202212","0.0-4.0-2.0-1.17","spark_pilot_2","7404","7","16","Female","","","","","","","null","<div style=""font-size:60px;"">+</div>","null","fixation","","","","","","","","","","","35","","",""
"revaluation","156","23208237","0.0-4.0-2.0-0.18","spark_pilot_2","7404","7","16","Female","","false","","","","","[630,430.69999980926514]","./assets/img/canyon/memory/6.jpg","[""ArrowDown"",""ArrowRight""]","value training","canyon","30","{""ArrowUp,ArrowLeft"":23,""ArrowUp,ArrowRight"":10,""ArrowDown,ArrowLeft"":8,""ArrowDown,ArrowRight"":30}","true","ArrowDown,ArrowRight","false","","","original","1","36","","",""
"html-keyboard-response","157","23208741","0.0-4.0-2.0-1.18","spark_pilot_2","7404","7","16","Female","","","","","","","null","<div style=""font-size:60px;"">+</div>","null","fixation","","","","","","","","","","","37","","",""
"revaluation","158","23212765","0.0-4.0-2.0-0.19","spark_pilot_2","7404","7","16","Female","","false","","","","","[434.7999997138977]","./assets/img/canyon/catch/2.jpg","[""ArrowDown""]","value training","canyon","-10","{""ArrowUp,ArrowLeft"":23,""ArrowUp,ArrowRight"":10,""ArrowDown,ArrowLeft"":8,""ArrowDown,ArrowRight"":30}","false","ArrowDown","true","","","original","1","38","","",""
"html-keyboard-response","159","23213268","0.0-4.0-2.0-1.19","spark_pilot_2","7404","7","16","Female","","","","","","","null","<div style=""font-size:60px;"">+</div>","null","fixation","","","","","","","","","","","39","","",""
"revaluation","160","23219301","0.0-4.0-2.0-0.20","spark_pilot_2","7404","7","16","Female","","false","","","","","[353.19999980926514,428.5]","./assets/img/canyon/memory/5.jpg","[""ArrowDown"",""ArrowRight""]","value training","canyon","30","{""ArrowUp,ArrowLeft"":23,""ArrowUp,ArrowRight"":10,""ArrowDown,ArrowLeft"":8,""ArrowDown,ArrowRight"":30}","true","ArrowDown,ArrowRight","false","","","original","1","40","","",""
"html-keyboard-response","161","23219805","0.0-4.0-2.0-1.20","spark_pilot_2","7404","7","16","Female","","","","","","","null","<div style=""font-size:60px;"">+</div>","null","fixation","","","","","","","","","","","41","","",""
"revaluation","162","23225829","0.0-4.0-2.0-0.21","spark_pilot_2","7404","7","16","Female","","false","","","","","[392,382]","./assets/img/canyon/memory/5.jpg","[""ArrowDown"",""ArrowRight""]","value training","canyon","30","{""ArrowUp,ArrowLeft"":23,""ArrowUp,ArrowRight"":10,""ArrowDown,ArrowLeft"":8,""ArrowDown,ArrowRight"":30}","true","ArrowDown,ArrowRight","false","","","original","1","42","","",""
"html-keyboard-response","163","23226331","0.0-4.0-2.0-1.21","spark_pilot_2","7404","7","16","Female","","","","","","","null","<div style=""font-size:60px;"">+</div>","null","fixation","","","","","","","","","","","43","","",""
"revaluation","164","23232357","0.0-4.0-2.0-0.22","spark_pilot_2","7404","7","16","Female","","false","","","","","[552.5,460.19999980926514]","./assets/img/canyon/memory/40.jpg","[""ArrowDown"",""ArrowRight""]","value training","canyon","30","{""ArrowUp,ArrowLeft"":23,""ArrowUp,ArrowRight"":10,""ArrowDown,ArrowLeft"":8,""ArrowDown,ArrowRight"":30}","true","ArrowDown,ArrowRight","false","","","original","1","44","","",""
"html-keyboard-response","165","23232863","0.0-4.0-2.0-1.22","spark_pilot_2","7404","7","16","Female","","","","","","","null","<div style=""font-size:60px;"">+</div>","null","fixation","","","","","","","","","","","45","","",""
"revaluation","166","23238893","0.0-4.0-2.0-0.23","spark_pilot_2","7404","7","16","Female","","false","","","","","[458.59999990463257,405]","./assets/img/canyon/memory/6.jpg","[""ArrowDown"",""ArrowRight""]","value training","canyon","30","{""ArrowUp,ArrowLeft"":23,""ArrowUp,ArrowRight"":10,""ArrowDown,ArrowLeft"":8,""ArrowDown,ArrowRight"":30}","true","ArrowDown,ArrowRight","false","","","original","1","46","","",""
"html-keyboard-response","167","23239397","0.0-4.0-2.0-1.23","spark_pilot_2","7404","7","16","Female","","","","","","","null","<div style=""font-size:60px;"">+</div>","null","fixation","","","","","","","","","","","47","","",""
"revaluation","168","23245422","0.0-4.0-2.0-0.24","spark_pilot_2","7404","7","16","Female","","false","","","","","[351,310.30000019073486]","./assets/img/canyon/memory/8.jpg","[""ArrowDown"",""ArrowRight""]","value training","canyon","30","{""ArrowUp,ArrowLeft"":23,""ArrowUp,ArrowRight"":10,""ArrowDown,ArrowLeft"":8,""ArrowDown,ArrowRight"":30}","true","ArrowDown,ArrowRight","false","","","original","1","48","","",""
"html-keyboard-response","169","23245927","0.0-4.0-2.0-1.24","spark_pilot_2","7404","7","16","Female","","","","","","","null","<div style=""font-size:60px;"">+</div>","null","fixation","","","","","","","","","","","49","","",""
"revaluation","170","23251950","0.0-4.0-2.0-0.25","spark_pilot_2","7404","7","16","Female","","false","","","","","[295.8999996185303,527.8999996185303]","./assets/img/canyon/memory/38.jpg","[""ArrowDown"",""ArrowRight""]","value training","canyon","30","{""ArrowUp,ArrowLeft"":23,""ArrowUp,ArrowRight"":10,""ArrowDown,ArrowLeft"":8,""ArrowDown,ArrowRight"":30}","true","ArrowDown,ArrowRight","false","","","original","1","50","","",""
"html-keyboard-response","171","23252453","0.0-4.0-2.0-1.25","spark_pilot_2","7404","7","16","Female","","","","","","","null","<div style=""font-size:60px;"">+</div>","null","fixation","","","","","","","","","","","51","","",""
"revaluation","172","23256470","0.0-4.0-2.0-0.26","spark_pilot_2","7404","7","16","Female","","false","","","","","[763.0999999046326]","./assets/img/canyon/catch/1.jpg","[""spaceBar""]","value training","canyon","0","{""ArrowUp,ArrowLeft"":23,""ArrowUp,ArrowRight"":10,""ArrowDown,ArrowLeft"":8,""ArrowDown,ArrowRight"":30}","true","spaceBar","true","","","original","1","52","","",""
"html-keyboard-response","173","23256973","0.0-4.0-2.0-1.26","spark_pilot_2","7404","7","16","Female","","","","","","","null","<div style=""font-size:60px;"">+</div>","null","fixation","","","","","","","","","","","53","","",""
"revaluation","174","23263006","0.0-4.0-2.0-0.27","spark_pilot_2","7404","7","16","Female","","false","","","","","[320.30000019073486,507.40000009536743]","./assets/img/canyon/memory/19.jpg","[""ArrowDown"",""ArrowRight""]","value training","canyon","30","{""ArrowUp,ArrowLeft"":23,""ArrowUp,ArrowRight"":10,""ArrowDown,ArrowLeft"":8,""ArrowDown,ArrowRight"":30}","true","ArrowDown,ArrowRight","false","","","original","1","54","","",""
"html-keyboard-response","175","23263508","0.0-4.0-2.0-1.27","spark_pilot_2","7404","7","16","Female","","","","","","","null","<div style=""font-size:60px;"">+</div>","null","fixation","","","","","","","","","","","55","","",""
"revaluation","176","23269534","0.0-4.0-2.0-0.28","spark_pilot_2","7404","7","16","Female","","false","","","","","[389.5,395.90000009536743]","./assets/img/canyon/memory/8.jpg","[""ArrowDown"",""ArrowRight""]","value training","canyon","30","{""ArrowUp,ArrowLeft"":23,""ArrowUp,ArrowRight"":10,""ArrowDown,ArrowLeft"":8,""ArrowDown,ArrowRight"":30}","true","ArrowDown,ArrowRight","false","","","original","1","56","","",""
"html-keyboard-response","177","23270036","0.0-4.0-2.0-1.28","spark_pilot_2","7404","7","16","Female","","","","","","","null","<div style=""font-size:60px;"">+</div>","null","fixation","","","","","","","","","","","57","","",""
"revaluation","178","23274054","0.0-4.0-2.0-0.29","spark_pilot_2","7404","7","16","Female","","false","","","","","[798.0999999046326]","./assets/img/canyon/catch/7.jpg","[""spaceBar""]","value training","canyon","0","{""ArrowUp,ArrowLeft"":23,""ArrowUp,ArrowRight"":10,""ArrowDown,ArrowLeft"":8,""ArrowDown,ArrowRight"":30}","true","spaceBar","true","","","original","1","58","","",""
"html-keyboard-response","179","23274557","0.0-4.0-2.0-1.29","spark_pilot_2","7404","7","16","Female","","","","","","","null","<div style=""font-size:60px;"">+</div>","null","fixation","","","","","","","","","","","59","","",""
"revaluation","180","23280581","0.0-4.0-2.0-0.30","spark_pilot_2","7404","7","16","Female","","false","","","","","[366.69999980926514,448.40000009536743]","./assets/img/canyon/memory/33.jpg","[""ArrowDown"",""ArrowRight""]","value training","canyon","30","{""ArrowUp,ArrowLeft"":23,""ArrowUp,ArrowRight"":10,""ArrowDown,ArrowLeft"":8,""ArrowDown,ArrowRight"":30}","true","ArrowDown,ArrowRight","false","","","original","1","60","","",""
"html-keyboard-response","181","23281086","0.0-4.0-2.0-1.30","spark_pilot_2","7404","7","16","Female","","","","","","","null","<div style=""font-size:60px;"">+</div>","null","fixation","","","","","","","","","","","61","","",""
"revaluation","182","23285150","0.0-4.0-2.0-0.31","spark_pilot_2","7404","7","16","Female","","false","","","","","[1410.3999996185303]","./assets/img/canyon/catch/5.jpg","[""spaceBar""]","value training","canyon","0","{""ArrowUp,ArrowLeft"":23,""ArrowUp,ArrowRight"":10,""ArrowDown,ArrowLeft"":8,""ArrowDown,ArrowRight"":30}","true","spaceBar","true","","","original","1","62","","",""
"html-keyboard-response","183","23285653","0.0-4.0-2.0-1.31","spark_pilot_2","7404","7","16","Female","","","","","","","null","<div style=""font-size:60px;"">+</div>","null","fixation","","","","","","","","","","","63","","",""
"revaluation","184","23291677","0.0-4.0-2.0-0.32","spark_pilot_2","7404","7","16","Female","","false","","","","","[903,933.5]","./assets/img/canyon/memory/26.jpg","[""ArrowDown"",""ArrowRight""]","value training","canyon","30","{""ArrowUp,ArrowLeft"":23,""ArrowUp,ArrowRight"":10,""ArrowDown,ArrowLeft"":8,""ArrowDown,ArrowRight"":30}","true","ArrowDown,ArrowRight","false","","","original","1","64","","",""
"html-keyboard-response","185","23292181","0.0-4.0-2.0-1.32","spark_pilot_2","7404","7","16","Female","","","","","","","null","<div style=""font-size:60px;"">+</div>","null","fixation","","","","","","","","","","","65","","",""
"revaluation","186","23296197","0.0-4.0-2.0-0.33","spark_pilot_2","7404","7","16","Female","","false","","","","","[1195.3000001907349]","./assets/img/canyon/catch/0.jpg","[""spaceBar""]","value training","canyon","0","{""ArrowUp,ArrowLeft"":23,""ArrowUp,ArrowRight"":10,""ArrowDown,ArrowLeft"":8,""ArrowDown,ArrowRight"":30}","true","spaceBar","true","","","original","1","66","","",""
"html-keyboard-response","187","23296701","0.0-4.0-2.0-1.33","spark_pilot_2","7404","7","16","Female","","","","","","","null","<div style=""font-size:60px;"">+</div>","null","fixation","","","","","","","","","","","67","","",""
"revaluation","188","23300717","0.0-4.0-2.0-0.34","spark_pilot_2","7404","7","16","Female","","false","","","","","[710.0999999046326]","./assets/img/canyon/catch/4.jpg","[""spaceBar""]","value training","canyon","0","{""ArrowUp,ArrowLeft"":23,""ArrowUp,ArrowRight"":10,""ArrowDown,ArrowLeft"":8,""ArrowDown,ArrowRight"":30}","true","spaceBar","true","","","original","1","68","","",""
"html-keyboard-response","189","23301220","0.0-4.0-2.0-1.34","spark_pilot_2","7404","7","16","Female","","","","","","","null","<div style=""font-size:60px;"">+</div>","null","fixation","","","","","","","","","","","69","","",""
"revaluation","190","23307245","0.0-4.0-2.0-0.35","spark_pilot_2","7404","7","16","Female","","false","","","","","[1936.4000000953674,466.09999990463257]","./assets/img/canyon/memory/18.jpg","[""ArrowDown"",""ArrowRight""]","value training","canyon","30","{""ArrowUp,ArrowLeft"":23,""ArrowUp,ArrowRight"":10,""ArrowDown,ArrowLeft"":8,""ArrowDown,ArrowRight"":30}","true","ArrowDown,ArrowRight","false","","","original","1","70","","",""
"html-keyboard-response","191","23307749","0.0-4.0-2.0-1.35","spark_pilot_2","7404","7","16","Female","","","","","","","null","<div style=""font-size:60px;"">+</div>","null","fixation","","","","","","","","","","","71","","",""
"revaluation","192","23313774","0.0-4.0-2.0-0.36","spark_pilot_2","7404","7","16","Female","","false","","","","","[543.3000001907349,761]","./assets/img/canyon/memory/31.jpg","[""ArrowDown"",""ArrowRight""]","value training","canyon","30","{""ArrowUp,ArrowLeft"":23,""ArrowUp,ArrowRight"":10,""ArrowDown,ArrowLeft"":8,""ArrowDown,ArrowRight"":30}","true","ArrowDown,ArrowRight","false","","","original","1","72","","",""
"html-keyboard-response","193","23314277","0.0-4.0-2.0-1.36","spark_pilot_2","7404","7","16","Female","","","","","","","null","<div style=""font-size:60px;"">+</div>","null","fixation","","","","","","","","","","","73","","",""
"revaluation","194","23320308","0.0-4.0-2.0-0.37","spark_pilot_2","7404","7","16","Female","","false","","","","","[428.30000019073486,327.40000009536743]","./assets/img/canyon/memory/26.jpg","[""ArrowDown"",""ArrowRight""]","value training","canyon","30","{""ArrowUp,ArrowLeft"":23,""ArrowUp,ArrowRight"":10,""ArrowDown,ArrowLeft"":8,""ArrowDown,ArrowRight"":30}","true","ArrowDown,ArrowRight","false","","","original","1","74","","",""
"html-keyboard-response","195","23320813","0.0-4.0-2.0-1.37","spark_pilot_2","7404","7","16","Female","","","","","","","null","<div style=""font-size:60px;"">+</div>","null","fixation","","","","","","","","","","","75","","",""
"revaluation","196","23326837","0.0-4.0-2.0-0.38","spark_pilot_2","7404","7","16","Female","","false","","","","","[673,330]","./assets/img/canyon/memory/40.jpg","[""ArrowDown"",""ArrowRight""]","value training","canyon","30","{""ArrowUp,ArrowLeft"":23,""ArrowUp,ArrowRight"":10,""ArrowDown,ArrowLeft"":8,""ArrowDown,ArrowRight"":30}","true","ArrowDown,ArrowRight","false","","","original","1","76","","",""
"html-keyboard-response","197","23327341","0.0-4.0-2.0-1.38","spark_pilot_2","7404","7","16","Female","","","","","","","null","<div style=""font-size:60px;"">+</div>","null","fixation","","","","","","","","","","","77","","",""
"revaluation","198","23333366","0.0-4.0-2.0-0.39","spark_pilot_2","7404","7","16","Female","","false","","","","","[620.5,588]","./assets/img/canyon/memory/13.jpg","[""ArrowDown"",""ArrowRight""]","value training","canyon","30","{""ArrowUp,ArrowLeft"":23,""ArrowUp,ArrowRight"":10,""ArrowDown,ArrowLeft"":8,""ArrowDown,ArrowRight"":30}","true","ArrowDown,ArrowRight","false","","","original","1","78","","",""
"html-keyboard-response","199","23333868","0.0-4.0-2.0-1.39","spark_pilot_2","7404","7","16","Female","","","","","","","null","<div style=""font-size:60px;"">+</div>","null","fixation","","","","","","","","","","","79","","",""
"revaluation","200","23339893","0.0-4.0-2.0-0.40","spark_pilot_2","7404","7","16","Female","","false","","","","","[727.7999997138977,587.8000001907349]","./assets/img/canyon/memory/30.jpg","[""ArrowDown"",""ArrowRight""]","value training","canyon","30","{""ArrowUp,ArrowLeft"":23,""ArrowUp,ArrowRight"":10,""ArrowDown,ArrowLeft"":8,""ArrowDown,ArrowRight"":30}","true","ArrowDown,ArrowRight","false","","","original","1","80","","",""
"html-keyboard-response","201","23340397","0.0-4.0-2.0-1.40","spark_pilot_2","7404","7","16","Female","","","","","","","null","<div style=""font-size:60px;"">+</div>","null","fixation","","","","","","","","","","","81","","",""
"revaluation","202","23346421","0.0-4.0-2.0-0.41","spark_pilot_2","7404","7","16","Female","","false","","","","","[487.30000019073486,442.80000019073486]","./assets/img/canyon/memory/36.jpg","[""ArrowDown"",""ArrowRight""]","value training","canyon","30","{""ArrowUp,ArrowLeft"":23,""ArrowUp,ArrowRight"":10,""ArrowDown,ArrowLeft"":8,""ArrowDown,ArrowRight"":30}","true","ArrowDown,ArrowRight","false","","","original","1","82","","",""
"html-keyboard-response","203","23346925","0.0-4.0-2.0-1.41","spark_pilot_2","7404","7","16","Female","","","","","","","null","<div style=""font-size:60px;"">+</div>","null","fixation","","","","","","","","","","","83","","",""
"revaluation","204","23352956","0.0-4.0-2.0-0.42","spark_pilot_2","7404","7","16","Female","","false","","","","","[474.09999990463257,745.4000000953674]","./assets/img/canyon/memory/9.jpg","[""ArrowDown"",""ArrowRight""]","value training","canyon","30","{""ArrowUp,ArrowLeft"":23,""ArrowUp,ArrowRight"":10,""ArrowDown,ArrowLeft"":8,""ArrowDown,ArrowRight"":30}","true","ArrowDown,ArrowRight","false","","","original","1","84","","",""
"html-keyboard-response","205","23353460","0.0-4.0-2.0-1.42","spark_pilot_2","7404","7","16","Female","","","","","","","null","<div style=""font-size:60px;"">+</div>","null","fixation","","","","","","","","","","","85","","",""
"revaluation","206","23359485","0.0-4.0-2.0-0.43","spark_pilot_2","7404","7","16","Female","","false","","","","","[525.5,713.2999997138977]","./assets/img/canyon/memory/36.jpg","[""ArrowDown"",""ArrowRight""]","value training","canyon","30","{""ArrowUp,ArrowLeft"":23,""ArrowUp,ArrowRight"":10,""ArrowDown,ArrowLeft"":8,""ArrowDown,ArrowRight"":30}","true","ArrowDown,ArrowRight","false","","","original","1","86","","",""
"html-keyboard-response","207","23359988","0.0-4.0-2.0-1.43","spark_pilot_2","7404","7","16","Female","","","","","","","null","<div style=""font-size:60px;"">+</div>","null","fixation","","","","","","","","","","","87","","",""
"revaluation","208","23366012","0.0-4.0-2.0-0.44","spark_pilot_2","7404","7","16","Female","","false","","","","","[434.80000019073486,420]","./assets/img/canyon/memory/35.jpg","[""ArrowDown"",""ArrowRight""]","value training","canyon","30","{""ArrowUp,ArrowLeft"":23,""ArrowUp,ArrowRight"":10,""ArrowDown,ArrowLeft"":8,""ArrowDown,ArrowRight"":30}","true","ArrowDown,ArrowRight","false","","","original","1","88","","",""
"html-keyboard-response","209","23366516","0.0-4.0-2.0-1.44","spark_pilot_2","7404","7","16","Female","","","","","","","null","<div style=""font-size:60px;"">+</div>","null","fixation","","","","","","","","","","","89","","",""
"revaluation","210","23372541","0.0-4.0-2.0-0.45","spark_pilot_2","7404","7","16","Female","","false","","","","","[549.3000001907349,474.19999980926514]","./assets/img/canyon/memory/20.jpg","[""ArrowDown"",""ArrowRight""]","value training","canyon","30","{""ArrowUp,ArrowLeft"":23,""ArrowUp,ArrowRight"":10,""ArrowDown,ArrowLeft"":8,""ArrowDown,ArrowRight"":30}","true","ArrowDown,ArrowRight","false","","","original","1","90","","",""
"html-keyboard-response","211","23373045","0.0-4.0-2.0-1.45","spark_pilot_2","7404","7","16","Female","","","","","","","null","<div style=""font-size:60px;"">+</div>","null","fixation","","","","","","","","","","","91","","",""
"revaluation","212","23379069","0.0-4.0-2.0-0.46","spark_pilot_2","7404","7","16","Female","","false","","","","","[682,844.5]","./assets/img/canyon/memory/41.jpg","[""ArrowDown"",""ArrowRight""]","value training","canyon","30","{""ArrowUp,ArrowLeft"":23,""ArrowUp,ArrowRight"":10,""ArrowDown,ArrowLeft"":8,""ArrowDown,ArrowRight"":30}","true","ArrowDown,ArrowRight","false","","","original","1","92","","",""
"html-keyboard-response","213","23379573","0.0-4.0-2.0-1.46","spark_pilot_2","7404","7","16","Female","","","","","","","null","<div style=""font-size:60px;"">+</div>","null","fixation","","","","","","","","","","","93","","",""
"revaluation","214","23385596","0.0-4.0-2.0-0.47","spark_pilot_2","7404","7","16","Female","","false","","","","","[793.3000001907349,450]","./assets/img/canyon/memory/15.jpg","[""ArrowDown"",""ArrowRight""]","value training","canyon","30","{""ArrowUp,ArrowLeft"":23,""ArrowUp,ArrowRight"":10,""ArrowDown,ArrowLeft"":8,""ArrowDown,ArrowRight"":30}","true","ArrowDown,ArrowRight","false","","","original","1","94","","",""
"html-keyboard-response","215","23386101","0.0-4.0-2.0-1.47","spark_pilot_2","7404","7","16","Female","","","","","","","null","<div style=""font-size:60px;"">+</div>","null","fixation","","","","","","","","","","","95","","",""
"revaluation","216","23392125","0.0-4.0-2.0-0.48","spark_pilot_2","7404","7","16","Female","","false","","","","","[723.6999998092651,536.9000000953674]","./assets/img/canyon/memory/1.jpg","[""ArrowDown"",""ArrowRight""]","value training","canyon","30","{""ArrowUp,ArrowLeft"":23,""ArrowUp,ArrowRight"":10,""ArrowDown,ArrowLeft"":8,""ArrowDown,ArrowRight"":30}","true","ArrowDown,ArrowRight","false","","","original","1","96","","",""
"html-keyboard-response","217","23392629","0.0-4.0-2.0-1.48","spark_pilot_2","7404","7","16","Female","","","","","","","null","<div style=""font-size:60px;"">+</div>","null","fixation","","","","","","","","","","","97","","",""
"revaluation","218","23398653","0.0-4.0-2.0-0.49","spark_pilot_2","7404","7","16","Female","","false","","","","","[451.19999980926514,328.7000002861023]","./assets/img/canyon/memory/41.jpg","[""ArrowDown"",""ArrowRight""]","value training","canyon","30","{""ArrowUp,ArrowLeft"":23,""ArrowUp,ArrowRight"":10,""ArrowDown,ArrowLeft"":8,""ArrowDown,ArrowRight"":30}","true","ArrowDown,ArrowRight","false","","","original","1","98","","",""
"html-keyboard-response","219","23399155","0.0-4.0-2.0-1.49","spark_pilot_2","7404","7","16","Female","","","","","","","null","<div style=""font-size:60px;"">+</div>","null","fixation","","","","","","","","","","","99","","",""
"learning-instructions","220","23413399","0.0-4.0-3.0-0.0","spark_pilot_2","7404","7","16","Female","","","","","","","1289","<p> Now, you will travel with a friend who will choose whether you go up or down first. </p>
            <p> On these turns, you will just see the animal that they found. You will still get to choose which chest to search for treasure.</p>","","instructions","","","","","","","","","","","","","",""
"revaluation","221","23417430","0.0-4.0-4.0-0.0","spark_pilot_2","7404","7","16","Female","","false","","","","","[1250.2999997138977]","./assets/img/canyon/animals/lion.jpg","[""ArrowRight""]","revaluation","canyon","30","{""ArrowUp,ArrowLeft"":23,""ArrowUp,ArrowRight"":10,""ArrowDown,ArrowLeft"":8,""ArrowDown,ArrowRight"":30}","true","ArrowDown,ArrowRight","","","","original","1","0","","",""
"html-keyboard-response","222","23417945","0.0-4.0-4.0-1.0","spark_pilot_2","7404","7","16","Female","","","","","","","null","<div style=""font-size:60px;"">+</div>","null","fixation","","","","","","","","","","","1","","",""
"revaluation","223","23421993","0.0-4.0-4.0-0.1","spark_pilot_2","7404","7","16","Female","","false","","","","","[842.2000002861023]","./assets/img/canyon/animals/giraffe.jpg","[""ArrowLeft""]","revaluation","canyon","23","{""ArrowUp,ArrowLeft"":23,""ArrowUp,ArrowRight"":10,""ArrowDown,ArrowLeft"":8,""ArrowDown,ArrowRight"":30}","true","ArrowUp,ArrowLeft","","","","original","1","2","","",""
"html-keyboard-response","224","23422514","0.0-4.0-4.0-1.1","spark_pilot_2","7404","7","16","Female","","","","","","","null","<div style=""font-size:60px;"">+</div>","null","fixation","","","","","","","","","","","3","","",""
"revaluation","225","23426542","0.0-4.0-4.0-0.2","spark_pilot_2","7404","7","16","Female","","false","","","","","[783.2999997138977]","./assets/img/canyon/animals/lion.jpg","[""ArrowRight""]","revaluation","canyon","30","{""ArrowUp,ArrowLeft"":23,""ArrowUp,ArrowRight"":10,""ArrowDown,ArrowLeft"":8,""ArrowDown,ArrowRight"":30}","true","ArrowDown,ArrowRight","","","","original","1","4","","",""
"html-keyboard-response","226","23427061","0.0-4.0-4.0-1.2","spark_pilot_2","7404","7","16","Female","","","","","","","null","<div style=""font-size:60px;"">+</div>","null","fixation","","","","","","","","","","","5","","",""
"revaluation","227","23431092","0.0-4.0-4.0-0.3","spark_pilot_2","7404","7","16","Female","","false","","","","","[341.40000009536743]","./assets/img/canyon/animals/lion.jpg","[""ArrowLeft""]","revaluation","canyon","8","{""ArrowUp,ArrowLeft"":23,""ArrowUp,ArrowRight"":10,""ArrowDown,ArrowLeft"":8,""ArrowDown,ArrowRight"":30}","false","ArrowDown,ArrowLeft","","","","original","1","6","","",""
"html-keyboard-response","228","23431609","0.0-4.0-4.0-1.3","spark_pilot_2","7404","7","16","Female","","","","","","","null","<div style=""font-size:60px;"">+</div>","null","fixation","","","","","","","","","","","7","","",""
"revaluation","229","23435652","0.0-4.0-4.0-0.4","spark_pilot_2","7404","7","16","Female","","false","","","","","[786]","./assets/img/canyon/animals/giraffe.jpg","[""ArrowLeft""]","revaluation","canyon","23","{""ArrowUp,ArrowLeft"":23,""ArrowUp,ArrowRight"":10,""ArrowDown,ArrowLeft"":8,""ArrowDown,ArrowRight"":30}","true","ArrowUp,ArrowLeft","","","","original","1","8","","",""
"html-keyboard-response","230","23436166","0.0-4.0-4.0-1.4","spark_pilot_2","7404","7","16","Female","","","","","","","null","<div style=""font-size:60px;"">+</div>","null","fixation","","","","","","","","","","","9","","",""
"revaluation","231","23440197","0.0-4.0-4.0-0.5","spark_pilot_2","7404","7","16","Female","","false","","","","","[825.5]","./assets/img/canyon/animals/giraffe.jpg","[""ArrowLeft""]","revaluation","canyon","23","{""ArrowUp,ArrowLeft"":23,""ArrowUp,ArrowRight"":10,""ArrowDown,ArrowLeft"":8,""ArrowDown,ArrowRight"":30}","true","ArrowUp,ArrowLeft","","","","original","1","10","","",""
"html-keyboard-response","232","23440711","0.0-4.0-4.0-1.5","spark_pilot_2","7404","7","16","Female","","","","","","","null","<div style=""font-size:60px;"">+</div>","null","fixation","","","","","","","","","","","11","","",""
"revaluation","233","23444734","0.0-4.0-4.0-0.6","spark_pilot_2","7404","7","16","Female","","false","","","","","[858.9000000953674]","./assets/img/canyon/animals/lion.jpg","[""ArrowRight""]","revaluation","canyon","30","{""ArrowUp,ArrowLeft"":23,""ArrowUp,ArrowRight"":10,""ArrowDown,ArrowLeft"":8,""ArrowDown,ArrowRight"":30}","true","ArrowDown,ArrowRight","","","","original","1","12","","",""
"html-keyboard-response","234","23445250","0.0-4.0-4.0-1.6","spark_pilot_2","7404","7","16","Female","","","","","","","null","<div style=""font-size:60px;"">+</div>","null","fixation","","","","","","","","","","","13","","",""
"revaluation","235","23449269","0.0-4.0-4.0-0.7","spark_pilot_2","7404","7","16","Female","","false","","","","","[1161.9000000953674]","./assets/img/canyon/animals/giraffe.jpg","[""ArrowLeft""]","revaluation","canyon","23","{""ArrowUp,ArrowLeft"":23,""ArrowUp,ArrowRight"":10,""ArrowDown,ArrowLeft"":8,""ArrowDown,ArrowRight"":30}","true","ArrowUp,ArrowLeft","","","","original","1","14","","",""
"html-keyboard-response","236","23449773","0.0-4.0-4.0-1.7","spark_pilot_2","7404","7","16","Female","","","","","","","null","<div style=""font-size:60px;"">+</div>","null","fixation","","","","","","","","","","","15","","",""
"revaluation","237","23453789","0.0-4.0-4.0-0.8","spark_pilot_2","7404","7","16","Female","","false","","","","","[750]","./assets/img/canyon/animals/giraffe.jpg","[""ArrowLeft""]","revaluation","canyon","23","{""ArrowUp,ArrowLeft"":23,""ArrowUp,ArrowRight"":10,""ArrowDown,ArrowLeft"":8,""ArrowDown,ArrowRight"":30}","true","ArrowUp,ArrowLeft","","","","original","1","16","","",""
"html-keyboard-response","238","23454292","0.0-4.0-4.0-1.8","spark_pilot_2","7404","7","16","Female","","","","","","","null","<div style=""font-size:60px;"">+</div>","null","fixation","","","","","","","","","","","17","","",""
"revaluation","239","23458309","0.0-4.0-4.0-0.9","spark_pilot_2","7404","7","16","Female","","false","","","","","[701.1999998092651]","./assets/img/canyon/animals/lion.jpg","[""ArrowRight""]","revaluation","canyon","30","{""ArrowUp,ArrowLeft"":23,""ArrowUp,ArrowRight"":10,""ArrowDown,ArrowLeft"":8,""ArrowDown,ArrowRight"":30}","true","ArrowDown,ArrowRight","","","","original","1","18","","",""
"html-keyboard-response","240","23458813","0.0-4.0-4.0-1.9","spark_pilot_2","7404","7","16","Female","","","","","","","null","<div style=""font-size:60px;"">+</div>","null","fixation","","","","","","","","","","","19","","",""
"revaluation","241","23462830","0.0-4.0-4.0-0.10","spark_pilot_2","7404","7","16","Female","","false","","","","","[869.3000001907349]","./assets/img/canyon/animals/lion.jpg","[""ArrowRight""]","revaluation","canyon","30","{""ArrowUp,ArrowLeft"":23,""ArrowUp,ArrowRight"":10,""ArrowDown,ArrowLeft"":8,""ArrowDown,ArrowRight"":30}","true","ArrowDown,ArrowRight","","","","original","1","20","","",""
"html-keyboard-response","242","23463333","0.0-4.0-4.0-1.10","spark_pilot_2","7404","7","16","Female","","","","","","","null","<div style=""font-size:60px;"">+</div>","null","fixation","","","","","","","","","","","21","","",""
"revaluation","243","23467349","0.0-4.0-4.0-0.11","spark_pilot_2","7404","7","16","Female","","false","","","","","[1706.9000000953674]","./assets/img/canyon/animals/giraffe.jpg","[""ArrowLeft""]","revaluation","canyon","23","{""ArrowUp,ArrowLeft"":23,""ArrowUp,ArrowRight"":10,""ArrowDown,ArrowLeft"":8,""ArrowDown,ArrowRight"":30}","true","ArrowUp,ArrowLeft","","","","original","1","22","","",""
"html-keyboard-response","244","23467852","0.0-4.0-4.0-1.11","spark_pilot_2","7404","7","16","Female","","","","","","","null","<div style=""font-size:60px;"">+</div>","null","fixation","","","","","","","","","","","23","","",""
"revaluation","245","23471869","0.0-4.0-4.0-0.12","spark_pilot_2","7404","7","16","Female","","false","","","","","[1651]","./assets/img/canyon/animals/lion.jpg","[""ArrowRight""]","revaluation","canyon","30","{""ArrowUp,ArrowLeft"":23,""ArrowUp,ArrowRight"":10,""ArrowDown,ArrowLeft"":8,""ArrowDown,ArrowRight"":30}","true","ArrowDown,ArrowRight","","","","original","1","24","","",""
"html-keyboard-response","246","23472372","0.0-4.0-4.0-1.12","spark_pilot_2","7404","7","16","Female","","","","","","","null","<div style=""font-size:60px;"">+</div>","null","fixation","","","","","","","","","","","25","","",""
"revaluation","247","23476389","0.0-4.0-4.0-0.13","spark_pilot_2","7404","7","16","Female","","false","","","","","[575.5]","./assets/img/canyon/animals/lion.jpg","[""ArrowRight""]","revaluation","canyon","30","{""ArrowUp,ArrowLeft"":23,""ArrowUp,ArrowRight"":10,""ArrowDown,ArrowLeft"":8,""ArrowDown,ArrowRight"":30}","true","ArrowDown,ArrowRight","","","","original","1","26","","",""
"html-keyboard-response","248","23476893","0.0-4.0-4.0-1.13","spark_pilot_2","7404","7","16","Female","","","","","","","null","<div style=""font-size:60px;"">+</div>","null","fixation","","","","","","","","","","","27","","",""
"revaluation","249","23480909","0.0-4.0-4.0-0.14","spark_pilot_2","7404","7","16","Female","","false","","","","","[1256.6999998092651]","./assets/img/canyon/animals/giraffe.jpg","[""ArrowLeft""]","revaluation","canyon","23","{""ArrowUp,ArrowLeft"":23,""ArrowUp,ArrowRight"":10,""ArrowDown,ArrowLeft"":8,""ArrowDown,ArrowRight"":30}","true","ArrowUp,ArrowLeft","","","","original","1","28","","",""
"html-keyboard-response","250","23481412","0.0-4.0-4.0-1.14","spark_pilot_2","7404","7","16","Female","","","","","","","null","<div style=""font-size:60px;"">+</div>","null","fixation","","","","","","","","","","","29","","",""
"revaluation","251","23485437","0.0-4.0-4.0-0.15","spark_pilot_2","7404","7","16","Female","","false","","","","","[1030.5999999046326]","./assets/img/canyon/animals/lion.jpg","[""ArrowRight""]","revaluation","canyon","30","{""ArrowUp,ArrowLeft"":23,""ArrowUp,ArrowRight"":10,""ArrowDown,ArrowLeft"":8,""ArrowDown,ArrowRight"":30}","true","ArrowDown,ArrowRight","","","","original","1","30","","",""
"html-keyboard-response","252","23485941","0.0-4.0-4.0-1.15","spark_pilot_2","7404","7","16","Female","","","","","","","null","<div style=""font-size:60px;"">+</div>","null","fixation","","","","","","","","","","","31","","",""
"revaluation","253","23489957","0.0-4.0-4.0-0.16","spark_pilot_2","7404","7","16","Female","","false","","","","","[680.4000000953674]","./assets/img/canyon/animals/giraffe.jpg","[""ArrowLeft""]","revaluation","canyon","23","{""ArrowUp,ArrowLeft"":23,""ArrowUp,ArrowRight"":10,""ArrowDown,ArrowLeft"":8,""ArrowDown,ArrowRight"":30}","true","ArrowUp,ArrowLeft","","","","original","1","32","","",""
"html-keyboard-response","254","23490460","0.0-4.0-4.0-1.16","spark_pilot_2","7404","7","16","Female","","","","","","","null","<div style=""font-size:60px;"">+</div>","null","fixation","","","","","","","","","","","33","","",""
"revaluation","255","23494477","0.0-4.0-4.0-0.17","spark_pilot_2","7404","7","16","Female","","false","","","","","[856.2999997138977]","./assets/img/canyon/animals/giraffe.jpg","[""ArrowRight""]","revaluation","canyon","10","{""ArrowUp,ArrowLeft"":23,""ArrowUp,ArrowRight"":10,""ArrowDown,ArrowLeft"":8,""ArrowDown,ArrowRight"":30}","false","ArrowUp,ArrowRight","","","","original","1","34","","",""
"html-keyboard-response","256","23494982","0.0-4.0-4.0-1.17","spark_pilot_2","7404","7","16","Female","","","","","","","null","<div style=""font-size:60px;"">+</div>","null","fixation","","","","","","","","","","","35","","",""
"learning-instructions","257","23515530","0.0-4.0-5.0-0.0","spark_pilot_2","7404","7","16","Female","","","","","","","8602.200000286102","<p> Time to play the dot game! </p>
            <p> For one minute, click the red dots on the following screen as they appear. </p>
            <p><b> Don't look away, as you will earn bonus for clicking dots</b>. </p>","","instructions","","","","","","","","","","","","","",""
"revaluation","258","23575535","0.0-4.0-6.0-0.0","spark_pilot_2","7404","7","16","Female","","","","","","","[100,100,112,95,119,92,111]","","","rest","","70","","","","","0","60000","","","","","",""
"learning-instructions","259","23705688","0.0-4.0-7.0-0.0","spark_pilot_2","7404","7","16","Female","","","","","","","123997.90000009537","<p> You have almost finished this part of the game! </p>
            <p> We are going to ask you to make a few more choices. </p>","","instructions","","","","","","","","","","","","","",""
"learning-instructions","260","23720399","0.0-4.0-7.0-0.1","spark_pilot_2","7404","7","16","Female","","","","","","","647.7999997138977","<p> First, you need to decide whether to go up or down. When you see each picture, use the arrow keys to make your choice. </p>
            <p><b>You will not see which animal you found, but try to get to the one that will give you the most treasure.</b></p>","","instructions","","","","","","","","","","","","","",""
"revaluation","261","23721184","0.0-4.0-8.0-0.0","spark_pilot_2","7404","7","16","Female","","false","","","","","[779.2000002861023]","./assets/img/canyon/test/3.jpg","[""ArrowUp""]","first stage test","canyon","0","{""ArrowUp,ArrowLeft"":23,""ArrowUp,ArrowRight"":10,""ArrowDown,ArrowLeft"":8,""ArrowDown,ArrowRight"":30}","false","ArrowUp","false","","","original","1","","","",""
"html-keyboard-response","262","23721691","0.0-4.0-8.0-1.0","spark_pilot_2","7404","7","16","Female","","","","","","","null","<div style=""font-size:60px;"">+</div>","null","fixation","","","","","","","","","","","","","",""
"revaluation","263","23722833","0.0-4.0-8.0-0.1","spark_pilot_2","7404","7","16","Female","","false","","","","","[1126.2999997138977]","./assets/img/canyon/test/1.jpg","[""ArrowUp""]","first stage test","canyon","0","{""ArrowUp,ArrowLeft"":23,""ArrowUp,ArrowRight"":10,""ArrowDown,ArrowLeft"":8,""ArrowDown,ArrowRight"":30}","false","ArrowUp","false","","","original","1","","","",""
"html-keyboard-response","264","23723343","0.0-4.0-8.0-1.1","spark_pilot_2","7404","7","16","Female","","","","","","","null","<div style=""font-size:60px;"">+</div>","null","fixation","","","","","","","","","","","","","",""
"revaluation","265","23723943","0.0-4.0-8.0-0.2","spark_pilot_2","7404","7","16","Female","","false","","","","","[592.6999998092651]","./assets/img/canyon/test/0.jpg","[""ArrowUp""]","first stage test","canyon","0","{""ArrowUp,ArrowLeft"":23,""ArrowUp,ArrowRight"":10,""ArrowDown,ArrowLeft"":8,""ArrowDown,ArrowRight"":30}","false","ArrowUp","false","","","original","1","","","",""
"html-keyboard-response","266","23724464","0.0-4.0-8.0-1.2","spark_pilot_2","7404","7","16","Female","","","","","","","null","<div style=""font-size:60px;"">+</div>","null","fixation","","","","","","","","","","","","","",""
"revaluation","267","23725127","0.0-4.0-8.0-0.3","spark_pilot_2","7404","7","16","Female","","false","","","","","[656.4000000953674]","./assets/img/canyon/test/2.jpg","[""ArrowUp""]","first stage test","canyon","0","{""ArrowUp,ArrowLeft"":23,""ArrowUp,ArrowRight"":10,""ArrowDown,ArrowLeft"":8,""ArrowDown,ArrowRight"":30}","false","ArrowUp","false","","","original","1","","","",""
"html-keyboard-response","268","23725630","0.0-4.0-8.0-1.3","spark_pilot_2","7404","7","16","Female","","","","","","","null","<div style=""font-size:60px;"">+</div>","null","fixation","","","","","","","","","","","","","",""
"learning-instructions","269","23738618","0.0-4.0-9.0-0.0","spark_pilot_2","7404","7","16","Female","","","","","","","1639.6000003814697","<p> Now you will see the animals again and can search their chests for treasure. </p>
            <p> This time, you will not see how much treasure you earned, but you will earn more bonus money for making better choices. </p>","","instructions","","","","","","","","","","","","","",""
"revaluation","270","23739403","0.0-4.0-10.0-0.0","spark_pilot_2","7404","7","16","Female","","false","","","","","[780.7000002861023]","./assets/img/canyon/animals/giraffe.jpg","[""ArrowLeft""]","second stage test","canyon","0","{""ArrowUp,ArrowLeft"":23,""ArrowUp,ArrowRight"":10,""ArrowDown,ArrowLeft"":8,""ArrowDown,ArrowRight"":30}","true","ArrowUp,ArrowLeft","","","","original","1","","","",""
"html-keyboard-response","271","23739919","0.0-4.0-10.0-1.0","spark_pilot_2","7404","7","16","Female","","","","","","","null","<div style=""font-size:60px;"">+</div>","null","fixation","","","","","","","","","","","","","",""
"revaluation","272","23740343","0.0-4.0-10.0-0.1","spark_pilot_2","7404","7","16","Female","","false","","","","","[417.80000019073486]","./assets/img/canyon/animals/giraffe.jpg","[""ArrowRight""]","second stage test","canyon","0","{""ArrowUp,ArrowLeft"":23,""ArrowUp,ArrowRight"":10,""ArrowDown,ArrowLeft"":8,""ArrowDown,ArrowRight"":30}","false","ArrowUp,ArrowRight","","","","original","1","","","",""
"html-keyboard-response","273","23740851","0.0-4.0-10.0-1.1","spark_pilot_2","7404","7","16","Female","","","","","","","null","<div style=""font-size:60px;"">+</div>","null","fixation","","","","","","","","","","","","","",""
"revaluation","274","23741709","0.0-4.0-10.0-0.2","spark_pilot_2","7404","7","16","Female","","false","","","","","[852]","./assets/img/canyon/animals/giraffe.jpg","[""ArrowLeft""]","second stage test","canyon","0","{""ArrowUp,ArrowLeft"":23,""ArrowUp,ArrowRight"":10,""ArrowDown,ArrowLeft"":8,""ArrowDown,ArrowRight"":30}","true","ArrowUp,ArrowLeft","","","","original","1","","","",""
"html-keyboard-response","275","23742214","0.0-4.0-10.0-1.2","spark_pilot_2","7404","7","16","Female","","","","","","","null","<div style=""font-size:60px;"">+</div>","null","fixation","","","","","","","","","","","","","",""
"revaluation","276","23742619","0.0-4.0-10.0-0.3","spark_pilot_2","7404","7","16","Female","","false","","","","","[398.5]","./assets/img/canyon/animals/giraffe.jpg","[""ArrowRight""]","second stage test","canyon","0","{""ArrowUp,ArrowLeft"":23,""ArrowUp,ArrowRight"":10,""ArrowDown,ArrowLeft"":8,""ArrowDown,ArrowRight"":30}","false","ArrowUp,ArrowRight","","","","original","1","","","",""
"html-keyboard-response","277","23743139","0.0-4.0-10.0-1.3","spark_pilot_2","7404","7","16","Female","","","","","","","null","<div style=""font-size:60px;"">+</div>","null","fixation","","","","","","","","","","","","","",""
"revaluation","278","23743441","0.0-4.0-10.0-0.4","spark_pilot_2","7404","7","16","Female","","false","","","","","[295.69999980926514]","./assets/img/canyon/animals/lion.jpg","[""ArrowLeft""]","second stage test","canyon","0","{""ArrowUp,ArrowLeft"":23,""ArrowUp,ArrowRight"":10,""ArrowDown,ArrowLeft"":8,""ArrowDown,ArrowRight"":30}","false","ArrowDown,ArrowLeft","","","","original","1","","","",""
"html-keyboard-response","279","23743954","0.0-4.0-10.0-1.4","spark_pilot_2","7404","7","16","Female","","","","","","","null","<div style=""font-size:60px;"">+</div>","null","fixation","","","","","","","","","","","","","",""
"revaluation","280","23744959","0.0-4.0-10.0-0.5","spark_pilot_2","7404","7","16","Female","","false","","","","","[998.3000001907349]","./assets/img/canyon/animals/lion.jpg","[""ArrowRight""]","second stage test","canyon","0","{""ArrowUp,ArrowLeft"":23,""ArrowUp,ArrowRight"":10,""ArrowDown,ArrowLeft"":8,""ArrowDown,ArrowRight"":30}","true","ArrowDown,ArrowRight","","","","original","1","","","",""
"html-keyboard-response","281","23745476","0.0-4.0-10.0-1.5","spark_pilot_2","7404","7","16","Female","","","","","","","null","<div style=""font-size:60px;"">+</div>","null","fixation","","","","","","","","","","","","","",""
"revaluation","282","23746230","0.0-4.0-10.0-0.6","spark_pilot_2","7404","7","16","Female","","false","","","","","[744.2000002861023]","./assets/img/canyon/animals/lion.jpg","[""ArrowLeft""]","second stage test","canyon","0","{""ArrowUp,ArrowLeft"":23,""ArrowUp,ArrowRight"":10,""ArrowDown,ArrowLeft"":8,""ArrowDown,ArrowRight"":30}","false","ArrowDown,ArrowLeft","","","","original","1","","","",""
"html-keyboard-response","283","23746744","0.0-4.0-10.0-1.6","spark_pilot_2","7404","7","16","Female","","","","","","","null","<div style=""font-size:60px;"">+</div>","null","fixation","","","","","","","","","","","","","",""
"revaluation","284","23748218","0.0-4.0-10.0-0.7","spark_pilot_2","7404","7","16","Female","","false","","","","","[1465.1999998092651]","./assets/img/canyon/animals/lion.jpg","[""ArrowRight""]","second stage test","canyon","0","{""ArrowUp,ArrowLeft"":23,""ArrowUp,ArrowRight"":10,""ArrowDown,ArrowLeft"":8,""ArrowDown,ArrowRight"":30}","true","ArrowDown,ArrowRight","","","","original","1","","","",""
"html-keyboard-response","285","23748732","0.0-4.0-10.0-1.7","spark_pilot_2","7404","7","16","Female","","","","","","","null","<div style=""font-size:60px;"">+</div>","null","fixation","","","","","","","","","","","","","",""
"learning-instructions","286","23752007","0.0-4.0-0.1-0.2","spark_pilot_2","7404","7","16","Female","","","","","","","523.5999999046326","<p> This time you are searching for treasure in the <b>ocean</b>.</p>","","instructions","","","","","","","","","","","","","",""
"learning-instructions","287","23773345","0.0-4.0-0.1-0.3","spark_pilot_2","7404","7","16","Female","","","","","","","4081.5","<p><b>New</b> animals with <b>new</b> treasure chests live here. You need to explore to discover where the animal with the best treasure chest is.</p>
                    <p> Like before, once you figure out which animal has the chest with the most treasure, you should try to get to that animal and select that chest! </p>","","instructions","","","","","","","","","","","","","",""
"learning-instructions","288","23799761","0.0-4.0-1.1-0.1","spark_pilot_2","7404","7","16","Female","","","","","","","11681","<p> Remember, when you see a picture of the place, use the up and down keys to <b>find an animal</b>.</p>
            <p> When you encounter an animal, you should use the left and right keys to <b>select a treasure chest</b>.</p>
            <p> Don't forget to look out for the robber! </p>","","instructions","","","","","","","","","","","","","",""
"revaluation","289","23805806","0.0-4.0-2.1-0.50","spark_pilot_2","7404","7","16","Female","","false","","","","","[1134.9000000953674,638.4000000953674]","./assets/img/ocean/memory/6.jpg","[""ArrowUp"",""ArrowLeft""]","value training","ocean","26","{""ArrowUp,ArrowLeft"":26,""ArrowUp,ArrowRight"":10,""ArrowDown,ArrowLeft"":5,""ArrowDown,ArrowRight"":17}","true","ArrowUp,ArrowLeft","false","","","revaluation","2","0","","",""
"html-keyboard-response","290","23806320","0.0-4.0-2.1-1.50","spark_pilot_2","7404","7","16","Female","","","","","","","null","<div style=""font-size:60px;"">+</div>","null","fixation","","","","","","","","","","","1","","",""
"revaluation","291","23812368","0.0-4.0-2.1-0.51","spark_pilot_2","7404","7","16","Female","","false","","","","","[561.3999996185303,558.0999999046326]","./assets/img/ocean/memory/1.jpg","[""ArrowUp"",""ArrowRight""]","value training","ocean","10","{""ArrowUp,ArrowLeft"":26,""ArrowUp,ArrowRight"":10,""ArrowDown,ArrowLeft"":5,""ArrowDown,ArrowRight"":17}","false","ArrowUp,ArrowRight","false","","","revaluation","2","2","","",""
"html-keyboard-response","292","23812885","0.0-4.0-2.1-1.51","spark_pilot_2","7404","7","16","Female","","","","","","","null","<div style=""font-size:60px;"">+</div>","null","fixation","","","","","","","","","","","3","","",""
"revaluation","293","23818925","0.0-4.0-2.1-0.52","spark_pilot_2","7404","7","16","Female","","false","","","","","[317.19999980926514,611.3999996185303]","./assets/img/ocean/memory/26.jpg","[""ArrowDown"",""ArrowRight""]","value training","ocean","17","{""ArrowUp,ArrowLeft"":26,""ArrowUp,ArrowRight"":10,""ArrowDown,ArrowLeft"":5,""ArrowDown,ArrowRight"":17}","false","ArrowDown,ArrowRight","false","","","revaluation","2","4","","",""
"html-keyboard-response","294","23819428","0.0-4.0-2.1-1.52","spark_pilot_2","7404","7","16","Female","","","","","","","null","<div style=""font-size:60px;"">+</div>","null","fixation","","","","","","","","","","","5","","",""
"revaluation","295","23825453","0.0-4.0-2.1-0.53","spark_pilot_2","7404","7","16","Female","","false","","","","","[322.69999980926514,395.90000009536743]","./assets/img/ocean/memory/24.jpg","[""ArrowDown"",""ArrowLeft""]","value training","ocean","5","{""ArrowUp,ArrowLeft"":26,""ArrowUp,ArrowRight"":10,""ArrowDown,ArrowLeft"":5,""ArrowDown,ArrowRight"":17}","false","ArrowDown,ArrowLeft","false","","","revaluation","2","6","","",""
"html-keyboard-response","296","23825957","0.0-4.0-2.1-1.53","spark_pilot_2","7404","7","16","Female","","","","","","","null","<div style=""font-size:60px;"">+</div>","null","fixation","","","","","","","","","","","7","","",""
"revaluation","297","23829973","0.0-4.0-2.1-0.54","spark_pilot_2","7404","7","16","Female","","false","","","","","[632]","./assets/img/ocean/catch/6.jpg","[""ArrowUp""]","value training","ocean","-10","{""ArrowUp,ArrowLeft"":26,""ArrowUp,ArrowRight"":10,""ArrowDown,ArrowLeft"":5,""ArrowDown,ArrowRight"":17}","false","ArrowUp","true","","","revaluation","2","8","","",""
"html-keyboard-response","298","23830484","0.0-4.0-2.1-1.54","spark_pilot_2","7404","7","16","Female","","","","","","","null","<div style=""font-size:60px;"">+</div>","null","fixation","","","","","","","","","","","9","","",""
"revaluation","299","23834501","0.0-4.0-2.1-0.55","spark_pilot_2","7404","7","16","Female","","false","","","","","[376.59999990463257]","./assets/img/ocean/catch/4.jpg","[""ArrowUp""]","value training","ocean","-10","{""ArrowUp,ArrowLeft"":26,""ArrowUp,ArrowRight"":10,""ArrowDown,ArrowLeft"":5,""ArrowDown,ArrowRight"":17}","false","ArrowUp","true","","","revaluation","2","10","","",""
"html-keyboard-response","300","23835005","0.0-4.0-2.1-1.55","spark_pilot_2","7404","7","16","Female","","","","","","","null","<div style=""font-size:60px;"">+</div>","null","fixation","","","","","","","","","","","11","","",""
"revaluation","301","23841038","0.0-4.0-2.1-0.56","spark_pilot_2","7404","7","16","Female","","false","","","","","[453.90000009536743,287.6000003814697]","./assets/img/ocean/memory/38.jpg","[""ArrowUp"",""ArrowLeft""]","value training","ocean","26","{""ArrowUp,ArrowLeft"":26,""ArrowUp,ArrowRight"":10,""ArrowDown,ArrowLeft"":5,""ArrowDown,ArrowRight"":17}","true","ArrowUp,ArrowLeft","false","","","revaluation","2","12","","",""
"html-keyboard-response","302","23841549","0.0-4.0-2.1-1.56","spark_pilot_2","7404","7","16","Female","","","","","","","null","<div style=""font-size:60px;"">+</div>","null","fixation","","","","","","","","","","","13","","",""
"revaluation","303","23845565","0.0-4.0-2.1-0.57","spark_pilot_2","7404","7","16","Female","","false","","","","","[952.5999999046326]","./assets/img/ocean/catch/1.jpg","[""spaceBar""]","value training","ocean","0","{""ArrowUp,ArrowLeft"":26,""ArrowUp,ArrowRight"":10,""ArrowDown,ArrowLeft"":5,""ArrowDown,ArrowRight"":17}","true","spaceBar","true","","","revaluation","2","14","","",""
"html-keyboard-response","304","23846090","0.0-4.0-2.1-1.57","spark_pilot_2","7404","7","16","Female","","","","","","","null","<div style=""font-size:60px;"">+</div>","null","fixation","","","","","","","","","","","15","","",""
"revaluation","305","23852139","0.0-4.0-2.1-0.58","spark_pilot_2","7404","7","16","Female","","false","","","","","[297.40000009536743,376.5]","./assets/img/ocean/memory/41.jpg","[""ArrowUp"",""ArrowLeft""]","value training","ocean","26","{""ArrowUp,ArrowLeft"":26,""ArrowUp,ArrowRight"":10,""ArrowDown,ArrowLeft"":5,""ArrowDown,ArrowRight"":17}","true","ArrowUp,ArrowLeft","false","","","revaluation","2","16","","",""
