"trial_type","trial_index","time_elapsed","internal_node_id","task_version","subject_id","assigned_condition","age","gender","success","timeout","failed_images","failed_audio","failed_video","browser_interaction","rt","stimulus","response","task_part","environment","score","rewardMap","correct","fullState","isCatch","numberMissed","duration","condition","order","trial_num","key_press","ground_truth","bonus"
"pavlovia","0","1244","0.0-0.0","spark_pilot_2","7315","2","12","Male","","","","","","","","","","","","","","","","","","","","","","","",""
"preload","1","37846","0.0-1.0","spark_pilot_2","7315","2","12","Male","true","false","[]","[]","[]","[{""event"":""fullscreenenter"",""trial"":2,""time"":40762}]","","","","","","","","","","","","","","","","","",""
"fullscreen","2","41742","0.0-2.0","spark_pilot_2","7315","2","12","Male","true","","","","","","","","","","","","","","","","","","","","","","",""
"audio-button-response","3","43876","0.0-3.0-0.0-0.0","spark_pilot_2","7315","2","12","Male","","","","","","","1661","./assets/audio/audiotest/turtle.mp3","2","audio_test","","","","","","","","","","","","","",""
"learning-instructions","4","53885","0.0-3.0-1.0-0.0","spark_pilot_2","7315","2","12","Male","","","","","","","3027.5999999996275","<p> Welcome! Please remember to stay in fullscreen mode and don't click away from the experiment. </p>","","instructions","","","","","","","","","","","","","",""
"learning-instructions","5","62952","0.0-3.0-1.0-0.1","spark_pilot_2","7315","2","12","Male","","","","","","","654.2000000001863","<p> Today you will be playing a game to earn treasure. </p>
            <p> At the end of the experiment, you will earn a bonus based on how much treasure you find. </p>
            <img src='./assets/img/instructions/treasure.jpg' class='instructions-image'>","","instructions","","","","","","","","","","","","","",""
"learning-instructions","6","71729","0.0-3.0-1.0-0.2","spark_pilot_2","7315","2","12","Male","","","","","","","530.5999999996275","<p> Animals have hidden treasure in treasure chests. </p>
            <p> You need to first find an animal and then choose which of their treasure chests to search. </p>
            <img src='./assets/img/space/animals/cat.jpg' class='instructions-image'>","","instructions","","","","","","","","","","","","","",""
"learning-instructions","7","85588","0.0-3.0-1.0-0.3","spark_pilot_2","7315","2","12","Male","","","","","","","709.4000000003725","<p> In each round, you will search for treasure in a different place. In the real game, there will be two rounds. </p>
            <p> You will begin with a separate, practice round where you will search for treasure in outer space. </p>
            <img src='./assets/img/space/0.jpg' class='instructions-image'>","","instructions","","","","","","","","","","","","","",""
"learning-instructions","8","97476","0.0-3.0-1.0-0.4","spark_pilot_2","7315","2","12","Male","","","","","","","477.09999999962747","<p> On every turn, you will see a picture of the place that you are in, but the specific image may be different each time. </p>
            <p> For example, both of these images mean you are in outer space. </p>
            <img src='./assets/img/instructions/outerspace.jpg' class='instructions-image'>","","instructions","","","","","","","","","","","","","",""
"learning-instructions","9","106241","0.0-3.0-1.0-0.5","spark_pilot_2","7315","2","12","Male","","","","","","","942.6000000005588","<p> You need to decide which direction to travel in. </p>
            <p> You can choose between going <b>up or down</b> by using the arrow keys. </p>
            <img src='./assets/img/instructions/updown.jpg' class='instructions-image'>","","instructions","","","","","","","","","","","","","",""
"learning-instructions","10","115861","0.0-3.0-1.0-0.6","spark_pilot_2","7315","2","12","Male","","","","","","","802.1000000005588","<p> You will have <b>2 seconds</b> to make your choice. </p>
            <p> If you do not make a choice within 2 seconds, you will not find an animal or earn treasure. </p>
            <img src='./assets/img/instructions/2seconds.jpg' class='instructions-image'>","","instructions","","","","","","","","","","","","","",""
"learning-instructions","11","124758","0.0-3.0-1.0-0.7","spark_pilot_2","7315","2","12","Male","","","","","","","1860","<p> Let’s try practicing that now! </p>
            <p> When you see a picture of the place you are in, press the <b>up</b> key to travel up. </p>
            <img src='./assets/img/instructions/pressUp.jpg' class='instructions-image'>","","instructions","","","","","","","","","","","","","",""
"revaluation","12","128778","0.0-3.0-2.0-0.0","spark_pilot_2","7315","2","12","Male","","false","","","","","[770.8999999994412]","./assets/img/space/0.jpg","[""ArrowUp""]","first stage practice","space","0","null","null","ArrowUp","false","","","","","","","",""
"html-keyboard-response","13","129279","0.0-3.0-2.0-1.0","spark_pilot_2","7315","2","12","Male","","","","","","","null","<div style=""font-size:60px;"">+</div>","null","fixation","","","","","","","","","","","","","",""
"revaluation","14","133307","0.0-3.0-2.0-0.1","spark_pilot_2","7315","2","12","Male","","false","","","","","[792.2000000001863]","./assets/img/space/1.jpg","[""ArrowUp""]","first stage practice","space","0","null","null","ArrowUp","false","","","","","","","",""
"html-keyboard-response","15","133826","0.0-3.0-2.0-1.1","spark_pilot_2","7315","2","12","Male","","","","","","","null","<div style=""font-size:60px;"">+</div>","null","fixation","","","","","","","","","","","","","",""
"revaluation","16","137857","0.0-3.0-2.0-0.2","spark_pilot_2","7315","2","12","Male","","true","","","","","[]","./assets/img/space/2.jpg","[]","first stage practice","space","-5","null","null","","false","","","","","","","",""
"html-keyboard-response","17","138377","0.0-3.0-2.0-1.2","spark_pilot_2","7315","2","12","Male","","","","","","","null","<div style=""font-size:60px;"">+</div>","null","fixation","","","","","","","","","","","","","",""
"learning-instructions","18","145021","0.0-3.0-3.0-0.0","spark_pilot_2","7315","2","12","Male","","","","","","","1942","<p> Great job! Now try pressing the <b>down</b> key to travel down. </p>
            <img src='./assets/img/instructions/pressDown.jpg' class='instructions-image'>","","instructions","","","","","","","","","","","","","",""
"revaluation","19","149057","0.0-3.0-4.0-0.0","spark_pilot_2","7315","2","12","Male","","false","","","","","[445.80000000074506]","./assets/img/space/3.jpg","[""ArrowDown""]","first stage practice","space","0","null","null","ArrowDown","false","","","","","","","",""
"html-keyboard-response","20","149577","0.0-3.0-4.0-1.0","spark_pilot_2","7315","2","12","Male","","","","","","","null","<div style=""font-size:60px;"">+</div>","null","fixation","","","","","","","","","","","","","",""
"revaluation","21","153617","0.0-3.0-4.0-0.1","spark_pilot_2","7315","2","12","Male","","false","","","","","[313.6000000014901]","./assets/img/space/4.jpg","[""ArrowDown""]","first stage practice","space","0","null","null","ArrowDown","false","","","","","","","",""
"html-keyboard-response","22","154136","0.0-3.0-4.0-1.1","spark_pilot_2","7315","2","12","Male","","","","","","","null","<div style=""font-size:60px;"">+</div>","null","fixation","","","","","","","","","","","","","",""
"revaluation","23","158167","0.0-3.0-4.0-0.2","spark_pilot_2","7315","2","12","Male","","false","","","","","[253.19999999925494]","./assets/img/space/5.jpg","[""ArrowDown""]","first stage practice","space","0","null","null","ArrowDown","false","","","","","","","",""
"html-keyboard-response","24","158686","0.0-3.0-4.0-1.2","spark_pilot_2","7315","2","12","Male","","","","","","","null","<div style=""font-size:60px;"">+</div>","null","fixation","","","","","","","","","","","","","",""
"learning-instructions","25","169459","0.0-3.0-5.0-0.0","spark_pilot_2","7315","2","12","Male","","","","","","","910.8000000007451","<p> The animals don’t move, so the animal in the upper part of a place will stay in the upper part of a place, and the animal in the lower part of a place will stay in the lower part of a place. </p>","","instructions","","","","","","","","","","","","","",""
"learning-instructions","26","179350","0.0-3.0-5.0-0.1","spark_pilot_2","7315","2","12","Male","","","","","","","761.3000000007451","<p> Each animal has two treasure chests for you to choose from. </p>
            <p> The amount of treasure in each chest can range from <b> 0 to 40 pieces.</b></p>","","instructions","","","","","","","","","","","","","",""
"learning-instructions","27","191178","0.0-3.0-5.0-0.2","spark_pilot_2","7315","2","12","Male","","","","","","","639.9000000003725","<p> You should decide which chest to search for treasure by using the <b>left</b> and <b>right</b> arrow keys. </p>
            <p><b> Pay attention to which animal is on the screen, as the animals have different treasure chests. </b></p>
            <img src='./assets/img/instructions/leftright.jpg' class='instructions-image'>","","instructions","","","","","","","","","","","","","",""
"learning-instructions","28","198110","0.0-3.0-5.0-0.3","spark_pilot_2","7315","2","12","Male","","","","","","","560.5","<p> Let’s try practicing that now. </p>
            <p> When you see an animal, choose which chest to search for treasure. </p>
            <img src='./assets/img/instructions/chooseChest.jpg' class='instructions-image'>","","instructions","","","","","","","","","","","","","",""
"revaluation","29","202142","0.0-3.0-6.0-0.0","spark_pilot_2","7315","2","12","Male","","false","","","","","[503.19999999925494]","./assets/img/space/animals/rabbit.jpg","[""ArrowRight""]","second stage practice","space","23","{""ArrowUp,ArrowLeft"":3,""ArrowUp,ArrowRight"":36,""ArrowDown,ArrowLeft"":15,""ArrowDown,ArrowRight"":23}","true","ArrowDown,ArrowRight","","","","","","","","",""
"html-keyboard-response","30","202647","0.0-3.0-6.0-1.0","spark_pilot_2","7315","2","12","Male","","","","","","","null","<div style=""font-size:60px;"">+</div>","null","fixation","","","","","","","","","","","","","",""
"revaluation","31","206687","0.0-3.0-6.0-0.1","spark_pilot_2","7315","2","12","Male","","false","","","","","[488.6000000014901]","./assets/img/space/animals/cat.jpg","[""ArrowLeft""]","second stage practice","space","3","{""ArrowUp,ArrowLeft"":3,""ArrowUp,ArrowRight"":36,""ArrowDown,ArrowLeft"":15,""ArrowDown,ArrowRight"":23}","false","ArrowUp,ArrowLeft","","","","","","","","",""
"html-keyboard-response","32","207206","0.0-3.0-6.0-1.1","spark_pilot_2","7315","2","12","Male","","","","","","","null","<div style=""font-size:60px;"">+</div>","null","fixation","","","","","","","","","","","","","",""
"revaluation","33","211237","0.0-3.0-6.0-0.2","spark_pilot_2","7315","2","12","Male","","false","","","","","[654.4000000003725]","./assets/img/space/animals/rabbit.jpg","[""ArrowRight""]","second stage practice","space","23","{""ArrowUp,ArrowLeft"":3,""ArrowUp,ArrowRight"":36,""ArrowDown,ArrowLeft"":15,""ArrowDown,ArrowRight"":23}","true","ArrowDown,ArrowRight","","","","","","","","",""
"html-keyboard-response","34","211756","0.0-3.0-6.0-1.2","spark_pilot_2","7315","2","12","Male","","","","","","","null","<div style=""font-size:60px;"">+</div>","null","fixation","","","","","","","","","","","","","",""
"revaluation","35","215797","0.0-3.0-6.0-0.3","spark_pilot_2","7315","2","12","Male","","false","","","","","[383.90000000037253]","./assets/img/space/animals/cat.jpg","[""ArrowRight""]","second stage practice","space","36","{""ArrowUp,ArrowLeft"":3,""ArrowUp,ArrowRight"":36,""ArrowDown,ArrowLeft"":15,""ArrowDown,ArrowRight"":23}","true","ArrowUp,ArrowRight","","","","","","","","",""
"html-keyboard-response","36","216307","0.0-3.0-6.0-1.3","spark_pilot_2","7315","2","12","Male","","","","","","","null","<div style=""font-size:60px;"">+</div>","null","fixation","","","","","","","","","","","","","",""
"learning-instructions","37","233903","0.0-3.0-7.0-0.0","spark_pilot_2","7315","2","12","Male","","","","","","","784.7999999988824","<p> Great job. Now let’s try putting it together. </p>
            <p> On each turn, you will first see a picture to remind you of the place you are in, and you need to choose whether to go up or down. </p>
            <p> Then you will see an animal and choose which of its chests to search for treasure. </p>","","instructions","","","","","","","","","","","","","",""
"learning-instructions","38","242887","0.0-3.0-7.0-0.1","spark_pilot_2","7315","2","12","Male","","","","","","","729.4000000003725","<p> When you choose whether to go up or down, try to go to the animal with the chest with the most treasure. </p>
            <p> Try practicing that now! </p>","","instructions","","","","","","","","","","","","","",""
"revaluation","39","248935","0.0-3.0-8.0-0.0","spark_pilot_2","7315","2","12","Male","","false","","","","","[795.8999999985099,595.5999999996275]","./assets/img/space/6.jpg","[""ArrowUp"",""ArrowRight""]","full practice","space","36","{""ArrowUp,ArrowLeft"":3,""ArrowUp,ArrowRight"":36,""ArrowDown,ArrowLeft"":15,""ArrowDown,ArrowRight"":23}","true","ArrowUp,ArrowRight","false","","","","","","","",""
"html-keyboard-response","40","249444","0.0-3.0-8.0-1.0","spark_pilot_2","7315","2","12","Male","","","","","","","null","<div style=""font-size:60px;"">+</div>","null","fixation","","","","","","","","","","","","","",""
"revaluation","41","255485","0.0-3.0-8.0-0.1","spark_pilot_2","7315","2","12","Male","","false","","","","","[717.7999999988824,430.2000000011176]","./assets/img/space/7.jpg","[""ArrowDown"",""ArrowLeft""]","full practice","space","15","{""ArrowUp,ArrowLeft"":3,""ArrowUp,ArrowRight"":36,""ArrowDown,ArrowLeft"":15,""ArrowDown,ArrowRight"":23}","false","ArrowDown,ArrowLeft","false","","","","","","","",""
"html-keyboard-response","42","256005","0.0-3.0-8.0-1.1","spark_pilot_2","7315","2","12","Male","","","","","","","null","<div style=""font-size:60px;"">+</div>","null","fixation","","","","","","","","","","","","","",""
"revaluation","43","262065","0.0-3.0-8.0-0.2","spark_pilot_2","7315","2","12","Male","","false","","","","","[670.2000000011176,433.90000000037253]","./assets/img/space/8.jpg","[""ArrowDown"",""ArrowRight""]","full practice","space","23","{""ArrowUp,ArrowLeft"":3,""ArrowUp,ArrowRight"":36,""ArrowDown,ArrowLeft"":15,""ArrowDown,ArrowRight"":23}","false","ArrowDown,ArrowRight","false","","","","","","","",""
"html-keyboard-response","44","262584","0.0-3.0-8.0-1.2","spark_pilot_2","7315","2","12","Male","","","","","","","null","<div style=""font-size:60px;"">+</div>","null","fixation","","","","","","","","","","","","","",""
"revaluation","45","268615","0.0-3.0-8.0-0.3","spark_pilot_2","7315","2","12","Male","","false","","","","","[535.6999999992549,416.5]","./assets/img/space/9.jpg","[""ArrowUp"",""ArrowRight""]","full practice","space","36","{""ArrowUp,ArrowLeft"":3,""ArrowUp,ArrowRight"":36,""ArrowDown,ArrowLeft"":15,""ArrowDown,ArrowRight"":23}","true","ArrowUp,ArrowRight","false","","","","","","","",""
"html-keyboard-response","46","269135","0.0-3.0-8.0-1.3","spark_pilot_2","7315","2","12","Male","","","","","","","null","<div style=""font-size:60px;"">+</div>","null","fixation","","","","","","","","","","","","","",""
"revaluation","47","275148","0.0-3.0-8.0-0.4","spark_pilot_2","7315","2","12","Male","","false","","","","","[798.5999999996275,382.30000000074506]","./assets/img/space/10.jpg","[""ArrowDown"",""ArrowLeft""]","full practice","space","15","{""ArrowUp,ArrowLeft"":3,""ArrowUp,ArrowRight"":36,""ArrowDown,ArrowLeft"":15,""ArrowDown,ArrowRight"":23}","false","ArrowDown,ArrowLeft","false","","","","","","","",""
"html-keyboard-response","48","275649","0.0-3.0-8.0-1.4","spark_pilot_2","7315","2","12","Male","","","","","","","null","<div style=""font-size:60px;"">+</div>","null","fixation","","","","","","","","","","","","","",""
"learning-instructions","49","287341","0.0-3.0-9.0-0.0","spark_pilot_2","7315","2","12","Male","","","","","","","1204.300000000745","<p> One last thing: sometimes, you will see a robber. The robber can be anywhere in the picture. </p>
            <p> If you do not stop them, you will lose treasure. </p>
            <img src='./assets/img/instructions/robber.jpg' class='instructions-image'>","","instructions","","","","","","","","","","","","","",""
"learning-instructions","50","295467","0.0-3.0-9.0-0.1","spark_pilot_2","7315","2","12","Male","","","","","","","951.5","<p> If you see the robber, you should <b>press the space bar</b> rather than using the arrow keys. </p>
            <p> Try practicing that now! </p>","","instructions","","","","","","","","","","","","","",""
"revaluation","51","299504","0.0-3.0-10.0-0.0","spark_pilot_2","7315","2","12","Male","","false","","","","","[336.8999999985099]","./assets/img/space/catch/0.jpg","[""spaceBar""]","catch practice","space","0","{""ArrowUp,ArrowLeft"":3,""ArrowUp,ArrowRight"":36,""ArrowDown,ArrowLeft"":15,""ArrowDown,ArrowRight"":23}","true","spaceBar","true","","","","","","","",""
"html-keyboard-response","52","300024","0.0-3.0-10.0-1.0","spark_pilot_2","7315","2","12","Male","","","","","","","null","<div style=""font-size:60px;"">+</div>","null","fixation","","","","","","","","","","","","","",""
"revaluation","53","304054","0.0-3.0-10.0-0.1","spark_pilot_2","7315","2","12","Male","","false","","","","","[323.7000000011176]","./assets/img/space/catch/1.jpg","[""spaceBar""]","catch practice","space","0","{""ArrowUp,ArrowLeft"":3,""ArrowUp,ArrowRight"":36,""ArrowDown,ArrowLeft"":15,""ArrowDown,ArrowRight"":23}","true","spaceBar","true","","","","","","","",""
"html-keyboard-response","54","304573","0.0-3.0-10.0-1.1","spark_pilot_2","7315","2","12","Male","","","","","","","null","<div style=""font-size:60px;"">+</div>","null","fixation","","","","","","","","","","","","","",""
"revaluation","55","308606","0.0-3.0-10.0-0.2","spark_pilot_2","7315","2","12","Male","","false","","","","","[378.7999999988824]","./assets/img/space/catch/2.jpg","[""spaceBar""]","catch practice","space","0","{""ArrowUp,ArrowLeft"":3,""ArrowUp,ArrowRight"":36,""ArrowDown,ArrowLeft"":15,""ArrowDown,ArrowRight"":23}","true","spaceBar","true","","","","","","","",""
"html-keyboard-response","56","309126","0.0-3.0-10.0-1.2","spark_pilot_2","7315","2","12","Male","","","","","","","null","<div style=""font-size:60px;"">+</div>","null","fixation","","","","","","","","","","","","","",""
"learning-instructions","57","324519","0.0-3.0-11.0-0.0","spark_pilot_2","7315","2","12","Male","","","","","","","1791.800000000745","<p> After you explore a place to find treasure, it will be time to play a different game. </p>
            <p> During this game, red dots will appear on the screen and fall down slowly. </p>
            <p><b> You must click on them before they reach the bottom. </b></p>
            <img src='./assets/img/instructions/dotGame.jpg' class='instructions-image'>","","instructions","","","","","","","","","","","","","",""
"learning-instructions","58","331338","0.0-3.0-11.0-0.1","spark_pilot_2","7315","2","12","Male","","","","","","","1150.7000000011176","<p> For every dot you click, you will earn additional treasure. </p>
            <p> Let’s try practicing that now. </p>","","instructions","","","","","","","","","","","","","",""
"revaluation","59","346347","0.0-3.0-12.0-0.0","spark_pilot_2","7315","2","12","Male","","","","","","","[87]","","","rest practice","","10","","","","","0","15000","","","","","",""
"learning-instructions","60","352897","0.0-3.0-13.0-0.0-0.0","spark_pilot_2","7315","2","12","Male","","","","","","","1299.4000000003725","<p> Now, you will practice a shortened version of the game to get a sense of how it all fits together. </p>","","instructions","","","","","","","","","","","","","",""
"learning-instructions","61","356793","0.0-3.0-13.0-0.0-0.1","spark_pilot_2","7315","2","12","Male","","","","","","","716","<p>This time you are searching for treasure in outer space.</p>","","instructions","","","","","","","","","","","","","",""
"learning-instructions","62","372353","0.0-3.0-13.0-1.0-0.0","spark_pilot_2","7315","2","12","Male","","","","","","","796.5999999996275","<p> Remember, when you see a picture of the place, use the up and down keys to <b>find an animal</b>.</p>
            <p> When you encounter an animal, you should use the left and right keys to <b>select a treasure chest</b>.</p>
            <p> Don't forget to look out for the robber! </p>","","instructions","","","","","","","","","","","","","",""
"revaluation","63","378406","0.0-3.0-13.0-2.0-0.0","spark_pilot_2","7315","2","12","Male","","false","","","","","[801.0999999996275,414.09999999962747]","./assets/img/space/11.jpg","[""ArrowUp"",""ArrowRight""]","practice block","space","36","{""ArrowUp,ArrowLeft"":3,""ArrowUp,ArrowRight"":36,""ArrowDown,ArrowLeft"":15,""ArrowDown,ArrowRight"":23}","true","ArrowUp,ArrowRight","false","","","","","","","",""
"html-keyboard-response","64","378925","0.0-3.0-13.0-2.0-1.0","spark_pilot_2","7315","2","12","Male","","","","","","","null","<div style=""font-size:60px;"">+</div>","null","fixation","","","","","","","","","","","","","",""
"revaluation","65","384965","0.0-3.0-13.0-2.0-0.1","spark_pilot_2","7315","2","12","Male","","false","","","","","[812.8999999985099,679.3000000007451]","./assets/img/space/12.jpg","[""ArrowUp"",""ArrowRight""]","practice block","space","36","{""ArrowUp,ArrowLeft"":3,""ArrowUp,ArrowRight"":36,""ArrowDown,ArrowLeft"":15,""ArrowDown,ArrowRight"":23}","true","ArrowUp,ArrowRight","false","","","","","","","",""
"html-keyboard-response","66","385475","0.0-3.0-13.0-2.0-1.1","spark_pilot_2","7315","2","12","Male","","","","","","","null","<div style=""font-size:60px;"">+</div>","null","fixation","","","","","","","","","","","","","",""
"revaluation","67","391525","0.0-3.0-13.0-2.0-0.2","spark_pilot_2","7315","2","12","Male","","false","","","","","[1757.699999999255,542.4000000003725]","./assets/img/space/13.jpg","[""ArrowUp"",""ArrowRight""]","practice block","space","36","{""ArrowUp,ArrowLeft"":3,""ArrowUp,ArrowRight"":36,""ArrowDown,ArrowLeft"":15,""ArrowDown,ArrowRight"":23}","true","ArrowUp,ArrowRight","false","","","","","","","",""
"html-keyboard-response","68","392045","0.0-3.0-13.0-2.0-1.2","spark_pilot_2","7315","2","12","Male","","","","","","","null","<div style=""font-size:60px;"">+</div>","null","fixation","","","","","","","","","","","","","",""
"revaluation","69","398096","0.0-3.0-13.0-2.0-0.3","spark_pilot_2","7315","2","12","Male","","false","","","","","[711.0999999996275,101.10000000149012]","./assets/img/space/14.jpg","[""ArrowUp"",""ArrowRight""]","practice block","space","36","{""ArrowUp,ArrowLeft"":3,""ArrowUp,ArrowRight"":36,""ArrowDown,ArrowLeft"":15,""ArrowDown,ArrowRight"":23}","true","ArrowUp,ArrowRight","false","","","","","","","",""
"html-keyboard-response","70","398615","0.0-3.0-13.0-2.0-1.3","spark_pilot_2","7315","2","12","Male","","","","","","","null","<div style=""font-size:60px;"">+</div>","null","fixation","","","","","","","","","","","","","",""
"revaluation","71","404637","0.0-3.0-13.0-2.0-0.4","spark_pilot_2","7315","2","12","Male","","false","","","","","[860.6999999992549,280]","./assets/img/space/11.jpg","[""ArrowDown"",""ArrowRight""]","practice block","space","23","{""ArrowUp,ArrowLeft"":3,""ArrowUp,ArrowRight"":36,""ArrowDown,ArrowLeft"":15,""ArrowDown,ArrowRight"":23}","false","ArrowDown,ArrowRight","false","","","","","","","",""
"html-keyboard-response","72","405139","0.0-3.0-13.0-2.0-1.4","spark_pilot_2","7315","2","12","Male","","","","","","","null","<div style=""font-size:60px;"">+</div>","null","fixation","","","","","","","","","","","","","",""
"revaluation","73","411143","0.0-3.0-13.0-2.0-0.5","spark_pilot_2","7315","2","12","Male","","false","","","","","[787,254.30000000074506]","./assets/img/space/12.jpg","[""ArrowUp"",""ArrowRight""]","practice block","space","36","{""ArrowUp,ArrowLeft"":3,""ArrowUp,ArrowRight"":36,""ArrowDown,ArrowLeft"":15,""ArrowDown,ArrowRight"":23}","true","ArrowUp,ArrowRight","false","","","","","","","",""
"html-keyboard-response","74","411644","0.0-3.0-13.0-2.0-1.5","spark_pilot_2","7315","2","12","Male","","","","","","","null","<div style=""font-size:60px;"">+</div>","null","fixation","","","","","","","","","","","","","",""
"revaluation","75","417650","0.0-3.0-13.0-2.0-0.6","spark_pilot_2","7315","2","12","Male","","false","","","","","[662.5999999996275,150.90000000037253]","./assets/img/space/13.jpg","[""ArrowUp"",""ArrowRight""]","practice block","space","36","{""ArrowUp,ArrowLeft"":3,""ArrowUp,ArrowRight"":36,""ArrowDown,ArrowLeft"":15,""ArrowDown,ArrowRight"":23}","true","ArrowUp,ArrowRight","false","","","","","","","",""
"html-keyboard-response","76","418151","0.0-3.0-13.0-2.0-1.6","spark_pilot_2","7315","2","12","Male","","","","","","","null","<div style=""font-size:60px;"">+</div>","null","fixation","","","","","","","","","","","","","",""
"revaluation","77","424154","0.0-3.0-13.0-2.0-0.7","spark_pilot_2","7315","2","12","Male","","false","","","","","[457.69999999925494,436]","./assets/img/space/14.jpg","[""ArrowUp"",""ArrowRight""]","practice block","space","36","{""ArrowUp,ArrowLeft"":3,""ArrowUp,ArrowRight"":36,""ArrowDown,ArrowLeft"":15,""ArrowDown,ArrowRight"":23}","true","ArrowUp,ArrowRight","false","","","","","","","",""
"html-keyboard-response","78","424656","0.0-3.0-13.0-2.0-1.7","spark_pilot_2","7315","2","12","Male","","","","","","","null","<div style=""font-size:60px;"">+</div>","null","fixation","","","","","","","","","","","","","",""
"revaluation","79","428659","0.0-3.0-13.0-2.0-0.8","spark_pilot_2","7315","2","12","Male","","false","","","","","[637.8999999985099]","./assets/img/space/catch/3.jpg","[""spaceBar""]","practice block","space","0","{""ArrowUp,ArrowLeft"":3,""ArrowUp,ArrowRight"":36,""ArrowDown,ArrowLeft"":15,""ArrowDown,ArrowRight"":23}","true","spaceBar","true","","","","","","","",""
"html-keyboard-response","80","429161","0.0-3.0-13.0-2.0-1.8","spark_pilot_2","7315","2","12","Male","","","","","","","null","<div style=""font-size:60px;"">+</div>","null","fixation","","","","","","","","","","","","","",""
"learning-instructions","81","444098","0.0-3.0-13.0-3.0-0.0","spark_pilot_2","7315","2","12","Male","","","","","","","1541.0999999996275","<p> Now, you will travel with a friend who will choose whether you go up or down first. </p>
            <p> On these turns, you will just see the animal that they found. You will still get to choose which chest to search for treasure.</p>","","instructions","","","","","","","","","","","","","",""
"revaluation","82","448115","0.0-3.0-13.0-4.0-0.0","spark_pilot_2","7315","2","12","Male","","false","","","","","[583.7000000011176]","./assets/img/space/animals/cat.jpg","[""ArrowRight""]","practice block","space","36","{""ArrowUp,ArrowLeft"":3,""ArrowUp,ArrowRight"":36,""ArrowDown,ArrowLeft"":15,""ArrowDown,ArrowRight"":23}","true","ArrowUp,ArrowRight","","","","","","","","",""
"html-keyboard-response","83","448634","0.0-3.0-13.0-4.0-1.0","spark_pilot_2","7315","2","12","Male","","","","","","","null","<div style=""font-size:60px;"">+</div>","null","fixation","","","","","","","","","","","","","",""
"revaluation","84","452655","0.0-3.0-13.0-4.0-0.1","spark_pilot_2","7315","2","12","Male","","false","","","","","[374.7000000011176]","./assets/img/space/animals/rabbit.jpg","[""ArrowRight""]","practice block","space","23","{""ArrowUp,ArrowLeft"":3,""ArrowUp,ArrowRight"":36,""ArrowDown,ArrowLeft"":15,""ArrowDown,ArrowRight"":23}","true","ArrowDown,ArrowRight","","","","","","","","",""
"html-keyboard-response","85","453165","0.0-3.0-13.0-4.0-1.1","spark_pilot_2","7315","2","12","Male","","","","","","","null","<div style=""font-size:60px;"">+</div>","null","fixation","","","","","","","","","","","","","",""
"revaluation","86","457205","0.0-3.0-13.0-4.0-0.2","spark_pilot_2","7315","2","12","Male","","false","","","","","[555.7000000011176]","./assets/img/space/animals/rabbit.jpg","[""ArrowRight""]","practice block","space","23","{""ArrowUp,ArrowLeft"":3,""ArrowUp,ArrowRight"":36,""ArrowDown,ArrowLeft"":15,""ArrowDown,ArrowRight"":23}","true","ArrowDown,ArrowRight","","","","","","","","",""
"html-keyboard-response","87","457715","0.0-3.0-13.0-4.0-1.2","spark_pilot_2","7315","2","12","Male","","","","","","","null","<div style=""font-size:60px;"">+</div>","null","fixation","","","","","","","","","","","","","",""
"revaluation","88","461755","0.0-3.0-13.0-4.0-0.3","spark_pilot_2","7315","2","12","Male","","false","","","","","[393.40000000037253]","./assets/img/space/animals/cat.jpg","[""ArrowRight""]","practice block","space","36","{""ArrowUp,ArrowLeft"":3,""ArrowUp,ArrowRight"":36,""ArrowDown,ArrowLeft"":15,""ArrowDown,ArrowRight"":23}","true","ArrowUp,ArrowRight","","","","","","","","",""
"html-keyboard-response","89","462275","0.0-3.0-13.0-4.0-1.3","spark_pilot_2","7315","2","12","Male","","","","","","","null","<div style=""font-size:60px;"">+</div>","null","fixation","","","","","","","","","","","","","",""
"learning-instructions","90","470522","0.0-3.0-13.0-5.0-0.0","spark_pilot_2","7315","2","12","Male","","","","","","","865.7000000011176","<p> Time to play the dot game! </p>
            <p> For 15 seconds, click the red dots on the following screen as they appear. </p>","","instructions","","","","","","","","","","","","","",""
"revaluation","91","485525","0.0-3.0-13.0-6.0-0.0","spark_pilot_2","7315","2","12","Male","","","","","","","[52,79]","","","rest practice","","20","","","","","0","15000","","","","","",""
"learning-instructions","92","492379","0.0-3.0-13.0-7.0-0.0","spark_pilot_2","7315","2","12","Male","","","","","","","722.5","<p> You have almost finished this part of the game! </p>
            <p> We are going to ask you to make a few more choices. </p>","","instructions","","","","","","","","","","","","","",""
"learning-instructions","93","508091","0.0-3.0-13.0-7.0-0.1","spark_pilot_2","7315","2","12","Male","","","","","","","1715.0999999996275","<p> First, you need to decide whether to go up or down. When you see each picture, use the arrow keys to make your choice. </p>
            <p><b>You will not see which animal you found, but try to get to the one that will give you the most treasure.</b></p>","","instructions","","","","","","","","","","","","","",""
"revaluation","94","508756","0.0-3.0-13.0-8.0","spark_pilot_2","7315","2","12","Male","","false","","","","","[662.4000000003725]","./assets/img/space/15.jpg","[""ArrowUp""]","practice block","space","0","{""ArrowUp,ArrowLeft"":3,""ArrowUp,ArrowRight"":36,""ArrowDown,ArrowLeft"":15,""ArrowDown,ArrowRight"":23}","true","ArrowUp","false","","","","","","","",""
"html-keyboard-response","95","509265","0.0-3.0-13.0-9.0","spark_pilot_2","7315","2","12","Male","","","","","","","null","<div style=""font-size:60px;"">+</div>","null","fixation","","","","","","","","","","","","","",""
"learning-instructions","96","521145","0.0-3.0-13.0-10.0-0.0","spark_pilot_2","7315","2","12","Male","","","","","","","508.2999999988824","<p> Now you will see the animals again and can search their chests for treasure. </p>
            <p> This time, you will not see how much treasure you earned, but you will earn more bonus money for making better choices. </p>","","instructions","","","","","","","","","","","","","",""
"revaluation","97","521851","0.0-3.0-13.0-11.0-0.0","spark_pilot_2","7315","2","12","Male","","false","","","","","[704.8999999985099]","./assets/img/space/animals/cat.jpg","[""ArrowRight""]","practice block","space","0","{""ArrowUp,ArrowLeft"":3,""ArrowUp,ArrowRight"":36,""ArrowDown,ArrowLeft"":15,""ArrowDown,ArrowRight"":23}","true","ArrowUp,ArrowRight","","","","","","","","",""
"html-keyboard-response","98","522365","0.0-3.0-13.0-11.0-1.0","spark_pilot_2","7315","2","12","Male","","","","","","","null","<div style=""font-size:60px;"">+</div>","null","fixation","","","","","","","","","","","","","",""
"revaluation","99","523034","0.0-3.0-13.0-11.0-0.1","spark_pilot_2","7315","2","12","Male","","false","","","","","[667.5]","./assets/img/space/animals/rabbit.jpg","[""ArrowRight""]","practice block","space","0","{""ArrowUp,ArrowLeft"":3,""ArrowUp,ArrowRight"":36,""ArrowDown,ArrowLeft"":15,""ArrowDown,ArrowRight"":23}","true","ArrowDown,ArrowRight","","","","","","","","",""
"html-keyboard-response","100","523554","0.0-3.0-13.0-11.0-1.1","spark_pilot_2","7315","2","12","Male","","","","","","","null","<div style=""font-size:60px;"">+</div>","null","fixation","","","","","","","","","","","","","",""
"learning-instructions","101","529285","0.0-3.0-14.0-0.0","spark_pilot_2","7315","2","12","Male","","","","","","","1148.5999999996275","<p> Before you start, we're going to ask you a few questions about how the game works. </p>","","instructions","","","","","","","","","","","","","",""
"comp-q","102","536196","0.0-3.0-15.0-0.0-0.0","spark_pilot_2","7315","2","12","Male","","","","","","","1335.800000000745","<p> <b> True or False? </b> </p>
            <p> There can be 50 pieces of treasure in a given animal's chest. </p>","1","comp_question","","","","true","","","","","","","","","",""
"comp-q","103","544291","0.0-3.0-15.0-0.0-1.0","spark_pilot_2","7315","2","12","Male","","","","","","","1434.7999999988824","<p> <b> That's right! </b> The amount of treasure in each chest can range from 0 to 40 pieces. </p>","0","comp_answer","","","","","","","","","","","","","",""
"comp-q","104","552389","0.0-3.0-15.0-0.1-0.1","spark_pilot_2","7315","2","12","Male","","","","","","","993.1999999992549","<p> <b> True or False? </b> </p><p> In this game, all animals have the same amount of treasure in their left and right chests. </p>","1","comp_question","","","","true","","","","","","","","","",""
"comp-q","105","558574","0.0-3.0-15.0-0.1-1.1","spark_pilot_2","7315","2","12","Male","","","","","","","958.9000000003725","<p> <b> That's right! </b> Animals have different amounts of treasure in their treasure chests. </p>","0","comp_answer","","","","","","","","","","","","","",""
"comp-q","106","565332","0.0-3.0-15.0-0.2-0.2","spark_pilot_2","7315","2","12","Male","","","","","","","906.5999999996275","<p> <b> True or False? </b> </p><p> The same animal will always be there if you go up in the same place. </p>","0","comp_question","","","","true","","","","","","","","","",""
"comp-q","107","573419","0.0-3.0-15.0-0.2-1.2","spark_pilot_2","7315","2","12","Male","","","","","","","1643","<p> <b> That's right! </b> One animal lives in the upper part and one lives in the lower part of every place. </p>","0","comp_answer","","","","","","","","","","","","","",""
"comp-q","108","579768","0.0-3.0-15.0-0.3-0.3","spark_pilot_2","7315","2","12","Male","","","","","","","822.6999999992549","<p> <b> True or False? </b> </p><p> If you see a different picture, it means you are in a new place. </p>","0","comp_question","","","","false","","","","","","","","","",""
"comp-q","109","591923","0.0-3.0-15.0-0.3-1.3","spark_pilot_2","7315","2","12","Male","","","","","","","1057.4000000003725","<p> <b>Incorrect.</b> Lots of different images may show the same place. For example,  you may see three different images that all remind you that you are in outer space. </p>","0","comp_answer","","","","","","","","","","","","","",""
"comp-q","110","598159","0.0-3.0-15.0-0.4-0.4","spark_pilot_2","7315","2","12","Male","","","","","","","733.8000000007451","<p> <b> True or False? </b> </p><p> If you see a different picture, it means you are in a new place. </p>","1","comp_question","","","","true","","","","","","","","","",""
"comp-q","111","610312","0.0-3.0-15.0-0.4-1.4","spark_pilot_2","7315","2","12","Male","","","","","","","926.9000000003725","<p> <b> That's right! </b> Lots of different images may show the same place. For example,  you may see three different images that all remind you that you are in outer space. </p>","0","comp_answer","","","","","","","","","","","","","",""
"learning-instructions","112","621347","0.0-3.0-16.0-0.0","spark_pilot_2","7315","2","12","Male","","","","","","","1191.2999999988824","<p> Good job. Remember to do your best because the amount of treasure you earn will be converted into bonus money. </p>
            <p> It’s time to start the real game! </p>","","instructions","","","","","","","","","","","","","",""
"learning-instructions","113","624906","0.0-4.0-0.0-0.0","spark_pilot_2","7315","2","12","Male","","","","","","","850.0999999996275","<p> This time you are searching for treasure in the <b>ocean</b>.</p>","","instructions","","","","","","","","","","","","","",""
"learning-instructions","114","643306","0.0-4.0-0.0-0.1","spark_pilot_2","7315","2","12","Male","","","","","","","1119.5","<p><b>New</b> animals with <b>new</b> treasure chests live here. You need to explore to discover where the animal with the best treasure chest is.</p>
                    <p> Like before, once you figure out which animal has the chest with the most treasure, you should try to get to that animal and select that chest! </p>","","instructions","","","","","","","","","","","","","",""
"learning-instructions","115","659283","0.0-4.0-1.0-0.0","spark_pilot_2","7315","2","12","Male","","","","","","","1246.8999999985099","<p> Remember, when you see a picture of the place, use the up and down keys to <b>find an animal</b>.</p>
            <p> When you encounter an animal, you should use the left and right keys to <b>select a treasure chest</b>.</p>
            <p> Don't forget to look out for the robber! </p>","","instructions","","","","","","","","","","","","","",""
"revaluation","116","663315","0.0-4.0-2.0-0.0","spark_pilot_2","7315","2","12","Male","","false","","","","","[757.9000000003725]","./assets/img/ocean/catch/0.jpg","[""spaceBar""]","value training","ocean","0","{""ArrowUp,ArrowLeft"":23,""ArrowUp,ArrowRight"":10,""ArrowDown,ArrowLeft"":8,""ArrowDown,ArrowRight"":30}","true","spaceBar","true","","","revaluation","1","0","","",""
"html-keyboard-response","117","663834","0.0-4.0-2.0-1.0","spark_pilot_2","7315","2","12","Male","","","","","","","null","<div style=""font-size:60px;"">+</div>","null","fixation","","","","","","","","","","","1","","",""
"revaluation","118","669884","0.0-4.0-2.0-0.1","spark_pilot_2","7315","2","12","Male","","false","","","","","[458.40000000037253,483.90000000037253]","./assets/img/ocean/memory/1.jpg","[""ArrowUp"",""ArrowRight""]","value training","ocean","10","{""ArrowUp,ArrowLeft"":23,""ArrowUp,ArrowRight"":10,""ArrowDown,ArrowLeft"":8,""ArrowDown,ArrowRight"":30}","false","ArrowUp,ArrowRight","false","","","revaluation","1","2","","",""
"html-keyboard-response","119","670404","0.0-4.0-2.0-1.1","spark_pilot_2","7315","2","12","Male","","","","","","","null","<div style=""font-size:60px;"">+</div>","null","fixation","","","","","","","","","","","3","","",""
"revaluation","120","676454","0.0-4.0-2.0-0.2","spark_pilot_2","7315","2","12","Male","","false","","","","","[618,275.09999999962747]","./assets/img/ocean/memory/21.jpg","[""ArrowUp"",""ArrowLeft""]","value training","ocean","23","{""ArrowUp,ArrowLeft"":23,""ArrowUp,ArrowRight"":10,""ArrowDown,ArrowLeft"":8,""ArrowDown,ArrowRight"":30}","false","ArrowUp,ArrowLeft","false","","","revaluation","1","4","","",""
"html-keyboard-response","121","676974","0.0-4.0-2.0-1.2","spark_pilot_2","7315","2","12","Male","","","","","","","null","<div style=""font-size:60px;"">+</div>","null","fixation","","","","","","","","","","","5","","",""
"revaluation","122","683025","0.0-4.0-2.0-0.3","spark_pilot_2","7315","2","12","Male","","false","","","","","[585.5,469.09999999962747]","./assets/img/ocean/memory/1.jpg","[""ArrowDown"",""ArrowRight""]","value training","ocean","30","{""ArrowUp,ArrowLeft"":23,""ArrowUp,ArrowRight"":10,""ArrowDown,ArrowLeft"":8,""ArrowDown,ArrowRight"":30}","true","ArrowDown,ArrowRight","false","","","revaluation","1","6","","",""
"html-keyboard-response","123","683545","0.0-4.0-2.0-1.3","spark_pilot_2","7315","2","12","Male","","","","","","","null","<div style=""font-size:60px;"">+</div>","null","fixation","","","","","","","","","","","7","","",""
"revaluation","124","689575","0.0-4.0-2.0-0.4","spark_pilot_2","7315","2","12","Male","","false","","","","","[715.3000000007451,372.2999999988824]","./assets/img/ocean/memory/25.jpg","[""ArrowDown"",""ArrowLeft""]","value training","ocean","8","{""ArrowUp,ArrowLeft"":23,""ArrowUp,ArrowRight"":10,""ArrowDown,ArrowLeft"":8,""ArrowDown,ArrowRight"":30}","false","ArrowDown,ArrowLeft","false","","","revaluation","1","8","","",""
"html-keyboard-response","125","690078","0.0-4.0-2.0-1.4","spark_pilot_2","7315","2","12","Male","","","","","","","null","<div style=""font-size:60px;"">+</div>","null","fixation","","","","","","","","","","","9","","",""
"revaluation","126","696092","0.0-4.0-2.0-0.5","spark_pilot_2","7315","2","12","Male","","false","","","","","[623.5999999996275,421.2999999988824]","./assets/img/ocean/memory/37.jpg","[""ArrowDown"",""ArrowRight""]","value training","ocean","30","{""ArrowUp,ArrowLeft"":23,""ArrowUp,ArrowRight"":10,""ArrowDown,ArrowLeft"":8,""ArrowDown,ArrowRight"":30}","true","ArrowDown,ArrowRight","false","","","revaluation","1","10","","",""
"html-keyboard-response","127","696594","0.0-4.0-2.0-1.5","spark_pilot_2","7315","2","12","Male","","","","","","","null","<div style=""font-size:60px;"">+</div>","null","fixation","","","","","","","","","","","11","","",""
"revaluation","128","702598","0.0-4.0-2.0-0.6","spark_pilot_2","7315","2","12","Male","","false","","","","","[636.4000000003725,278.09999999962747]","./assets/img/ocean/memory/19.jpg","[""ArrowDown"",""ArrowRight""]","value training","ocean","30","{""ArrowUp,ArrowLeft"":23,""ArrowUp,ArrowRight"":10,""ArrowDown,ArrowLeft"":8,""ArrowDown,ArrowRight"":30}","true","ArrowDown,ArrowRight","false","","","revaluation","1","12","","",""
"html-keyboard-response","129","703099","0.0-4.0-2.0-1.6","spark_pilot_2","7315","2","12","Male","","","","","","","null","<div style=""font-size:60px;"">+</div>","null","fixation","","","","","","","","","","","13","","",""
"revaluation","130","709103","0.0-4.0-2.0-0.7","spark_pilot_2","7315","2","12","Male","","false","","","","","[483.69999999925494,341.2999999988824]","./assets/img/ocean/memory/13.jpg","[""ArrowDown"",""ArrowRight""]","value training","ocean","30","{""ArrowUp,ArrowLeft"":23,""ArrowUp,ArrowRight"":10,""ArrowDown,ArrowLeft"":8,""ArrowDown,ArrowRight"":30}","true","ArrowDown,ArrowRight","false","","","revaluation","1","14","","",""
"html-keyboard-response","131","709605","0.0-4.0-2.0-1.7","spark_pilot_2","7315","2","12","Male","","","","","","","null","<div style=""font-size:60px;"">+</div>","null","fixation","","","","","","","","","","","15","","",""
"revaluation","132","715609","0.0-4.0-2.0-0.8","spark_pilot_2","7315","2","12","Male","","false","","","","","[606.3000000007451,574.6999999992549]","./assets/img/ocean/memory/21.jpg","[""ArrowDown"",""ArrowRight""]","value training","ocean","30","{""ArrowUp,ArrowLeft"":23,""ArrowUp,ArrowRight"":10,""ArrowDown,ArrowLeft"":8,""ArrowDown,ArrowRight"":30}","true","ArrowDown,ArrowRight","false","","","revaluation","1","16","","",""
"html-keyboard-response","133","716111","0.0-4.0-2.0-1.8","spark_pilot_2","7315","2","12","Male","","","","","","","null","<div style=""font-size:60px;"">+</div>","null","fixation","","","","","","","","","","","17","","",""
"revaluation","134","722125","0.0-4.0-2.0-0.9","spark_pilot_2","7315","2","12","Male","","false","","","","","[734.5999999996275,586.4000000003725]","./assets/img/ocean/memory/16.jpg","[""ArrowDown"",""ArrowRight""]","value training","ocean","30","{""ArrowUp,ArrowLeft"":23,""ArrowUp,ArrowRight"":10,""ArrowDown,ArrowLeft"":8,""ArrowDown,ArrowRight"":30}","true","ArrowDown,ArrowRight","false","","","revaluation","1","18","","",""
"html-keyboard-response","135","722628","0.0-4.0-2.0-1.9","spark_pilot_2","7315","2","12","Male","","","","","","","null","<div style=""font-size:60px;"">+</div>","null","fixation","","","","","","","","","","","19","","",""
"revaluation","136","728632","0.0-4.0-2.0-0.10","spark_pilot_2","7315","2","12","Male","","false","","","","","[602.6000000014901,268.09999999962747]","./assets/img/ocean/memory/9.jpg","[""ArrowDown"",""ArrowRight""]","value training","ocean","30","{""ArrowUp,ArrowLeft"":23,""ArrowUp,ArrowRight"":10,""ArrowDown,ArrowLeft"":8,""ArrowDown,ArrowRight"":30}","true","ArrowDown,ArrowRight","false","","","revaluation","1","20","","",""
"html-keyboard-response","137","729133","0.0-4.0-2.0-1.10","spark_pilot_2","7315","2","12","Male","","","","","","","null","<div style=""font-size:60px;"">+</div>","null","fixation","","","","","","","","","","","21","","",""
"revaluation","138","735138","0.0-4.0-2.0-0.11","spark_pilot_2","7315","2","12","Male","","false","","","","","[470.40000000037253,262]","./assets/img/ocean/memory/38.jpg","[""ArrowDown"",""ArrowRight""]","value training","ocean","30","{""ArrowUp,ArrowLeft"":23,""ArrowUp,ArrowRight"":10,""ArrowDown,ArrowLeft"":8,""ArrowDown,ArrowRight"":30}","true","ArrowDown,ArrowRight","false","","","revaluation","1","22","","",""
"html-keyboard-response","139","735639","0.0-4.0-2.0-1.11","spark_pilot_2","7315","2","12","Male","","","","","","","null","<div style=""font-size:60px;"">+</div>","null","fixation","","","","","","","","","","","23","","",""
"revaluation","140","741644","0.0-4.0-2.0-0.12","spark_pilot_2","7315","2","12","Male","","false","","","","","[545.1999999992549,320]","./assets/img/ocean/memory/18.jpg","[""ArrowDown"",""ArrowRight""]","value training","ocean","30","{""ArrowUp,ArrowLeft"":23,""ArrowUp,ArrowRight"":10,""ArrowDown,ArrowLeft"":8,""ArrowDown,ArrowRight"":30}","true","ArrowDown,ArrowRight","false","","","revaluation","1","24","","",""
"html-keyboard-response","141","742146","0.0-4.0-2.0-1.12","spark_pilot_2","7315","2","12","Male","","","","","","","null","<div style=""font-size:60px;"">+</div>","null","fixation","","","","","","","","","","","25","","",""
"revaluation","142","748151","0.0-4.0-2.0-0.13","spark_pilot_2","7315","2","12","Male","","false","","","","","[456.7999999988824,397.59999999962747]","./assets/img/ocean/memory/22.jpg","[""ArrowDown"",""ArrowRight""]","value training","ocean","30","{""ArrowUp,ArrowLeft"":23,""ArrowUp,ArrowRight"":10,""ArrowDown,ArrowLeft"":8,""ArrowDown,ArrowRight"":30}","true","ArrowDown,ArrowRight","false","","","revaluation","1","26","","",""
"html-keyboard-response","143","748652","0.0-4.0-2.0-1.13","spark_pilot_2","7315","2","12","Male","","","","","","","null","<div style=""font-size:60px;"">+</div>","null","fixation","","","","","","","","","","","27","","",""
"revaluation","144","752656","0.0-4.0-2.0-0.14","spark_pilot_2","7315","2","12","Male","","false","","","","","[681.5]","./assets/img/ocean/catch/4.jpg","[""spaceBar""]","value training","ocean","0","{""ArrowUp,ArrowLeft"":23,""ArrowUp,ArrowRight"":10,""ArrowDown,ArrowLeft"":8,""ArrowDown,ArrowRight"":30}","true","spaceBar","true","","","revaluation","1","28","","",""
"html-keyboard-response","145","753158","0.0-4.0-2.0-1.14","spark_pilot_2","7315","2","12","Male","","","","","","","null","<div style=""font-size:60px;"">+</div>","null","fixation","","","","","","","","","","","29","","",""
"revaluation","146","759162","0.0-4.0-2.0-0.15","spark_pilot_2","7315","2","12","Male","","false","","","","","[528.0999999996275,274.2000000011176]","./assets/img/ocean/memory/3.jpg","[""ArrowDown"",""ArrowRight""]","value training","ocean","30","{""ArrowUp,ArrowLeft"":23,""ArrowUp,ArrowRight"":10,""ArrowDown,ArrowLeft"":8,""ArrowDown,ArrowRight"":30}","true","ArrowDown,ArrowRight","false","","","revaluation","1","30","","",""
"html-keyboard-response","147","759663","0.0-4.0-2.0-1.15","spark_pilot_2","7315","2","12","Male","","","","","","","null","<div style=""font-size:60px;"">+</div>","null","fixation","","","","","","","","","","","31","","",""
"revaluation","148","765669","0.0-4.0-2.0-0.16","spark_pilot_2","7315","2","12","Male","","false","","","","","[646.0999999996275,321.90000000037253]","./assets/img/ocean/memory/13.jpg","[""ArrowDown"",""ArrowRight""]","value training","ocean","30","{""ArrowUp,ArrowLeft"":23,""ArrowUp,ArrowRight"":10,""ArrowDown,ArrowLeft"":8,""ArrowDown,ArrowRight"":30}","true","ArrowDown,ArrowRight","false","","","revaluation","1","32","","",""
"html-keyboard-response","149","766170","0.0-4.0-2.0-1.16","spark_pilot_2","7315","2","12","Male","","","","","","","null","<div style=""font-size:60px;"">+</div>","null","fixation","","","","","","","","","","","33","","",""
"revaluation","150","772174","0.0-4.0-2.0-0.17","spark_pilot_2","7315","2","12","Male","","false","","","","","[435.69999999925494,266.40000000037253]","./assets/img/ocean/memory/35.jpg","[""ArrowDown"",""ArrowRight""]","value training","ocean","30","{""ArrowUp,ArrowLeft"":23,""ArrowUp,ArrowRight"":10,""ArrowDown,ArrowLeft"":8,""ArrowDown,ArrowRight"":30}","true","ArrowDown,ArrowRight","false","","","revaluation","1","34","","",""
"html-keyboard-response","151","772675","0.0-4.0-2.0-1.17","spark_pilot_2","7315","2","12","Male","","","","","","","null","<div style=""font-size:60px;"">+</div>","null","fixation","","","","","","","","","","","35","","",""
"revaluation","152","776692","0.0-4.0-2.0-0.18","spark_pilot_2","7315","2","12","Male","","false","","","","","[622.5]","./assets/img/ocean/catch/6.jpg","[""spaceBar""]","value training","ocean","0","{""ArrowUp,ArrowLeft"":23,""ArrowUp,ArrowRight"":10,""ArrowDown,ArrowLeft"":8,""ArrowDown,ArrowRight"":30}","true","spaceBar","true","","","revaluation","1","36","","",""
"html-keyboard-response","153","777194","0.0-4.0-2.0-1.18","spark_pilot_2","7315","2","12","Male","","","","","","","null","<div style=""font-size:60px;"">+</div>","null","fixation","","","","","","","","","","","37","","",""
"revaluation","154","783203","0.0-4.0-2.0-0.19","spark_pilot_2","7315","2","12","Male","","false","","","","","[708,352.80000000074506]","./assets/img/ocean/memory/36.jpg","[""ArrowDown"",""ArrowRight""]","value training","ocean","30","{""ArrowUp,ArrowLeft"":23,""ArrowUp,ArrowRight"":10,""ArrowDown,ArrowLeft"":8,""ArrowDown,ArrowRight"":30}","true","ArrowDown,ArrowRight","false","","","revaluation","1","38","","",""
"html-keyboard-response","155","783704","0.0-4.0-2.0-1.19","spark_pilot_2","7315","2","12","Male","","","","","","","null","<div style=""font-size:60px;"">+</div>","null","fixation","","","","","","","","","","","39","","",""
"revaluation","156","787708","0.0-4.0-2.0-0.20","spark_pilot_2","7315","2","12","Male","","false","","","","","[685.7999999988824]","./assets/img/ocean/catch/1.jpg","[""spaceBar""]","value training","ocean","0","{""ArrowUp,ArrowLeft"":23,""ArrowUp,ArrowRight"":10,""ArrowDown,ArrowLeft"":8,""ArrowDown,ArrowRight"":30}","true","spaceBar","true","","","revaluation","1","40","","",""
"html-keyboard-response","157","788210","0.0-4.0-2.0-1.20","spark_pilot_2","7315","2","12","Male","","","","","","","null","<div style=""font-size:60px;"">+</div>","null","fixation","","","","","","","","","","","41","","",""
"revaluation","158","794214","0.0-4.0-2.0-0.21","spark_pilot_2","7315","2","12","Male","","false","","","","","[456.5,250.5]","./assets/img/ocean/memory/31.jpg","[""ArrowDown"",""ArrowRight""]","value training","ocean","30","{""ArrowUp,ArrowLeft"":23,""ArrowUp,ArrowRight"":10,""ArrowDown,ArrowLeft"":8,""ArrowDown,ArrowRight"":30}","true","ArrowDown,ArrowRight","false","","","revaluation","1","42","","",""
"html-keyboard-response","159","794715","0.0-4.0-2.0-1.21","spark_pilot_2","7315","2","12","Male","","","","","","","null","<div style=""font-size:60px;"">+</div>","null","fixation","","","","","","","","","","","43","","",""
"revaluation","160","800720","0.0-4.0-2.0-0.22","spark_pilot_2","7315","2","12","Male","","false","","","","","[402.40000000037253,110.09999999962747]","./assets/img/ocean/memory/41.jpg","[""ArrowDown"",""ArrowRight""]","value training","ocean","30","{""ArrowUp,ArrowLeft"":23,""ArrowUp,ArrowRight"":10,""ArrowDown,ArrowLeft"":8,""ArrowDown,ArrowRight"":30}","true","ArrowDown,ArrowRight","false","","","revaluation","1","44","","",""
"html-keyboard-response","161","801221","0.0-4.0-2.0-1.22","spark_pilot_2","7315","2","12","Male","","","","","","","null","<div style=""font-size:60px;"">+</div>","null","fixation","","","","","","","","","","","45","","",""
"revaluation","162","807226","0.0-4.0-2.0-0.23","spark_pilot_2","7315","2","12","Male","","false","","","","","[459.5,426.30000000074506]","./assets/img/ocean/memory/37.jpg","[""ArrowDown"",""ArrowRight""]","value training","ocean","30","{""ArrowUp,ArrowLeft"":23,""ArrowUp,ArrowRight"":10,""ArrowDown,ArrowLeft"":8,""ArrowDown,ArrowRight"":30}","true","ArrowDown,ArrowRight","false","","","revaluation","1","46","","",""
"html-keyboard-response","163","807729","0.0-4.0-2.0-1.23","spark_pilot_2","7315","2","12","Male","","","","","","","null","<div style=""font-size:60px;"">+</div>","null","fixation","","","","","","","","","","","47","","",""
"revaluation","164","813733","0.0-4.0-2.0-0.24","spark_pilot_2","7315","2","12","Male","","false","","","","","[568.5999999996275,307.19999999925494]","./assets/img/ocean/memory/8.jpg","[""ArrowDown"",""ArrowRight""]","value training","ocean","30","{""ArrowUp,ArrowLeft"":23,""ArrowUp,ArrowRight"":10,""ArrowDown,ArrowLeft"":8,""ArrowDown,ArrowRight"":30}","true","ArrowDown,ArrowRight","false","","","revaluation","1","48","","",""
"html-keyboard-response","165","814235","0.0-4.0-2.0-1.24","spark_pilot_2","7315","2","12","Male","","","","","","","null","<div style=""font-size:60px;"">+</div>","null","fixation","","","","","","","","","","","49","","",""
"revaluation","166","820240","0.0-4.0-2.0-0.25","spark_pilot_2","7315","2","12","Male","","false","","","","","[566.1999999992549,408.90000000037253]","./assets/img/ocean/memory/8.jpg","[""ArrowDown"",""ArrowRight""]","value training","ocean","30","{""ArrowUp,ArrowLeft"":23,""ArrowUp,ArrowRight"":10,""ArrowDown,ArrowLeft"":8,""ArrowDown,ArrowRight"":30}","true","ArrowDown,ArrowRight","false","","","revaluation","1","50","","",""
"html-keyboard-response","167","820741","0.0-4.0-2.0-1.25","spark_pilot_2","7315","2","12","Male","","","","","","","null","<div style=""font-size:60px;"">+</div>","null","fixation","","","","","","","","","","","51","","",""
"revaluation","168","826746","0.0-4.0-2.0-0.26","spark_pilot_2","7315","2","12","Male","","false","","","","","[644.6999999992549,263.30000000074506]","./assets/img/ocean/memory/35.jpg","[""ArrowDown"",""ArrowRight""]","value training","ocean","30","{""ArrowUp,ArrowLeft"":23,""ArrowUp,ArrowRight"":10,""ArrowDown,ArrowLeft"":8,""ArrowDown,ArrowRight"":30}","true","ArrowDown,ArrowRight","false","","","revaluation","1","52","","",""
"html-keyboard-response","169","827249","0.0-4.0-2.0-1.26","spark_pilot_2","7315","2","12","Male","","","","","","","null","<div style=""font-size:60px;"">+</div>","null","fixation","","","","","","","","","","","53","","",""
"revaluation","170","833253","0.0-4.0-2.0-0.27","spark_pilot_2","7315","2","12","Male","","false","","","","","[490.19999999925494,356.80000000074506]","./assets/img/ocean/memory/22.jpg","[""ArrowDown"",""ArrowRight""]","value training","ocean","30","{""ArrowUp,ArrowLeft"":23,""ArrowUp,ArrowRight"":10,""ArrowDown,ArrowLeft"":8,""ArrowDown,ArrowRight"":30}","true","ArrowDown,ArrowRight","false","","","revaluation","1","54","","",""
"html-keyboard-response","171","833765","0.0-4.0-2.0-1.27","spark_pilot_2","7315","2","12","Male","","","","","","","null","<div style=""font-size:60px;"">+</div>","null","fixation","","","","","","","","","","","55","","",""
"revaluation","172","839770","0.0-4.0-2.0-0.28","spark_pilot_2","7315","2","12","Male","","false","","","","","[535.9000000003725,292.7000000011176]","./assets/img/ocean/memory/36.jpg","[""ArrowDown"",""ArrowRight""]","value training","ocean","30","{""ArrowUp,ArrowLeft"":23,""ArrowUp,ArrowRight"":10,""ArrowDown,ArrowLeft"":8,""ArrowDown,ArrowRight"":30}","true","ArrowDown,ArrowRight","false","","","revaluation","1","56","","",""
"html-keyboard-response","173","840271","0.0-4.0-2.0-1.28","spark_pilot_2","7315","2","12","Male","","","","","","","null","<div style=""font-size:60px;"">+</div>","null","fixation","","","","","","","","","","","57","","",""
"revaluation","174","846276","0.0-4.0-2.0-0.29","spark_pilot_2","7315","2","12","Male","","false","","","","","[745.5999999996275,462.59999999962747]","./assets/img/ocean/memory/11.jpg","[""ArrowDown"",""ArrowRight""]","value training","ocean","30","{""ArrowUp,ArrowLeft"":23,""ArrowUp,ArrowRight"":10,""ArrowDown,ArrowLeft"":8,""ArrowDown,ArrowRight"":30}","true","ArrowDown,ArrowRight","false","","","revaluation","1","58","","",""
"html-keyboard-response","175","846778","0.0-4.0-2.0-1.29","spark_pilot_2","7315","2","12","Male","","","","","","","null","<div style=""font-size:60px;"">+</div>","null","fixation","","","","","","","","","","","59","","",""
"revaluation","176","852783","0.0-4.0-2.0-0.30","spark_pilot_2","7315","2","12","Male","","false","","","","","[471.69999999925494,289.59999999962747]","./assets/img/ocean/memory/3.jpg","[""ArrowDown"",""ArrowRight""]","value training","ocean","30","{""ArrowUp,ArrowLeft"":23,""ArrowUp,ArrowRight"":10,""ArrowDown,ArrowLeft"":8,""ArrowDown,ArrowRight"":30}","true","ArrowDown,ArrowRight","false","","","revaluation","1","60","","",""
"html-keyboard-response","177","853285","0.0-4.0-2.0-1.30","spark_pilot_2","7315","2","12","Male","","","","","","","null","<div style=""font-size:60px;"">+</div>","null","fixation","","","","","","","","","","","61","","",""
"revaluation","178","859289","0.0-4.0-2.0-0.31","spark_pilot_2","7315","2","12","Male","","false","","","","","[903.5999999996275,344.7999999988824]","./assets/img/ocean/memory/9.jpg","[""ArrowDown"",""ArrowRight""]","value training","ocean","30","{""ArrowUp,ArrowLeft"":23,""ArrowUp,ArrowRight"":10,""ArrowDown,ArrowLeft"":8,""ArrowDown,ArrowRight"":30}","true","ArrowDown,ArrowRight","false","","","revaluation","1","62","","",""
"html-keyboard-response","179","859790","0.0-4.0-2.0-1.31","spark_pilot_2","7315","2","12","Male","","","","","","","null","<div style=""font-size:60px;"">+</div>","null","fixation","","","","","","","","","","","63","","",""
"revaluation","180","865796","0.0-4.0-2.0-0.32","spark_pilot_2","7315","2","12","Male","","false","","","","","[539.9000000003725,288.09999999962747]","./assets/img/ocean/memory/38.jpg","[""ArrowDown"",""ArrowRight""]","value training","ocean","30","{""ArrowUp,ArrowLeft"":23,""ArrowUp,ArrowRight"":10,""ArrowDown,ArrowLeft"":8,""ArrowDown,ArrowRight"":30}","true","ArrowDown,ArrowRight","false","","","revaluation","1","64","","",""
"html-keyboard-response","181","866298","0.0-4.0-2.0-1.32","spark_pilot_2","7315","2","12","Male","","","","","","","null","<div style=""font-size:60px;"">+</div>","null","fixation","","","","","","","","","","","65","","",""
"revaluation","182","870301","0.0-4.0-2.0-0.33","spark_pilot_2","7315","2","12","Male","","false","","","","","[640.2999999988824]","./assets/img/ocean/catch/2.jpg","[""spaceBar""]","value training","ocean","0","{""ArrowUp,ArrowLeft"":23,""ArrowUp,ArrowRight"":10,""ArrowDown,ArrowLeft"":8,""ArrowDown,ArrowRight"":30}","true","spaceBar","true","","","revaluation","1","66","","",""
"html-keyboard-response","183","870803","0.0-4.0-2.0-1.33","spark_pilot_2","7315","2","12","Male","","","","","","","null","<div style=""font-size:60px;"">+</div>","null","fixation","","","","","","","","","","","67","","",""
"revaluation","184","874806","0.0-4.0-2.0-0.34","spark_pilot_2","7315","2","12","Male","","false","","","","","[703.9000000003725]","./assets/img/ocean/catch/3.jpg","[""spaceBar""]","value training","ocean","0","{""ArrowUp,ArrowLeft"":23,""ArrowUp,ArrowRight"":10,""ArrowDown,ArrowLeft"":8,""ArrowDown,ArrowRight"":30}","true","spaceBar","true","","","revaluation","1","68","","",""
"html-keyboard-response","185","875308","0.0-4.0-2.0-1.34","spark_pilot_2","7315","2","12","Male","","","","","","","null","<div style=""font-size:60px;"">+</div>","null","fixation","","","","","","","","","","","69","","",""
"revaluation","186","881311","0.0-4.0-2.0-0.35","spark_pilot_2","7315","2","12","Male","","false","","","","","[533,304.59999999962747]","./assets/img/ocean/memory/33.jpg","[""ArrowDown"",""ArrowRight""]","value training","ocean","30","{""ArrowUp,ArrowLeft"":23,""ArrowUp,ArrowRight"":10,""ArrowDown,ArrowLeft"":8,""ArrowDown,ArrowRight"":30}","true","ArrowDown,ArrowRight","false","","","revaluation","1","70","","",""
"html-keyboard-response","187","881813","0.0-4.0-2.0-1.35","spark_pilot_2","7315","2","12","Male","","","","","","","null","<div style=""font-size:60px;"">+</div>","null","fixation","","","","","","","","","","","71","","",""
"revaluation","188","887825","0.0-4.0-2.0-0.36","spark_pilot_2","7315","2","12","Male","","false","","","","","[675.5999999996275,353.69999999925494]","./assets/img/ocean/memory/19.jpg","[""ArrowDown"",""ArrowRight""]","value training","ocean","30","{""ArrowUp,ArrowLeft"":23,""ArrowUp,ArrowRight"":10,""ArrowDown,ArrowLeft"":8,""ArrowDown,ArrowRight"":30}","true","ArrowDown,ArrowRight","false","","","revaluation","1","72","","",""
"html-keyboard-response","189","888328","0.0-4.0-2.0-1.36","spark_pilot_2","7315","2","12","Male","","","","","","","null","<div style=""font-size:60px;"">+</div>","null","fixation","","","","","","","","","","","73","","",""
"revaluation","190","894344","0.0-4.0-2.0-0.37","spark_pilot_2","7315","2","12","Male","","false","","","","","[526.5999999996275,61.59999999962747]","./assets/img/ocean/memory/33.jpg","[""ArrowDown"",""ArrowRight""]","value training","ocean","30","{""ArrowUp,ArrowLeft"":23,""ArrowUp,ArrowRight"":10,""ArrowDown,ArrowLeft"":8,""ArrowDown,ArrowRight"":30}","true","ArrowDown,ArrowRight","false","","","revaluation","1","74","","",""
"html-keyboard-response","191","894845","0.0-4.0-2.0-1.37","spark_pilot_2","7315","2","12","Male","","","","","","","null","<div style=""font-size:60px;"">+</div>","null","fixation","","","","","","","","","","","75","","",""
"revaluation","192","900851","0.0-4.0-2.0-0.38","spark_pilot_2","7315","2","12","Male","","false","","","","","[468.69999999925494,307.7999999988824]","./assets/img/ocean/memory/11.jpg","[""ArrowDown"",""ArrowRight""]","value training","ocean","30","{""ArrowUp,ArrowLeft"":23,""ArrowUp,ArrowRight"":10,""ArrowDown,ArrowLeft"":8,""ArrowDown,ArrowRight"":30}","true","ArrowDown,ArrowRight","false","","","revaluation","1","76","","",""
"html-keyboard-response","193","901352","0.0-4.0-2.0-1.38","spark_pilot_2","7315","2","12","Male","","","","","","","null","<div style=""font-size:60px;"">+</div>","null","fixation","","","","","","","","","","","77","","",""
"revaluation","194","905355","0.0-4.0-2.0-0.39","spark_pilot_2","7315","2","12","Male","","false","","","","","[1085.7999999988824]","./assets/img/ocean/catch/5.jpg","[""spaceBar""]","value training","ocean","0","{""ArrowUp,ArrowLeft"":23,""ArrowUp,ArrowRight"":10,""ArrowDown,ArrowLeft"":8,""ArrowDown,ArrowRight"":30}","true","spaceBar","true","","","revaluation","1","78","","",""
"html-keyboard-response","195","905857","0.0-4.0-2.0-1.39","spark_pilot_2","7315","2","12","Male","","","","","","","null","<div style=""font-size:60px;"">+</div>","null","fixation","","","","","","","","","","","79","","",""
"revaluation","196","911862","0.0-4.0-2.0-0.40","spark_pilot_2","7315","2","12","Male","","false","","","","","[642.5,400.09999999962747]","./assets/img/ocean/memory/4.jpg","[""ArrowDown"",""ArrowRight""]","value training","ocean","30","{""ArrowUp,ArrowLeft"":23,""ArrowUp,ArrowRight"":10,""ArrowDown,ArrowLeft"":8,""ArrowDown,ArrowRight"":30}","true","ArrowDown,ArrowRight","false","","","revaluation","1","80","","",""
"html-keyboard-response","197","912363","0.0-4.0-2.0-1.40","spark_pilot_2","7315","2","12","Male","","","","","","","null","<div style=""font-size:60px;"">+</div>","null","fixation","","","","","","","","","","","81","","",""
"revaluation","198","918370","0.0-4.0-2.0-0.41","spark_pilot_2","7315","2","12","Male","","false","","","","","[558.8999999985099,486.80000000074506]","./assets/img/ocean/memory/41.jpg","[""ArrowDown"",""ArrowRight""]","value training","ocean","30","{""ArrowUp,ArrowLeft"":23,""ArrowUp,ArrowRight"":10,""ArrowDown,ArrowLeft"":8,""ArrowDown,ArrowRight"":30}","true","ArrowDown,ArrowRight","false","","","revaluation","1","82","","",""
"html-keyboard-response","199","918871","0.0-4.0-2.0-1.41","spark_pilot_2","7315","2","12","Male","","","","","","","null","<div style=""font-size:60px;"">+</div>","null","fixation","","","","","","","","","","","83","","",""
"revaluation","200","924876","0.0-4.0-2.0-0.42","spark_pilot_2","7315","2","12","Male","","false","","","","","[586,261.40000000037253]","./assets/img/ocean/memory/25.jpg","[""ArrowDown"",""ArrowRight""]","value training","ocean","30","{""ArrowUp,ArrowLeft"":23,""ArrowUp,ArrowRight"":10,""ArrowDown,ArrowLeft"":8,""ArrowDown,ArrowRight"":30}","true","ArrowDown,ArrowRight","false","","","revaluation","1","84","","",""
"html-keyboard-response","201","925377","0.0-4.0-2.0-1.42","spark_pilot_2","7315","2","12","Male","","","","","","","null","<div style=""font-size:60px;"">+</div>","null","fixation","","","","","","","","","","","85","","",""
"revaluation","202","931380","0.0-4.0-2.0-0.43","spark_pilot_2","7315","2","12","Male","","false","","","","","[572.4000000003725,253.39999999850988]","./assets/img/ocean/memory/4.jpg","[""ArrowDown"",""ArrowRight""]","value training","ocean","30","{""ArrowUp,ArrowLeft"":23,""ArrowUp,ArrowRight"":10,""ArrowDown,ArrowLeft"":8,""ArrowDown,ArrowRight"":30}","true","ArrowDown,ArrowRight","false","","","revaluation","1","86","","",""
"html-keyboard-response","203","931882","0.0-4.0-2.0-1.43","spark_pilot_2","7315","2","12","Male","","","","","","","null","<div style=""font-size:60px;"">+</div>","null","fixation","","","","","","","","","","","87","","",""
"revaluation","204","937887","0.0-4.0-2.0-0.44","spark_pilot_2","7315","2","12","Male","","false","","","","","[635.3000000007451,281.90000000037253]","./assets/img/ocean/memory/29.jpg","[""ArrowDown"",""ArrowRight""]","value training","ocean","30","{""ArrowUp,ArrowLeft"":23,""ArrowUp,ArrowRight"":10,""ArrowDown,ArrowLeft"":8,""ArrowDown,ArrowRight"":30}","true","ArrowDown,ArrowRight","false","","","revaluation","1","88","","",""
"html-keyboard-response","205","938388","0.0-4.0-2.0-1.44","spark_pilot_2","7315","2","12","Male","","","","","","","null","<div style=""font-size:60px;"">+</div>","null","fixation","","","","","","","","","","","89","","",""
"revaluation","206","944394","0.0-4.0-2.0-0.45","spark_pilot_2","7315","2","12","Male","","false","","","","","[654.5,559.9000000003725]","./assets/img/ocean/memory/29.jpg","[""ArrowDown"",""ArrowRight""]","value training","ocean","30","{""ArrowUp,ArrowLeft"":23,""ArrowUp,ArrowRight"":10,""ArrowDown,ArrowLeft"":8,""ArrowDown,ArrowRight"":30}","true","ArrowDown,ArrowRight","false","","","revaluation","1","90","","",""
"html-keyboard-response","207","944895","0.0-4.0-2.0-1.45","spark_pilot_2","7315","2","12","Male","","","","","","","null","<div style=""font-size:60px;"">+</div>","null","fixation","","","","","","","","","","","91","","",""
"revaluation","208","950900","0.0-4.0-2.0-0.46","spark_pilot_2","7315","2","12","Male","","false","","","","","[920.9000000003725,388.5]","./assets/img/ocean/memory/16.jpg","[""ArrowDown"",""ArrowRight""]","value training","ocean","30","{""ArrowUp,ArrowLeft"":23,""ArrowUp,ArrowRight"":10,""ArrowDown,ArrowLeft"":8,""ArrowDown,ArrowRight"":30}","true","ArrowDown,ArrowRight","false","","","revaluation","1","92","","",""
"html-keyboard-response","209","951402","0.0-4.0-2.0-1.46","spark_pilot_2","7315","2","12","Male","","","","","","","null","<div style=""font-size:60px;"">+</div>","null","fixation","","","","","","","","","","","93","","",""
"revaluation","210","957413","0.0-4.0-2.0-0.47","spark_pilot_2","7315","2","12","Male","","false","","","","","[491.5,292.90000000037253]","./assets/img/ocean/memory/18.jpg","[""ArrowDown"",""ArrowRight""]","value training","ocean","30","{""ArrowUp,ArrowLeft"":23,""ArrowUp,ArrowRight"":10,""ArrowDown,ArrowLeft"":8,""ArrowDown,ArrowRight"":30}","true","ArrowDown,ArrowRight","false","","","revaluation","1","94","","",""
"html-keyboard-response","211","957914","0.0-4.0-2.0-1.47","spark_pilot_2","7315","2","12","Male","","","","","","","null","<div style=""font-size:60px;"">+</div>","null","fixation","","","","","","","","","","","95","","",""
"revaluation","212","961920","0.0-4.0-2.0-0.48","spark_pilot_2","7315","2","12","Male","","false","","","","","[814.0999999996275]","./assets/img/ocean/catch/7.jpg","[""spaceBar""]","value training","ocean","0","{""ArrowUp,ArrowLeft"":23,""ArrowUp,ArrowRight"":10,""ArrowDown,ArrowLeft"":8,""ArrowDown,ArrowRight"":30}","true","spaceBar","true","","","revaluation","1","96","","",""
"html-keyboard-response","213","962421","0.0-4.0-2.0-1.48","spark_pilot_2","7315","2","12","Male","","","","","","","null","<div style=""font-size:60px;"">+</div>","null","fixation","","","","","","","","","","","97","","",""
"revaluation","214","968425","0.0-4.0-2.0-0.49","spark_pilot_2","7315","2","12","Male","","false","","","","","[744.0999999996275,289.09999999962747]","./assets/img/ocean/memory/31.jpg","[""ArrowDown"",""ArrowRight""]","value training","ocean","30","{""ArrowUp,ArrowLeft"":23,""ArrowUp,ArrowRight"":10,""ArrowDown,ArrowLeft"":8,""ArrowDown,ArrowRight"":30}","true","ArrowDown,ArrowRight","false","","","revaluation","1","98","","",""
"html-keyboard-response","215","968926","0.0-4.0-2.0-1.49","spark_pilot_2","7315","2","12","Male","","","","","","","null","<div style=""font-size:60px;"">+</div>","null","fixation","","","","","","","","","","","99","","",""
"learning-instructions","216","984309","0.0-4.0-3.0-0.0","spark_pilot_2","7315","2","12","Male","","","","","","","2008.5999999996275","<p> Now, you will travel with a friend who will choose whether you go up or down first. </p>
            <p> On these turns, you will just see the animal that they found. You will still get to choose which chest to search for treasure.</p>","","instructions","","","","","","","","","","","","","",""
"revaluation","217","988339","0.0-4.0-4.0-0.0","spark_pilot_2","7315","2","12","Male","","false","","","","","[568.0999999996275]","./assets/img/ocean/animals/octopus.jpg","[""ArrowRight""]","revaluation","ocean","7","{""ArrowUp,ArrowLeft"":27,""ArrowUp,ArrowRight"":15,""ArrowDown,ArrowLeft"":21,""ArrowDown,ArrowRight"":7}","false","ArrowDown,ArrowRight","","","","revaluation","1","0","","",""
"html-keyboard-response","218","988859","0.0-4.0-4.0-1.0","spark_pilot_2","7315","2","12","Male","","","","","","","null","<div style=""font-size:60px;"">+</div>","null","fixation","","","","","","","","","","","1","","",""
"revaluation","219","992889","0.0-4.0-4.0-0.1","spark_pilot_2","7315","2","12","Male","","false","","","","","[658]","./assets/img/ocean/animals/seahorse.jpg","[""ArrowRight""]","revaluation","ocean","15","{""ArrowUp,ArrowLeft"":27,""ArrowUp,ArrowRight"":15,""ArrowDown,ArrowLeft"":21,""ArrowDown,ArrowRight"":7}","false","ArrowUp,ArrowRight","","","","revaluation","1","2","","",""
"html-keyboard-response","220","993409","0.0-4.0-4.0-1.1","spark_pilot_2","7315","2","12","Male","","","","","","","null","<div style=""font-size:60px;"">+</div>","null","fixation","","","","","","","","","","","3","","",""
"revaluation","221","997439","0.0-4.0-4.0-0.2","spark_pilot_2","7315","2","12","Male","","false","","","","","[636.5999999996275]","./assets/img/ocean/animals/octopus.jpg","[""ArrowLeft""]","revaluation","ocean","21","{""ArrowUp,ArrowLeft"":27,""ArrowUp,ArrowRight"":15,""ArrowDown,ArrowLeft"":21,""ArrowDown,ArrowRight"":7}","true","ArrowDown,ArrowLeft","","","","revaluation","1","4","","",""
"html-keyboard-response","222","997959","0.0-4.0-4.0-1.2","spark_pilot_2","7315","2","12","Male","","","","","","","null","<div style=""font-size:60px;"">+</div>","null","fixation","","","","","","","","","","","5","","",""
"revaluation","223","1001999","0.0-4.0-4.0-0.3","spark_pilot_2","7315","2","12","Male","","false","","","","","[336.40000000037253]","./assets/img/ocean/animals/seahorse.jpg","[""ArrowLeft""]","revaluation","ocean","27","{""ArrowUp,ArrowLeft"":27,""ArrowUp,ArrowRight"":15,""ArrowDown,ArrowLeft"":21,""ArrowDown,ArrowRight"":7}","true","ArrowUp,ArrowLeft","","","","revaluation","1","6","","",""
"html-keyboard-response","224","1002519","0.0-4.0-4.0-1.3","spark_pilot_2","7315","2","12","Male","","","","","","","null","<div style=""font-size:60px;"">+</div>","null","fixation","","","","","","","","","","","7","","",""
"revaluation","225","1006549","0.0-4.0-4.0-0.4","spark_pilot_2","7315","2","12","Male","","false","","","","","[406.5]","./assets/img/ocean/animals/octopus.jpg","[""ArrowLeft""]","revaluation","ocean","21","{""ArrowUp,ArrowLeft"":27,""ArrowUp,ArrowRight"":15,""ArrowDown,ArrowLeft"":21,""ArrowDown,ArrowRight"":7}","true","ArrowDown,ArrowLeft","","","","revaluation","1","8","","",""
"html-keyboard-response","226","1007060","0.0-4.0-4.0-1.4","spark_pilot_2","7315","2","12","Male","","","","","","","null","<div style=""font-size:60px;"">+</div>","null","fixation","","","","","","","","","","","9","","",""
"revaluation","227","1011079","0.0-4.0-4.0-0.5","spark_pilot_2","7315","2","12","Male","","false","","","","","[390.2000000011176]","./assets/img/ocean/animals/octopus.jpg","[""ArrowLeft""]","revaluation","ocean","21","{""ArrowUp,ArrowLeft"":27,""ArrowUp,ArrowRight"":15,""ArrowDown,ArrowLeft"":21,""ArrowDown,ArrowRight"":7}","true","ArrowDown,ArrowLeft","","","","revaluation","1","10","","",""
"html-keyboard-response","228","1011599","0.0-4.0-4.0-1.5","spark_pilot_2","7315","2","12","Male","","","","","","","null","<div style=""font-size:60px;"">+</div>","null","fixation","","","","","","","","","","","11","","",""
"revaluation","229","1015604","0.0-4.0-4.0-0.6","spark_pilot_2","7315","2","12","Male","","false","","","","","[385.30000000074506]","./assets/img/ocean/animals/octopus.jpg","[""ArrowLeft""]","revaluation","ocean","21","{""ArrowUp,ArrowLeft"":27,""ArrowUp,ArrowRight"":15,""ArrowDown,ArrowLeft"":21,""ArrowDown,ArrowRight"":7}","true","ArrowDown,ArrowLeft","","","","revaluation","1","12","","",""
"html-keyboard-response","230","1016105","0.0-4.0-4.0-1.6","spark_pilot_2","7315","2","12","Male","","","","","","","null","<div style=""font-size:60px;"">+</div>","null","fixation","","","","","","","","","","","13","","",""
"revaluation","231","1020110","0.0-4.0-4.0-0.7","spark_pilot_2","7315","2","12","Male","","false","","","","","[309]","./assets/img/ocean/animals/octopus.jpg","[""ArrowLeft""]","revaluation","ocean","21","{""ArrowUp,ArrowLeft"":27,""ArrowUp,ArrowRight"":15,""ArrowDown,ArrowLeft"":21,""ArrowDown,ArrowRight"":7}","true","ArrowDown,ArrowLeft","","","","revaluation","1","14","","",""
"html-keyboard-response","232","1020612","0.0-4.0-4.0-1.7","spark_pilot_2","7315","2","12","Male","","","","","","","null","<div style=""font-size:60px;"">+</div>","null","fixation","","","","","","","","","","","15","","",""
"revaluation","233","1024616","0.0-4.0-4.0-0.8","spark_pilot_2","7315","2","12","Male","","false","","","","","[543.9000000003725]","./assets/img/ocean/animals/seahorse.jpg","[""ArrowLeft""]","revaluation","ocean","27","{""ArrowUp,ArrowLeft"":27,""ArrowUp,ArrowRight"":15,""ArrowDown,ArrowLeft"":21,""ArrowDown,ArrowRight"":7}","true","ArrowUp,ArrowLeft","","","","revaluation","1","16","","",""
"html-keyboard-response","234","1025118","0.0-4.0-4.0-1.8","spark_pilot_2","7315","2","12","Male","","","","","","","null","<div style=""font-size:60px;"">+</div>","null","fixation","","","","","","","","","","","17","","",""
"revaluation","235","1029123","0.0-4.0-4.0-0.9","spark_pilot_2","7315","2","12","Male","","false","","","","","[735.8000000007451]","./assets/img/ocean/animals/seahorse.jpg","[""ArrowLeft""]","revaluation","ocean","27","{""ArrowUp,ArrowLeft"":27,""ArrowUp,ArrowRight"":15,""ArrowDown,ArrowLeft"":21,""ArrowDown,ArrowRight"":7}","true","ArrowUp,ArrowLeft","","","","revaluation","1","18","","",""
"html-keyboard-response","236","1029625","0.0-4.0-4.0-1.9","spark_pilot_2","7315","2","12","Male","","","","","","","null","<div style=""font-size:60px;"">+</div>","null","fixation","","","","","","","","","","","19","","",""
"revaluation","237","1033629","0.0-4.0-4.0-0.10","spark_pilot_2","7315","2","12","Male","","false","","","","","[701.9000000003725]","./assets/img/ocean/animals/seahorse.jpg","[""ArrowLeft""]","revaluation","ocean","27","{""ArrowUp,ArrowLeft"":27,""ArrowUp,ArrowRight"":15,""ArrowDown,ArrowLeft"":21,""ArrowDown,ArrowRight"":7}","true","ArrowUp,ArrowLeft","","","","revaluation","1","20","","",""
"html-keyboard-response","238","1034130","0.0-4.0-4.0-1.10","spark_pilot_2","7315","2","12","Male","","","","","","","null","<div style=""font-size:60px;"">+</div>","null","fixation","","","","","","","","","","","21","","",""
"revaluation","239","1038135","0.0-4.0-4.0-0.11","spark_pilot_2","7315","2","12","Male","","false","","","","","[267.09999999962747]","./assets/img/ocean/animals/seahorse.jpg","[""ArrowLeft""]","revaluation","ocean","27","{""ArrowUp,ArrowLeft"":27,""ArrowUp,ArrowRight"":15,""ArrowDown,ArrowLeft"":21,""ArrowDown,ArrowRight"":7}","true","ArrowUp,ArrowLeft","","","","revaluation","1","22","","",""
"html-keyboard-response","240","1038636","0.0-4.0-4.0-1.11","spark_pilot_2","7315","2","12","Male","","","","","","","null","<div style=""font-size:60px;"">+</div>","null","fixation","","","","","","","","","","","23","","",""
"revaluation","241","1042640","0.0-4.0-4.0-0.12","spark_pilot_2","7315","2","12","Male","","false","","","","","[393.19999999925494]","./assets/img/ocean/animals/seahorse.jpg","[""ArrowLeft""]","revaluation","ocean","27","{""ArrowUp,ArrowLeft"":27,""ArrowUp,ArrowRight"":15,""ArrowDown,ArrowLeft"":21,""ArrowDown,ArrowRight"":7}","true","ArrowUp,ArrowLeft","","","","revaluation","1","24","","",""
"html-keyboard-response","242","1043141","0.0-4.0-4.0-1.12","spark_pilot_2","7315","2","12","Male","","","","","","","null","<div style=""font-size:60px;"">+</div>","null","fixation","","","","","","","","","","","25","","",""
"revaluation","243","1047145","0.0-4.0-4.0-0.13","spark_pilot_2","7315","2","12","Male","","false","","","","","[476.6000000014901]","./assets/img/ocean/animals/octopus.jpg","[""ArrowLeft""]","revaluation","ocean","21","{""ArrowUp,ArrowLeft"":27,""ArrowUp,ArrowRight"":15,""ArrowDown,ArrowLeft"":21,""ArrowDown,ArrowRight"":7}","true","ArrowDown,ArrowLeft","","","","revaluation","1","26","","",""
"html-keyboard-response","244","1047646","0.0-4.0-4.0-1.13","spark_pilot_2","7315","2","12","Male","","","","","","","null","<div style=""font-size:60px;"">+</div>","null","fixation","","","","","","","","","","","27","","",""
"revaluation","245","1051651","0.0-4.0-4.0-0.14","spark_pilot_2","7315","2","12","Male","","false","","","","","[400.80000000074506]","./assets/img/ocean/animals/octopus.jpg","[""ArrowLeft""]","revaluation","ocean","21","{""ArrowUp,ArrowLeft"":27,""ArrowUp,ArrowRight"":15,""ArrowDown,ArrowLeft"":21,""ArrowDown,ArrowRight"":7}","true","ArrowDown,ArrowLeft","","","","revaluation","1","28","","",""
"html-keyboard-response","246","1052153","0.0-4.0-4.0-1.14","spark_pilot_2","7315","2","12","Male","","","","","","","null","<div style=""font-size:60px;"">+</div>","null","fixation","","","","","","","","","","","29","","",""
"revaluation","247","1056158","0.0-4.0-4.0-0.15","spark_pilot_2","7315","2","12","Male","","false","","","","","[251.59999999962747]","./assets/img/ocean/animals/octopus.jpg","[""ArrowLeft""]","revaluation","ocean","21","{""ArrowUp,ArrowLeft"":27,""ArrowUp,ArrowRight"":15,""ArrowDown,ArrowLeft"":21,""ArrowDown,ArrowRight"":7}","true","ArrowDown,ArrowLeft","","","","revaluation","1","30","","",""
"html-keyboard-response","248","1056659","0.0-4.0-4.0-1.15","spark_pilot_2","7315","2","12","Male","","","","","","","null","<div style=""font-size:60px;"">+</div>","null","fixation","","","","","","","","","","","31","","",""
"revaluation","249","1060663","0.0-4.0-4.0-0.16","spark_pilot_2","7315","2","12","Male","","false","","","","","[379.69999999925494]","./assets/img/ocean/animals/seahorse.jpg","[""ArrowLeft""]","revaluation","ocean","27","{""ArrowUp,ArrowLeft"":27,""ArrowUp,ArrowRight"":15,""ArrowDown,ArrowLeft"":21,""ArrowDown,ArrowRight"":7}","true","ArrowUp,ArrowLeft","","","","revaluation","1","32","","",""
"html-keyboard-response","250","1061164","0.0-4.0-4.0-1.16","spark_pilot_2","7315","2","12","Male","","","","","","","null","<div style=""font-size:60px;"">+</div>","null","fixation","","","","","","","","","","","33","","",""
"revaluation","251","1065167","0.0-4.0-4.0-0.17","spark_pilot_2","7315","2","12","Male","","false","","","","","[417.40000000037253]","./assets/img/ocean/animals/seahorse.jpg","[""ArrowLeft""]","revaluation","ocean","27","{""ArrowUp,ArrowLeft"":27,""ArrowUp,ArrowRight"":15,""ArrowDown,ArrowLeft"":21,""ArrowDown,ArrowRight"":7}","true","ArrowUp,ArrowLeft","","","","revaluation","1","34","","",""
"html-keyboard-response","252","1065669","0.0-4.0-4.0-1.17","spark_pilot_2","7315","2","12","Male","","","","","","","null","<div style=""font-size:60px;"">+</div>","null","fixation","","","","","","","","","","","35","","",""
"learning-instructions","253","1078391","0.0-4.0-5.0-0.0","spark_pilot_2","7315","2","12","Male","","","","","","","1086.4000000003725","<p> Time to play the dot game! </p>
            <p> For one minute, click the red dots on the following screen as they appear. </p>
            <p><b> Don't look away, as you will earn bonus for clicking dots</b>. </p>","","instructions","","","","","","","","","","","","","",""
"revaluation","254","1138392","0.0-4.0-6.0-0.0","spark_pilot_2","7315","2","12","Male","","","","","","","[61,65,51,48,57,81,55]","","","rest","","70","","","","","0","60000","","","","","",""
"learning-instructions","255","1148132","0.0-4.0-7.0-0.0","spark_pilot_2","7315","2","12","Male","","","","","","","3160.5","<p> You have almost finished this part of the game! </p>
            <p> We are going to ask you to make a few more choices. </p>","","instructions","","","","","","","","","","","","","",""
"learning-instructions","256","1162781","0.0-4.0-7.0-0.1","spark_pilot_2","7315","2","12","Male","","","","","","","680.3999999985099","<p> First, you need to decide whether to go up or down. When you see each picture, use the arrow keys to make your choice. </p>
            <p><b>You will not see which animal you found, but try to get to the one that will give you the most treasure.</b></p>","","instructions","","","","","","","","","","","","","",""
"revaluation","257","1163643","0.0-4.0-8.0-0.0","spark_pilot_2","7315","2","12","Male","","false","","","","","[859.4000000003725]","./assets/img/ocean/test/2.jpg","[""ArrowUp""]","first stage test","ocean","0","{""ArrowUp,ArrowLeft"":27,""ArrowUp,ArrowRight"":15,""ArrowDown,ArrowLeft"":21,""ArrowDown,ArrowRight"":7}","true","ArrowUp","false","","","revaluation","1","","","",""
"html-keyboard-response","258","1164159","0.0-4.0-8.0-1.0","spark_pilot_2","7315","2","12","Male","","","","","","","null","<div style=""font-size:60px;"">+</div>","null","fixation","","","","","","","","","","","","","",""
"revaluation","259","1165114","0.0-4.0-8.0-0.1","spark_pilot_2","7315","2","12","Male","","false","","","","","[952.4000000003725]","./assets/img/ocean/test/0.jpg","[""ArrowDown""]","first stage test","ocean","0","{""ArrowUp,ArrowLeft"":27,""ArrowUp,ArrowRight"":15,""ArrowDown,ArrowLeft"":21,""ArrowDown,ArrowRight"":7}","false","ArrowDown","false","","","revaluation","1","","","",""
"html-keyboard-response","260","1165629","0.0-4.0-8.0-1.1","spark_pilot_2","7315","2","12","Male","","","","","","","null","<div style=""font-size:60px;"">+</div>","null","fixation","","","","","","","","","","","","","",""
"revaluation","261","1166454","0.0-4.0-8.0-0.2","spark_pilot_2","7315","2","12","Male","","false","","","","","[821.8000000007451]","./assets/img/ocean/test/1.jpg","[""ArrowDown""]","first stage test","ocean","0","{""ArrowUp,ArrowLeft"":27,""ArrowUp,ArrowRight"":15,""ArrowDown,ArrowLeft"":21,""ArrowDown,ArrowRight"":7}","false","ArrowDown","false","","","revaluation","1","","","",""
"html-keyboard-response","262","1166959","0.0-4.0-8.0-1.2","spark_pilot_2","7315","2","12","Male","","","","","","","null","<div style=""font-size:60px;"">+</div>","null","fixation","","","","","","","","","","","","","",""
"revaluation","263","1167831","0.0-4.0-8.0-0.3","spark_pilot_2","7315","2","12","Male","","false","","","","","[868.5999999996275]","./assets/img/ocean/test/3.jpg","[""ArrowDown""]","first stage test","ocean","0","{""ArrowUp,ArrowLeft"":27,""ArrowUp,ArrowRight"":15,""ArrowDown,ArrowLeft"":21,""ArrowDown,ArrowRight"":7}","false","ArrowDown","false","","","revaluation","1","","","",""
"html-keyboard-response","264","1168339","0.0-4.0-8.0-1.3","spark_pilot_2","7315","2","12","Male","","","","","","","null","<div style=""font-size:60px;"">+</div>","null","fixation","","","","","","","","","","","","","",""
"learning-instructions","265","1180998","0.0-4.0-9.0-0.0","spark_pilot_2","7315","2","12","Male","","","","","","","1317.3999999985099","<p> Now you will see the animals again and can search their chests for treasure. </p>
            <p> This time, you will not see how much treasure you earned, but you will earn more bonus money for making better choices. </p>","","instructions","","","","","","","","","","","","","",""
"revaluation","266","1181832","0.0-4.0-10.0-0.0","spark_pilot_2","7315","2","12","Male","","false","","","","","[831]","./assets/img/ocean/animals/seahorse.jpg","[""ArrowRight""]","second stage test","ocean","0","{""ArrowUp,ArrowLeft"":27,""ArrowUp,ArrowRight"":15,""ArrowDown,ArrowLeft"":21,""ArrowDown,ArrowRight"":7}","false","ArrowUp,ArrowRight","","","","revaluation","1","","","",""
"html-keyboard-response","267","1182339","0.0-4.0-10.0-1.0","spark_pilot_2","7315","2","12","Male","","","","","","","null","<div style=""font-size:60px;"">+</div>","null","fixation","","","","","","","","","","","","","",""
"revaluation","268","1183308","0.0-4.0-10.0-0.1","spark_pilot_2","7315","2","12","Male","","false","","","","","[966.6999999992549]","./assets/img/ocean/animals/seahorse.jpg","[""ArrowRight""]","second stage test","ocean","0","{""ArrowUp,ArrowLeft"":27,""ArrowUp,ArrowRight"":15,""ArrowDown,ArrowLeft"":21,""ArrowDown,ArrowRight"":7}","false","ArrowUp,ArrowRight","","","","revaluation","1","","","",""
"html-keyboard-response","269","1183809","0.0-4.0-10.0-1.1","spark_pilot_2","7315","2","12","Male","","","","","","","null","<div style=""font-size:60px;"">+</div>","null","fixation","","","","","","","","","","","","","",""
"revaluation","270","1184668","0.0-4.0-10.0-0.2","spark_pilot_2","7315","2","12","Male","","false","","","","","[856.9000000003725]","./assets/img/ocean/animals/seahorse.jpg","[""ArrowLeft""]","second stage test","ocean","0","{""ArrowUp,ArrowLeft"":27,""ArrowUp,ArrowRight"":15,""ArrowDown,ArrowLeft"":21,""ArrowDown,ArrowRight"":7}","true","ArrowUp,ArrowLeft","","","","revaluation","1","","","",""
"html-keyboard-response","271","1185169","0.0-4.0-10.0-1.2","spark_pilot_2","7315","2","12","Male","","","","","","","null","<div style=""font-size:60px;"">+</div>","null","fixation","","","","","","","","","","","","","",""
"revaluation","272","1185790","0.0-4.0-10.0-0.3","spark_pilot_2","7315","2","12","Male","","false","","","","","[618.1000000014901]","./assets/img/ocean/animals/seahorse.jpg","[""ArrowLeft""]","second stage test","ocean","0","{""ArrowUp,ArrowLeft"":27,""ArrowUp,ArrowRight"":15,""ArrowDown,ArrowLeft"":21,""ArrowDown,ArrowRight"":7}","true","ArrowUp,ArrowLeft","","","","revaluation","1","","","",""
"html-keyboard-response","273","1186309","0.0-4.0-10.0-1.3","spark_pilot_2","7315","2","12","Male","","","","","","","null","<div style=""font-size:60px;"">+</div>","null","fixation","","","","","","","","","","","","","",""
"revaluation","274","1187282","0.0-4.0-10.0-0.4","spark_pilot_2","7315","2","12","Male","","false","","","","","[970.3000000007451]","./assets/img/ocean/animals/octopus.jpg","[""ArrowRight""]","second stage test","ocean","0","{""ArrowUp,ArrowLeft"":27,""ArrowUp,ArrowRight"":15,""ArrowDown,ArrowLeft"":21,""ArrowDown,ArrowRight"":7}","false","ArrowDown,ArrowRight","","","","revaluation","1","","","",""
"html-keyboard-response","275","1187790","0.0-4.0-10.0-1.4","spark_pilot_2","7315","2","12","Male","","","","","","","null","<div style=""font-size:60px;"">+</div>","null","fixation","","","","","","","","","","","","","",""
"revaluation","276","1188571","0.0-4.0-10.0-0.5","spark_pilot_2","7315","2","12","Male","","false","","","","","[778.4000000003725]","./assets/img/ocean/animals/octopus.jpg","[""ArrowRight""]","second stage test","ocean","0","{""ArrowUp,ArrowLeft"":27,""ArrowUp,ArrowRight"":15,""ArrowDown,ArrowLeft"":21,""ArrowDown,ArrowRight"":7}","false","ArrowDown,ArrowRight","","","","revaluation","1","","","",""
"html-keyboard-response","277","1189089","0.0-4.0-10.0-1.5","spark_pilot_2","7315","2","12","Male","","","","","","","null","<div style=""font-size:60px;"">+</div>","null","fixation","","","","","","","","","","","","","",""
"revaluation","278","1189706","0.0-4.0-10.0-0.6","spark_pilot_2","7315","2","12","Male","","false","","","","","[613.5]","./assets/img/ocean/animals/octopus.jpg","[""ArrowRight""]","second stage test","ocean","0","{""ArrowUp,ArrowLeft"":27,""ArrowUp,ArrowRight"":15,""ArrowDown,ArrowLeft"":21,""ArrowDown,ArrowRight"":7}","false","ArrowDown,ArrowRight","","","","revaluation","1","","","",""
"html-keyboard-response","279","1190209","0.0-4.0-10.0-1.6","spark_pilot_2","7315","2","12","Male","","","","","","","null","<div style=""font-size:60px;"">+</div>","null","fixation","","","","","","","","","","","","","",""
"revaluation","280","1190740","0.0-4.0-10.0-0.7","spark_pilot_2","7315","2","12","Male","","false","","","","","[528.3000000007451]","./assets/img/ocean/animals/octopus.jpg","[""ArrowRight""]","second stage test","ocean","0","{""ArrowUp,ArrowLeft"":27,""ArrowUp,ArrowRight"":15,""ArrowDown,ArrowLeft"":21,""ArrowDown,ArrowRight"":7}","false","ArrowDown,ArrowRight","","","","revaluation","1","","","",""
"html-keyboard-response","281","1191259","0.0-4.0-10.0-1.7","spark_pilot_2","7315","2","12","Male","","","","","","","null","<div style=""font-size:60px;"">+</div>","null","fixation","","","","","","","","","","","","","",""
"learning-instructions","282","1195127","0.0-4.0-0.1-0.2","spark_pilot_2","7315","2","12","Male","","","","","","","1086.300000000745","<p> This time you are searching for treasure in the <b>canyon</b>.</p>","","instructions","","","","","","","","","","","","","",""
"learning-instructions","283","1213926","0.0-4.0-0.1-0.3","spark_pilot_2","7315","2","12","Male","","","","","","","1555.199999999255","<p><b>New</b> animals with <b>new</b> treasure chests live here. You need to explore to discover where the animal with the best treasure chest is.</p>
                    <p> Like before, once you figure out which animal has the chest with the most treasure, you should try to get to that animal and select that chest! </p>","","instructions","","","","","","","","","","","","","",""
"learning-instructions","284","1230498","0.0-4.0-1.1-0.1","spark_pilot_2","7315","2","12","Male","","","","","","","1847","<p> Remember, when you see a picture of the place, use the up and down keys to <b>find an animal</b>.</p>
            <p> When you encounter an animal, you should use the left and right keys to <b>select a treasure chest</b>.</p>
            <p> Don't forget to look out for the robber! </p>","","instructions","","","","","","","","","","","","","",""
"revaluation","285","1236550","0.0-4.0-2.1-0.50","spark_pilot_2","7315","2","12","Male","","false","","","","","[665.3000000007451,370.5]","./assets/img/canyon/memory/3.jpg","[""ArrowUp"",""ArrowRight""]","value training","canyon","10","{""ArrowUp,ArrowLeft"":26,""ArrowUp,ArrowRight"":10,""ArrowDown,ArrowLeft"":5,""ArrowDown,ArrowRight"":17}","false","ArrowUp,ArrowRight","false","","","original","2","0","","",""
"html-keyboard-response","286","1237069","0.0-4.0-2.1-1.50","spark_pilot_2","7315","2","12","Male","","","","","","","null","<div style=""font-size:60px;"">+</div>","null","fixation","","","","","","","","","","","1","","",""
"revaluation","287","1243119","0.0-4.0-2.1-0.51","spark_pilot_2","7315","2","12","Male","","false","","","","","[392.1000000014901,311.59999999962747]","./assets/img/canyon/memory/16.jpg","[""ArrowUp"",""ArrowLeft""]","value training","canyon","26","{""ArrowUp,ArrowLeft"":26,""ArrowUp,ArrowRight"":10,""ArrowDown,ArrowLeft"":5,""ArrowDown,ArrowRight"":17}","true","ArrowUp,ArrowLeft","false","","","original","2","2","","",""
"html-keyboard-response","288","1243639","0.0-4.0-2.1-1.51","spark_pilot_2","7315","2","12","Male","","","","","","","null","<div style=""font-size:60px;"">+</div>","null","fixation","","","","","","","","","","","3","","",""
"revaluation","289","1249690","0.0-4.0-2.1-0.52","spark_pilot_2","7315","2","12","Male","","false","","","","","[436,389.3999999985099]","./assets/img/canyon/memory/11.jpg","[""ArrowDown"",""ArrowRight""]","value training","canyon","17","{""ArrowUp,ArrowLeft"":26,""ArrowUp,ArrowRight"":10,""ArrowDown,ArrowLeft"":5,""ArrowDown,ArrowRight"":17}","false","ArrowDown,ArrowRight","false","","","original","2","4","","",""
"html-keyboard-response","290","1250209","0.0-4.0-2.1-1.52","spark_pilot_2","7315","2","12","Male","","","","","","","null","<div style=""font-size:60px;"">+</div>","null","fixation","","","","","","","","","","","5","","",""
"revaluation","291","1256259","0.0-4.0-2.1-0.53","spark_pilot_2","7315","2","12","Male","","false","","","","","[718,280.6000000014901]","./assets/img/canyon/memory/18.jpg","[""ArrowDown"",""ArrowLeft""]","value training","canyon","5","{""ArrowUp,ArrowLeft"":26,""ArrowUp,ArrowRight"":10,""ArrowDown,ArrowLeft"":5,""ArrowDown,ArrowRight"":17}","false","ArrowDown,ArrowLeft","false","","","original","2","6","","",""
"html-keyboard-response","292","1256779","0.0-4.0-2.1-1.53","spark_pilot_2","7315","2","12","Male","","","","","","","null","<div style=""font-size:60px;"">+</div>","null","fixation","","","","","","","","","","","7","","",""
"revaluation","293","1260792","0.0-4.0-2.1-0.54","spark_pilot_2","7315","2","12","Male","","false","","","","","[850.6999999992549]","./assets/img/canyon/catch/1.jpg","[""spaceBar""]","value training","canyon","0","{""ArrowUp,ArrowLeft"":26,""ArrowUp,ArrowRight"":10,""ArrowDown,ArrowLeft"":5,""ArrowDown,ArrowRight"":17}","true","spaceBar","true","","","original","2","8","","",""
"html-keyboard-response","294","1261293","0.0-4.0-2.1-1.54","spark_pilot_2","7315","2","12","Male","","","","","","","null","<div style=""font-size:60px;"">+</div>","null","fixation","","","","","","","","","","","9","","",""
"revaluation","295","1267298","0.0-4.0-2.1-0.55","spark_pilot_2","7315","2","12","Male","","false","","","","","[542.4000000003725,441.09999999962747]","./assets/img/canyon/memory/33.jpg","[""ArrowUp"",""ArrowLeft""]","value training","canyon","26","{""ArrowUp,ArrowLeft"":26,""ArrowUp,ArrowRight"":10,""ArrowDown,ArrowLeft"":5,""ArrowDown,ArrowRight"":17}","true","ArrowUp,ArrowLeft","false","","","original","2","10","","",""
"html-keyboard-response","296","1267799","0.0-4.0-2.1-1.55","spark_pilot_2","7315","2","12","Male","","","","","","","null","<div style=""font-size:60px;"">+</div>","null","fixation","","","","","","","","","","","11","","",""
"revaluation","297","1273804","0.0-4.0-2.1-0.56","spark_pilot_2","7315","2","12","Male","","false","","","","","[640.4000000003725,308.2999999988824]","./assets/img/canyon/memory/11.jpg","[""ArrowUp"",""ArrowLeft""]","value training","canyon","26","{""ArrowUp,ArrowLeft"":26,""ArrowUp,ArrowRight"":10,""ArrowDown,ArrowLeft"":5,""ArrowDown,ArrowRight"":17}","true","ArrowUp,ArrowLeft","false","","","original","2","12","","",""
"html-keyboard-response","298","1274306","0.0-4.0-2.1-1.56","spark_pilot_2","7315","2","12","Male","","","","","","","null","<div style=""font-size:60px;"">+</div>","null","fixation","","","","","","","","","","","13","","",""
"revaluation","299","1280313","0.0-4.0-2.1-0.57","spark_pilot_2","7315","2","12","Male","","false","","","","","[850.3000000007451,382.19999999925494]","./assets/img/canyon/memory/8.jpg","[""ArrowUp"",""ArrowLeft""]","value training","canyon","26","{""ArrowUp,ArrowLeft"":26,""ArrowUp,ArrowRight"":10,""ArrowDown,ArrowLeft"":5,""ArrowDown,ArrowRight"":17}","true","ArrowUp,ArrowLeft","false","","","original","2","14","","",""
"html-keyboard-response","300","1280814","0.0-4.0-2.1-1.57","spark_pilot_2","7315","2","12","Male","","","","","","","null","<div style=""font-size:60px;"">+</div>","null","fixation","","","","","","","","","","","15","","",""
"revaluation","301","1286818","0.0-4.0-2.1-0.58","spark_pilot_2","7315","2","12","Male","","false","","","","","[1047.5,376]","./assets/img/canyon/memory/18.jpg","[""ArrowUp"",""ArrowLeft""]","value training","canyon","26","{""ArrowUp,ArrowLeft"":26,""ArrowUp,ArrowRight"":10,""ArrowDown,ArrowLeft"":5,""ArrowDown,ArrowRight"":17}","true","ArrowUp,ArrowLeft","false","","","original","2","16","","",""
"html-keyboard-response","302","1287320","0.0-4.0-2.1-1.58","spark_pilot_2","7315","2","12","Male","","","","","","","null","<div style=""font-size:60px;"">+</div>","null","fixation","","","","","","","","","","","17","","",""
"revaluation","303","1291324","0.0-4.0-2.1-0.59","spark_pilot_2","7315","2","12","Male","","false","","","","","[841.4000000003725]","./assets/img/canyon/catch/7.jpg","[""spaceBar""]","value training","canyon","0","{""ArrowUp,ArrowLeft"":26,""ArrowUp,ArrowRight"":10,""ArrowDown,ArrowLeft"":5,""ArrowDown,ArrowRight"":17}","true","spaceBar","true","","","original","2","18","","",""
"html-keyboard-response","304","1291826","0.0-4.0-2.1-1.59","spark_pilot_2","7315","2","12","Male","","","","","","","null","<div style=""font-size:60px;"">+</div>","null","fixation","","","","","","","","","","","19","","",""
"revaluation","305","1297830","0.0-4.0-2.1-0.60","spark_pilot_2","7315","2","12","Male","","false","","","","","[593.1000000014901,377.30000000074506]","./assets/img/canyon/memory/35.jpg","[""ArrowUp"",""ArrowLeft""]","value training","canyon","26","{""ArrowUp,ArrowLeft"":26,""ArrowUp,ArrowRight"":10,""ArrowDown,ArrowLeft"":5,""ArrowDown,ArrowRight"":17}","true","ArrowUp,ArrowLeft","false","","","original","2","20","","",""
"html-keyboard-response","306","1298331","0.0-4.0-2.1-1.60","spark_pilot_2","7315","2","12","Male","","","","","","","null","<div style=""font-size:60px;"">+</div>","null","fixation","","","","","","","","","","","21","","",""
