"trial_type","trial_index","time_elapsed","internal_node_id","task_version","subject_id","assigned_condition","age","gender","success","timeout","failed_images","failed_audio","failed_video","browser_interaction","rt","stimulus","response","task_part","environment","score","rewardMap","correct","fullState","isCatch","numberMissed","duration","condition","order","trial_num","key_press","ground_truth","bonus"
"pavlovia","0","1766","0.0-0.0","spark_pilot_2","7494","7","21","Female","","","","","","","","","","","","","","","","","","","","","","","",""
"preload","1","8405","0.0-1.0","spark_pilot_2","7494","7","21","Female","true","false","[]","[]","[]","[{""event"":""fullscreenenter"",""trial"":2,""time"":11139},{""event"":""fullscreenexit"",""trial"":383,""time"":1514599},{""event"":""blur"",""trial"":383,""time"":1515946},{""event"":""focus"",""trial"":383,""time"":1521133}]","","","","","","","","","","","","","","","","","",""
"fullscreen","2","12140","0.0-2.0","spark_pilot_2","7494","7","21","Female","true","","","","","","","","","","","","","","","","","","","","","","",""
"audio-button-response","3","14161","0.0-3.0-0.0-0.0","spark_pilot_2","7494","7","21","Female","","","","","","","1501","./assets/audio/audiotest/turtle.mp3","2","audio_test","","","","","","","","","","","","","",""
"learning-instructions","4","24856","0.0-3.0-1.0-0.0","spark_pilot_2","7494","7","21","Female","","","","","","","3710.6000000089407","<p> Welcome! Please remember to stay in fullscreen mode and don't click away from the experiment. </p>","","instructions","","","","","","","","","","","","","",""
"learning-instructions","5","34053","0.0-3.0-1.0-0.1","spark_pilot_2","7494","7","21","Female","","","","","","","777.5","<p> Today you will be playing a game to earn treasure. </p>
            <p> At the end of the experiment, you will earn a bonus based on how much treasure you find. </p>
            <img src='./assets/img/instructions/treasure.jpg' class='instructions-image'>","","instructions","","","","","","","","","","","","","",""
"learning-instructions","6","43296","0.0-3.0-1.0-0.2","spark_pilot_2","7494","7","21","Female","","","","","","","980.2999999970198","<p> Animals have hidden treasure in treasure chests. </p>
            <p> You need to first find an animal and then choose which of their treasure chests to search. </p>
            <img src='./assets/img/space/animals/cat.jpg' class='instructions-image'>","","instructions","","","","","","","","","","","","","",""
"learning-instructions","7","58469","0.0-3.0-1.0-0.3","spark_pilot_2","7494","7","21","Female","","","","","","","2003.0999999940395","<p> In each round, you will search for treasure in a different place. In the real game, there will be two rounds. </p>
            <p> You will begin with a separate, practice round where you will search for treasure in outer space. </p>
            <img src='./assets/img/space/0.jpg' class='instructions-image'>","","instructions","","","","","","","","","","","","","",""
"learning-instructions","8","70855","0.0-3.0-1.0-0.4","spark_pilot_2","7494","7","21","Female","","","","","","","957.7000000029802","<p> On every turn, you will see a picture of the place that you are in, but the specific image may be different each time. </p>
            <p> For example, both of these images mean you are in outer space. </p>
            <img src='./assets/img/instructions/outerspace.jpg' class='instructions-image'>","","instructions","","","","","","","","","","","","","",""
"learning-instructions","9","81129","0.0-3.0-1.0-0.5","spark_pilot_2","7494","7","21","Female","","","","","","","2441.0999999940395","<p> You need to decide which direction to travel in. </p>
            <p> You can choose between going <b>up or down</b> by using the arrow keys. </p>
            <img src='./assets/img/instructions/updown.jpg' class='instructions-image'>","","instructions","","","","","","","","","","","","","",""
"learning-instructions","10","92140","0.0-3.0-1.0-0.6","spark_pilot_2","7494","7","21","Female","","","","","","","2203","<p> You will have <b>2 seconds</b> to make your choice. </p>
            <p> If you do not make a choice within 2 seconds, you will not find an animal or earn treasure. </p>
            <img src='./assets/img/instructions/2seconds.jpg' class='instructions-image'>","","instructions","","","","","","","","","","","","","",""
"learning-instructions","11","100638","0.0-3.0-1.0-0.7","spark_pilot_2","7494","7","21","Female","","","","","","","1451.4000000059605","<p> Let’s try practicing that now! </p>
            <p> When you see a picture of the place you are in, press the <b>up</b> key to travel up. </p>
            <img src='./assets/img/instructions/pressUp.jpg' class='instructions-image'>","","instructions","","","","","","","","","","","","","",""
"revaluation","12","104668","0.0-3.0-2.0-0.0","spark_pilot_2","7494","7","21","Female","","false","","","","","[835.7999999970198]","./assets/img/space/0.jpg","[""ArrowUp""]","first stage practice","space","0","null","null","ArrowUp","false","","","","","","","",""
"html-keyboard-response","13","105182","0.0-3.0-2.0-1.0","spark_pilot_2","7494","7","21","Female","","","","","","","null","<div style=""font-size:60px;"">+</div>","null","fixation","","","","","","","","","","","","","",""
"revaluation","14","109198","0.0-3.0-2.0-0.1","spark_pilot_2","7494","7","21","Female","","false","","","","","[861.2000000029802]","./assets/img/space/1.jpg","[""ArrowUp""]","first stage practice","space","0","null","null","ArrowUp","false","","","","","","","",""
"html-keyboard-response","15","109705","0.0-3.0-2.0-1.1","spark_pilot_2","7494","7","21","Female","","","","","","","null","<div style=""font-size:60px;"">+</div>","null","fixation","","","","","","","","","","","","","",""
"revaluation","16","113726","0.0-3.0-2.0-0.2","spark_pilot_2","7494","7","21","Female","","false","","","","","[552.7000000029802]","./assets/img/space/2.jpg","[""ArrowUp""]","first stage practice","space","0","null","null","ArrowUp","false","","","","","","","",""
"html-keyboard-response","17","114231","0.0-3.0-2.0-1.2","spark_pilot_2","7494","7","21","Female","","","","","","","null","<div style=""font-size:60px;"">+</div>","null","fixation","","","","","","","","","","","","","",""
"learning-instructions","18","120684","0.0-3.0-3.0-0.0","spark_pilot_2","7494","7","21","Female","","","","","","","1747","<p> Great job! Now try pressing the <b>down</b> key to travel down. </p>
            <img src='./assets/img/instructions/pressDown.jpg' class='instructions-image'>","","instructions","","","","","","","","","","","","","",""
"revaluation","19","124713","0.0-3.0-4.0-0.0","spark_pilot_2","7494","7","21","Female","","false","","","","","[487.79999999701977]","./assets/img/space/3.jpg","[""ArrowDown""]","first stage practice","space","0","null","null","ArrowDown","false","","","","","","","",""
"html-keyboard-response","20","125217","0.0-3.0-4.0-1.0","spark_pilot_2","7494","7","21","Female","","","","","","","null","<div style=""font-size:60px;"">+</div>","null","fixation","","","","","","","","","","","","","",""
"revaluation","21","129245","0.0-3.0-4.0-0.1","spark_pilot_2","7494","7","21","Female","","false","","","","","[296.70000000298023]","./assets/img/space/4.jpg","[""ArrowDown""]","first stage practice","space","0","null","null","ArrowDown","false","","","","","","","",""
"html-keyboard-response","22","129761","0.0-3.0-4.0-1.1","spark_pilot_2","7494","7","21","Female","","","","","","","null","<div style=""font-size:60px;"">+</div>","null","fixation","","","","","","","","","","","","","",""
"revaluation","23","133784","0.0-3.0-4.0-0.2","spark_pilot_2","7494","7","21","Female","","false","","","","","[662.5]","./assets/img/space/5.jpg","[""ArrowDown""]","first stage practice","space","0","null","null","ArrowDown","false","","","","","","","",""
"html-keyboard-response","24","134288","0.0-3.0-4.0-1.2","spark_pilot_2","7494","7","21","Female","","","","","","","null","<div style=""font-size:60px;"">+</div>","null","fixation","","","","","","","","","","","","","",""
"learning-instructions","25","145812","0.0-3.0-5.0-0.0","spark_pilot_2","7494","7","21","Female","","","","","","","1655.0999999940395","<p> The animals don’t move, so the animal in the upper part of a place will stay in the upper part of a place, and the animal in the lower part of a place will stay in the lower part of a place. </p>","","instructions","","","","","","","","","","","","","",""
"learning-instructions","26","155807","0.0-3.0-5.0-0.1","spark_pilot_2","7494","7","21","Female","","","","","","","859.7999999970198","<p> Each animal has two treasure chests for you to choose from. </p>
            <p> The amount of treasure in each chest can range from <b> 0 to 40 pieces.</b></p>","","instructions","","","","","","","","","","","","","",""
"learning-instructions","27","167694","0.0-3.0-5.0-0.2","spark_pilot_2","7494","7","21","Female","","","","","","","696.9000000059605","<p> You should decide which chest to search for treasure by using the <b>left</b> and <b>right</b> arrow keys. </p>
            <p><b> Pay attention to which animal is on the screen, as the animals have different treasure chests. </b></p>
            <img src='./assets/img/instructions/leftright.jpg' class='instructions-image'>","","instructions","","","","","","","","","","","","","",""
"learning-instructions","28","175171","0.0-3.0-5.0-0.3","spark_pilot_2","7494","7","21","Female","","","","","","","1103.2999999970198","<p> Let’s try practicing that now. </p>
            <p> When you see an animal, choose which chest to search for treasure. </p>
            <img src='./assets/img/instructions/chooseChest.jpg' class='instructions-image'>","","instructions","","","","","","","","","","","","","",""
"revaluation","29","179185","0.0-3.0-6.0-0.0","spark_pilot_2","7494","7","21","Female","","false","","","","","[827.2000000029802]","./assets/img/space/animals/rabbit.jpg","[""ArrowLeft""]","second stage practice","space","15","{""ArrowUp,ArrowLeft"":3,""ArrowUp,ArrowRight"":36,""ArrowDown,ArrowLeft"":15,""ArrowDown,ArrowRight"":23}","false","ArrowDown,ArrowLeft","","","","","","","","",""
"html-keyboard-response","30","179702","0.0-3.0-6.0-1.0","spark_pilot_2","7494","7","21","Female","","","","","","","null","<div style=""font-size:60px;"">+</div>","null","fixation","","","","","","","","","","","","","",""
"revaluation","31","183724","0.0-3.0-6.0-0.1","spark_pilot_2","7494","7","21","Female","","false","","","","","[873.5]","./assets/img/space/animals/rabbit.jpg","[""ArrowLeft""]","second stage practice","space","15","{""ArrowUp,ArrowLeft"":3,""ArrowUp,ArrowRight"":36,""ArrowDown,ArrowLeft"":15,""ArrowDown,ArrowRight"":23}","false","ArrowDown,ArrowLeft","","","","","","","","",""
"html-keyboard-response","32","184233","0.0-3.0-6.0-1.1","spark_pilot_2","7494","7","21","Female","","","","","","","null","<div style=""font-size:60px;"">+</div>","null","fixation","","","","","","","","","","","","","",""
"revaluation","33","188258","0.0-3.0-6.0-0.2","spark_pilot_2","7494","7","21","Female","","false","","","","","[762.0999999940395]","./assets/img/space/animals/cat.jpg","[""ArrowLeft""]","second stage practice","space","3","{""ArrowUp,ArrowLeft"":3,""ArrowUp,ArrowRight"":36,""ArrowDown,ArrowLeft"":15,""ArrowDown,ArrowRight"":23}","false","ArrowUp,ArrowLeft","","","","","","","","",""
"html-keyboard-response","34","188760","0.0-3.0-6.0-1.2","spark_pilot_2","7494","7","21","Female","","","","","","","null","<div style=""font-size:60px;"">+</div>","null","fixation","","","","","","","","","","","","","",""
"revaluation","35","192785","0.0-3.0-6.0-0.3","spark_pilot_2","7494","7","21","Female","","false","","","","","[419.5]","./assets/img/space/animals/cat.jpg","[""ArrowRight""]","second stage practice","space","36","{""ArrowUp,ArrowLeft"":3,""ArrowUp,ArrowRight"":36,""ArrowDown,ArrowLeft"":15,""ArrowDown,ArrowRight"":23}","true","ArrowUp,ArrowRight","","","","","","","","",""
"html-keyboard-response","36","193289","0.0-3.0-6.0-1.3","spark_pilot_2","7494","7","21","Female","","","","","","","null","<div style=""font-size:60px;"">+</div>","null","fixation","","","","","","","","","","","","","",""
"learning-instructions","37","211517","0.0-3.0-7.0-0.0","spark_pilot_2","7494","7","21","Female","","","","","","","1401","<p> Great job. Now let’s try putting it together. </p>
            <p> On each turn, you will first see a picture to remind you of the place you are in, and you need to choose whether to go up or down. </p>
            <p> Then you will see an animal and choose which of its chests to search for treasure. </p>","","instructions","","","","","","","","","","","","","",""
"learning-instructions","38","221211","0.0-3.0-7.0-0.1","spark_pilot_2","7494","7","21","Female","","","","","","","1424.1000000089407","<p> When you choose whether to go up or down, try to go to the animal with the chest with the most treasure. </p>
            <p> Try practicing that now! </p>","","instructions","","","","","","","","","","","","","",""
"revaluation","39","227234","0.0-3.0-8.0-0.0","spark_pilot_2","7494","7","21","Female","","false","","","","","[720.9000000059605,600.2999999970198]","./assets/img/space/6.jpg","[""ArrowUp"",""ArrowLeft""]","full practice","space","3","{""ArrowUp,ArrowLeft"":3,""ArrowUp,ArrowRight"":36,""ArrowDown,ArrowLeft"":15,""ArrowDown,ArrowRight"":23}","false","ArrowUp,ArrowLeft","false","","","","","","","",""
"html-keyboard-response","40","227740","0.0-3.0-8.0-1.0","spark_pilot_2","7494","7","21","Female","","","","","","","null","<div style=""font-size:60px;"">+</div>","null","fixation","","","","","","","","","","","","","",""
"revaluation","41","233765","0.0-3.0-8.0-0.1","spark_pilot_2","7494","7","21","Female","","false","","","","","[1814,1298.5999999940395]","./assets/img/space/7.jpg","[""ArrowUp"",""ArrowRight""]","full practice","space","36","{""ArrowUp,ArrowLeft"":3,""ArrowUp,ArrowRight"":36,""ArrowDown,ArrowLeft"":15,""ArrowDown,ArrowRight"":23}","true","ArrowUp,ArrowRight","false","","","","","","","",""
"html-keyboard-response","42","234267","0.0-3.0-8.0-1.1","spark_pilot_2","7494","7","21","Female","","","","","","","null","<div style=""font-size:60px;"">+</div>","null","fixation","","","","","","","","","","","","","",""
"revaluation","43","240304","0.0-3.0-8.0-0.2","spark_pilot_2","7494","7","21","Female","","false","","","","","[855.5,422]","./assets/img/space/8.jpg","[""ArrowDown"",""ArrowLeft""]","full practice","space","15","{""ArrowUp,ArrowLeft"":3,""ArrowUp,ArrowRight"":36,""ArrowDown,ArrowLeft"":15,""ArrowDown,ArrowRight"":23}","false","ArrowDown,ArrowLeft","false","","","","","","","",""
"html-keyboard-response","44","240819","0.0-3.0-8.0-1.2","spark_pilot_2","7494","7","21","Female","","","","","","","null","<div style=""font-size:60px;"">+</div>","null","fixation","","","","","","","","","","","","","",""
"revaluation","45","246837","0.0-3.0-8.0-0.3","spark_pilot_2","7494","7","21","Female","","false","","","","","[832.5999999940395,456.70000000298023]","./assets/img/space/9.jpg","[""ArrowDown"",""ArrowRight""]","full practice","space","23","{""ArrowUp,ArrowLeft"":3,""ArrowUp,ArrowRight"":36,""ArrowDown,ArrowLeft"":15,""ArrowDown,ArrowRight"":23}","false","ArrowDown,ArrowRight","false","","","","","","","",""
"html-keyboard-response","46","247342","0.0-3.0-8.0-1.3","spark_pilot_2","7494","7","21","Female","","","","","","","null","<div style=""font-size:60px;"">+</div>","null","fixation","","","","","","","","","","","","","",""
"revaluation","47","253351","0.0-3.0-8.0-0.4","spark_pilot_2","7494","7","21","Female","","false","","","","","[1661,544.7000000029802]","./assets/img/space/10.jpg","[""ArrowUp"",""ArrowRight""]","full practice","space","36","{""ArrowUp,ArrowLeft"":3,""ArrowUp,ArrowRight"":36,""ArrowDown,ArrowLeft"":15,""ArrowDown,ArrowRight"":23}","true","ArrowUp,ArrowRight","false","","","","","","","",""
"html-keyboard-response","48","253852","0.0-3.0-8.0-1.4","spark_pilot_2","7494","7","21","Female","","","","","","","null","<div style=""font-size:60px;"">+</div>","null","fixation","","","","","","","","","","","","","",""
"learning-instructions","49","266411","0.0-3.0-9.0-0.0","spark_pilot_2","7494","7","21","Female","","","","","","","2222.5","<p> One last thing: sometimes, you will see a robber. The robber can be anywhere in the picture. </p>
            <p> If you do not stop them, you will lose treasure. </p>
            <img src='./assets/img/instructions/robber.jpg' class='instructions-image'>","","instructions","","","","","","","","","","","","","",""
"learning-instructions","50","275437","0.0-3.0-9.0-0.1","spark_pilot_2","7494","7","21","Female","","","","","","","1858.9000000059605","<p> If you see the robber, you should <b>press the space bar</b> rather than using the arrow keys. </p>
            <p> Try practicing that now! </p>","","instructions","","","","","","","","","","","","","",""
"revaluation","51","279459","0.0-3.0-10.0-0.0","spark_pilot_2","7494","7","21","Female","","false","","","","","[1439.2999999970198]","./assets/img/space/catch/0.jpg","[""spaceBar""]","catch practice","space","0","{""ArrowUp,ArrowLeft"":3,""ArrowUp,ArrowRight"":36,""ArrowDown,ArrowLeft"":15,""ArrowDown,ArrowRight"":23}","true","spaceBar","true","","","","","","","",""
"html-keyboard-response","52","279974","0.0-3.0-10.0-1.0","spark_pilot_2","7494","7","21","Female","","","","","","","null","<div style=""font-size:60px;"">+</div>","null","fixation","","","","","","","","","","","","","",""
"revaluation","53","283995","0.0-3.0-10.0-0.1","spark_pilot_2","7494","7","21","Female","","false","","","","","[555.5999999940395]","./assets/img/space/catch/1.jpg","[""spaceBar""]","catch practice","space","0","{""ArrowUp,ArrowLeft"":3,""ArrowUp,ArrowRight"":36,""ArrowDown,ArrowLeft"":15,""ArrowDown,ArrowRight"":23}","true","spaceBar","true","","","","","","","",""
"html-keyboard-response","54","284512","0.0-3.0-10.0-1.1","spark_pilot_2","7494","7","21","Female","","","","","","","null","<div style=""font-size:60px;"">+</div>","null","fixation","","","","","","","","","","","","","",""
"revaluation","55","288529","0.0-3.0-10.0-0.2","spark_pilot_2","7494","7","21","Female","","false","","","","","[511.69999998807907]","./assets/img/space/catch/2.jpg","[""spaceBar""]","catch practice","space","0","{""ArrowUp,ArrowLeft"":3,""ArrowUp,ArrowRight"":36,""ArrowDown,ArrowLeft"":15,""ArrowDown,ArrowRight"":23}","true","spaceBar","true","","","","","","","",""
"html-keyboard-response","56","289037","0.0-3.0-10.0-1.2","spark_pilot_2","7494","7","21","Female","","","","","","","null","<div style=""font-size:60px;"">+</div>","null","fixation","","","","","","","","","","","","","",""
"learning-instructions","57","304185","0.0-3.0-11.0-0.0","spark_pilot_2","7494","7","21","Female","","","","","","","1535.699999988079","<p> After you explore a place to find treasure, it will be time to play a different game. </p>
            <p> During this game, red dots will appear on the screen and fall down slowly. </p>
            <p><b> You must click on them before they reach the bottom. </b></p>
            <img src='./assets/img/instructions/dotGame.jpg' class='instructions-image'>","","instructions","","","","","","","","","","","","","",""
"learning-instructions","58","310834","0.0-3.0-11.0-0.1","spark_pilot_2","7494","7","21","Female","","","","","","","925.8000000119209","<p> For every dot you click, you will earn additional treasure. </p>
            <p> Let’s try practicing that now. </p>","","instructions","","","","","","","","","","","","","",""
"revaluation","59","325847","0.0-3.0-12.0-0.0","spark_pilot_2","7494","7","21","Female","","","","","","","[81]","","","rest practice","","10","","","","","0","15000","","","","","",""
"learning-instructions","60","331900","0.0-3.0-13.0-0.0-0.0","spark_pilot_2","7494","7","21","Female","","","","","","","823.8000000119209","<p> Now, you will practice a shortened version of the game to get a sense of how it all fits together. </p>","","instructions","","","","","","","","","","","","","",""
"learning-instructions","61","335914","0.0-3.0-13.0-0.0-0.1","spark_pilot_2","7494","7","21","Female","","","","","","","817.6999999880791","<p>This time you are searching for treasure in outer space.</p>","","instructions","","","","","","","","","","","","","",""
"learning-instructions","62","351542","0.0-3.0-13.0-1.0-0.0","spark_pilot_2","7494","7","21","Female","","","","","","","855.6000000089407","<p> Remember, when you see a picture of the place, use the up and down keys to <b>find an animal</b>.</p>
            <p> When you encounter an animal, you should use the left and right keys to <b>select a treasure chest</b>.</p>
            <p> Don't forget to look out for the robber! </p>","","instructions","","","","","","","","","","","","","",""
"revaluation","63","357572","0.0-3.0-13.0-2.0-0.0","spark_pilot_2","7494","7","21","Female","","false","","","","","[1878.2000000029802,644.7999999970198]","./assets/img/space/11.jpg","[""ArrowUp"",""ArrowRight""]","practice block","space","36","{""ArrowUp,ArrowLeft"":3,""ArrowUp,ArrowRight"":36,""ArrowDown,ArrowLeft"":15,""ArrowDown,ArrowRight"":23}","true","ArrowUp,ArrowRight","false","","","","","","","",""
"html-keyboard-response","64","358087","0.0-3.0-13.0-2.0-1.0","spark_pilot_2","7494","7","21","Female","","","","","","","null","<div style=""font-size:60px;"">+</div>","null","fixation","","","","","","","","","","","","","",""
"revaluation","65","364117","0.0-3.0-13.0-2.0-0.1","spark_pilot_2","7494","7","21","Female","","false","","","","","[889.7999999970198,422.09999999403954]","./assets/img/space/12.jpg","[""ArrowUp"",""ArrowRight""]","practice block","space","36","{""ArrowUp,ArrowLeft"":3,""ArrowUp,ArrowRight"":36,""ArrowDown,ArrowLeft"":15,""ArrowDown,ArrowRight"":23}","true","ArrowUp,ArrowRight","false","","","","","","","",""
"html-keyboard-response","66","364633","0.0-3.0-13.0-2.0-1.1","spark_pilot_2","7494","7","21","Female","","","","","","","null","<div style=""font-size:60px;"">+</div>","null","fixation","","","","","","","","","","","","","",""
"revaluation","67","370656","0.0-3.0-13.0-2.0-0.2","spark_pilot_2","7494","7","21","Female","","false","","","","","[771.2999999970198,388.69999998807907]","./assets/img/space/13.jpg","[""ArrowUp"",""ArrowRight""]","practice block","space","36","{""ArrowUp,ArrowLeft"":3,""ArrowUp,ArrowRight"":36,""ArrowDown,ArrowLeft"":15,""ArrowDown,ArrowRight"":23}","true","ArrowUp,ArrowRight","false","","","","","","","",""
"html-keyboard-response","68","371159","0.0-3.0-13.0-2.0-1.2","spark_pilot_2","7494","7","21","Female","","","","","","","null","<div style=""font-size:60px;"">+</div>","null","fixation","","","","","","","","","","","","","",""
"revaluation","69","377193","0.0-3.0-13.0-2.0-0.3","spark_pilot_2","7494","7","21","Female","","false","","","","","[921,388.5]","./assets/img/space/14.jpg","[""ArrowUp"",""ArrowRight""]","practice block","space","36","{""ArrowUp,ArrowLeft"":3,""ArrowUp,ArrowRight"":36,""ArrowDown,ArrowLeft"":15,""ArrowDown,ArrowRight"":23}","true","ArrowUp,ArrowRight","false","","","","","","","",""
"html-keyboard-response","70","377697","0.0-3.0-13.0-2.0-1.3","spark_pilot_2","7494","7","21","Female","","","","","","","null","<div style=""font-size:60px;"">+</div>","null","fixation","","","","","","","","","","","","","",""
"revaluation","71","383705","0.0-3.0-13.0-2.0-0.4","spark_pilot_2","7494","7","21","Female","","false","","","","","[915.5,358.09999999403954]","./assets/img/space/11.jpg","[""ArrowUp"",""ArrowRight""]","practice block","space","36","{""ArrowUp,ArrowLeft"":3,""ArrowUp,ArrowRight"":36,""ArrowDown,ArrowLeft"":15,""ArrowDown,ArrowRight"":23}","true","ArrowUp,ArrowRight","false","","","","","","","",""
"html-keyboard-response","72","384206","0.0-3.0-13.0-2.0-1.4","spark_pilot_2","7494","7","21","Female","","","","","","","null","<div style=""font-size:60px;"">+</div>","null","fixation","","","","","","","","","","","","","",""
"revaluation","73","390211","0.0-3.0-13.0-2.0-0.5","spark_pilot_2","7494","7","21","Female","","false","","","","","[1342.1000000089407,325]","./assets/img/space/12.jpg","[""ArrowUp"",""ArrowRight""]","practice block","space","36","{""ArrowUp,ArrowLeft"":3,""ArrowUp,ArrowRight"":36,""ArrowDown,ArrowLeft"":15,""ArrowDown,ArrowRight"":23}","true","ArrowUp,ArrowRight","false","","","","","","","",""
"html-keyboard-response","74","390713","0.0-3.0-13.0-2.0-1.5","spark_pilot_2","7494","7","21","Female","","","","","","","null","<div style=""font-size:60px;"">+</div>","null","fixation","","","","","","","","","","","","","",""
"revaluation","75","396718","0.0-3.0-13.0-2.0-0.6","spark_pilot_2","7494","7","21","Female","","false","","","","","[847.7000000029802,340.3999999910593]","./assets/img/space/13.jpg","[""ArrowUp"",""ArrowRight""]","practice block","space","36","{""ArrowUp,ArrowLeft"":3,""ArrowUp,ArrowRight"":36,""ArrowDown,ArrowLeft"":15,""ArrowDown,ArrowRight"":23}","true","ArrowUp,ArrowRight","false","","","","","","","",""
"html-keyboard-response","76","397219","0.0-3.0-13.0-2.0-1.6","spark_pilot_2","7494","7","21","Female","","","","","","","null","<div style=""font-size:60px;"">+</div>","null","fixation","","","","","","","","","","","","","",""
"revaluation","77","403224","0.0-3.0-13.0-2.0-0.7","spark_pilot_2","7494","7","21","Female","","false","","","","","[1027.7000000029802,780.7000000029802]","./assets/img/space/14.jpg","[""ArrowUp"",""ArrowRight""]","practice block","space","36","{""ArrowUp,ArrowLeft"":3,""ArrowUp,ArrowRight"":36,""ArrowDown,ArrowLeft"":15,""ArrowDown,ArrowRight"":23}","true","ArrowUp,ArrowRight","false","","","","","","","",""
"html-keyboard-response","78","403725","0.0-3.0-13.0-2.0-1.7","spark_pilot_2","7494","7","21","Female","","","","","","","null","<div style=""font-size:60px;"">+</div>","null","fixation","","","","","","","","","","","","","",""
"revaluation","79","407741","0.0-3.0-13.0-2.0-0.8","spark_pilot_2","7494","7","21","Female","","false","","","","","[816.5999999940395]","./assets/img/space/catch/3.jpg","[""spaceBar""]","practice block","space","0","{""ArrowUp,ArrowLeft"":3,""ArrowUp,ArrowRight"":36,""ArrowDown,ArrowLeft"":15,""ArrowDown,ArrowRight"":23}","true","spaceBar","true","","","","","","","",""
"html-keyboard-response","80","408242","0.0-3.0-13.0-2.0-1.8","spark_pilot_2","7494","7","21","Female","","","","","","","null","<div style=""font-size:60px;"">+</div>","null","fixation","","","","","","","","","","","","","",""
"learning-instructions","81","422752","0.0-3.0-13.0-3.0-0.0","spark_pilot_2","7494","7","21","Female","","","","","","","1218.5999999940395","<p> Now, you will travel with a friend who will choose whether you go up or down first. </p>
            <p> On these turns, you will just see the animal that they found. You will still get to choose which chest to search for treasure.</p>","","instructions","","","","","","","","","","","","","",""
"revaluation","82","426779","0.0-3.0-13.0-4.0-0.0","spark_pilot_2","7494","7","21","Female","","false","","","","","[873.5999999940395]","./assets/img/space/animals/cat.jpg","[""ArrowRight""]","practice block","space","36","{""ArrowUp,ArrowLeft"":3,""ArrowUp,ArrowRight"":36,""ArrowDown,ArrowLeft"":15,""ArrowDown,ArrowRight"":23}","true","ArrowUp,ArrowRight","","","","","","","","",""
"html-keyboard-response","83","427286","0.0-3.0-13.0-4.0-1.0","spark_pilot_2","7494","7","21","Female","","","","","","","null","<div style=""font-size:60px;"">+</div>","null","fixation","","","","","","","","","","","","","",""
"revaluation","84","431308","0.0-3.0-13.0-4.0-0.1","spark_pilot_2","7494","7","21","Female","","false","","","","","[571.9000000059605]","./assets/img/space/animals/cat.jpg","[""ArrowRight""]","practice block","space","36","{""ArrowUp,ArrowLeft"":3,""ArrowUp,ArrowRight"":36,""ArrowDown,ArrowLeft"":15,""ArrowDown,ArrowRight"":23}","true","ArrowUp,ArrowRight","","","","","","","","",""
"html-keyboard-response","85","431814","0.0-3.0-13.0-4.0-1.1","spark_pilot_2","7494","7","21","Female","","","","","","","null","<div style=""font-size:60px;"">+</div>","null","fixation","","","","","","","","","","","","","",""
"revaluation","86","435829","0.0-3.0-13.0-4.0-0.2","spark_pilot_2","7494","7","21","Female","","false","","","","","[686.6000000089407]","./assets/img/space/animals/rabbit.jpg","[""ArrowLeft""]","practice block","space","15","{""ArrowUp,ArrowLeft"":3,""ArrowUp,ArrowRight"":36,""ArrowDown,ArrowLeft"":15,""ArrowDown,ArrowRight"":23}","false","ArrowDown,ArrowLeft","","","","","","","","",""
"html-keyboard-response","87","436345","0.0-3.0-13.0-4.0-1.2","spark_pilot_2","7494","7","21","Female","","","","","","","null","<div style=""font-size:60px;"">+</div>","null","fixation","","","","","","","","","","","","","",""
"revaluation","88","440366","0.0-3.0-13.0-4.0-0.3","spark_pilot_2","7494","7","21","Female","","false","","","","","[580.7000000029802]","./assets/img/space/animals/rabbit.jpg","[""ArrowRight""]","practice block","space","23","{""ArrowUp,ArrowLeft"":3,""ArrowUp,ArrowRight"":36,""ArrowDown,ArrowLeft"":15,""ArrowDown,ArrowRight"":23}","true","ArrowDown,ArrowRight","","","","","","","","",""
"html-keyboard-response","89","440869","0.0-3.0-13.0-4.0-1.3","spark_pilot_2","7494","7","21","Female","","","","","","","null","<div style=""font-size:60px;"">+</div>","null","fixation","","","","","","","","","","","","","",""
"learning-instructions","90","449452","0.0-3.0-13.0-5.0-0.0","spark_pilot_2","7494","7","21","Female","","","","","","","1208.7000000029802","<p> Time to play the dot game! </p>
            <p> For 15 seconds, click the red dots on the following screen as they appear. </p>","","instructions","","","","","","","","","","","","","",""
"revaluation","91","464463","0.0-3.0-13.0-6.0-0.0","spark_pilot_2","7494","7","21","Female","","","","","","","[64]","","","rest practice","","10","","","","","0","15000","","","","","",""
"learning-instructions","92","474305","0.0-3.0-13.0-7.0-0.0","spark_pilot_2","7494","7","21","Female","","","","","","","3712.3999999910593","<p> You have almost finished this part of the game! </p>
            <p> We are going to ask you to make a few more choices. </p>","","instructions","","","","","","","","","","","","","",""
"learning-instructions","93","489570","0.0-3.0-13.0-7.0-0.1","spark_pilot_2","7494","7","21","Female","","","","","","","1247.3999999910593","<p> First, you need to decide whether to go up or down. When you see each picture, use the arrow keys to make your choice. </p>
            <p><b>You will not see which animal you found, but try to get to the one that will give you the most treasure.</b></p>","","instructions","","","","","","","","","","","","","",""
"revaluation","94","491741","0.0-3.0-13.0-8.0","spark_pilot_2","7494","7","21","Female","","false","","","","","[2169.699999988079]","./assets/img/space/15.jpg","[""ArrowUp""]","practice block","space","0","{""ArrowUp,ArrowLeft"":3,""ArrowUp,ArrowRight"":36,""ArrowDown,ArrowLeft"":15,""ArrowDown,ArrowRight"":23}","true","ArrowUp","false","","","","","","","",""
"html-keyboard-response","95","492258","0.0-3.0-13.0-9.0","spark_pilot_2","7494","7","21","Female","","","","","","","null","<div style=""font-size:60px;"">+</div>","null","fixation","","","","","","","","","","","","","",""
"learning-instructions","96","505837","0.0-3.0-13.0-10.0-0.0","spark_pilot_2","7494","7","21","Female","","","","","","","2203.2000000029802","<p> Now you will see the animals again and can search their chests for treasure. </p>
            <p> This time, you will not see how much treasure you earned, but you will earn more bonus money for making better choices. </p>","","instructions","","","","","","","","","","","","","",""
"revaluation","97","506567","0.0-3.0-13.0-11.0-0.0","spark_pilot_2","7494","7","21","Female","","false","","","","","[727.8999999910593]","./assets/img/space/animals/cat.jpg","[""ArrowRight""]","practice block","space","0","{""ArrowUp,ArrowLeft"":3,""ArrowUp,ArrowRight"":36,""ArrowDown,ArrowLeft"":15,""ArrowDown,ArrowRight"":23}","true","ArrowUp,ArrowRight","","","","","","","","",""
"html-keyboard-response","98","507076","0.0-3.0-13.0-11.0-1.0","spark_pilot_2","7494","7","21","Female","","","","","","","null","<div style=""font-size:60px;"">+</div>","null","fixation","","","","","","","","","","","","","",""
"revaluation","99","507780","0.0-3.0-13.0-11.0-0.1","spark_pilot_2","7494","7","21","Female","","false","","","","","[700.9000000059605]","./assets/img/space/animals/rabbit.jpg","[""ArrowRight""]","practice block","space","0","{""ArrowUp,ArrowLeft"":3,""ArrowUp,ArrowRight"":36,""ArrowDown,ArrowLeft"":15,""ArrowDown,ArrowRight"":23}","true","ArrowDown,ArrowRight","","","","","","","","",""
"html-keyboard-response","100","508292","0.0-3.0-13.0-11.0-1.1","spark_pilot_2","7494","7","21","Female","","","","","","","null","<div style=""font-size:60px;"">+</div>","null","fixation","","","","","","","","","","","","","",""
"learning-instructions","101","513673","0.0-3.0-14.0-0.0","spark_pilot_2","7494","7","21","Female","","","","","","","780.2000000029802","<p> Before you start, we're going to ask you a few questions about how the game works. </p>","","instructions","","","","","","","","","","","","","",""
"comp-q","102","521224","0.0-3.0-15.0-0.0-0.0","spark_pilot_2","7494","7","21","Female","","","","","","","1955.5","<p> <b> True or False? </b> </p>
            <p> There can be 50 pieces of treasure in a given animal's chest. </p>","1","comp_question","","","","true","","","","","","","","","",""
"comp-q","103","532073","0.0-3.0-15.0-0.0-1.0","spark_pilot_2","7494","7","21","Female","","","","","","","4189","<p> <b> That's right! </b> The amount of treasure in each chest can range from 0 to 40 pieces. </p>","0","comp_answer","","","","","","","","","","","","","",""
"comp-q","104","540610","0.0-3.0-15.0-0.1-0.1","spark_pilot_2","7494","7","21","Female","","","","","","","1406.2999999970198","<p> <b> True or False? </b> </p><p> In this game, all animals have the same amount of treasure in their left and right chests. </p>","1","comp_question","","","","true","","","","","","","","","",""
"comp-q","105","548551","0.0-3.0-15.0-0.1-1.1","spark_pilot_2","7494","7","21","Female","","","","","","","2707.5","<p> <b> That's right! </b> Animals have different amounts of treasure in their treasure chests. </p>","0","comp_answer","","","","","","","","","","","","","",""
"comp-q","106","555516","0.0-3.0-15.0-0.2-0.2","spark_pilot_2","7494","7","21","Female","","","","","","","1111.7999999970198","<p> <b> True or False? </b> </p><p> The same animal will always be there if you go up in the same place. </p>","0","comp_question","","","","true","","","","","","","","","",""
"comp-q","107","563412","0.0-3.0-15.0-0.2-1.2","spark_pilot_2","7494","7","21","Female","","","","","","","1458.4000000059605","<p> <b> That's right! </b> One animal lives in the upper part and one lives in the lower part of every place. </p>","0","comp_answer","","","","","","","","","","","","","",""
"comp-q","108","569690","0.0-3.0-15.0-0.3-0.3","spark_pilot_2","7494","7","21","Female","","","","","","","757.2000000029802","<p> <b> True or False? </b> </p><p> If you see a different picture, it means you are in a new place. </p>","1","comp_question","","","","true","","","","","","","","","",""
"comp-q","109","583844","0.0-3.0-15.0-0.3-1.3","spark_pilot_2","7494","7","21","Female","","","","","","","2920.7999999970198","<p> <b> That's right! </b> Lots of different images may show the same place. For example,  you may see three different images that all remind you that you are in outer space. </p>","0","comp_answer","","","","","","","","","","","","","",""
"learning-instructions","110","594879","0.0-3.0-16.0-0.0","spark_pilot_2","7494","7","21","Female","","","","","","","1176.2000000029802","<p> Good job. Remember to do your best because the amount of treasure you earn will be converted into bonus money. </p>
            <p> It’s time to start the real game! </p>","","instructions","","","","","","","","","","","","","",""
"learning-instructions","111","600056","0.0-4.0-0.0-0.0","spark_pilot_2","7494","7","21","Female","","","","","","","2403","<p> This time you are searching for treasure in the <b>canyon</b>.</p>","","instructions","","","","","","","","","","","","","",""
"learning-instructions","112","618457","0.0-4.0-0.0-0.1","spark_pilot_2","7494","7","21","Female","","","","","","","1083.9000000059605","<p><b>New</b> animals with <b>new</b> treasure chests live here. You need to explore to discover where the animal with the best treasure chest is.</p>
                    <p> Like before, once you figure out which animal has the chest with the most treasure, you should try to get to that animal and select that chest! </p>","","instructions","","","","","","","","","","","","","",""
"learning-instructions","113","633978","0.0-4.0-1.0-0.0","spark_pilot_2","7494","7","21","Female","","","","","","","795","<p> Remember, when you see a picture of the place, use the up and down keys to <b>find an animal</b>.</p>
            <p> When you encounter an animal, you should use the left and right keys to <b>select a treasure chest</b>.</p>
            <p> Don't forget to look out for the robber! </p>","","instructions","","","","","","","","","","","","","",""
"revaluation","114","640008","0.0-4.0-2.0-0.0","spark_pilot_2","7494","7","21","Female","","false","","","","","[1141.4000000059605,440.30000001192093]","./assets/img/canyon/memory/24.jpg","[""ArrowUp"",""ArrowRight""]","value training","canyon","10","{""ArrowUp,ArrowLeft"":23,""ArrowUp,ArrowRight"":10,""ArrowDown,ArrowLeft"":8,""ArrowDown,ArrowRight"":30}","false","ArrowUp,ArrowRight","false","","","original","1","0","","",""
"html-keyboard-response","115","640528","0.0-4.0-2.0-1.0","spark_pilot_2","7494","7","21","Female","","","","","","","null","<div style=""font-size:60px;"">+</div>","null","fixation","","","","","","","","","","","1","","",""
"revaluation","116","646554","0.0-4.0-2.0-0.1","spark_pilot_2","7494","7","21","Female","","false","","","","","[568.3999999910593,321.09999999403954]","./assets/img/canyon/memory/16.jpg","[""ArrowUp"",""ArrowLeft""]","value training","canyon","23","{""ArrowUp,ArrowLeft"":23,""ArrowUp,ArrowRight"":10,""ArrowDown,ArrowLeft"":8,""ArrowDown,ArrowRight"":30}","false","ArrowUp,ArrowLeft","false","","","original","1","2","","",""
"html-keyboard-response","117","647064","0.0-4.0-2.0-1.1","spark_pilot_2","7494","7","21","Female","","","","","","","null","<div style=""font-size:60px;"">+</div>","null","fixation","","","","","","","","","","","3","","",""
"revaluation","118","651080","0.0-4.0-2.0-0.2","spark_pilot_2","7494","7","21","Female","","false","","","","","[823.8000000119209]","./assets/img/canyon/catch/6.jpg","[""spaceBar""]","value training","canyon","0","{""ArrowUp,ArrowLeft"":23,""ArrowUp,ArrowRight"":10,""ArrowDown,ArrowLeft"":8,""ArrowDown,ArrowRight"":30}","true","spaceBar","true","","","original","1","4","","",""
"html-keyboard-response","119","651596","0.0-4.0-2.0-1.2","spark_pilot_2","7494","7","21","Female","","","","","","","null","<div style=""font-size:60px;"">+</div>","null","fixation","","","","","","","","","","","5","","",""
"revaluation","120","657628","0.0-4.0-2.0-0.3","spark_pilot_2","7494","7","21","Female","","false","","","","","[484.5,464.79999999701977]","./assets/img/canyon/memory/17.jpg","[""ArrowDown"",""ArrowLeft""]","value training","canyon","8","{""ArrowUp,ArrowLeft"":23,""ArrowUp,ArrowRight"":10,""ArrowDown,ArrowLeft"":8,""ArrowDown,ArrowRight"":30}","false","ArrowDown,ArrowLeft","false","","","original","1","6","","",""
"html-keyboard-response","121","658138","0.0-4.0-2.0-1.3","spark_pilot_2","7494","7","21","Female","","","","","","","null","<div style=""font-size:60px;"">+</div>","null","fixation","","","","","","","","","","","7","","",""
"revaluation","122","664173","0.0-4.0-2.0-0.4","spark_pilot_2","7494","7","21","Female","","false","","","","","[662.6000000089407,528.5]","./assets/img/canyon/memory/32.jpg","[""ArrowDown"",""ArrowRight""]","value training","canyon","30","{""ArrowUp,ArrowLeft"":23,""ArrowUp,ArrowRight"":10,""ArrowDown,ArrowLeft"":8,""ArrowDown,ArrowRight"":30}","true","ArrowDown,ArrowRight","false","","","original","1","8","","",""
"html-keyboard-response","123","664675","0.0-4.0-2.0-1.4","spark_pilot_2","7494","7","21","Female","","","","","","","null","<div style=""font-size:60px;"">+</div>","null","fixation","","","","","","","","","","","9","","",""
"revaluation","124","670681","0.0-4.0-2.0-0.5","spark_pilot_2","7494","7","21","Female","","false","","","","","[741.2000000029802,355.79999999701977]","./assets/img/canyon/memory/27.jpg","[""ArrowDown"",""ArrowRight""]","value training","canyon","30","{""ArrowUp,ArrowLeft"":23,""ArrowUp,ArrowRight"":10,""ArrowDown,ArrowLeft"":8,""ArrowDown,ArrowRight"":30}","true","ArrowDown,ArrowRight","false","","","original","1","10","","",""
"html-keyboard-response","125","671182","0.0-4.0-2.0-1.5","spark_pilot_2","7494","7","21","Female","","","","","","","null","<div style=""font-size:60px;"">+</div>","null","fixation","","","","","","","","","","","11","","",""
"revaluation","126","677188","0.0-4.0-2.0-0.6","spark_pilot_2","7494","7","21","Female","","false","","","","","[439.79999999701977,341.5]","./assets/img/canyon/memory/41.jpg","[""ArrowDown"",""ArrowRight""]","value training","canyon","30","{""ArrowUp,ArrowLeft"":23,""ArrowUp,ArrowRight"":10,""ArrowDown,ArrowLeft"":8,""ArrowDown,ArrowRight"":30}","true","ArrowDown,ArrowRight","false","","","original","1","12","","",""
"html-keyboard-response","127","677692","0.0-4.0-2.0-1.6","spark_pilot_2","7494","7","21","Female","","","","","","","null","<div style=""font-size:60px;"">+</div>","null","fixation","","","","","","","","","","","13","","",""
"revaluation","128","683697","0.0-4.0-2.0-0.7","spark_pilot_2","7494","7","21","Female","","false","","","","","[941,350.40000000596046]","./assets/img/canyon/memory/26.jpg","[""ArrowDown"",""ArrowRight""]","value training","canyon","30","{""ArrowUp,ArrowLeft"":23,""ArrowUp,ArrowRight"":10,""ArrowDown,ArrowLeft"":8,""ArrowDown,ArrowRight"":30}","true","ArrowDown,ArrowRight","false","","","original","1","14","","",""
"html-keyboard-response","129","684205","0.0-4.0-2.0-1.7","spark_pilot_2","7494","7","21","Female","","","","","","","null","<div style=""font-size:60px;"">+</div>","null","fixation","","","","","","","","","","","15","","",""
"revaluation","130","690215","0.0-4.0-2.0-0.8","spark_pilot_2","7494","7","21","Female","","false","","","","","[721.7999999970198,403.09999999403954]","./assets/img/canyon/memory/26.jpg","[""ArrowDown"",""ArrowRight""]","value training","canyon","30","{""ArrowUp,ArrowLeft"":23,""ArrowUp,ArrowRight"":10,""ArrowDown,ArrowLeft"":8,""ArrowDown,ArrowRight"":30}","true","ArrowDown,ArrowRight","false","","","original","1","16","","",""
"html-keyboard-response","131","690717","0.0-4.0-2.0-1.8","spark_pilot_2","7494","7","21","Female","","","","","","","null","<div style=""font-size:60px;"">+</div>","null","fixation","","","","","","","","","","","17","","",""
"revaluation","132","696722","0.0-4.0-2.0-0.9","spark_pilot_2","7494","7","21","Female","","false","","","","","[681.4000000059605,447.29999999701977]","./assets/img/canyon/memory/20.jpg","[""ArrowDown"",""ArrowRight""]","value training","canyon","30","{""ArrowUp,ArrowLeft"":23,""ArrowUp,ArrowRight"":10,""ArrowDown,ArrowLeft"":8,""ArrowDown,ArrowRight"":30}","true","ArrowDown,ArrowRight","false","","","original","1","18","","",""
"html-keyboard-response","133","697224","0.0-4.0-2.0-1.9","spark_pilot_2","7494","7","21","Female","","","","","","","null","<div style=""font-size:60px;"">+</div>","null","fixation","","","","","","","","","","","19","","",""
"revaluation","134","703229","0.0-4.0-2.0-0.10","spark_pilot_2","7494","7","21","Female","","false","","","","","[1066.2000000029802,340.5]","./assets/img/canyon/memory/11.jpg","[""ArrowDown"",""ArrowRight""]","value training","canyon","30","{""ArrowUp,ArrowLeft"":23,""ArrowUp,ArrowRight"":10,""ArrowDown,ArrowLeft"":8,""ArrowDown,ArrowRight"":30}","true","ArrowDown,ArrowRight","false","","","original","1","20","","",""
"html-keyboard-response","135","703731","0.0-4.0-2.0-1.10","spark_pilot_2","7494","7","21","Female","","","","","","","null","<div style=""font-size:60px;"">+</div>","null","fixation","","","","","","","","","","","21","","",""
"revaluation","136","709736","0.0-4.0-2.0-0.11","spark_pilot_2","7494","7","21","Female","","false","","","","","[903.1000000089407,361.19999998807907]","./assets/img/canyon/memory/25.jpg","[""ArrowDown"",""ArrowRight""]","value training","canyon","30","{""ArrowUp,ArrowLeft"":23,""ArrowUp,ArrowRight"":10,""ArrowDown,ArrowLeft"":8,""ArrowDown,ArrowRight"":30}","true","ArrowDown,ArrowRight","false","","","original","1","22","","",""
"html-keyboard-response","137","710238","0.0-4.0-2.0-1.11","spark_pilot_2","7494","7","21","Female","","","","","","","null","<div style=""font-size:60px;"">+</div>","null","fixation","","","","","","","","","","","23","","",""
"revaluation","138","714244","0.0-4.0-2.0-0.12","spark_pilot_2","7494","7","21","Female","","false","","","","","[808.4000000059605]","./assets/img/canyon/catch/7.jpg","[""spaceBar""]","value training","canyon","0","{""ArrowUp,ArrowLeft"":23,""ArrowUp,ArrowRight"":10,""ArrowDown,ArrowLeft"":8,""ArrowDown,ArrowRight"":30}","true","spaceBar","true","","","original","1","24","","",""
"html-keyboard-response","139","714745","0.0-4.0-2.0-1.12","spark_pilot_2","7494","7","21","Female","","","","","","","null","<div style=""font-size:60px;"">+</div>","null","fixation","","","","","","","","","","","25","","",""
"revaluation","140","720750","0.0-4.0-2.0-0.13","spark_pilot_2","7494","7","21","Female","","false","","","","","[906,425.5]","./assets/img/canyon/memory/9.jpg","[""ArrowDown"",""ArrowRight""]","value training","canyon","30","{""ArrowUp,ArrowLeft"":23,""ArrowUp,ArrowRight"":10,""ArrowDown,ArrowLeft"":8,""ArrowDown,ArrowRight"":30}","true","ArrowDown,ArrowRight","false","","","original","1","26","","",""
"html-keyboard-response","141","721252","0.0-4.0-2.0-1.13","spark_pilot_2","7494","7","21","Female","","","","","","","null","<div style=""font-size:60px;"">+</div>","null","fixation","","","","","","","","","","","27","","",""
"revaluation","142","727257","0.0-4.0-2.0-0.14","spark_pilot_2","7494","7","21","Female","","false","","","","","[768.2000000029802,521.2999999970198]","./assets/img/canyon/memory/27.jpg","[""ArrowDown"",""ArrowRight""]","value training","canyon","30","{""ArrowUp,ArrowLeft"":23,""ArrowUp,ArrowRight"":10,""ArrowDown,ArrowLeft"":8,""ArrowDown,ArrowRight"":30}","true","ArrowDown,ArrowRight","false","","","original","1","28","","",""
"html-keyboard-response","143","727759","0.0-4.0-2.0-1.14","spark_pilot_2","7494","7","21","Female","","","","","","","null","<div style=""font-size:60px;"">+</div>","null","fixation","","","","","","","","","","","29","","",""
"revaluation","144","731764","0.0-4.0-2.0-0.15","spark_pilot_2","7494","7","21","Female","","false","","","","","[481.1000000089407]","./assets/img/canyon/catch/2.jpg","[""ArrowDown""]","value training","canyon","-10","{""ArrowUp,ArrowLeft"":23,""ArrowUp,ArrowRight"":10,""ArrowDown,ArrowLeft"":8,""ArrowDown,ArrowRight"":30}","false","ArrowDown","true","","","original","1","30","","",""
"html-keyboard-response","145","732265","0.0-4.0-2.0-1.15","spark_pilot_2","7494","7","21","Female","","","","","","","null","<div style=""font-size:60px;"">+</div>","null","fixation","","","","","","","","","","","31","","",""
"revaluation","146","738270","0.0-4.0-2.0-0.16","spark_pilot_2","7494","7","21","Female","","false","","","","","[703.4000000059605,308.59999999403954]","./assets/img/canyon/memory/18.jpg","[""ArrowDown"",""ArrowRight""]","value training","canyon","30","{""ArrowUp,ArrowLeft"":23,""ArrowUp,ArrowRight"":10,""ArrowDown,ArrowLeft"":8,""ArrowDown,ArrowRight"":30}","true","ArrowDown,ArrowRight","false","","","original","1","32","","",""
"html-keyboard-response","147","738772","0.0-4.0-2.0-1.16","spark_pilot_2","7494","7","21","Female","","","","","","","null","<div style=""font-size:60px;"">+</div>","null","fixation","","","","","","","","","","","33","","",""
"revaluation","148","744776","0.0-4.0-2.0-0.17","spark_pilot_2","7494","7","21","Female","","false","","","","","[862.5,353.09999999403954]","./assets/img/canyon/memory/19.jpg","[""ArrowDown"",""ArrowRight""]","value training","canyon","30","{""ArrowUp,ArrowLeft"":23,""ArrowUp,ArrowRight"":10,""ArrowDown,ArrowLeft"":8,""ArrowDown,ArrowRight"":30}","true","ArrowDown,ArrowRight","false","","","original","1","34","","",""
"html-keyboard-response","149","745278","0.0-4.0-2.0-1.17","spark_pilot_2","7494","7","21","Female","","","","","","","null","<div style=""font-size:60px;"">+</div>","null","fixation","","","","","","","","","","","35","","",""
"revaluation","150","751288","0.0-4.0-2.0-0.18","spark_pilot_2","7494","7","21","Female","","false","","","","","[491.69999998807907,350.70000000298023]","./assets/img/canyon/memory/39.jpg","[""ArrowDown"",""ArrowRight""]","value training","canyon","30","{""ArrowUp,ArrowLeft"":23,""ArrowUp,ArrowRight"":10,""ArrowDown,ArrowLeft"":8,""ArrowDown,ArrowRight"":30}","true","ArrowDown,ArrowRight","false","","","original","1","36","","",""
"html-keyboard-response","151","751797","0.0-4.0-2.0-1.18","spark_pilot_2","7494","7","21","Female","","","","","","","null","<div style=""font-size:60px;"">+</div>","null","fixation","","","","","","","","","","","37","","",""
"revaluation","152","757804","0.0-4.0-2.0-0.19","spark_pilot_2","7494","7","21","Female","","false","","","","","[736.5,365.80000001192093]","./assets/img/canyon/memory/19.jpg","[""ArrowDown"",""ArrowRight""]","value training","canyon","30","{""ArrowUp,ArrowLeft"":23,""ArrowUp,ArrowRight"":10,""ArrowDown,ArrowLeft"":8,""ArrowDown,ArrowRight"":30}","true","ArrowDown,ArrowRight","false","","","original","1","38","","",""
"html-keyboard-response","153","758305","0.0-4.0-2.0-1.19","spark_pilot_2","7494","7","21","Female","","","","","","","null","<div style=""font-size:60px;"">+</div>","null","fixation","","","","","","","","","","","39","","",""
"revaluation","154","764310","0.0-4.0-2.0-0.20","spark_pilot_2","7494","7","21","Female","","false","","","","","[847.7999999970198,346.59999999403954]","./assets/img/canyon/memory/40.jpg","[""ArrowDown"",""ArrowRight""]","value training","canyon","30","{""ArrowUp,ArrowLeft"":23,""ArrowUp,ArrowRight"":10,""ArrowDown,ArrowLeft"":8,""ArrowDown,ArrowRight"":30}","true","ArrowDown,ArrowRight","false","","","original","1","40","","",""
"html-keyboard-response","155","764812","0.0-4.0-2.0-1.20","spark_pilot_2","7494","7","21","Female","","","","","","","null","<div style=""font-size:60px;"">+</div>","null","fixation","","","","","","","","","","","41","","",""
"revaluation","156","770817","0.0-4.0-2.0-0.21","spark_pilot_2","7494","7","21","Female","","false","","","","","[788.2999999970198,277.5]","./assets/img/canyon/memory/17.jpg","[""ArrowDown"",""ArrowRight""]","value training","canyon","30","{""ArrowUp,ArrowLeft"":23,""ArrowUp,ArrowRight"":10,""ArrowDown,ArrowLeft"":8,""ArrowDown,ArrowRight"":30}","true","ArrowDown,ArrowRight","false","","","original","1","42","","",""
"html-keyboard-response","157","771327","0.0-4.0-2.0-1.21","spark_pilot_2","7494","7","21","Female","","","","","","","null","<div style=""font-size:60px;"">+</div>","null","fixation","","","","","","","","","","","43","","",""
"revaluation","158","777334","0.0-4.0-2.0-0.22","spark_pilot_2","7494","7","21","Female","","false","","","","","[1178.6000000089407,372.79999999701977]","./assets/img/canyon/memory/11.jpg","[""ArrowDown"",""ArrowRight""]","value training","canyon","30","{""ArrowUp,ArrowLeft"":23,""ArrowUp,ArrowRight"":10,""ArrowDown,ArrowLeft"":8,""ArrowDown,ArrowRight"":30}","true","ArrowDown,ArrowRight","false","","","original","1","44","","",""
"html-keyboard-response","159","777836","0.0-4.0-2.0-1.22","spark_pilot_2","7494","7","21","Female","","","","","","","null","<div style=""font-size:60px;"">+</div>","null","fixation","","","","","","","","","","","45","","",""
"revaluation","160","783842","0.0-4.0-2.0-0.23","spark_pilot_2","7494","7","21","Female","","false","","","","","[862,350.5]","./assets/img/canyon/memory/40.jpg","[""ArrowDown"",""ArrowRight""]","value training","canyon","30","{""ArrowUp,ArrowLeft"":23,""ArrowUp,ArrowRight"":10,""ArrowDown,ArrowLeft"":8,""ArrowDown,ArrowRight"":30}","true","ArrowDown,ArrowRight","false","","","original","1","46","","",""
"html-keyboard-response","161","784343","0.0-4.0-2.0-1.23","spark_pilot_2","7494","7","21","Female","","","","","","","null","<div style=""font-size:60px;"">+</div>","null","fixation","","","","","","","","","","","47","","",""
"revaluation","162","790349","0.0-4.0-2.0-0.24","spark_pilot_2","7494","7","21","Female","","false","","","","","[1070.3999999910593,355]","./assets/img/canyon/memory/41.jpg","[""ArrowDown"",""ArrowRight""]","value training","canyon","30","{""ArrowUp,ArrowLeft"":23,""ArrowUp,ArrowRight"":10,""ArrowDown,ArrowLeft"":8,""ArrowDown,ArrowRight"":30}","true","ArrowDown,ArrowRight","false","","","original","1","48","","",""
"html-keyboard-response","163","790855","0.0-4.0-2.0-1.24","spark_pilot_2","7494","7","21","Female","","","","","","","null","<div style=""font-size:60px;"">+</div>","null","fixation","","","","","","","","","","","49","","",""
"revaluation","164","794860","0.0-4.0-2.0-0.25","spark_pilot_2","7494","7","21","Female","","false","","","","","[723.5]","./assets/img/canyon/catch/4.jpg","[""spaceBar""]","value training","canyon","0","{""ArrowUp,ArrowLeft"":23,""ArrowUp,ArrowRight"":10,""ArrowDown,ArrowLeft"":8,""ArrowDown,ArrowRight"":30}","true","spaceBar","true","","","original","1","50","","",""
"html-keyboard-response","165","795361","0.0-4.0-2.0-1.25","spark_pilot_2","7494","7","21","Female","","","","","","","null","<div style=""font-size:60px;"">+</div>","null","fixation","","","","","","","","","","","51","","",""
"revaluation","166","801366","0.0-4.0-2.0-0.26","spark_pilot_2","7494","7","21","Female","","false","","","","","[1157,532.3000000119209]","./assets/img/canyon/memory/1.jpg","[""ArrowDown"",""ArrowRight""]","value training","canyon","30","{""ArrowUp,ArrowLeft"":23,""ArrowUp,ArrowRight"":10,""ArrowDown,ArrowLeft"":8,""ArrowDown,ArrowRight"":30}","true","ArrowDown,ArrowRight","false","","","original","1","52","","",""
"html-keyboard-response","167","801867","0.0-4.0-2.0-1.26","spark_pilot_2","7494","7","21","Female","","","","","","","null","<div style=""font-size:60px;"">+</div>","null","fixation","","","","","","","","","","","53","","",""
"revaluation","168","807873","0.0-4.0-2.0-0.27","spark_pilot_2","7494","7","21","Female","","false","","","","","[1008,364]","./assets/img/canyon/memory/1.jpg","[""ArrowDown"",""ArrowRight""]","value training","canyon","30","{""ArrowUp,ArrowLeft"":23,""ArrowUp,ArrowRight"":10,""ArrowDown,ArrowLeft"":8,""ArrowDown,ArrowRight"":30}","true","ArrowDown,ArrowRight","false","","","original","1","54","","",""
"html-keyboard-response","169","808375","0.0-4.0-2.0-1.27","spark_pilot_2","7494","7","21","Female","","","","","","","null","<div style=""font-size:60px;"">+</div>","null","fixation","","","","","","","","","","","55","","",""
"revaluation","170","814383","0.0-4.0-2.0-0.28","spark_pilot_2","7494","7","21","Female","","false","","","","","[1079.5,433.69999998807907]","./assets/img/canyon/memory/18.jpg","[""ArrowDown"",""ArrowRight""]","value training","canyon","30","{""ArrowUp,ArrowLeft"":23,""ArrowUp,ArrowRight"":10,""ArrowDown,ArrowLeft"":8,""ArrowDown,ArrowRight"":30}","true","ArrowDown,ArrowRight","false","","","original","1","56","","",""
"html-keyboard-response","171","814884","0.0-4.0-2.0-1.28","spark_pilot_2","7494","7","21","Female","","","","","","","null","<div style=""font-size:60px;"">+</div>","null","fixation","","","","","","","","","","","57","","",""
"revaluation","172","820889","0.0-4.0-2.0-0.29","spark_pilot_2","7494","7","21","Female","","false","","","","","[1158.300000011921,329.29999999701977]","./assets/img/canyon/memory/29.jpg","[""ArrowDown"",""ArrowRight""]","value training","canyon","30","{""ArrowUp,ArrowLeft"":23,""ArrowUp,ArrowRight"":10,""ArrowDown,ArrowLeft"":8,""ArrowDown,ArrowRight"":30}","true","ArrowDown,ArrowRight","false","","","original","1","58","","",""
"html-keyboard-response","173","821391","0.0-4.0-2.0-1.29","spark_pilot_2","7494","7","21","Female","","","","","","","null","<div style=""font-size:60px;"">+</div>","null","fixation","","","","","","","","","","","59","","",""
"revaluation","174","827396","0.0-4.0-2.0-0.30","spark_pilot_2","7494","7","21","Female","","false","","","","","[1070.5,252.5]","./assets/img/canyon/memory/39.jpg","[""ArrowDown"",""ArrowRight""]","value training","canyon","30","{""ArrowUp,ArrowLeft"":23,""ArrowUp,ArrowRight"":10,""ArrowDown,ArrowLeft"":8,""ArrowDown,ArrowRight"":30}","true","ArrowDown,ArrowRight","false","","","original","1","60","","",""
"html-keyboard-response","175","827898","0.0-4.0-2.0-1.30","spark_pilot_2","7494","7","21","Female","","","","","","","null","<div style=""font-size:60px;"">+</div>","null","fixation","","","","","","","","","","","61","","",""
"revaluation","176","831903","0.0-4.0-2.0-0.31","spark_pilot_2","7494","7","21","Female","","false","","","","","[824.0999999940395]","./assets/img/canyon/catch/1.jpg","[""spaceBar""]","value training","canyon","0","{""ArrowUp,ArrowLeft"":23,""ArrowUp,ArrowRight"":10,""ArrowDown,ArrowLeft"":8,""ArrowDown,ArrowRight"":30}","true","spaceBar","true","","","original","1","62","","",""
"html-keyboard-response","177","832404","0.0-4.0-2.0-1.31","spark_pilot_2","7494","7","21","Female","","","","","","","null","<div style=""font-size:60px;"">+</div>","null","fixation","","","","","","","","","","","63","","",""
"revaluation","178","836408","0.0-4.0-2.0-0.32","spark_pilot_2","7494","7","21","Female","","false","","","","","[649.7999999970198]","./assets/img/canyon/catch/3.jpg","[""spaceBar""]","value training","canyon","0","{""ArrowUp,ArrowLeft"":23,""ArrowUp,ArrowRight"":10,""ArrowDown,ArrowLeft"":8,""ArrowDown,ArrowRight"":30}","true","spaceBar","true","","","original","1","64","","",""
"html-keyboard-response","179","836919","0.0-4.0-2.0-1.32","spark_pilot_2","7494","7","21","Female","","","","","","","null","<div style=""font-size:60px;"">+</div>","null","fixation","","","","","","","","","","","65","","",""
"revaluation","180","842925","0.0-4.0-2.0-0.33","spark_pilot_2","7494","7","21","Female","","false","","","","","[941.7000000029802,531]","./assets/img/canyon/memory/38.jpg","[""ArrowDown"",""ArrowRight""]","value training","canyon","30","{""ArrowUp,ArrowLeft"":23,""ArrowUp,ArrowRight"":10,""ArrowDown,ArrowLeft"":8,""ArrowDown,ArrowRight"":30}","true","ArrowDown,ArrowRight","false","","","original","1","66","","",""
"html-keyboard-response","181","843426","0.0-4.0-2.0-1.33","spark_pilot_2","7494","7","21","Female","","","","","","","null","<div style=""font-size:60px;"">+</div>","null","fixation","","","","","","","","","","","67","","",""
"revaluation","182","847431","0.0-4.0-2.0-0.34","spark_pilot_2","7494","7","21","Female","","false","","","","","[606.3999999910593]","./assets/img/canyon/catch/0.jpg","[""spaceBar""]","value training","canyon","0","{""ArrowUp,ArrowLeft"":23,""ArrowUp,ArrowRight"":10,""ArrowDown,ArrowLeft"":8,""ArrowDown,ArrowRight"":30}","true","spaceBar","true","","","original","1","68","","",""
"html-keyboard-response","183","847933","0.0-4.0-2.0-1.34","spark_pilot_2","7494","7","21","Female","","","","","","","null","<div style=""font-size:60px;"">+</div>","null","fixation","","","","","","","","","","","69","","",""
"revaluation","184","853938","0.0-4.0-2.0-0.35","spark_pilot_2","7494","7","21","Female","","false","","","","","[855.5,417.80000001192093]","./assets/img/canyon/memory/0.jpg","[""ArrowDown"",""ArrowRight""]","value training","canyon","30","{""ArrowUp,ArrowLeft"":23,""ArrowUp,ArrowRight"":10,""ArrowDown,ArrowLeft"":8,""ArrowDown,ArrowRight"":30}","true","ArrowDown,ArrowRight","false","","","original","1","70","","",""
"html-keyboard-response","185","854440","0.0-4.0-2.0-1.35","spark_pilot_2","7494","7","21","Female","","","","","","","null","<div style=""font-size:60px;"">+</div>","null","fixation","","","","","","","","","","","71","","",""
"revaluation","186","860447","0.0-4.0-2.0-0.36","spark_pilot_2","7494","7","21","Female","","false","","","","","[702.0999999940395,395.40000000596046]","./assets/img/canyon/memory/25.jpg","[""ArrowDown"",""ArrowRight""]","value training","canyon","30","{""ArrowUp,ArrowLeft"":23,""ArrowUp,ArrowRight"":10,""ArrowDown,ArrowLeft"":8,""ArrowDown,ArrowRight"":30}","true","ArrowDown,ArrowRight","false","","","original","1","72","","",""
"html-keyboard-response","187","860948","0.0-4.0-2.0-1.36","spark_pilot_2","7494","7","21","Female","","","","","","","null","<div style=""font-size:60px;"">+</div>","null","fixation","","","","","","","","","","","73","","",""
"revaluation","188","866953","0.0-4.0-2.0-0.37","spark_pilot_2","7494","7","21","Female","","false","","","","","[543.9000000059605,362.70000000298023]","./assets/img/canyon/memory/16.jpg","[""ArrowDown"",""ArrowRight""]","value training","canyon","30","{""ArrowUp,ArrowLeft"":23,""ArrowUp,ArrowRight"":10,""ArrowDown,ArrowLeft"":8,""ArrowDown,ArrowRight"":30}","true","ArrowDown,ArrowRight","false","","","original","1","74","","",""
"html-keyboard-response","189","867454","0.0-4.0-2.0-1.37","spark_pilot_2","7494","7","21","Female","","","","","","","null","<div style=""font-size:60px;"">+</div>","null","fixation","","","","","","","","","","","75","","",""
"revaluation","190","873460","0.0-4.0-2.0-0.38","spark_pilot_2","7494","7","21","Female","","false","","","","","[1144.2999999970198,399.5]","./assets/img/canyon/memory/24.jpg","[""ArrowDown"",""ArrowRight""]","value training","canyon","30","{""ArrowUp,ArrowLeft"":23,""ArrowUp,ArrowRight"":10,""ArrowDown,ArrowLeft"":8,""ArrowDown,ArrowRight"":30}","true","ArrowDown,ArrowRight","false","","","original","1","76","","",""
"html-keyboard-response","191","873962","0.0-4.0-2.0-1.38","spark_pilot_2","7494","7","21","Female","","","","","","","null","<div style=""font-size:60px;"">+</div>","null","fixation","","","","","","","","","","","77","","",""
"revaluation","192","879969","0.0-4.0-2.0-0.39","spark_pilot_2","7494","7","21","Female","","false","","","","","[778.9000000059605,328.8999999910593]","./assets/img/canyon/memory/38.jpg","[""ArrowDown"",""ArrowRight""]","value training","canyon","30","{""ArrowUp,ArrowLeft"":23,""ArrowUp,ArrowRight"":10,""ArrowDown,ArrowLeft"":8,""ArrowDown,ArrowRight"":30}","true","ArrowDown,ArrowRight","false","","","original","1","78","","",""
"html-keyboard-response","193","880481","0.0-4.0-2.0-1.39","spark_pilot_2","7494","7","21","Female","","","","","","","null","<div style=""font-size:60px;"">+</div>","null","fixation","","","","","","","","","","","79","","",""
"revaluation","194","886487","0.0-4.0-2.0-0.40","spark_pilot_2","7494","7","21","Female","","false","","","","","[998.3999999910593,429.69999998807907]","./assets/img/canyon/memory/32.jpg","[""ArrowDown"",""ArrowRight""]","value training","canyon","30","{""ArrowUp,ArrowLeft"":23,""ArrowUp,ArrowRight"":10,""ArrowDown,ArrowLeft"":8,""ArrowDown,ArrowRight"":30}","true","ArrowDown,ArrowRight","false","","","original","1","80","","",""
"html-keyboard-response","195","886988","0.0-4.0-2.0-1.40","spark_pilot_2","7494","7","21","Female","","","","","","","null","<div style=""font-size:60px;"">+</div>","null","fixation","","","","","","","","","","","81","","",""
"revaluation","196","892994","0.0-4.0-2.0-0.41","spark_pilot_2","7494","7","21","Female","","false","","","","","[521.5,343.79999999701977]","./assets/img/canyon/memory/28.jpg","[""ArrowDown"",""ArrowRight""]","value training","canyon","30","{""ArrowUp,ArrowLeft"":23,""ArrowUp,ArrowRight"":10,""ArrowDown,ArrowLeft"":8,""ArrowDown,ArrowRight"":30}","true","ArrowDown,ArrowRight","false","","","original","1","82","","",""
"html-keyboard-response","197","893496","0.0-4.0-2.0-1.41","spark_pilot_2","7494","7","21","Female","","","","","","","null","<div style=""font-size:60px;"">+</div>","null","fixation","","","","","","","","","","","83","","",""
"revaluation","198","899501","0.0-4.0-2.0-0.42","spark_pilot_2","7494","7","21","Female","","false","","","","","[671.8999999910593,341.5]","./assets/img/canyon/memory/0.jpg","[""ArrowDown"",""ArrowRight""]","value training","canyon","30","{""ArrowUp,ArrowLeft"":23,""ArrowUp,ArrowRight"":10,""ArrowDown,ArrowLeft"":8,""ArrowDown,ArrowRight"":30}","true","ArrowDown,ArrowRight","false","","","original","1","84","","",""
"html-keyboard-response","199","900013","0.0-4.0-2.0-1.42","spark_pilot_2","7494","7","21","Female","","","","","","","null","<div style=""font-size:60px;"">+</div>","null","fixation","","","","","","","","","","","85","","",""
"revaluation","200","906019","0.0-4.0-2.0-0.43","spark_pilot_2","7494","7","21","Female","","false","","","","","[642.7000000029802,507.5]","./assets/img/canyon/memory/29.jpg","[""ArrowDown"",""ArrowRight""]","value training","canyon","30","{""ArrowUp,ArrowLeft"":23,""ArrowUp,ArrowRight"":10,""ArrowDown,ArrowLeft"":8,""ArrowDown,ArrowRight"":30}","true","ArrowDown,ArrowRight","false","","","original","1","86","","",""
"html-keyboard-response","201","906522","0.0-4.0-2.0-1.43","spark_pilot_2","7494","7","21","Female","","","","","","","null","<div style=""font-size:60px;"">+</div>","null","fixation","","","","","","","","","","","87","","",""
"revaluation","202","912527","0.0-4.0-2.0-0.44","spark_pilot_2","7494","7","21","Female","","false","","","","","[830,384.40000000596046]","./assets/img/canyon/memory/9.jpg","[""ArrowDown"",""ArrowRight""]","value training","canyon","30","{""ArrowUp,ArrowLeft"":23,""ArrowUp,ArrowRight"":10,""ArrowDown,ArrowLeft"":8,""ArrowDown,ArrowRight"":30}","true","ArrowDown,ArrowRight","false","","","original","1","88","","",""
"html-keyboard-response","203","913029","0.0-4.0-2.0-1.44","spark_pilot_2","7494","7","21","Female","","","","","","","null","<div style=""font-size:60px;"">+</div>","null","fixation","","","","","","","","","","","89","","",""
"revaluation","204","917033","0.0-4.0-2.0-0.45","spark_pilot_2","7494","7","21","Female","","false","","","","","[854.5]","./assets/img/canyon/catch/5.jpg","[""spaceBar""]","value training","canyon","0","{""ArrowUp,ArrowLeft"":23,""ArrowUp,ArrowRight"":10,""ArrowDown,ArrowLeft"":8,""ArrowDown,ArrowRight"":30}","true","spaceBar","true","","","original","1","90","","",""
"html-keyboard-response","205","917536","0.0-4.0-2.0-1.45","spark_pilot_2","7494","7","21","Female","","","","","","","null","<div style=""font-size:60px;"">+</div>","null","fixation","","","","","","","","","","","91","","",""
"revaluation","206","923541","0.0-4.0-2.0-0.46","spark_pilot_2","7494","7","21","Female","","false","","","","","[803,425.20000000298023]","./assets/img/canyon/memory/28.jpg","[""ArrowDown"",""ArrowRight""]","value training","canyon","30","{""ArrowUp,ArrowLeft"":23,""ArrowUp,ArrowRight"":10,""ArrowDown,ArrowLeft"":8,""ArrowDown,ArrowRight"":30}","true","ArrowDown,ArrowRight","false","","","original","1","92","","",""
"html-keyboard-response","207","924042","0.0-4.0-2.0-1.46","spark_pilot_2","7494","7","21","Female","","","","","","","null","<div style=""font-size:60px;"">+</div>","null","fixation","","","","","","","","","","","93","","",""
"revaluation","208","930060","0.0-4.0-2.0-0.47","spark_pilot_2","7494","7","21","Female","","false","","","","","[893,388.40000000596046]","./assets/img/canyon/memory/10.jpg","[""ArrowDown"",""ArrowRight""]","value training","canyon","30","{""ArrowUp,ArrowLeft"":23,""ArrowUp,ArrowRight"":10,""ArrowDown,ArrowLeft"":8,""ArrowDown,ArrowRight"":30}","true","ArrowDown,ArrowRight","false","","","original","1","94","","",""
"html-keyboard-response","209","930562","0.0-4.0-2.0-1.47","spark_pilot_2","7494","7","21","Female","","","","","","","null","<div style=""font-size:60px;"">+</div>","null","fixation","","","","","","","","","","","95","","",""
"revaluation","210","936567","0.0-4.0-2.0-0.48","spark_pilot_2","7494","7","21","Female","","false","","","","","[851.7000000029802,442.90000000596046]","./assets/img/canyon/memory/10.jpg","[""ArrowDown"",""ArrowRight""]","value training","canyon","30","{""ArrowUp,ArrowLeft"":23,""ArrowUp,ArrowRight"":10,""ArrowDown,ArrowLeft"":8,""ArrowDown,ArrowRight"":30}","true","ArrowDown,ArrowRight","false","","","original","1","96","","",""
"html-keyboard-response","211","937068","0.0-4.0-2.0-1.48","spark_pilot_2","7494","7","21","Female","","","","","","","null","<div style=""font-size:60px;"">+</div>","null","fixation","","","","","","","","","","","97","","",""
"revaluation","212","943073","0.0-4.0-2.0-0.49","spark_pilot_2","7494","7","21","Female","","false","","","","","[1031.2999999970198,1435.5]","./assets/img/canyon/memory/20.jpg","[""ArrowDown"",""ArrowRight""]","value training","canyon","30","{""ArrowUp,ArrowLeft"":23,""ArrowUp,ArrowRight"":10,""ArrowDown,ArrowLeft"":8,""ArrowDown,ArrowRight"":30}","true","ArrowDown,ArrowRight","false","","","original","1","98","","",""
"html-keyboard-response","213","943574","0.0-4.0-2.0-1.49","spark_pilot_2","7494","7","21","Female","","","","","","","null","<div style=""font-size:60px;"">+</div>","null","fixation","","","","","","","","","","","99","","",""
"learning-instructions","214","957813","0.0-4.0-3.0-0.0","spark_pilot_2","7494","7","21","Female","","","","","","","1267.4000000059605","<p> Now, you will travel with a friend who will choose whether you go up or down first. </p>
            <p> On these turns, you will just see the animal that they found. You will still get to choose which chest to search for treasure.</p>","","instructions","","","","","","","","","","","","","",""
"revaluation","215","961824","0.0-4.0-4.0-0.0","spark_pilot_2","7494","7","21","Female","","false","","","","","[859]","./assets/img/canyon/animals/lion.jpg","[""ArrowRight""]","revaluation","canyon","30","{""ArrowUp,ArrowLeft"":23,""ArrowUp,ArrowRight"":10,""ArrowDown,ArrowLeft"":8,""ArrowDown,ArrowRight"":30}","true","ArrowDown,ArrowRight","","","","original","1","0","","",""
"html-keyboard-response","216","962332","0.0-4.0-4.0-1.0","spark_pilot_2","7494","7","21","Female","","","","","","","null","<div style=""font-size:60px;"">+</div>","null","fixation","","","","","","","","","","","1","","",""
"revaluation","217","966338","0.0-4.0-4.0-0.1","spark_pilot_2","7494","7","21","Female","","false","","","","","[575.7999999970198]","./assets/img/canyon/animals/lion.jpg","[""ArrowRight""]","revaluation","canyon","30","{""ArrowUp,ArrowLeft"":23,""ArrowUp,ArrowRight"":10,""ArrowDown,ArrowLeft"":8,""ArrowDown,ArrowRight"":30}","true","ArrowDown,ArrowRight","","","","original","1","2","","",""
"html-keyboard-response","218","966854","0.0-4.0-4.0-1.1","spark_pilot_2","7494","7","21","Female","","","","","","","null","<div style=""font-size:60px;"">+</div>","null","fixation","","","","","","","","","","","3","","",""
"revaluation","219","970890","0.0-4.0-4.0-0.2","spark_pilot_2","7494","7","21","Female","","false","","","","","[383.90000000596046]","./assets/img/canyon/animals/lion.jpg","[""ArrowRight""]","revaluation","canyon","30","{""ArrowUp,ArrowLeft"":23,""ArrowUp,ArrowRight"":10,""ArrowDown,ArrowLeft"":8,""ArrowDown,ArrowRight"":30}","true","ArrowDown,ArrowRight","","","","original","1","4","","",""
"html-keyboard-response","220","971406","0.0-4.0-4.0-1.2","spark_pilot_2","7494","7","21","Female","","","","","","","null","<div style=""font-size:60px;"">+</div>","null","fixation","","","","","","","","","","","5","","",""
"revaluation","221","975426","0.0-4.0-4.0-0.3","spark_pilot_2","7494","7","21","Female","","false","","","","","[790.0999999940395]","./assets/img/canyon/animals/giraffe.jpg","[""ArrowRight""]","revaluation","canyon","10","{""ArrowUp,ArrowLeft"":23,""ArrowUp,ArrowRight"":10,""ArrowDown,ArrowLeft"":8,""ArrowDown,ArrowRight"":30}","false","ArrowUp,ArrowRight","","","","original","1","6","","",""
"html-keyboard-response","222","975942","0.0-4.0-4.0-1.3","spark_pilot_2","7494","7","21","Female","","","","","","","null","<div style=""font-size:60px;"">+</div>","null","fixation","","","","","","","","","","","7","","",""
"revaluation","223","979961","0.0-4.0-4.0-0.4","spark_pilot_2","7494","7","21","Female","","false","","","","","[656.7999999970198]","./assets/img/canyon/animals/giraffe.jpg","[""ArrowLeft""]","revaluation","canyon","23","{""ArrowUp,ArrowLeft"":23,""ArrowUp,ArrowRight"":10,""ArrowDown,ArrowLeft"":8,""ArrowDown,ArrowRight"":30}","true","ArrowUp,ArrowLeft","","","","original","1","8","","",""
"html-keyboard-response","224","980472","0.0-4.0-4.0-1.4","spark_pilot_2","7494","7","21","Female","","","","","","","null","<div style=""font-size:60px;"">+</div>","null","fixation","","","","","","","","","","","9","","",""
"revaluation","225","984494","0.0-4.0-4.0-0.5","spark_pilot_2","7494","7","21","Female","","false","","","","","[521.6000000089407]","./assets/img/canyon/animals/giraffe.jpg","[""ArrowLeft""]","revaluation","canyon","23","{""ArrowUp,ArrowLeft"":23,""ArrowUp,ArrowRight"":10,""ArrowDown,ArrowLeft"":8,""ArrowDown,ArrowRight"":30}","true","ArrowUp,ArrowLeft","","","","original","1","10","","",""
"html-keyboard-response","226","985002","0.0-4.0-4.0-1.5","spark_pilot_2","7494","7","21","Female","","","","","","","null","<div style=""font-size:60px;"">+</div>","null","fixation","","","","","","","","","","","11","","",""
"revaluation","227","989008","0.0-4.0-4.0-0.6","spark_pilot_2","7494","7","21","Female","","false","","","","","[394]","./assets/img/canyon/animals/lion.jpg","[""ArrowRight""]","revaluation","canyon","30","{""ArrowUp,ArrowLeft"":23,""ArrowUp,ArrowRight"":10,""ArrowDown,ArrowLeft"":8,""ArrowDown,ArrowRight"":30}","true","ArrowDown,ArrowRight","","","","original","1","12","","",""
"html-keyboard-response","228","989510","0.0-4.0-4.0-1.6","spark_pilot_2","7494","7","21","Female","","","","","","","null","<div style=""font-size:60px;"">+</div>","null","fixation","","","","","","","","","","","13","","",""
"revaluation","229","993514","0.0-4.0-4.0-0.7","spark_pilot_2","7494","7","21","Female","","false","","","","","[719.7000000029802]","./assets/img/canyon/animals/giraffe.jpg","[""ArrowLeft""]","revaluation","canyon","23","{""ArrowUp,ArrowLeft"":23,""ArrowUp,ArrowRight"":10,""ArrowDown,ArrowLeft"":8,""ArrowDown,ArrowRight"":30}","true","ArrowUp,ArrowLeft","","","","original","1","14","","",""
"html-keyboard-response","230","994017","0.0-4.0-4.0-1.7","spark_pilot_2","7494","7","21","Female","","","","","","","null","<div style=""font-size:60px;"">+</div>","null","fixation","","","","","","","","","","","15","","",""
"revaluation","231","998021","0.0-4.0-4.0-0.8","spark_pilot_2","7494","7","21","Female","","false","","","","","[667.1999999880791]","./assets/img/canyon/animals/giraffe.jpg","[""ArrowLeft""]","revaluation","canyon","23","{""ArrowUp,ArrowLeft"":23,""ArrowUp,ArrowRight"":10,""ArrowDown,ArrowLeft"":8,""ArrowDown,ArrowRight"":30}","true","ArrowUp,ArrowLeft","","","","original","1","16","","",""
"html-keyboard-response","232","998529","0.0-4.0-4.0-1.8","spark_pilot_2","7494","7","21","Female","","","","","","","null","<div style=""font-size:60px;"">+</div>","null","fixation","","","","","","","","","","","17","","",""
"revaluation","233","1002534","0.0-4.0-4.0-0.9","spark_pilot_2","7494","7","21","Female","","false","","","","","[438]","./assets/img/canyon/animals/giraffe.jpg","[""ArrowLeft""]","revaluation","canyon","23","{""ArrowUp,ArrowLeft"":23,""ArrowUp,ArrowRight"":10,""ArrowDown,ArrowLeft"":8,""ArrowDown,ArrowRight"":30}","true","ArrowUp,ArrowLeft","","","","original","1","18","","",""
"html-keyboard-response","234","1003036","0.0-4.0-4.0-1.9","spark_pilot_2","7494","7","21","Female","","","","","","","null","<div style=""font-size:60px;"">+</div>","null","fixation","","","","","","","","","","","19","","",""
"revaluation","235","1007039","0.0-4.0-4.0-0.10","spark_pilot_2","7494","7","21","Female","","false","","","","","[543.0999999940395]","./assets/img/canyon/animals/lion.jpg","[""ArrowRight""]","revaluation","canyon","30","{""ArrowUp,ArrowLeft"":23,""ArrowUp,ArrowRight"":10,""ArrowDown,ArrowLeft"":8,""ArrowDown,ArrowRight"":30}","true","ArrowDown,ArrowRight","","","","original","1","20","","",""
"html-keyboard-response","236","1007542","0.0-4.0-4.0-1.10","spark_pilot_2","7494","7","21","Female","","","","","","","null","<div style=""font-size:60px;"">+</div>","null","fixation","","","","","","","","","","","21","","",""
"revaluation","237","1011544","0.0-4.0-4.0-0.11","spark_pilot_2","7494","7","21","Female","","false","","","","","[560.5999999940395]","./assets/img/canyon/animals/giraffe.jpg","[""ArrowLeft""]","revaluation","canyon","23","{""ArrowUp,ArrowLeft"":23,""ArrowUp,ArrowRight"":10,""ArrowDown,ArrowLeft"":8,""ArrowDown,ArrowRight"":30}","true","ArrowUp,ArrowLeft","","","","original","1","22","","",""
"html-keyboard-response","238","1012045","0.0-4.0-4.0-1.11","spark_pilot_2","7494","7","21","Female","","","","","","","null","<div style=""font-size:60px;"">+</div>","null","fixation","","","","","","","","","","","23","","",""
"revaluation","239","1016050","0.0-4.0-4.0-0.12","spark_pilot_2","7494","7","21","Female","","false","","","","","[395]","./assets/img/canyon/animals/lion.jpg","[""ArrowRight""]","revaluation","canyon","30","{""ArrowUp,ArrowLeft"":23,""ArrowUp,ArrowRight"":10,""ArrowDown,ArrowLeft"":8,""ArrowDown,ArrowRight"":30}","true","ArrowDown,ArrowRight","","","","original","1","24","","",""
"html-keyboard-response","240","1016552","0.0-4.0-4.0-1.12","spark_pilot_2","7494","7","21","Female","","","","","","","null","<div style=""font-size:60px;"">+</div>","null","fixation","","","","","","","","","","","25","","",""
"revaluation","241","1020557","0.0-4.0-4.0-0.13","spark_pilot_2","7494","7","21","Female","","false","","","","","[584.9000000059605]","./assets/img/canyon/animals/giraffe.jpg","[""ArrowLeft""]","revaluation","canyon","23","{""ArrowUp,ArrowLeft"":23,""ArrowUp,ArrowRight"":10,""ArrowDown,ArrowLeft"":8,""ArrowDown,ArrowRight"":30}","true","ArrowUp,ArrowLeft","","","","original","1","26","","",""
"html-keyboard-response","242","1021059","0.0-4.0-4.0-1.13","spark_pilot_2","7494","7","21","Female","","","","","","","null","<div style=""font-size:60px;"">+</div>","null","fixation","","","","","","","","","","","27","","",""
"revaluation","243","1025064","0.0-4.0-4.0-0.14","spark_pilot_2","7494","7","21","Female","","false","","","","","[546]","./assets/img/canyon/animals/lion.jpg","[""ArrowRight""]","revaluation","canyon","30","{""ArrowUp,ArrowLeft"":23,""ArrowUp,ArrowRight"":10,""ArrowDown,ArrowLeft"":8,""ArrowDown,ArrowRight"":30}","true","ArrowDown,ArrowRight","","","","original","1","28","","",""
"html-keyboard-response","244","1025567","0.0-4.0-4.0-1.14","spark_pilot_2","7494","7","21","Female","","","","","","","null","<div style=""font-size:60px;"">+</div>","null","fixation","","","","","","","","","","","29","","",""
"revaluation","245","1029571","0.0-4.0-4.0-0.15","spark_pilot_2","7494","7","21","Female","","false","","","","","[586.3999999910593]","./assets/img/canyon/animals/giraffe.jpg","[""ArrowLeft""]","revaluation","canyon","23","{""ArrowUp,ArrowLeft"":23,""ArrowUp,ArrowRight"":10,""ArrowDown,ArrowLeft"":8,""ArrowDown,ArrowRight"":30}","true","ArrowUp,ArrowLeft","","","","original","1","30","","",""
"html-keyboard-response","246","1030074","0.0-4.0-4.0-1.15","spark_pilot_2","7494","7","21","Female","","","","","","","null","<div style=""font-size:60px;"">+</div>","null","fixation","","","","","","","","","","","31","","",""
"revaluation","247","1034078","0.0-4.0-4.0-0.16","spark_pilot_2","7494","7","21","Female","","false","","","","","[396.09999999403954]","./assets/img/canyon/animals/lion.jpg","[""ArrowRight""]","revaluation","canyon","30","{""ArrowUp,ArrowLeft"":23,""ArrowUp,ArrowRight"":10,""ArrowDown,ArrowLeft"":8,""ArrowDown,ArrowRight"":30}","true","ArrowDown,ArrowRight","","","","original","1","32","","",""
"html-keyboard-response","248","1034580","0.0-4.0-4.0-1.16","spark_pilot_2","7494","7","21","Female","","","","","","","null","<div style=""font-size:60px;"">+</div>","null","fixation","","","","","","","","","","","33","","",""
"revaluation","249","1038584","0.0-4.0-4.0-0.17","spark_pilot_2","7494","7","21","Female","","false","","","","","[688.2000000029802]","./assets/img/canyon/animals/lion.jpg","[""ArrowRight""]","revaluation","canyon","30","{""ArrowUp,ArrowLeft"":23,""ArrowUp,ArrowRight"":10,""ArrowDown,ArrowLeft"":8,""ArrowDown,ArrowRight"":30}","true","ArrowDown,ArrowRight","","","","original","1","34","","",""
"html-keyboard-response","250","1039085","0.0-4.0-4.0-1.17","spark_pilot_2","7494","7","21","Female","","","","","","","null","<div style=""font-size:60px;"">+</div>","null","fixation","","","","","","","","","","","35","","",""
"learning-instructions","251","1052276","0.0-4.0-5.0-0.0","spark_pilot_2","7494","7","21","Female","","","","","","","1318.5999999940395","<p> Time to play the dot game! </p>
            <p> For one minute, click the red dots on the following screen as they appear. </p>
            <p><b> Don't look away, as you will earn bonus for clicking dots</b>. </p>","","instructions","","","","","","","","","","","","","",""
"revaluation","252","1112278","0.0-4.0-6.0-0.0","spark_pilot_2","7494","7","21","Female","","","","","","","[69,83,88,60,61,89,83]","","","rest","","70","","","","","0","60000","","","","","",""
"learning-instructions","253","1121555","0.0-4.0-7.0-0.0","spark_pilot_2","7494","7","21","Female","","","","","","","2785.3999999910593","<p> You have almost finished this part of the game! </p>
            <p> We are going to ask you to make a few more choices. </p>","","instructions","","","","","","","","","","","","","",""
"learning-instructions","254","1138299","0.0-4.0-7.0-0.1","spark_pilot_2","7494","7","21","Female","","","","","","","2769","<p> First, you need to decide whether to go up or down. When you see each picture, use the arrow keys to make your choice. </p>
            <p><b>You will not see which animal you found, but try to get to the one that will give you the most treasure.</b></p>","","instructions","","","","","","","","","","","","","",""
"revaluation","255","1139377","0.0-4.0-8.0-0.0","spark_pilot_2","7494","7","21","Female","","false","","","","","[1076.0999999940395]","./assets/img/canyon/test/3.jpg","[""ArrowDown""]","first stage test","canyon","0","{""ArrowUp,ArrowLeft"":23,""ArrowUp,ArrowRight"":10,""ArrowDown,ArrowLeft"":8,""ArrowDown,ArrowRight"":30}","true","ArrowDown","false","","","original","1","","","",""
"html-keyboard-response","256","1139891","0.0-4.0-8.0-1.0","spark_pilot_2","7494","7","21","Female","","","","","","","null","<div style=""font-size:60px;"">+</div>","null","fixation","","","","","","","","","","","","","",""
"revaluation","257","1140691","0.0-4.0-8.0-0.1","spark_pilot_2","7494","7","21","Female","","false","","","","","[797.0999999940395]","./assets/img/canyon/test/1.jpg","[""ArrowDown""]","first stage test","canyon","0","{""ArrowUp,ArrowLeft"":23,""ArrowUp,ArrowRight"":10,""ArrowDown,ArrowLeft"":8,""ArrowDown,ArrowRight"":30}","true","ArrowDown","false","","","original","1","","","",""
"html-keyboard-response","258","1141208","0.0-4.0-8.0-1.1","spark_pilot_2","7494","7","21","Female","","","","","","","null","<div style=""font-size:60px;"">+</div>","null","fixation","","","","","","","","","","","","","",""
"revaluation","259","1141799","0.0-4.0-8.0-0.2","spark_pilot_2","7494","7","21","Female","","false","","","","","[588.1000000089407]","./assets/img/canyon/test/2.jpg","[""ArrowDown""]","first stage test","canyon","0","{""ArrowUp,ArrowLeft"":23,""ArrowUp,ArrowRight"":10,""ArrowDown,ArrowLeft"":8,""ArrowDown,ArrowRight"":30}","true","ArrowDown","false","","","original","1","","","",""
"html-keyboard-response","260","1142314","0.0-4.0-8.0-1.2","spark_pilot_2","7494","7","21","Female","","","","","","","null","<div style=""font-size:60px;"">+</div>","null","fixation","","","","","","","","","","","","","",""
"revaluation","261","1142861","0.0-4.0-8.0-0.3","spark_pilot_2","7494","7","21","Female","","false","","","","","[544.5999999940395]","./assets/img/canyon/test/0.jpg","[""ArrowDown""]","first stage test","canyon","0","{""ArrowUp,ArrowLeft"":23,""ArrowUp,ArrowRight"":10,""ArrowDown,ArrowLeft"":8,""ArrowDown,ArrowRight"":30}","true","ArrowDown","false","","","original","1","","","",""
"html-keyboard-response","262","1143376","0.0-4.0-8.0-1.3","spark_pilot_2","7494","7","21","Female","","","","","","","null","<div style=""font-size:60px;"">+</div>","null","fixation","","","","","","","","","","","","","",""
"learning-instructions","263","1155547","0.0-4.0-9.0-0.0","spark_pilot_2","7494","7","21","Female","","","","","","","836.7999999970198","<p> Now you will see the animals again and can search their chests for treasure. </p>
            <p> This time, you will not see how much treasure you earned, but you will earn more bonus money for making better choices. </p>","","instructions","","","","","","","","","","","","","",""
"revaluation","264","1155983","0.0-4.0-10.0-0.0","spark_pilot_2","7494","7","21","Female","","false","","","","","[434]","./assets/img/canyon/animals/giraffe.jpg","[""ArrowRight""]","second stage test","canyon","0","{""ArrowUp,ArrowLeft"":23,""ArrowUp,ArrowRight"":10,""ArrowDown,ArrowLeft"":8,""ArrowDown,ArrowRight"":30}","false","ArrowUp,ArrowRight","","","","original","1","","","",""
"html-keyboard-response","265","1156494","0.0-4.0-10.0-1.0","spark_pilot_2","7494","7","21","Female","","","","","","","null","<div style=""font-size:60px;"">+</div>","null","fixation","","","","","","","","","","","","","",""
"revaluation","266","1157027","0.0-4.0-10.0-0.1","spark_pilot_2","7494","7","21","Female","","false","","","","","[530.4000000059605]","./assets/img/canyon/animals/giraffe.jpg","[""ArrowLeft""]","second stage test","canyon","0","{""ArrowUp,ArrowLeft"":23,""ArrowUp,ArrowRight"":10,""ArrowDown,ArrowLeft"":8,""ArrowDown,ArrowRight"":30}","true","ArrowUp,ArrowLeft","","","","original","1","","","",""
"html-keyboard-response","267","1157530","0.0-4.0-10.0-1.1","spark_pilot_2","7494","7","21","Female","","","","","","","null","<div style=""font-size:60px;"">+</div>","null","fixation","","","","","","","","","","","","","",""
"revaluation","268","1158322","0.0-4.0-10.0-0.2","spark_pilot_2","7494","7","21","Female","","false","","","","","[790.0999999940395]","./assets/img/canyon/animals/giraffe.jpg","[""ArrowLeft""]","second stage test","canyon","0","{""ArrowUp,ArrowLeft"":23,""ArrowUp,ArrowRight"":10,""ArrowDown,ArrowLeft"":8,""ArrowDown,ArrowRight"":30}","true","ArrowUp,ArrowLeft","","","","original","1","","","",""
"html-keyboard-response","269","1158836","0.0-4.0-10.0-1.2","spark_pilot_2","7494","7","21","Female","","","","","","","null","<div style=""font-size:60px;"">+</div>","null","fixation","","","","","","","","","","","","","",""
"revaluation","270","1159229","0.0-4.0-10.0-0.3","spark_pilot_2","7494","7","21","Female","","false","","","","","[389.79999999701977]","./assets/img/canyon/animals/giraffe.jpg","[""ArrowLeft""]","second stage test","canyon","0","{""ArrowUp,ArrowLeft"":23,""ArrowUp,ArrowRight"":10,""ArrowDown,ArrowLeft"":8,""ArrowDown,ArrowRight"":30}","true","ArrowUp,ArrowLeft","","","","original","1","","","",""
"html-keyboard-response","271","1159743","0.0-4.0-10.0-1.3","spark_pilot_2","7494","7","21","Female","","","","","","","null","<div style=""font-size:60px;"">+</div>","null","fixation","","","","","","","","","","","","","",""
"revaluation","272","1160408","0.0-4.0-10.0-0.4","spark_pilot_2","7494","7","21","Female","","false","","","","","[661.7999999970198]","./assets/img/canyon/animals/lion.jpg","[""ArrowRight""]","second stage test","canyon","0","{""ArrowUp,ArrowLeft"":23,""ArrowUp,ArrowRight"":10,""ArrowDown,ArrowLeft"":8,""ArrowDown,ArrowRight"":30}","true","ArrowDown,ArrowRight","","","","original","1","","","",""
"html-keyboard-response","273","1160922","0.0-4.0-10.0-1.4","spark_pilot_2","7494","7","21","Female","","","","","","","null","<div style=""font-size:60px;"">+</div>","null","fixation","","","","","","","","","","","","","",""
"revaluation","274","1161458","0.0-4.0-10.0-0.5","spark_pilot_2","7494","7","21","Female","","false","","","","","[532.6999999880791]","./assets/img/canyon/animals/lion.jpg","[""ArrowRight""]","second stage test","canyon","0","{""ArrowUp,ArrowLeft"":23,""ArrowUp,ArrowRight"":10,""ArrowDown,ArrowLeft"":8,""ArrowDown,ArrowRight"":30}","true","ArrowDown,ArrowRight","","","","original","1","","","",""
"html-keyboard-response","275","1161969","0.0-4.0-10.0-1.5","spark_pilot_2","7494","7","21","Female","","","","","","","null","<div style=""font-size:60px;"">+</div>","null","fixation","","","","","","","","","","","","","",""
"revaluation","276","1162437","0.0-4.0-10.0-0.6","spark_pilot_2","7494","7","21","Female","","false","","","","","[464.70000000298023]","./assets/img/canyon/animals/lion.jpg","[""ArrowRight""]","second stage test","canyon","0","{""ArrowUp,ArrowLeft"":23,""ArrowUp,ArrowRight"":10,""ArrowDown,ArrowLeft"":8,""ArrowDown,ArrowRight"":30}","true","ArrowDown,ArrowRight","","","","original","1","","","",""
"html-keyboard-response","277","1162939","0.0-4.0-10.0-1.6","spark_pilot_2","7494","7","21","Female","","","","","","","null","<div style=""font-size:60px;"">+</div>","null","fixation","","","","","","","","","","","","","",""
"revaluation","278","1163353","0.0-4.0-10.0-0.7","spark_pilot_2","7494","7","21","Female","","false","","","","","[411.3999999910593]","./assets/img/canyon/animals/lion.jpg","[""ArrowRight""]","second stage test","canyon","0","{""ArrowUp,ArrowLeft"":23,""ArrowUp,ArrowRight"":10,""ArrowDown,ArrowLeft"":8,""ArrowDown,ArrowRight"":30}","true","ArrowDown,ArrowRight","","","","original","1","","","",""
"html-keyboard-response","279","1163864","0.0-4.0-10.0-1.7","spark_pilot_2","7494","7","21","Female","","","","","","","null","<div style=""font-size:60px;"">+</div>","null","fixation","","","","","","","","","","","","","",""
"learning-instructions","280","1167700","0.0-4.0-0.1-0.2","spark_pilot_2","7494","7","21","Female","","","","","","","1130.300000011921","<p> This time you are searching for treasure in the <b>ocean</b>.</p>","","instructions","","","","","","","","","","","","","",""
"learning-instructions","281","1186442","0.0-4.0-0.1-0.3","spark_pilot_2","7494","7","21","Female","","","","","","","1482.2999999970198","<p><b>New</b> animals with <b>new</b> treasure chests live here. You need to explore to discover where the animal with the best treasure chest is.</p>
                    <p> Like before, once you figure out which animal has the chest with the most treasure, you should try to get to that animal and select that chest! </p>","","instructions","","","","","","","","","","","","","",""
"learning-instructions","282","1202748","0.0-4.0-1.1-0.1","spark_pilot_2","7494","7","21","Female","","","","","","","1578.7000000029802","<p> Remember, when you see a picture of the place, use the up and down keys to <b>find an animal</b>.</p>
            <p> When you encounter an animal, you should use the left and right keys to <b>select a treasure chest</b>.</p>
            <p> Don't forget to look out for the robber! </p>","","instructions","","","","","","","","","","","","","",""
"revaluation","283","1208781","0.0-4.0-2.1-0.50","spark_pilot_2","7494","7","21","Female","","false","","","","","[1303.2000000029802,626.7000000029802]","./assets/img/ocean/memory/0.jpg","[""ArrowUp"",""ArrowLeft""]","value training","ocean","26","{""ArrowUp,ArrowLeft"":26,""ArrowUp,ArrowRight"":10,""ArrowDown,ArrowLeft"":5,""ArrowDown,ArrowRight"":17}","true","ArrowUp,ArrowLeft","false","","","revaluation","2","0","","",""
"html-keyboard-response","284","1209295","0.0-4.0-2.1-1.50","spark_pilot_2","7494","7","21","Female","","","","","","","null","<div style=""font-size:60px;"">+</div>","null","fixation","","","","","","","","","","","1","","",""
"revaluation","285","1215317","0.0-4.0-2.1-0.51","spark_pilot_2","7494","7","21","Female","","false","","","","","[953.7000000029802,333.70000000298023]","./assets/img/ocean/memory/17.jpg","[""ArrowUp"",""ArrowRight""]","value training","ocean","10","{""ArrowUp,ArrowLeft"":26,""ArrowUp,ArrowRight"":10,""ArrowDown,ArrowLeft"":5,""ArrowDown,ArrowRight"":17}","false","ArrowUp,ArrowRight","false","","","revaluation","2","2","","",""
"html-keyboard-response","286","1215833","0.0-4.0-2.1-1.51","spark_pilot_2","7494","7","21","Female","","","","","","","null","<div style=""font-size:60px;"">+</div>","null","fixation","","","","","","","","","","","3","","",""
"revaluation","287","1221852","0.0-4.0-2.1-0.52","spark_pilot_2","7494","7","21","Female","","false","","","","","[552.4000000059605,356.70000000298023]","./assets/img/ocean/memory/41.jpg","[""ArrowDown"",""ArrowLeft""]","value training","ocean","5","{""ArrowUp,ArrowLeft"":26,""ArrowUp,ArrowRight"":10,""ArrowDown,ArrowLeft"":5,""ArrowDown,ArrowRight"":17}","false","ArrowDown,ArrowLeft","false","","","revaluation","2","4","","",""
"html-keyboard-response","288","1222368","0.0-4.0-2.1-1.52","spark_pilot_2","7494","7","21","Female","","","","","","","null","<div style=""font-size:60px;"">+</div>","null","fixation","","","","","","","","","","","5","","",""
"revaluation","289","1226388","0.0-4.0-2.1-0.53","spark_pilot_2","7494","7","21","Female","","false","","","","","[799.8999999910593]","./assets/img/ocean/catch/0.jpg","[""spaceBar""]","value training","ocean","0","{""ArrowUp,ArrowLeft"":26,""ArrowUp,ArrowRight"":10,""ArrowDown,ArrowLeft"":5,""ArrowDown,ArrowRight"":17}","true","spaceBar","true","","","revaluation","2","6","","",""
"html-keyboard-response","290","1226904","0.0-4.0-2.1-1.53","spark_pilot_2","7494","7","21","Female","","","","","","","null","<div style=""font-size:60px;"">+</div>","null","fixation","","","","","","","","","","","7","","",""
"revaluation","291","1232918","0.0-4.0-2.1-0.54","spark_pilot_2","7494","7","21","Female","","false","","","","","[556.3000000119209,360.40000000596046]","./assets/img/ocean/memory/25.jpg","[""ArrowDown"",""ArrowRight""]","value training","ocean","17","{""ArrowUp,ArrowLeft"":26,""ArrowUp,ArrowRight"":10,""ArrowDown,ArrowLeft"":5,""ArrowDown,ArrowRight"":17}","false","ArrowDown,ArrowRight","false","","","revaluation","2","8","","",""
"html-keyboard-response","292","1233421","0.0-4.0-2.1-1.54","spark_pilot_2","7494","7","21","Female","","","","","","","null","<div style=""font-size:60px;"">+</div>","null","fixation","","","","","","","","","","","9","","",""
"revaluation","293","1237427","0.0-4.0-2.1-0.55","spark_pilot_2","7494","7","21","Female","","false","","","","","[807.7999999970198]","./assets/img/ocean/catch/7.jpg","[""spaceBar""]","value training","ocean","0","{""ArrowUp,ArrowLeft"":26,""ArrowUp,ArrowRight"":10,""ArrowDown,ArrowLeft"":5,""ArrowDown,ArrowRight"":17}","true","spaceBar","true","","","revaluation","2","10","","",""
"html-keyboard-response","294","1237928","0.0-4.0-2.1-1.55","spark_pilot_2","7494","7","21","Female","","","","","","","null","<div style=""font-size:60px;"">+</div>","null","fixation","","","","","","","","","","","11","","",""
"revaluation","295","1243935","0.0-4.0-2.1-0.56","spark_pilot_2","7494","7","21","Female","","false","","","","","[887.5,582.0999999940395]","./assets/img/ocean/memory/28.jpg","[""ArrowUp"",""ArrowLeft""]","value training","ocean","26","{""ArrowUp,ArrowLeft"":26,""ArrowUp,ArrowRight"":10,""ArrowDown,ArrowLeft"":5,""ArrowDown,ArrowRight"":17}","true","ArrowUp,ArrowLeft","false","","","revaluation","2","12","","",""
"html-keyboard-response","296","1244437","0.0-4.0-2.1-1.56","spark_pilot_2","7494","7","21","Female","","","","","","","null","<div style=""font-size:60px;"">+</div>","null","fixation","","","","","","","","","","","13","","",""
"revaluation","297","1250442","0.0-4.0-2.1-0.57","spark_pilot_2","7494","7","21","Female","","false","","","","","[1174,483]","./assets/img/ocean/memory/29.jpg","[""ArrowUp"",""ArrowLeft""]","value training","ocean","26","{""ArrowUp,ArrowLeft"":26,""ArrowUp,ArrowRight"":10,""ArrowDown,ArrowLeft"":5,""ArrowDown,ArrowRight"":17}","true","ArrowUp,ArrowLeft","false","","","revaluation","2","14","","",""
"html-keyboard-response","298","1250943","0.0-4.0-2.1-1.57","spark_pilot_2","7494","7","21","Female","","","","","","","null","<div style=""font-size:60px;"">+</div>","null","fixation","","","","","","","","","","","15","","",""
"revaluation","299","1256950","0.0-4.0-2.1-0.58","spark_pilot_2","7494","7","21","Female","","false","","","","","[544.7000000029802,567.4000000059605]","./assets/img/ocean/memory/0.jpg","[""ArrowUp"",""ArrowLeft""]","value training","ocean","26","{""ArrowUp,ArrowLeft"":26,""ArrowUp,ArrowRight"":10,""ArrowDown,ArrowLeft"":5,""ArrowDown,ArrowRight"":17}","true","ArrowUp,ArrowLeft","false","","","revaluation","2","16","","",""
"html-keyboard-response","300","1257452","0.0-4.0-2.1-1.58","spark_pilot_2","7494","7","21","Female","","","","","","","null","<div style=""font-size:60px;"">+</div>","null","fixation","","","","","","","","","","","17","","",""
"revaluation","301","1263463","0.0-4.0-2.1-0.59","spark_pilot_2","7494","7","21","Female","","false","","","","","[636.5,446.70000000298023]","./assets/img/ocean/memory/18.jpg","[""ArrowUp"",""ArrowLeft""]","value training","ocean","26","{""ArrowUp,ArrowLeft"":26,""ArrowUp,ArrowRight"":10,""ArrowDown,ArrowLeft"":5,""ArrowDown,ArrowRight"":17}","true","ArrowUp,ArrowLeft","false","","","revaluation","2","18","","",""
"html-keyboard-response","302","1263965","0.0-4.0-2.1-1.59","spark_pilot_2","7494","7","21","Female","","","","","","","null","<div style=""font-size:60px;"">+</div>","null","fixation","","","","","","","","","","","19","","",""
"revaluation","303","1269971","0.0-4.0-2.1-0.60","spark_pilot_2","7494","7","21","Female","","false","","","","","[1202.7000000029802,442.20000000298023]","./assets/img/ocean/memory/24.jpg","[""ArrowUp"",""ArrowLeft""]","value training","ocean","26","{""ArrowUp,ArrowLeft"":26,""ArrowUp,ArrowRight"":10,""ArrowDown,ArrowLeft"":5,""ArrowDown,ArrowRight"":17}","true","ArrowUp,ArrowLeft","false","","","revaluation","2","20","","",""
"html-keyboard-response","304","1270472","0.0-4.0-2.1-1.60","spark_pilot_2","7494","7","21","Female","","","","","","","null","<div style=""font-size:60px;"">+</div>","null","fixation","","","","","","","","","","","21","","",""
"revaluation","305","1276478","0.0-4.0-2.1-0.61","spark_pilot_2","7494","7","21","Female","","false","","","","","[901.8999999910593,393.90000000596046]","./assets/img/ocean/memory/29.jpg","[""ArrowUp"",""ArrowLeft""]","value training","ocean","26","{""ArrowUp,ArrowLeft"":26,""ArrowUp,ArrowRight"":10,""ArrowDown,ArrowLeft"":5,""ArrowDown,ArrowRight"":17}","true","ArrowUp,ArrowLeft","false","","","revaluation","2","22","","",""
