"trial_type","trial_index","time_elapsed","internal_node_id","task_version","subject_id","assigned_condition","age","gender","success","timeout","failed_images","failed_audio","failed_video","browser_interaction","rt","stimulus","response","task_part","environment","score","rewardMap","correct","fullState","isCatch","numberMissed","duration","condition","order","trial_num","key_press","ground_truth","bonus"
"pavlovia","0","1239","0.0-0.0","spark_pilot_2","7408","1","17","Male","","","","","","","","","","","","","","","","","","","","","","","",""
"preload","1","40822","0.0-1.0","spark_pilot_2","7408","1","17","Male","true","false","[]","[]","[]","[{""event"":""fullscreenenter"",""trial"":2,""time"":42343},{""event"":""fullscreenexit"",""trial"":4,""time"":56909},{""event"":""blur"",""trial"":4,""time"":57665},{""event"":""focus"",""trial"":4,""time"":61439},{""event"":""blur"",""trial"":216,""time"":969813},{""event"":""focus"",""trial"":216,""time"":990395},{""event"":""blur"",""trial"":216,""time"":991585},{""event"":""focus"",""trial"":216,""time"":2099001},{""event"":""blur"",""trial"":256,""time"":2273488},{""event"":""focus"",""trial"":256,""time"":2277169},{""event"":""blur"",""trial"":256,""time"":2278607},{""event"":""focus"",""trial"":256,""time"":2285503},{""event"":""blur"",""trial"":385,""time"":2665492},{""event"":""focus"",""trial"":385,""time"":2680619},{""event"":""blur"",""trial"":422,""time"":2774427},{""event"":""focus"",""trial"":422,""time"":2934529},{""event"":""blur"",""trial"":451,""time"":3048416},{""event"":""focus"",""trial"":451,""time"":3055856},{""event"":""blur"",""trial"":454,""time"":3076121},{""event"":""focus"",""trial"":454,""time"":3086154},{""event"":""blur"",""trial"":467,""time"":3138802},{""event"":""focus"",""trial"":467,""time"":3143798}]","","","","","","","","","","","","","","","","","",""
"fullscreen","2","43115","0.0-2.0","spark_pilot_2","7408","1","17","Male","true","","","","","","","","","","","","","","","","","","","","","","",""
"audio-button-response","3","52298","0.0-3.0-0.0-0.0","spark_pilot_2","7408","1","17","Male","","","","","","[{""event"":""fullscreenenter"",""trial"":2,""time"":42343},{""event"":""fullscreenexit"",""trial"":4,""time"":56909},{""event"":""blur"",""trial"":4,""time"":57665},{""event"":""focus"",""trial"":4,""time"":61439},{""event"":""blur"",""trial"":216,""time"":969813},{""event"":""focus"",""trial"":216,""time"":990395},{""event"":""blur"",""trial"":216,""time"":991585},{""event"":""focus"",""trial"":216,""time"":2099001},{""event"":""blur"",""trial"":256,""time"":2273488},{""event"":""focus"",""trial"":256,""time"":2277169},{""event"":""blur"",""trial"":256,""time"":2278607},{""event"":""focus"",""trial"":256,""time"":2285503},{""event"":""blur"",""trial"":385,""time"":2665492},{""event"":""focus"",""trial"":385,""time"":2680619},{""event"":""blur"",""trial"":422,""time"":2774427},{""event"":""focus"",""trial"":422,""time"":2934529},{""event"":""blur"",""trial"":451,""time"":3048416},{""event"":""focus"",""trial"":451,""time"":3055856},{""event"":""blur"",""trial"":454,""time"":3076121},{""event"":""focus"",""trial"":454,""time"":3086154},{""event"":""blur"",""trial"":467,""time"":3138802},{""event"":""focus"",""trial"":467,""time"":3143798}]","8843","./assets/audio/audiotest/turtle.mp3","4","audio_test","","","","","","","","","","","","","",""
"audio-button-response","4","61538","0.0-3.0-0.1-0.1","spark_pilot_2","7408","1","17","Male","","","","","","","8240","./assets/audio/audiotest/turtle.mp3","4","audio_test","","","","","","","","","","","","","",""
"audio-button-response","5","63658","0.0-3.0-0.2-0.2","spark_pilot_2","7408","1","17","Male","","","","","","","1120","./assets/audio/audiotest/turtle.mp3","2","audio_test","","","","","","","","","","","","","",""
"learning-instructions","6","72010","0.0-3.0-1.0-0.0","spark_pilot_2","7408","1","17","Male","","","","","","","1296","<p> Welcome! Please remember to stay in fullscreen mode and don't click away from the experiment. </p>","","instructions","","","","","","","","","","","","","",""
"learning-instructions","7","81514","0.0-3.0-1.0-0.1","spark_pilot_2","7408","1","17","Male","","","","","","","1018","<p> Today you will be playing a game to earn treasure. </p>
            <p> At the end of the experiment, you will earn a bonus based on how much treasure you find. </p>
            <img src='./assets/img/instructions/treasure.jpg' class='instructions-image'>","","instructions","","","","","","","","","","","","","",""
"learning-instructions","8","90513","0.0-3.0-1.0-0.2","spark_pilot_2","7408","1","17","Male","","","","","","","680","<p> Animals have hidden treasure in treasure chests. </p>
            <p> You need to first find an animal and then choose which of their treasure chests to search. </p>
            <img src='./assets/img/space/animals/cat.jpg' class='instructions-image'>","","instructions","","","","","","","","","","","","","",""
"learning-instructions","9","104602","0.0-3.0-1.0-0.3","spark_pilot_2","7408","1","17","Male","","","","","","","847","<p> In each round, you will search for treasure in a different place. In the real game, there will be two rounds. </p>
            <p> You will begin with a separate, practice round where you will search for treasure in outer space. </p>
            <img src='./assets/img/space/0.jpg' class='instructions-image'>","","instructions","","","","","","","","","","","","","",""
"learning-instructions","10","118801","0.0-3.0-1.0-0.4","spark_pilot_2","7408","1","17","Male","","","","","","","2697","<p> On every turn, you will see a picture of the place that you are in, but the specific image may be different each time. </p>
            <p> For example, both of these images mean you are in outer space. </p>
            <img src='./assets/img/instructions/outerspace.jpg' class='instructions-image'>","","instructions","","","","","","","","","","","","","",""
"learning-instructions","11","127513","0.0-3.0-1.0-0.5","spark_pilot_2","7408","1","17","Male","","","","","","","829","<p> You need to decide which direction to travel in. </p>
            <p> You can choose between going <b>up or down</b> by using the arrow keys. </p>
            <img src='./assets/img/instructions/updown.jpg' class='instructions-image'>","","instructions","","","","","","","","","","","","","",""
"learning-instructions","12","137209","0.0-3.0-1.0-0.6","spark_pilot_2","7408","1","17","Male","","","","","","","826","<p> You will have <b>2 seconds</b> to make your choice. </p>
            <p> If you do not make a choice within 2 seconds, you will not find an animal or earn treasure. </p>
            <img src='./assets/img/instructions/2seconds.jpg' class='instructions-image'>","","instructions","","","","","","","","","","","","","",""
"learning-instructions","13","145256","0.0-3.0-1.0-0.7","spark_pilot_2","7408","1","17","Male","","","","","","","963","<p> Let’s try practicing that now! </p>
            <p> When you see a picture of the place you are in, press the <b>up</b> key to travel up. </p>
            <img src='./assets/img/instructions/pressUp.jpg' class='instructions-image'>","","instructions","","","","","","","","","","","","","",""
"revaluation","14","149264","0.0-3.0-2.0-0.0","spark_pilot_2","7408","1","17","Male","","false","","","","","[1261]","./assets/img/space/0.jpg","[""ArrowUp""]","first stage practice","space","0","null","null","ArrowUp","false","","","","","","","",""
"html-keyboard-response","15","149766","0.0-3.0-2.0-1.0","spark_pilot_2","7408","1","17","Male","","","","","","","null","<div style=""font-size:60px;"">+</div>","null","fixation","","","","","","","","","","","","","",""
"revaluation","16","153771","0.0-3.0-2.0-0.1","spark_pilot_2","7408","1","17","Male","","false","","","","","[886]","./assets/img/space/1.jpg","[""ArrowUp""]","first stage practice","space","0","null","null","ArrowUp","false","","","","","","","",""
"html-keyboard-response","17","154273","0.0-3.0-2.0-1.1","spark_pilot_2","7408","1","17","Male","","","","","","","null","<div style=""font-size:60px;"">+</div>","null","fixation","","","","","","","","","","","","","",""
"revaluation","18","158279","0.0-3.0-2.0-0.2","spark_pilot_2","7408","1","17","Male","","false","","","","","[1468]","./assets/img/space/2.jpg","[""ArrowUp""]","first stage practice","space","0","null","null","ArrowUp","false","","","","","","","",""
"html-keyboard-response","19","158780","0.0-3.0-2.0-1.2","spark_pilot_2","7408","1","17","Male","","","","","","","null","<div style=""font-size:60px;"">+</div>","null","fixation","","","","","","","","","","","","","",""
"learning-instructions","20","164081","0.0-3.0-3.0-0.0","spark_pilot_2","7408","1","17","Male","","","","","","","537","<p> Great job! Now try pressing the <b>down</b> key to travel down. </p>
            <img src='./assets/img/instructions/pressDown.jpg' class='instructions-image'>","","instructions","","","","","","","","","","","","","",""
"revaluation","21","168085","0.0-3.0-4.0-0.0","spark_pilot_2","7408","1","17","Male","","false","","","","","[757]","./assets/img/space/3.jpg","[""ArrowDown""]","first stage practice","space","0","null","null","ArrowDown","false","","","","","","","",""
"html-keyboard-response","22","168588","0.0-3.0-4.0-1.0","spark_pilot_2","7408","1","17","Male","","","","","","","null","<div style=""font-size:60px;"">+</div>","null","fixation","","","","","","","","","","","","","",""
"revaluation","23","172593","0.0-3.0-4.0-0.1","spark_pilot_2","7408","1","17","Male","","false","","","","","[601]","./assets/img/space/4.jpg","[""ArrowDown""]","first stage practice","space","0","null","null","ArrowDown","false","","","","","","","",""
"html-keyboard-response","24","173095","0.0-3.0-4.0-1.1","spark_pilot_2","7408","1","17","Male","","","","","","","null","<div style=""font-size:60px;"">+</div>","null","fixation","","","","","","","","","","","","","",""
"revaluation","25","177100","0.0-3.0-4.0-0.2","spark_pilot_2","7408","1","17","Male","","false","","","","","[526]","./assets/img/space/5.jpg","[""ArrowDown""]","first stage practice","space","0","null","null","ArrowDown","false","","","","","","","",""
"html-keyboard-response","26","177603","0.0-3.0-4.0-1.2","spark_pilot_2","7408","1","17","Male","","","","","","","null","<div style=""font-size:60px;"">+</div>","null","fixation","","","","","","","","","","","","","",""
"learning-instructions","27","188464","0.0-3.0-5.0-0.0","spark_pilot_2","7408","1","17","Male","","","","","","","921","<p> The animals don’t move, so the animal in the upper part of a place will stay in the upper part of a place, and the animal in the lower part of a place will stay in the lower part of a place. </p>","","instructions","","","","","","","","","","","","","",""
"learning-instructions","28","198761","0.0-3.0-5.0-0.1","spark_pilot_2","7408","1","17","Male","","","","","","","1097","<p> Each animal has two treasure chests for you to choose from. </p>
            <p> The amount of treasure in each chest can range from <b> 0 to 40 pieces.</b></p>","","instructions","","","","","","","","","","","","","",""
"learning-instructions","29","210784","0.0-3.0-5.0-0.2","spark_pilot_2","7408","1","17","Male","","","","","","","760","<p> You should decide which chest to search for treasure by using the <b>left</b> and <b>right</b> arrow keys. </p>
            <p><b> Pay attention to which animal is on the screen, as the animals have different treasure chests. </b></p>
            <img src='./assets/img/instructions/leftright.jpg' class='instructions-image'>","","instructions","","","","","","","","","","","","","",""
"learning-instructions","30","217928","0.0-3.0-5.0-0.3","spark_pilot_2","7408","1","17","Male","","","","","","","735","<p> Let’s try practicing that now. </p>
            <p> When you see an animal, choose which chest to search for treasure. </p>
            <img src='./assets/img/instructions/chooseChest.jpg' class='instructions-image'>","","instructions","","","","","","","","","","","","","",""
"revaluation","31","221933","0.0-3.0-6.0-0.0","spark_pilot_2","7408","1","17","Male","","false","","","","","[1357]","./assets/img/space/animals/rabbit.jpg","[""ArrowLeft""]","second stage practice","space","15","{""ArrowUp,ArrowLeft"":3,""ArrowUp,ArrowRight"":36,""ArrowDown,ArrowLeft"":15,""ArrowDown,ArrowRight"":23}","false","ArrowDown,ArrowLeft","","","","","","","","",""
"html-keyboard-response","32","222433","0.0-3.0-6.0-1.0","spark_pilot_2","7408","1","17","Male","","","","","","","null","<div style=""font-size:60px;"">+</div>","null","fixation","","","","","","","","","","","","","",""
"revaluation","33","226439","0.0-3.0-6.0-0.1","spark_pilot_2","7408","1","17","Male","","false","","","","","[939]","./assets/img/space/animals/cat.jpg","[""ArrowRight""]","second stage practice","space","36","{""ArrowUp,ArrowLeft"":3,""ArrowUp,ArrowRight"":36,""ArrowDown,ArrowLeft"":15,""ArrowDown,ArrowRight"":23}","true","ArrowUp,ArrowRight","","","","","","","","",""
"html-keyboard-response","34","226941","0.0-3.0-6.0-1.1","spark_pilot_2","7408","1","17","Male","","","","","","","null","<div style=""font-size:60px;"">+</div>","null","fixation","","","","","","","","","","","","","",""
"revaluation","35","230945","0.0-3.0-6.0-0.2","spark_pilot_2","7408","1","17","Male","","false","","","","","[720]","./assets/img/space/animals/cat.jpg","[""ArrowRight""]","second stage practice","space","36","{""ArrowUp,ArrowLeft"":3,""ArrowUp,ArrowRight"":36,""ArrowDown,ArrowLeft"":15,""ArrowDown,ArrowRight"":23}","true","ArrowUp,ArrowRight","","","","","","","","",""
"html-keyboard-response","36","231446","0.0-3.0-6.0-1.2","spark_pilot_2","7408","1","17","Male","","","","","","","null","<div style=""font-size:60px;"">+</div>","null","fixation","","","","","","","","","","","","","",""
"revaluation","37","235452","0.0-3.0-6.0-0.3","spark_pilot_2","7408","1","17","Male","","false","","","","","[1351]","./assets/img/space/animals/rabbit.jpg","[""ArrowLeft""]","second stage practice","space","15","{""ArrowUp,ArrowLeft"":3,""ArrowUp,ArrowRight"":36,""ArrowDown,ArrowLeft"":15,""ArrowDown,ArrowRight"":23}","false","ArrowDown,ArrowLeft","","","","","","","","",""
"html-keyboard-response","38","235954","0.0-3.0-6.0-1.3","spark_pilot_2","7408","1","17","Male","","","","","","","null","<div style=""font-size:60px;"">+</div>","null","fixation","","","","","","","","","","","","","",""
"learning-instructions","39","253992","0.0-3.0-7.0-0.0","spark_pilot_2","7408","1","17","Male","","","","","","","1101","<p> Great job. Now let’s try putting it together. </p>
            <p> On each turn, you will first see a picture to remind you of the place you are in, and you need to choose whether to go up or down. </p>
            <p> Then you will see an animal and choose which of its chests to search for treasure. </p>","","instructions","","","","","","","","","","","","","",""
"learning-instructions","40","263112","0.0-3.0-7.0-0.1","spark_pilot_2","7408","1","17","Male","","","","","","","800","<p> When you choose whether to go up or down, try to go to the animal with the chest with the most treasure. </p>
            <p> Try practicing that now! </p>","","instructions","","","","","","","","","","","","","",""
"revaluation","41","269115","0.0-3.0-8.0-0.0","spark_pilot_2","7408","1","17","Male","","false","","","","","[757,606]","./assets/img/space/6.jpg","[""ArrowUp"",""ArrowRight""]","full practice","space","36","{""ArrowUp,ArrowLeft"":3,""ArrowUp,ArrowRight"":36,""ArrowDown,ArrowLeft"":15,""ArrowDown,ArrowRight"":23}","true","ArrowUp,ArrowRight","false","","","","","","","",""
"html-keyboard-response","42","269617","0.0-3.0-8.0-1.0","spark_pilot_2","7408","1","17","Male","","","","","","","null","<div style=""font-size:60px;"">+</div>","null","fixation","","","","","","","","","","","","","",""
"revaluation","43","275623","0.0-3.0-8.0-0.1","spark_pilot_2","7408","1","17","Male","","false","","","","","[803,995]","./assets/img/space/7.jpg","[""ArrowDown"",""ArrowLeft""]","full practice","space","15","{""ArrowUp,ArrowLeft"":3,""ArrowUp,ArrowRight"":36,""ArrowDown,ArrowLeft"":15,""ArrowDown,ArrowRight"":23}","false","ArrowDown,ArrowLeft","false","","","","","","","",""
"html-keyboard-response","44","276125","0.0-3.0-8.0-1.1","spark_pilot_2","7408","1","17","Male","","","","","","","null","<div style=""font-size:60px;"">+</div>","null","fixation","","","","","","","","","","","","","",""
"revaluation","45","282132","0.0-3.0-8.0-0.2","spark_pilot_2","7408","1","17","Male","","false","","","","","[656,1071]","./assets/img/space/8.jpg","[""ArrowDown"",""ArrowRight""]","full practice","space","23","{""ArrowUp,ArrowLeft"":3,""ArrowUp,ArrowRight"":36,""ArrowDown,ArrowLeft"":15,""ArrowDown,ArrowRight"":23}","false","ArrowDown,ArrowRight","false","","","","","","","",""
"html-keyboard-response","46","282633","0.0-3.0-8.0-1.2","spark_pilot_2","7408","1","17","Male","","","","","","","null","<div style=""font-size:60px;"">+</div>","null","fixation","","","","","","","","","","","","","",""
"revaluation","47","288638","0.0-3.0-8.0-0.3","spark_pilot_2","7408","1","17","Male","","false","","","","","[739,539]","./assets/img/space/9.jpg","[""ArrowUp"",""ArrowRight""]","full practice","space","36","{""ArrowUp,ArrowLeft"":3,""ArrowUp,ArrowRight"":36,""ArrowDown,ArrowLeft"":15,""ArrowDown,ArrowRight"":23}","true","ArrowUp,ArrowRight","false","","","","","","","",""
"html-keyboard-response","48","289140","0.0-3.0-8.0-1.3","spark_pilot_2","7408","1","17","Male","","","","","","","null","<div style=""font-size:60px;"">+</div>","null","fixation","","","","","","","","","","","","","",""
"revaluation","49","295146","0.0-3.0-8.0-0.4","spark_pilot_2","7408","1","17","Male","","false","","","","","[545,864]","./assets/img/space/10.jpg","[""ArrowUp"",""ArrowRight""]","full practice","space","36","{""ArrowUp,ArrowLeft"":3,""ArrowUp,ArrowRight"":36,""ArrowDown,ArrowLeft"":15,""ArrowDown,ArrowRight"":23}","true","ArrowUp,ArrowRight","false","","","","","","","",""
"html-keyboard-response","50","295647","0.0-3.0-8.0-1.4","spark_pilot_2","7408","1","17","Male","","","","","","","null","<div style=""font-size:60px;"">+</div>","null","fixation","","","","","","","","","","","","","",""
"learning-instructions","51","306791","0.0-3.0-9.0-0.0","spark_pilot_2","7408","1","17","Male","","","","","","","749","<p> One last thing: sometimes, you will see a robber. The robber can be anywhere in the picture. </p>
            <p> If you do not stop them, you will lose treasure. </p>
            <img src='./assets/img/instructions/robber.jpg' class='instructions-image'>","","instructions","","","","","","","","","","","","","",""
"learning-instructions","52","314535","0.0-3.0-9.0-0.1","spark_pilot_2","7408","1","17","Male","","","","","","","473","<p> If you see the robber, you should <b>press the space bar</b> rather than using the arrow keys. </p>
            <p> Try practicing that now! </p>","","instructions","","","","","","","","","","","","","",""
"revaluation","53","318539","0.0-3.0-10.0-0.0","spark_pilot_2","7408","1","17","Male","","false","","","","","[990]","./assets/img/space/catch/0.jpg","[""spaceBar""]","catch practice","space","0","{""ArrowUp,ArrowLeft"":3,""ArrowUp,ArrowRight"":36,""ArrowDown,ArrowLeft"":15,""ArrowDown,ArrowRight"":23}","true","spaceBar","true","","","","","","","",""
"html-keyboard-response","54","319041","0.0-3.0-10.0-1.0","spark_pilot_2","7408","1","17","Male","","","","","","","null","<div style=""font-size:60px;"">+</div>","null","fixation","","","","","","","","","","","","","",""
"revaluation","55","323046","0.0-3.0-10.0-0.1","spark_pilot_2","7408","1","17","Male","","false","","","","","[618]","./assets/img/space/catch/1.jpg","[""spaceBar""]","catch practice","space","0","{""ArrowUp,ArrowLeft"":3,""ArrowUp,ArrowRight"":36,""ArrowDown,ArrowLeft"":15,""ArrowDown,ArrowRight"":23}","true","spaceBar","true","","","","","","","",""
"html-keyboard-response","56","323547","0.0-3.0-10.0-1.1","spark_pilot_2","7408","1","17","Male","","","","","","","null","<div style=""font-size:60px;"">+</div>","null","fixation","","","","","","","","","","","","","",""
"revaluation","57","327552","0.0-3.0-10.0-0.2","spark_pilot_2","7408","1","17","Male","","false","","","","","[506]","./assets/img/space/catch/2.jpg","[""spaceBar""]","catch practice","space","0","{""ArrowUp,ArrowLeft"":3,""ArrowUp,ArrowRight"":36,""ArrowDown,ArrowLeft"":15,""ArrowDown,ArrowRight"":23}","true","spaceBar","true","","","","","","","",""
"html-keyboard-response","58","328052","0.0-3.0-10.0-1.2","spark_pilot_2","7408","1","17","Male","","","","","","","null","<div style=""font-size:60px;"">+</div>","null","fixation","","","","","","","","","","","","","",""
"learning-instructions","59","342496","0.0-3.0-11.0-0.0","spark_pilot_2","7408","1","17","Male","","","","","","","743","<p> After you explore a place to find treasure, it will be time to play a different game. </p>
            <p> During this game, red dots will appear on the screen and fall down slowly. </p>
            <p><b> You must click on them before they reach the bottom. </b></p>
            <img src='./assets/img/instructions/dotGame.jpg' class='instructions-image'>","","instructions","","","","","","","","","","","","","",""
"learning-instructions","60","349008","0.0-3.0-11.0-0.1","spark_pilot_2","7408","1","17","Male","","","","","","","795","<p> For every dot you click, you will earn additional treasure. </p>
            <p> Let’s try practicing that now. </p>","","instructions","","","","","","","","","","","","","",""
"revaluation","61","364008","0.0-3.0-12.0-0.0","spark_pilot_2","7408","1","17","Male","","","","","","","[67,59]","","","rest practice","","20","","","","","0","15000","","","","","",""
"learning-instructions","62","370639","0.0-3.0-13.0-0.0-0.0","spark_pilot_2","7408","1","17","Male","","","","","","","1327","<p> Now, you will practice a shortened version of the game to get a sense of how it all fits together. </p>","","instructions","","","","","","","","","","","","","",""
"learning-instructions","63","374511","0.0-3.0-13.0-0.0-0.1","spark_pilot_2","7408","1","17","Male","","","","","","","659","<p>This time you are searching for treasure in outer space.</p>","","instructions","","","","","","","","","","","","","",""
"learning-instructions","64","390078","0.0-3.0-13.0-1.0-0.0","spark_pilot_2","7408","1","17","Male","","","","","","","708","<p> Remember, when you see a picture of the place, use the up and down keys to <b>find an animal</b>.</p>
            <p> When you encounter an animal, you should use the left and right keys to <b>select a treasure chest</b>.</p>
            <p> Don't forget to look out for the robber! </p>","","instructions","","","","","","","","","","","","","",""
"revaluation","65","396084","0.0-3.0-13.0-2.0-0.0","spark_pilot_2","7408","1","17","Male","","false","","","","","[1094,629]","./assets/img/space/11.jpg","[""ArrowUp"",""ArrowRight""]","practice block","space","36","{""ArrowUp,ArrowLeft"":3,""ArrowUp,ArrowRight"":36,""ArrowDown,ArrowLeft"":15,""ArrowDown,ArrowRight"":23}","true","ArrowUp,ArrowRight","false","","","","","","","",""
"html-keyboard-response","66","396585","0.0-3.0-13.0-2.0-1.0","spark_pilot_2","7408","1","17","Male","","","","","","","null","<div style=""font-size:60px;"">+</div>","null","fixation","","","","","","","","","","","","","",""
"revaluation","67","402592","0.0-3.0-13.0-2.0-0.1","spark_pilot_2","7408","1","17","Male","","false","","","","","[858,521]","./assets/img/space/12.jpg","[""ArrowUp"",""ArrowRight""]","practice block","space","36","{""ArrowUp,ArrowLeft"":3,""ArrowUp,ArrowRight"":36,""ArrowDown,ArrowLeft"":15,""ArrowDown,ArrowRight"":23}","true","ArrowUp,ArrowRight","false","","","","","","","",""
"html-keyboard-response","68","403093","0.0-3.0-13.0-2.0-1.1","spark_pilot_2","7408","1","17","Male","","","","","","","null","<div style=""font-size:60px;"">+</div>","null","fixation","","","","","","","","","","","","","",""
"revaluation","69","409098","0.0-3.0-13.0-2.0-0.2","spark_pilot_2","7408","1","17","Male","","false","","","","","[462,454]","./assets/img/space/13.jpg","[""ArrowUp"",""ArrowRight""]","practice block","space","36","{""ArrowUp,ArrowLeft"":3,""ArrowUp,ArrowRight"":36,""ArrowDown,ArrowLeft"":15,""ArrowDown,ArrowRight"":23}","true","ArrowUp,ArrowRight","false","","","","","","","",""
"html-keyboard-response","70","409599","0.0-3.0-13.0-2.0-1.2","spark_pilot_2","7408","1","17","Male","","","","","","","null","<div style=""font-size:60px;"">+</div>","null","fixation","","","","","","","","","","","","","",""
"revaluation","71","415603","0.0-3.0-13.0-2.0-0.3","spark_pilot_2","7408","1","17","Male","","false","","","","","[517,461]","./assets/img/space/14.jpg","[""ArrowUp"",""ArrowRight""]","practice block","space","36","{""ArrowUp,ArrowLeft"":3,""ArrowUp,ArrowRight"":36,""ArrowDown,ArrowLeft"":15,""ArrowDown,ArrowRight"":23}","true","ArrowUp,ArrowRight","false","","","","","","","",""
"html-keyboard-response","72","416105","0.0-3.0-13.0-2.0-1.3","spark_pilot_2","7408","1","17","Male","","","","","","","null","<div style=""font-size:60px;"">+</div>","null","fixation","","","","","","","","","","","","","",""
"revaluation","73","422110","0.0-3.0-13.0-2.0-0.4","spark_pilot_2","7408","1","17","Male","","false","","","","","[747,650]","./assets/img/space/11.jpg","[""ArrowUp"",""ArrowRight""]","practice block","space","36","{""ArrowUp,ArrowLeft"":3,""ArrowUp,ArrowRight"":36,""ArrowDown,ArrowLeft"":15,""ArrowDown,ArrowRight"":23}","true","ArrowUp,ArrowRight","false","","","","","","","",""
"html-keyboard-response","74","422611","0.0-3.0-13.0-2.0-1.4","spark_pilot_2","7408","1","17","Male","","","","","","","null","<div style=""font-size:60px;"">+</div>","null","fixation","","","","","","","","","","","","","",""
"revaluation","75","428617","0.0-3.0-13.0-2.0-0.5","spark_pilot_2","7408","1","17","Male","","false","","","","","[648,543]","./assets/img/space/12.jpg","[""ArrowUp"",""ArrowRight""]","practice block","space","36","{""ArrowUp,ArrowLeft"":3,""ArrowUp,ArrowRight"":36,""ArrowDown,ArrowLeft"":15,""ArrowDown,ArrowRight"":23}","true","ArrowUp,ArrowRight","false","","","","","","","",""
"html-keyboard-response","76","429119","0.0-3.0-13.0-2.0-1.5","spark_pilot_2","7408","1","17","Male","","","","","","","null","<div style=""font-size:60px;"">+</div>","null","fixation","","","","","","","","","","","","","",""
"revaluation","77","435125","0.0-3.0-13.0-2.0-0.6","spark_pilot_2","7408","1","17","Male","","false","","","","","[469,586]","./assets/img/space/13.jpg","[""ArrowUp"",""ArrowRight""]","practice block","space","36","{""ArrowUp,ArrowLeft"":3,""ArrowUp,ArrowRight"":36,""ArrowDown,ArrowLeft"":15,""ArrowDown,ArrowRight"":23}","true","ArrowUp,ArrowRight","false","","","","","","","",""
"html-keyboard-response","78","435627","0.0-3.0-13.0-2.0-1.6","spark_pilot_2","7408","1","17","Male","","","","","","","null","<div style=""font-size:60px;"">+</div>","null","fixation","","","","","","","","","","","","","",""
"revaluation","79","441632","0.0-3.0-13.0-2.0-0.7","spark_pilot_2","7408","1","17","Male","","false","","","","","[519,462]","./assets/img/space/14.jpg","[""ArrowUp"",""ArrowRight""]","practice block","space","36","{""ArrowUp,ArrowLeft"":3,""ArrowUp,ArrowRight"":36,""ArrowDown,ArrowLeft"":15,""ArrowDown,ArrowRight"":23}","true","ArrowUp,ArrowRight","false","","","","","","","",""
"html-keyboard-response","80","442133","0.0-3.0-13.0-2.0-1.7","spark_pilot_2","7408","1","17","Male","","","","","","","null","<div style=""font-size:60px;"">+</div>","null","fixation","","","","","","","","","","","","","",""
"revaluation","81","446138","0.0-3.0-13.0-2.0-0.8","spark_pilot_2","7408","1","17","Male","","false","","","","","[574]","./assets/img/space/catch/3.jpg","[""ArrowUp""]","practice block","space","-10","{""ArrowUp,ArrowLeft"":3,""ArrowUp,ArrowRight"":36,""ArrowDown,ArrowLeft"":15,""ArrowDown,ArrowRight"":23}","false","ArrowUp","true","","","","","","","",""
"html-keyboard-response","82","446640","0.0-3.0-13.0-2.0-1.8","spark_pilot_2","7408","1","17","Male","","","","","","","null","<div style=""font-size:60px;"">+</div>","null","fixation","","","","","","","","","","","","","",""
"learning-instructions","83","461534","0.0-3.0-13.0-3.0-0.0","spark_pilot_2","7408","1","17","Male","","","","","","","1893","<p> Now, you will travel with a friend who will choose whether you go up or down first. </p>
            <p> On these turns, you will just see the animal that they found. You will still get to choose which chest to search for treasure.</p>","","instructions","","","","","","","","","","","","","",""
"revaluation","84","465539","0.0-3.0-13.0-4.0-0.0","spark_pilot_2","7408","1","17","Male","","false","","","","","[1293]","./assets/img/space/animals/rabbit.jpg","[""ArrowRight""]","practice block","space","23","{""ArrowUp,ArrowLeft"":3,""ArrowUp,ArrowRight"":36,""ArrowDown,ArrowLeft"":15,""ArrowDown,ArrowRight"":23}","true","ArrowDown,ArrowRight","","","","","","","","",""
"html-keyboard-response","85","466041","0.0-3.0-13.0-4.0-1.0","spark_pilot_2","7408","1","17","Male","","","","","","","null","<div style=""font-size:60px;"">+</div>","null","fixation","","","","","","","","","","","","","",""
"revaluation","86","470046","0.0-3.0-13.0-4.0-0.1","spark_pilot_2","7408","1","17","Male","","false","","","","","[618]","./assets/img/space/animals/cat.jpg","[""ArrowRight""]","practice block","space","36","{""ArrowUp,ArrowLeft"":3,""ArrowUp,ArrowRight"":36,""ArrowDown,ArrowLeft"":15,""ArrowDown,ArrowRight"":23}","true","ArrowUp,ArrowRight","","","","","","","","",""
"html-keyboard-response","87","470549","0.0-3.0-13.0-4.0-1.1","spark_pilot_2","7408","1","17","Male","","","","","","","null","<div style=""font-size:60px;"">+</div>","null","fixation","","","","","","","","","","","","","",""
"revaluation","88","474553","0.0-3.0-13.0-4.0-0.2","spark_pilot_2","7408","1","17","Male","","false","","","","","[559]","./assets/img/space/animals/cat.jpg","[""ArrowRight""]","practice block","space","36","{""ArrowUp,ArrowLeft"":3,""ArrowUp,ArrowRight"":36,""ArrowDown,ArrowLeft"":15,""ArrowDown,ArrowRight"":23}","true","ArrowUp,ArrowRight","","","","","","","","",""
"html-keyboard-response","89","475055","0.0-3.0-13.0-4.0-1.2","spark_pilot_2","7408","1","17","Male","","","","","","","null","<div style=""font-size:60px;"">+</div>","null","fixation","","","","","","","","","","","","","",""
"revaluation","90","479059","0.0-3.0-13.0-4.0-0.3","spark_pilot_2","7408","1","17","Male","","false","","","","","[516]","./assets/img/space/animals/rabbit.jpg","[""ArrowRight""]","practice block","space","23","{""ArrowUp,ArrowLeft"":3,""ArrowUp,ArrowRight"":36,""ArrowDown,ArrowLeft"":15,""ArrowDown,ArrowRight"":23}","true","ArrowDown,ArrowRight","","","","","","","","",""
"html-keyboard-response","91","479560","0.0-3.0-13.0-4.0-1.3","spark_pilot_2","7408","1","17","Male","","","","","","","null","<div style=""font-size:60px;"">+</div>","null","fixation","","","","","","","","","","","","","",""
"learning-instructions","92","488134","0.0-3.0-13.0-5.0-0.0","spark_pilot_2","7408","1","17","Male","","","","","","","1124","<p> Time to play the dot game! </p>
            <p> For 15 seconds, click the red dots on the following screen as they appear. </p>","","instructions","","","","","","","","","","","","","",""
"revaluation","93","503136","0.0-3.0-13.0-6.0-0.0","spark_pilot_2","7408","1","17","Male","","","","","","","[76,56]","","","rest practice","","20","","","","","0","15000","","","","","",""
"learning-instructions","94","510470","0.0-3.0-13.0-7.0-0.0","spark_pilot_2","7408","1","17","Male","","","","","","","1140","<p> You have almost finished this part of the game! </p>
            <p> We are going to ask you to make a few more choices. </p>","","instructions","","","","","","","","","","","","","",""
"learning-instructions","95","525350","0.0-3.0-13.0-7.0-0.1","spark_pilot_2","7408","1","17","Male","","","","","","","780","<p> First, you need to decide whether to go up or down. When you see each picture, use the arrow keys to make your choice. </p>
            <p><b>You will not see which animal you found, but try to get to the one that will give you the most treasure.</b></p>","","instructions","","","","","","","","","","","","","",""
"revaluation","96","526646","0.0-3.0-13.0-8.0","spark_pilot_2","7408","1","17","Male","","false","","","","","[1292]","./assets/img/space/15.jpg","[""ArrowUp""]","practice block","space","0","{""ArrowUp,ArrowLeft"":3,""ArrowUp,ArrowRight"":36,""ArrowDown,ArrowLeft"":15,""ArrowDown,ArrowRight"":23}","true","ArrowUp","false","","","","","","","",""
"html-keyboard-response","97","527148","0.0-3.0-13.0-9.0","spark_pilot_2","7408","1","17","Male","","","","","","","null","<div style=""font-size:60px;"">+</div>","null","fixation","","","","","","","","","","","","","",""
"learning-instructions","98","539502","0.0-3.0-13.0-10.0-0.0","spark_pilot_2","7408","1","17","Male","","","","","","","882","<p> Now you will see the animals again and can search their chests for treasure. </p>
            <p> This time, you will not see how much treasure you earned, but you will earn more bonus money for making better choices. </p>","","instructions","","","","","","","","","","","","","",""
"revaluation","99","540086","0.0-3.0-13.0-11.0-0.0","spark_pilot_2","7408","1","17","Male","","false","","","","","[580]","./assets/img/space/animals/cat.jpg","[""ArrowRight""]","practice block","space","0","{""ArrowUp,ArrowLeft"":3,""ArrowUp,ArrowRight"":36,""ArrowDown,ArrowLeft"":15,""ArrowDown,ArrowRight"":23}","true","ArrowUp,ArrowRight","","","","","","","","",""
"html-keyboard-response","100","540587","0.0-3.0-13.0-11.0-1.0","spark_pilot_2","7408","1","17","Male","","","","","","","null","<div style=""font-size:60px;"">+</div>","null","fixation","","","","","","","","","","","","","",""
"revaluation","101","541246","0.0-3.0-13.0-11.0-0.1","spark_pilot_2","7408","1","17","Male","","false","","","","","[654]","./assets/img/space/animals/rabbit.jpg","[""ArrowRight""]","practice block","space","0","{""ArrowUp,ArrowLeft"":3,""ArrowUp,ArrowRight"":36,""ArrowDown,ArrowLeft"":15,""ArrowDown,ArrowRight"":23}","true","ArrowDown,ArrowRight","","","","","","","","",""
"html-keyboard-response","102","541747","0.0-3.0-13.0-11.0-1.1","spark_pilot_2","7408","1","17","Male","","","","","","","null","<div style=""font-size:60px;"">+</div>","null","fixation","","","","","","","","","","","","","",""
"learning-instructions","103","547589","0.0-3.0-14.0-0.0","spark_pilot_2","7408","1","17","Male","","","","","","","1199","<p> Before you start, we're going to ask you a few questions about how the game works. </p>","","instructions","","","","","","","","","","","","","",""
"comp-q","104","554574","0.0-3.0-15.0-0.0-0.0","spark_pilot_2","7408","1","17","Male","","","","","","","1364","<p> <b> True or False? </b> </p>
            <p> There can be 50 pieces of treasure in a given animal's chest. </p>","1","comp_question","","","","true","","","","","","","","","",""
"comp-q","105","562702","0.0-3.0-15.0-0.0-1.0","spark_pilot_2","7408","1","17","Male","","","","","","","1432","<p> <b> That's right! </b> The amount of treasure in each chest can range from 0 to 40 pieces. </p>","0","comp_answer","","","","","","","","","","","","","",""
"comp-q","106","570453","0.0-3.0-15.0-0.1-0.1","spark_pilot_2","7408","1","17","Male","","","","","","","583","<p> <b> True or False? </b> </p><p> In this game, all animals have the same amount of treasure in their left and right chests. </p>","1","comp_question","","","","true","","","","","","","","","",""
"comp-q","107","576654","0.0-3.0-15.0-0.1-1.1","spark_pilot_2","7408","1","17","Male","","","","","","","924","<p> <b> That's right! </b> Animals have different amounts of treasure in their treasure chests. </p>","0","comp_answer","","","","","","","","","","","","","",""
"comp-q","108","583461","0.0-3.0-15.0-0.2-0.2","spark_pilot_2","7408","1","17","Male","","","","","","","921","<p> <b> True or False? </b> </p><p> The same animal will always be there if you go up in the same place. </p>","0","comp_question","","","","true","","","","","","","","","",""
"comp-q","109","590965","0.0-3.0-15.0-0.2-1.2","spark_pilot_2","7408","1","17","Male","","","","","","","1016","<p> <b> That's right! </b> One animal lives in the upper part and one lives in the lower part of every place. </p>","0","comp_answer","","","","","","","","","","","","","",""
"comp-q","110","597141","0.0-3.0-15.0-0.3-0.3","spark_pilot_2","7408","1","17","Male","","","","","","","601","<p> <b> True or False? </b> </p><p> If you see a different picture, it means you are in a new place. </p>","1","comp_question","","","","true","","","","","","","","","",""
"comp-q","111","609765","0.0-3.0-15.0-0.3-1.3","spark_pilot_2","7408","1","17","Male","","","","","","","1315","<p> <b> That's right! </b> Lots of different images may show the same place. For example,  you may see three different images that all remind you that you are in outer space. </p>","0","comp_answer","","","","","","","","","","","","","",""
"learning-instructions","112","620661","0.0-3.0-16.0-0.0","spark_pilot_2","7408","1","17","Male","","","","","","","923","<p> Good job. Remember to do your best because the amount of treasure you earn will be converted into bonus money. </p>
            <p> It’s time to start the real game! </p>","","instructions","","","","","","","","","","","","","",""
"learning-instructions","113","624149","0.0-4.0-0.0-0.0","spark_pilot_2","7408","1","17","Male","","","","","","","759","<p> This time you are searching for treasure in the <b>ocean</b>.</p>","","instructions","","","","","","","","","","","","","",""
"learning-instructions","114","642516","0.0-4.0-0.0-0.1","spark_pilot_2","7408","1","17","Male","","","","","","","969","<p><b>New</b> animals with <b>new</b> treasure chests live here. You need to explore to discover where the animal with the best treasure chest is.</p>
                    <p> Like before, once you figure out which animal has the chest with the most treasure, you should try to get to that animal and select that chest! </p>","","instructions","","","","","","","","","","","","","",""
"learning-instructions","115","658437","0.0-4.0-1.0-0.0","spark_pilot_2","7408","1","17","Male","","","","","","","1187","<p> Remember, when you see a picture of the place, use the up and down keys to <b>find an animal</b>.</p>
            <p> When you encounter an animal, you should use the left and right keys to <b>select a treasure chest</b>.</p>
            <p> Don't forget to look out for the robber! </p>","","instructions","","","","","","","","","","","","","",""
"revaluation","116","664442","0.0-4.0-2.0-0.0","spark_pilot_2","7408","1","17","Male","","false","","","","","[925,717]","./assets/img/ocean/memory/24.jpg","[""ArrowUp"",""ArrowRight""]","value training","ocean","10","{""ArrowUp,ArrowLeft"":26,""ArrowUp,ArrowRight"":10,""ArrowDown,ArrowLeft"":5,""ArrowDown,ArrowRight"":17}","false","ArrowUp,ArrowRight","false","","","original","1","0","","",""
"html-keyboard-response","117","664942","0.0-4.0-2.0-1.0","spark_pilot_2","7408","1","17","Male","","","","","","","null","<div style=""font-size:60px;"">+</div>","null","fixation","","","","","","","","","","","1","","",""
"revaluation","118","670949","0.0-4.0-2.0-0.1","spark_pilot_2","7408","1","17","Male","","false","","","","","[547,633]","./assets/img/ocean/memory/32.jpg","[""ArrowUp"",""ArrowLeft""]","value training","ocean","26","{""ArrowUp,ArrowLeft"":26,""ArrowUp,ArrowRight"":10,""ArrowDown,ArrowLeft"":5,""ArrowDown,ArrowRight"":17}","true","ArrowUp,ArrowLeft","false","","","original","1","2","","",""
"html-keyboard-response","119","671449","0.0-4.0-2.0-1.1","spark_pilot_2","7408","1","17","Male","","","","","","","null","<div style=""font-size:60px;"">+</div>","null","fixation","","","","","","","","","","","3","","",""
"revaluation","120","677455","0.0-4.0-2.0-0.2","spark_pilot_2","7408","1","17","Male","","false","","","","","[687,727]","./assets/img/ocean/memory/39.jpg","[""ArrowUp"",""ArrowLeft""]","value training","ocean","26","{""ArrowUp,ArrowLeft"":26,""ArrowUp,ArrowRight"":10,""ArrowDown,ArrowLeft"":5,""ArrowDown,ArrowRight"":17}","true","ArrowUp,ArrowLeft","false","","","original","1","4","","",""
"html-keyboard-response","121","677958","0.0-4.0-2.0-1.2","spark_pilot_2","7408","1","17","Male","","","","","","","null","<div style=""font-size:60px;"">+</div>","null","fixation","","","","","","","","","","","5","","",""
"revaluation","122","681963","0.0-4.0-2.0-0.3","spark_pilot_2","7408","1","17","Male","","false","","","","","[994]","./assets/img/ocean/catch/4.jpg","[""spaceBar""]","value training","ocean","0","{""ArrowUp,ArrowLeft"":26,""ArrowUp,ArrowRight"":10,""ArrowDown,ArrowLeft"":5,""ArrowDown,ArrowRight"":17}","true","spaceBar","true","","","original","1","6","","",""
"html-keyboard-response","123","682465","0.0-4.0-2.0-1.3","spark_pilot_2","7408","1","17","Male","","","","","","","null","<div style=""font-size:60px;"">+</div>","null","fixation","","","","","","","","","","","7","","",""
"revaluation","124","688470","0.0-4.0-2.0-0.4","spark_pilot_2","7408","1","17","Male","","false","","","","","[697,887]","./assets/img/ocean/memory/35.jpg","[""ArrowUp"",""ArrowLeft""]","value training","ocean","26","{""ArrowUp,ArrowLeft"":26,""ArrowUp,ArrowRight"":10,""ArrowDown,ArrowLeft"":5,""ArrowDown,ArrowRight"":17}","true","ArrowUp,ArrowLeft","false","","","original","1","8","","",""
"html-keyboard-response","125","688972","0.0-4.0-2.0-1.4","spark_pilot_2","7408","1","17","Male","","","","","","","null","<div style=""font-size:60px;"">+</div>","null","fixation","","","","","","","","","","","9","","",""
"revaluation","126","694980","0.0-4.0-2.0-0.5","spark_pilot_2","7408","1","17","Male","","false","","","","","[461,723]","./assets/img/ocean/memory/0.jpg","[""ArrowDown"",""ArrowRight""]","value training","ocean","17","{""ArrowUp,ArrowLeft"":26,""ArrowUp,ArrowRight"":10,""ArrowDown,ArrowLeft"":5,""ArrowDown,ArrowRight"":17}","false","ArrowDown,ArrowRight","false","","","original","1","10","","",""
"html-keyboard-response","127","695480","0.0-4.0-2.0-1.5","spark_pilot_2","7408","1","17","Male","","","","","","","null","<div style=""font-size:60px;"">+</div>","null","fixation","","","","","","","","","","","11","","",""
"revaluation","128","701486","0.0-4.0-2.0-0.6","spark_pilot_2","7408","1","17","Male","","false","","","","","[704,487]","./assets/img/ocean/memory/6.jpg","[""ArrowDown"",""ArrowLeft""]","value training","ocean","5","{""ArrowUp,ArrowLeft"":26,""ArrowUp,ArrowRight"":10,""ArrowDown,ArrowLeft"":5,""ArrowDown,ArrowRight"":17}","false","ArrowDown,ArrowLeft","false","","","original","1","12","","",""
"html-keyboard-response","129","701986","0.0-4.0-2.0-1.6","spark_pilot_2","7408","1","17","Male","","","","","","","null","<div style=""font-size:60px;"">+</div>","null","fixation","","","","","","","","","","","13","","",""
"revaluation","130","707990","0.0-4.0-2.0-0.7","spark_pilot_2","7408","1","17","Male","","false","","","","","[639,720]","./assets/img/ocean/memory/34.jpg","[""ArrowUp"",""ArrowLeft""]","value training","ocean","26","{""ArrowUp,ArrowLeft"":26,""ArrowUp,ArrowRight"":10,""ArrowDown,ArrowLeft"":5,""ArrowDown,ArrowRight"":17}","true","ArrowUp,ArrowLeft","false","","","original","1","14","","",""
"html-keyboard-response","131","708491","0.0-4.0-2.0-1.7","spark_pilot_2","7408","1","17","Male","","","","","","","null","<div style=""font-size:60px;"">+</div>","null","fixation","","","","","","","","","","","15","","",""
"revaluation","132","714495","0.0-4.0-2.0-0.8","spark_pilot_2","7408","1","17","Male","","false","","","","","[606,669]","./assets/img/ocean/memory/6.jpg","[""ArrowDown"",""ArrowRight""]","value training","ocean","17","{""ArrowUp,ArrowLeft"":26,""ArrowUp,ArrowRight"":10,""ArrowDown,ArrowLeft"":5,""ArrowDown,ArrowRight"":17}","false","ArrowDown,ArrowRight","false","","","original","1","16","","",""
"html-keyboard-response","133","714996","0.0-4.0-2.0-1.8","spark_pilot_2","7408","1","17","Male","","","","","","","null","<div style=""font-size:60px;"">+</div>","null","fixation","","","","","","","","","","","17","","",""
"revaluation","134","721002","0.0-4.0-2.0-0.9","spark_pilot_2","7408","1","17","Male","","false","","","","","[468,386]","./assets/img/ocean/memory/37.jpg","[""ArrowUp"",""ArrowLeft""]","value training","ocean","26","{""ArrowUp,ArrowLeft"":26,""ArrowUp,ArrowRight"":10,""ArrowDown,ArrowLeft"":5,""ArrowDown,ArrowRight"":17}","true","ArrowUp,ArrowLeft","false","","","original","1","18","","",""
"html-keyboard-response","135","721503","0.0-4.0-2.0-1.9","spark_pilot_2","7408","1","17","Male","","","","","","","null","<div style=""font-size:60px;"">+</div>","null","fixation","","","","","","","","","","","19","","",""
"revaluation","136","727509","0.0-4.0-2.0-0.10","spark_pilot_2","7408","1","17","Male","","false","","","","","[465,440]","./assets/img/ocean/memory/27.jpg","[""ArrowUp"",""ArrowLeft""]","value training","ocean","26","{""ArrowUp,ArrowLeft"":26,""ArrowUp,ArrowRight"":10,""ArrowDown,ArrowLeft"":5,""ArrowDown,ArrowRight"":17}","true","ArrowUp,ArrowLeft","false","","","original","1","20","","",""
"html-keyboard-response","137","728011","0.0-4.0-2.0-1.10","spark_pilot_2","7408","1","17","Male","","","","","","","null","<div style=""font-size:60px;"">+</div>","null","fixation","","","","","","","","","","","21","","",""
"revaluation","138","734015","0.0-4.0-2.0-0.11","spark_pilot_2","7408","1","17","Male","","false","","","","","[558,509]","./assets/img/ocean/memory/4.jpg","[""ArrowUp"",""ArrowLeft""]","value training","ocean","26","{""ArrowUp,ArrowLeft"":26,""ArrowUp,ArrowRight"":10,""ArrowDown,ArrowLeft"":5,""ArrowDown,ArrowRight"":17}","true","ArrowUp,ArrowLeft","false","","","original","1","22","","",""
"html-keyboard-response","139","734517","0.0-4.0-2.0-1.11","spark_pilot_2","7408","1","17","Male","","","","","","","null","<div style=""font-size:60px;"">+</div>","null","fixation","","","","","","","","","","","23","","",""
"revaluation","140","740523","0.0-4.0-2.0-0.12","spark_pilot_2","7408","1","17","Male","","false","","","","","[451,425]","./assets/img/ocean/memory/22.jpg","[""ArrowUp"",""ArrowLeft""]","value training","ocean","26","{""ArrowUp,ArrowLeft"":26,""ArrowUp,ArrowRight"":10,""ArrowDown,ArrowLeft"":5,""ArrowDown,ArrowRight"":17}","true","ArrowUp,ArrowLeft","false","","","original","1","24","","",""
"html-keyboard-response","141","741026","0.0-4.0-2.0-1.12","spark_pilot_2","7408","1","17","Male","","","","","","","null","<div style=""font-size:60px;"">+</div>","null","fixation","","","","","","","","","","","25","","",""
"revaluation","142","747032","0.0-4.0-2.0-0.13","spark_pilot_2","7408","1","17","Male","","false","","","","","[549,430]","./assets/img/ocean/memory/38.jpg","[""ArrowUp"",""ArrowLeft""]","value training","ocean","26","{""ArrowUp,ArrowLeft"":26,""ArrowUp,ArrowRight"":10,""ArrowDown,ArrowLeft"":5,""ArrowDown,ArrowRight"":17}","true","ArrowUp,ArrowLeft","false","","","original","1","26","","",""
"html-keyboard-response","143","747532","0.0-4.0-2.0-1.13","spark_pilot_2","7408","1","17","Male","","","","","","","null","<div style=""font-size:60px;"">+</div>","null","fixation","","","","","","","","","","","27","","",""
"revaluation","144","753539","0.0-4.0-2.0-0.14","spark_pilot_2","7408","1","17","Male","","false","","","","","[548,426]","./assets/img/ocean/memory/40.jpg","[""ArrowUp"",""ArrowLeft""]","value training","ocean","26","{""ArrowUp,ArrowLeft"":26,""ArrowUp,ArrowRight"":10,""ArrowDown,ArrowLeft"":5,""ArrowDown,ArrowRight"":17}","true","ArrowUp,ArrowLeft","false","","","original","1","28","","",""
"html-keyboard-response","145","754041","0.0-4.0-2.0-1.14","spark_pilot_2","7408","1","17","Male","","","","","","","null","<div style=""font-size:60px;"">+</div>","null","fixation","","","","","","","","","","","29","","",""
"revaluation","146","760046","0.0-4.0-2.0-0.15","spark_pilot_2","7408","1","17","Male","","false","","","","","[519,438]","./assets/img/ocean/memory/41.jpg","[""ArrowUp"",""ArrowLeft""]","value training","ocean","26","{""ArrowUp,ArrowLeft"":26,""ArrowUp,ArrowRight"":10,""ArrowDown,ArrowLeft"":5,""ArrowDown,ArrowRight"":17}","true","ArrowUp,ArrowLeft","false","","","original","1","30","","",""
"html-keyboard-response","147","760547","0.0-4.0-2.0-1.15","spark_pilot_2","7408","1","17","Male","","","","","","","null","<div style=""font-size:60px;"">+</div>","null","fixation","","","","","","","","","","","31","","",""
"revaluation","148","766552","0.0-4.0-2.0-0.16","spark_pilot_2","7408","1","17","Male","","false","","","","","[629,389]","./assets/img/ocean/memory/22.jpg","[""ArrowUp"",""ArrowLeft""]","value training","ocean","26","{""ArrowUp,ArrowLeft"":26,""ArrowUp,ArrowRight"":10,""ArrowDown,ArrowLeft"":5,""ArrowDown,ArrowRight"":17}","true","ArrowUp,ArrowLeft","false","","","original","1","32","","",""
"html-keyboard-response","149","767054","0.0-4.0-2.0-1.16","spark_pilot_2","7408","1","17","Male","","","","","","","null","<div style=""font-size:60px;"">+</div>","null","fixation","","","","","","","","","","","33","","",""
"revaluation","150","773060","0.0-4.0-2.0-0.17","spark_pilot_2","7408","1","17","Male","","false","","","","","[474,353]","./assets/img/ocean/memory/40.jpg","[""ArrowUp"",""ArrowLeft""]","value training","ocean","26","{""ArrowUp,ArrowLeft"":26,""ArrowUp,ArrowRight"":10,""ArrowDown,ArrowLeft"":5,""ArrowDown,ArrowRight"":17}","true","ArrowUp,ArrowLeft","false","","","original","1","34","","",""
"html-keyboard-response","151","773561","0.0-4.0-2.0-1.17","spark_pilot_2","7408","1","17","Male","","","","","","","null","<div style=""font-size:60px;"">+</div>","null","fixation","","","","","","","","","","","35","","",""
"revaluation","152","779566","0.0-4.0-2.0-0.18","spark_pilot_2","7408","1","17","Male","","false","","","","","[623,615]","./assets/img/ocean/memory/33.jpg","[""ArrowUp"",""ArrowLeft""]","value training","ocean","26","{""ArrowUp,ArrowLeft"":26,""ArrowUp,ArrowRight"":10,""ArrowDown,ArrowLeft"":5,""ArrowDown,ArrowRight"":17}","true","ArrowUp,ArrowLeft","false","","","original","1","36","","",""
"html-keyboard-response","153","780067","0.0-4.0-2.0-1.18","spark_pilot_2","7408","1","17","Male","","","","","","","null","<div style=""font-size:60px;"">+</div>","null","fixation","","","","","","","","","","","37","","",""
"revaluation","154","786073","0.0-4.0-2.0-0.19","spark_pilot_2","7408","1","17","Male","","false","","","","","[574,332]","./assets/img/ocean/memory/23.jpg","[""ArrowUp"",""ArrowLeft""]","value training","ocean","26","{""ArrowUp,ArrowLeft"":26,""ArrowUp,ArrowRight"":10,""ArrowDown,ArrowLeft"":5,""ArrowDown,ArrowRight"":17}","true","ArrowUp,ArrowLeft","false","","","original","1","38","","",""
"html-keyboard-response","155","786576","0.0-4.0-2.0-1.19","spark_pilot_2","7408","1","17","Male","","","","","","","null","<div style=""font-size:60px;"">+</div>","null","fixation","","","","","","","","","","","39","","",""
"revaluation","156","792580","0.0-4.0-2.0-0.20","spark_pilot_2","7408","1","17","Male","","false","","","","","[497,335]","./assets/img/ocean/memory/1.jpg","[""ArrowUp"",""ArrowLeft""]","value training","ocean","26","{""ArrowUp,ArrowLeft"":26,""ArrowUp,ArrowRight"":10,""ArrowDown,ArrowLeft"":5,""ArrowDown,ArrowRight"":17}","true","ArrowUp,ArrowLeft","false","","","original","1","40","","",""
"html-keyboard-response","157","793081","0.0-4.0-2.0-1.20","spark_pilot_2","7408","1","17","Male","","","","","","","null","<div style=""font-size:60px;"">+</div>","null","fixation","","","","","","","","","","","41","","",""
"revaluation","158","799086","0.0-4.0-2.0-0.21","spark_pilot_2","7408","1","17","Male","","false","","","","","[591,334]","./assets/img/ocean/memory/38.jpg","[""ArrowUp"",""ArrowLeft""]","value training","ocean","26","{""ArrowUp,ArrowLeft"":26,""ArrowUp,ArrowRight"":10,""ArrowDown,ArrowLeft"":5,""ArrowDown,ArrowRight"":17}","true","ArrowUp,ArrowLeft","false","","","original","1","42","","",""
"html-keyboard-response","159","799587","0.0-4.0-2.0-1.21","spark_pilot_2","7408","1","17","Male","","","","","","","null","<div style=""font-size:60px;"">+</div>","null","fixation","","","","","","","","","","","43","","",""
"revaluation","160","805593","0.0-4.0-2.0-0.22","spark_pilot_2","7408","1","17","Male","","false","","","","","[605,348]","./assets/img/ocean/memory/41.jpg","[""ArrowUp"",""ArrowLeft""]","value training","ocean","26","{""ArrowUp,ArrowLeft"":26,""ArrowUp,ArrowRight"":10,""ArrowDown,ArrowLeft"":5,""ArrowDown,ArrowRight"":17}","true","ArrowUp,ArrowLeft","false","","","original","1","44","","",""
"html-keyboard-response","161","806097","0.0-4.0-2.0-1.22","spark_pilot_2","7408","1","17","Male","","","","","","","null","<div style=""font-size:60px;"">+</div>","null","fixation","","","","","","","","","","","45","","",""
"revaluation","162","810100","0.0-4.0-2.0-0.23","spark_pilot_2","7408","1","17","Male","","false","","","","","[961]","./assets/img/ocean/catch/7.jpg","[""spaceBar""]","value training","ocean","0","{""ArrowUp,ArrowLeft"":26,""ArrowUp,ArrowRight"":10,""ArrowDown,ArrowLeft"":5,""ArrowDown,ArrowRight"":17}","true","spaceBar","true","","","original","1","46","","",""
"html-keyboard-response","163","810603","0.0-4.0-2.0-1.23","spark_pilot_2","7408","1","17","Male","","","","","","","null","<div style=""font-size:60px;"">+</div>","null","fixation","","","","","","","","","","","47","","",""
"revaluation","164","816609","0.0-4.0-2.0-0.24","spark_pilot_2","7408","1","17","Male","","false","","","","","[997,443]","./assets/img/ocean/memory/21.jpg","[""ArrowUp"",""ArrowLeft""]","value training","ocean","26","{""ArrowUp,ArrowLeft"":26,""ArrowUp,ArrowRight"":10,""ArrowDown,ArrowLeft"":5,""ArrowDown,ArrowRight"":17}","true","ArrowUp,ArrowLeft","false","","","original","1","48","","",""
"html-keyboard-response","165","817111","0.0-4.0-2.0-1.24","spark_pilot_2","7408","1","17","Male","","","","","","","null","<div style=""font-size:60px;"">+</div>","null","fixation","","","","","","","","","","","49","","",""
"revaluation","166","821115","0.0-4.0-2.0-0.25","spark_pilot_2","7408","1","17","Male","","false","","","","","[1128]","./assets/img/ocean/catch/6.jpg","[""spaceBar""]","value training","ocean","0","{""ArrowUp,ArrowLeft"":26,""ArrowUp,ArrowRight"":10,""ArrowDown,ArrowLeft"":5,""ArrowDown,ArrowRight"":17}","true","spaceBar","true","","","original","1","50","","",""
"html-keyboard-response","167","821619","0.0-4.0-2.0-1.25","spark_pilot_2","7408","1","17","Male","","","","","","","null","<div style=""font-size:60px;"">+</div>","null","fixation","","","","","","","","","","","51","","",""
"revaluation","168","825624","0.0-4.0-2.0-0.26","spark_pilot_2","7408","1","17","Male","","false","","","","","[1294]","./assets/img/ocean/catch/1.jpg","[""spaceBar""]","value training","ocean","0","{""ArrowUp,ArrowLeft"":26,""ArrowUp,ArrowRight"":10,""ArrowDown,ArrowLeft"":5,""ArrowDown,ArrowRight"":17}","true","spaceBar","true","","","original","1","52","","",""
"html-keyboard-response","169","826125","0.0-4.0-2.0-1.26","spark_pilot_2","7408","1","17","Male","","","","","","","null","<div style=""font-size:60px;"">+</div>","null","fixation","","","","","","","","","","","53","","",""
"revaluation","170","832131","0.0-4.0-2.0-0.27","spark_pilot_2","7408","1","17","Male","","false","","","","","[746,625]","./assets/img/ocean/memory/37.jpg","[""ArrowUp"",""ArrowLeft""]","value training","ocean","26","{""ArrowUp,ArrowLeft"":26,""ArrowUp,ArrowRight"":10,""ArrowDown,ArrowLeft"":5,""ArrowDown,ArrowRight"":17}","true","ArrowUp,ArrowLeft","false","","","original","1","54","","",""
"html-keyboard-response","171","832633","0.0-4.0-2.0-1.27","spark_pilot_2","7408","1","17","Male","","","","","","","null","<div style=""font-size:60px;"">+</div>","null","fixation","","","","","","","","","","","55","","",""
"revaluation","172","838639","0.0-4.0-2.0-0.28","spark_pilot_2","7408","1","17","Male","","false","","","","","[727,559]","./assets/img/ocean/memory/23.jpg","[""ArrowUp"",""ArrowLeft""]","value training","ocean","26","{""ArrowUp,ArrowLeft"":26,""ArrowUp,ArrowRight"":10,""ArrowDown,ArrowLeft"":5,""ArrowDown,ArrowRight"":17}","true","ArrowUp,ArrowLeft","false","","","original","1","56","","",""
"html-keyboard-response","173","839140","0.0-4.0-2.0-1.28","spark_pilot_2","7408","1","17","Male","","","","","","","null","<div style=""font-size:60px;"">+</div>","null","fixation","","","","","","","","","","","57","","",""
"revaluation","174","845148","0.0-4.0-2.0-0.29","spark_pilot_2","7408","1","17","Male","","false","","","","","[659,499]","./assets/img/ocean/memory/16.jpg","[""ArrowUp"",""ArrowLeft""]","value training","ocean","26","{""ArrowUp,ArrowLeft"":26,""ArrowUp,ArrowRight"":10,""ArrowDown,ArrowLeft"":5,""ArrowDown,ArrowRight"":17}","true","ArrowUp,ArrowLeft","false","","","original","1","58","","",""
"html-keyboard-response","175","845649","0.0-4.0-2.0-1.29","spark_pilot_2","7408","1","17","Male","","","","","","","null","<div style=""font-size:60px;"">+</div>","null","fixation","","","","","","","","","","","59","","",""
"revaluation","176","849653","0.0-4.0-2.0-0.30","spark_pilot_2","7408","1","17","Male","","false","","","","","[601]","./assets/img/ocean/catch/3.jpg","[""spaceBar""]","value training","ocean","0","{""ArrowUp,ArrowLeft"":26,""ArrowUp,ArrowRight"":10,""ArrowDown,ArrowLeft"":5,""ArrowDown,ArrowRight"":17}","true","spaceBar","true","","","original","1","60","","",""
"html-keyboard-response","177","850154","0.0-4.0-2.0-1.30","spark_pilot_2","7408","1","17","Male","","","","","","","null","<div style=""font-size:60px;"">+</div>","null","fixation","","","","","","","","","","","61","","",""
"revaluation","178","856158","0.0-4.0-2.0-0.31","spark_pilot_2","7408","1","17","Male","","false","","","","","[893,590]","./assets/img/ocean/memory/39.jpg","[""ArrowUp"",""ArrowLeft""]","value training","ocean","26","{""ArrowUp,ArrowLeft"":26,""ArrowUp,ArrowRight"":10,""ArrowDown,ArrowLeft"":5,""ArrowDown,ArrowRight"":17}","true","ArrowUp,ArrowLeft","false","","","original","1","62","","",""
"html-keyboard-response","179","856661","0.0-4.0-2.0-1.31","spark_pilot_2","7408","1","17","Male","","","","","","","null","<div style=""font-size:60px;"">+</div>","null","fixation","","","","","","","","","","","63","","",""
"revaluation","180","862665","0.0-4.0-2.0-0.32","spark_pilot_2","7408","1","17","Male","","false","","","","","[779,419]","./assets/img/ocean/memory/36.jpg","[""ArrowUp"",""ArrowLeft""]","value training","ocean","26","{""ArrowUp,ArrowLeft"":26,""ArrowUp,ArrowRight"":10,""ArrowDown,ArrowLeft"":5,""ArrowDown,ArrowRight"":17}","true","ArrowUp,ArrowLeft","false","","","original","1","64","","",""
"html-keyboard-response","181","863166","0.0-4.0-2.0-1.32","spark_pilot_2","7408","1","17","Male","","","","","","","null","<div style=""font-size:60px;"">+</div>","null","fixation","","","","","","","","","","","65","","",""
"revaluation","182","867171","0.0-4.0-2.0-0.33","spark_pilot_2","7408","1","17","Male","","false","","","","","[561]","./assets/img/ocean/catch/2.jpg","[""spaceBar""]","value training","ocean","0","{""ArrowUp,ArrowLeft"":26,""ArrowUp,ArrowRight"":10,""ArrowDown,ArrowLeft"":5,""ArrowDown,ArrowRight"":17}","true","spaceBar","true","","","original","1","66","","",""
"html-keyboard-response","183","867673","0.0-4.0-2.0-1.33","spark_pilot_2","7408","1","17","Male","","","","","","","null","<div style=""font-size:60px;"">+</div>","null","fixation","","","","","","","","","","","67","","",""
"revaluation","184","873678","0.0-4.0-2.0-0.34","spark_pilot_2","7408","1","17","Male","","false","","","","","[775,375]","./assets/img/ocean/memory/16.jpg","[""ArrowUp"",""ArrowLeft""]","value training","ocean","26","{""ArrowUp,ArrowLeft"":26,""ArrowUp,ArrowRight"":10,""ArrowDown,ArrowLeft"":5,""ArrowDown,ArrowRight"":17}","true","ArrowUp,ArrowLeft","false","","","original","1","68","","",""
"html-keyboard-response","185","874180","0.0-4.0-2.0-1.34","spark_pilot_2","7408","1","17","Male","","","","","","","null","<div style=""font-size:60px;"">+</div>","null","fixation","","","","","","","","","","","69","","",""
"revaluation","186","880185","0.0-4.0-2.0-0.35","spark_pilot_2","7408","1","17","Male","","false","","","","","[669,388]","./assets/img/ocean/memory/33.jpg","[""ArrowUp"",""ArrowLeft""]","value training","ocean","26","{""ArrowUp,ArrowLeft"":26,""ArrowUp,ArrowRight"":10,""ArrowDown,ArrowLeft"":5,""ArrowDown,ArrowRight"":17}","true","ArrowUp,ArrowLeft","false","","","original","1","70","","",""
"html-keyboard-response","187","880686","0.0-4.0-2.0-1.35","spark_pilot_2","7408","1","17","Male","","","","","","","null","<div style=""font-size:60px;"">+</div>","null","fixation","","","","","","","","","","","71","","",""
"revaluation","188","884690","0.0-4.0-2.0-0.36","spark_pilot_2","7408","1","17","Male","","false","","","","","[985]","./assets/img/ocean/catch/5.jpg","[""spaceBar""]","value training","ocean","0","{""ArrowUp,ArrowLeft"":26,""ArrowUp,ArrowRight"":10,""ArrowDown,ArrowLeft"":5,""ArrowDown,ArrowRight"":17}","true","spaceBar","true","","","original","1","72","","",""
"html-keyboard-response","189","885192","0.0-4.0-2.0-1.36","spark_pilot_2","7408","1","17","Male","","","","","","","null","<div style=""font-size:60px;"">+</div>","null","fixation","","","","","","","","","","","73","","",""
"revaluation","190","891195","0.0-4.0-2.0-0.37","spark_pilot_2","7408","1","17","Male","","false","","","","","[760,416]","./assets/img/ocean/memory/1.jpg","[""ArrowUp"",""ArrowLeft""]","value training","ocean","26","{""ArrowUp,ArrowLeft"":26,""ArrowUp,ArrowRight"":10,""ArrowDown,ArrowLeft"":5,""ArrowDown,ArrowRight"":17}","true","ArrowUp,ArrowLeft","false","","","original","1","74","","",""
"html-keyboard-response","191","891698","0.0-4.0-2.0-1.37","spark_pilot_2","7408","1","17","Male","","","","","","","null","<div style=""font-size:60px;"">+</div>","null","fixation","","","","","","","","","","","75","","",""
"revaluation","192","897703","0.0-4.0-2.0-0.38","spark_pilot_2","7408","1","17","Male","","false","","","","","[1006,430]","./assets/img/ocean/memory/0.jpg","[""ArrowUp"",""ArrowLeft""]","value training","ocean","26","{""ArrowUp,ArrowLeft"":26,""ArrowUp,ArrowRight"":10,""ArrowDown,ArrowLeft"":5,""ArrowDown,ArrowRight"":17}","true","ArrowUp,ArrowLeft","false","","","original","1","76","","",""
"html-keyboard-response","193","898204","0.0-4.0-2.0-1.38","spark_pilot_2","7408","1","17","Male","","","","","","","null","<div style=""font-size:60px;"">+</div>","null","fixation","","","","","","","","","","","77","","",""
"revaluation","194","904207","0.0-4.0-2.0-0.39","spark_pilot_2","7408","1","17","Male","","false","","","","","[685,380]","./assets/img/ocean/memory/4.jpg","[""ArrowUp"",""ArrowLeft""]","value training","ocean","26","{""ArrowUp,ArrowLeft"":26,""ArrowUp,ArrowRight"":10,""ArrowDown,ArrowLeft"":5,""ArrowDown,ArrowRight"":17}","true","ArrowUp,ArrowLeft","false","","","original","1","78","","",""
"html-keyboard-response","195","904708","0.0-4.0-2.0-1.39","spark_pilot_2","7408","1","17","Male","","","","","","","null","<div style=""font-size:60px;"">+</div>","null","fixation","","","","","","","","","","","79","","",""
"revaluation","196","910713","0.0-4.0-2.0-0.40","spark_pilot_2","7408","1","17","Male","","false","","","","","[684,379]","./assets/img/ocean/memory/36.jpg","[""ArrowUp"",""ArrowLeft""]","value training","ocean","26","{""ArrowUp,ArrowLeft"":26,""ArrowUp,ArrowRight"":10,""ArrowDown,ArrowLeft"":5,""ArrowDown,ArrowRight"":17}","true","ArrowUp,ArrowLeft","false","","","original","1","80","","",""
"html-keyboard-response","197","911214","0.0-4.0-2.0-1.40","spark_pilot_2","7408","1","17","Male","","","","","","","null","<div style=""font-size:60px;"">+</div>","null","fixation","","","","","","","","","","","81","","",""
"revaluation","198","917220","0.0-4.0-2.0-0.41","spark_pilot_2","7408","1","17","Male","","false","","","","","[656,368]","./assets/img/ocean/memory/27.jpg","[""ArrowUp"",""ArrowLeft""]","value training","ocean","26","{""ArrowUp,ArrowLeft"":26,""ArrowUp,ArrowRight"":10,""ArrowDown,ArrowLeft"":5,""ArrowDown,ArrowRight"":17}","true","ArrowUp,ArrowLeft","false","","","original","1","82","","",""
"html-keyboard-response","199","917721","0.0-4.0-2.0-1.41","spark_pilot_2","7408","1","17","Male","","","","","","","null","<div style=""font-size:60px;"">+</div>","null","fixation","","","","","","","","","","","83","","",""
"revaluation","200","923727","0.0-4.0-2.0-0.42","spark_pilot_2","7408","1","17","Male","","false","","","","","[812,371]","./assets/img/ocean/memory/24.jpg","[""ArrowUp"",""ArrowLeft""]","value training","ocean","26","{""ArrowUp,ArrowLeft"":26,""ArrowUp,ArrowRight"":10,""ArrowDown,ArrowLeft"":5,""ArrowDown,ArrowRight"":17}","true","ArrowUp,ArrowLeft","false","","","original","1","84","","",""
"html-keyboard-response","201","924230","0.0-4.0-2.0-1.42","spark_pilot_2","7408","1","17","Male","","","","","","","null","<div style=""font-size:60px;"">+</div>","null","fixation","","","","","","","","","","","85","","",""
"revaluation","202","930234","0.0-4.0-2.0-0.43","spark_pilot_2","7408","1","17","Male","","false","","","","","[762,393]","./assets/img/ocean/memory/20.jpg","[""ArrowUp"",""ArrowLeft""]","value training","ocean","26","{""ArrowUp,ArrowLeft"":26,""ArrowUp,ArrowRight"":10,""ArrowDown,ArrowLeft"":5,""ArrowDown,ArrowRight"":17}","true","ArrowUp,ArrowLeft","false","","","original","1","86","","",""
"html-keyboard-response","203","930736","0.0-4.0-2.0-1.43","spark_pilot_2","7408","1","17","Male","","","","","","","null","<div style=""font-size:60px;"">+</div>","null","fixation","","","","","","","","","","","87","","",""
"revaluation","204","936741","0.0-4.0-2.0-0.44","spark_pilot_2","7408","1","17","Male","","false","","","","","[696,423]","./assets/img/ocean/memory/21.jpg","[""ArrowUp"",""ArrowLeft""]","value training","ocean","26","{""ArrowUp,ArrowLeft"":26,""ArrowUp,ArrowRight"":10,""ArrowDown,ArrowLeft"":5,""ArrowDown,ArrowRight"":17}","true","ArrowUp,ArrowLeft","false","","","original","1","88","","",""
"html-keyboard-response","205","937242","0.0-4.0-2.0-1.44","spark_pilot_2","7408","1","17","Male","","","","","","","null","<div style=""font-size:60px;"">+</div>","null","fixation","","","","","","","","","","","89","","",""
"revaluation","206","943248","0.0-4.0-2.0-0.45","spark_pilot_2","7408","1","17","Male","","false","","","","","[541,324]","./assets/img/ocean/memory/34.jpg","[""ArrowUp"",""ArrowLeft""]","value training","ocean","26","{""ArrowUp,ArrowLeft"":26,""ArrowUp,ArrowRight"":10,""ArrowDown,ArrowLeft"":5,""ArrowDown,ArrowRight"":17}","true","ArrowUp,ArrowLeft","false","","","original","1","90","","",""
"html-keyboard-response","207","943749","0.0-4.0-2.0-1.45","spark_pilot_2","7408","1","17","Male","","","","","","","null","<div style=""font-size:60px;"">+</div>","null","fixation","","","","","","","","","","","91","","",""
"revaluation","208","949755","0.0-4.0-2.0-0.46","spark_pilot_2","7408","1","17","Male","","false","","","","","[643,602]","./assets/img/ocean/memory/20.jpg","[""ArrowUp"",""ArrowLeft""]","value training","ocean","26","{""ArrowUp,ArrowLeft"":26,""ArrowUp,ArrowRight"":10,""ArrowDown,ArrowLeft"":5,""ArrowDown,ArrowRight"":17}","true","ArrowUp,ArrowLeft","false","","","original","1","92","","",""
"html-keyboard-response","209","950258","0.0-4.0-2.0-1.46","spark_pilot_2","7408","1","17","Male","","","","","","","null","<div style=""font-size:60px;"">+</div>","null","fixation","","","","","","","","","","","93","","",""
"revaluation","210","954261","0.0-4.0-2.0-0.47","spark_pilot_2","7408","1","17","Male","","false","","","","","[686]","./assets/img/ocean/catch/0.jpg","[""spaceBar""]","value training","ocean","0","{""ArrowUp,ArrowLeft"":26,""ArrowUp,ArrowRight"":10,""ArrowDown,ArrowLeft"":5,""ArrowDown,ArrowRight"":17}","true","spaceBar","true","","","original","1","94","","",""
"html-keyboard-response","211","954764","0.0-4.0-2.0-1.47","spark_pilot_2","7408","1","17","Male","","","","","","","null","<div style=""font-size:60px;"">+</div>","null","fixation","","","","","","","","","","","95","","",""
"revaluation","212","960768","0.0-4.0-2.0-0.48","spark_pilot_2","7408","1","17","Male","","false","","","","","[562,747]","./assets/img/ocean/memory/35.jpg","[""ArrowUp"",""ArrowLeft""]","value training","ocean","26","{""ArrowUp,ArrowLeft"":26,""ArrowUp,ArrowRight"":10,""ArrowDown,ArrowLeft"":5,""ArrowDown,ArrowRight"":17}","true","ArrowUp,ArrowLeft","false","","","original","1","96","","",""
"html-keyboard-response","213","961270","0.0-4.0-2.0-1.48","spark_pilot_2","7408","1","17","Male","","","","","","","null","<div style=""font-size:60px;"">+</div>","null","fixation","","","","","","","","","","","97","","",""
"revaluation","214","967274","0.0-4.0-2.0-0.49","spark_pilot_2","7408","1","17","Male","","false","","","","","[688,434]","./assets/img/ocean/memory/32.jpg","[""ArrowUp"",""ArrowLeft""]","value training","ocean","26","{""ArrowUp,ArrowLeft"":26,""ArrowUp,ArrowRight"":10,""ArrowDown,ArrowLeft"":5,""ArrowDown,ArrowRight"":17}","true","ArrowUp,ArrowLeft","false","","","original","1","98","","",""
"html-keyboard-response","215","967774","0.0-4.0-2.0-1.49","spark_pilot_2","7408","1","17","Male","","","","","","[{""event"":""fullscreenenter"",""trial"":2,""time"":42343},{""event"":""fullscreenexit"",""trial"":4,""time"":56909},{""event"":""blur"",""trial"":4,""time"":57665},{""event"":""focus"",""trial"":4,""time"":61439},{""event"":""blur"",""trial"":216,""time"":969813},{""event"":""focus"",""trial"":216,""time"":990395},{""event"":""blur"",""trial"":216,""time"":991585},{""event"":""focus"",""trial"":216,""time"":2099001},{""event"":""blur"",""trial"":256,""time"":2273488},{""event"":""focus"",""trial"":256,""time"":2277169},{""event"":""blur"",""trial"":256,""time"":2278607},{""event"":""focus"",""trial"":256,""time"":2285503},{""event"":""blur"",""trial"":385,""time"":2665492},{""event"":""focus"",""trial"":385,""time"":2680619},{""event"":""blur"",""trial"":422,""time"":2774427},{""event"":""focus"",""trial"":422,""time"":2934529},{""event"":""blur"",""trial"":451,""time"":3048416},{""event"":""focus"",""trial"":451,""time"":3055856},{""event"":""blur"",""trial"":454,""time"":3076121},{""event"":""focus"",""trial"":454,""time"":3086154},{""event"":""blur"",""trial"":467,""time"":3138802},{""event"":""focus"",""trial"":467,""time"":3143798}]","null","<div style=""font-size:60px;"">+</div>","null","fixation","","","","","","","","","","","99","","",""
"learning-instructions","216","2107447","0.0-4.0-3.0-0.0","spark_pilot_2","7408","1","17","Male","","","","","","","1126783","<p> Now, you will travel with a friend who will choose whether you go up or down first. </p>
            <p> On these turns, you will just see the animal that they found. You will still get to choose which chest to search for treasure.</p>","","instructions","","","","","","","","","","","","","",""
"revaluation","217","2111454","0.0-4.0-4.0-0.0","spark_pilot_2","7408","1","17","Male","","false","","","","","[1339]","./assets/img/ocean/animals/seahorse.jpg","[""ArrowRight""]","revaluation","ocean","10","{""ArrowUp,ArrowLeft"":26,""ArrowUp,ArrowRight"":10,""ArrowDown,ArrowLeft"":5,""ArrowDown,ArrowRight"":17}","false","ArrowUp,ArrowRight","","","","original","1","0","","",""
"html-keyboard-response","218","2111957","0.0-4.0-4.0-1.0","spark_pilot_2","7408","1","17","Male","","","","","","","null","<div style=""font-size:60px;"">+</div>","null","fixation","","","","","","","","","","","1","","",""
"revaluation","219","2115966","0.0-4.0-4.0-0.1","spark_pilot_2","7408","1","17","Male","","false","","","","","[724]","./assets/img/ocean/animals/seahorse.jpg","[""ArrowLeft""]","revaluation","ocean","26","{""ArrowUp,ArrowLeft"":26,""ArrowUp,ArrowRight"":10,""ArrowDown,ArrowLeft"":5,""ArrowDown,ArrowRight"":17}","true","ArrowUp,ArrowLeft","","","","original","1","2","","",""
"html-keyboard-response","220","2116468","0.0-4.0-4.0-1.1","spark_pilot_2","7408","1","17","Male","","","","","","","null","<div style=""font-size:60px;"">+</div>","null","fixation","","","","","","","","","","","3","","",""
"revaluation","221","2120474","0.0-4.0-4.0-0.2","spark_pilot_2","7408","1","17","Male","","false","","","","","[503]","./assets/img/ocean/animals/seahorse.jpg","[""ArrowLeft""]","revaluation","ocean","26","{""ArrowUp,ArrowLeft"":26,""ArrowUp,ArrowRight"":10,""ArrowDown,ArrowLeft"":5,""ArrowDown,ArrowRight"":17}","true","ArrowUp,ArrowLeft","","","","original","1","4","","",""
"html-keyboard-response","222","2120976","0.0-4.0-4.0-1.2","spark_pilot_2","7408","1","17","Male","","","","","","","null","<div style=""font-size:60px;"">+</div>","null","fixation","","","","","","","","","","","5","","",""
"revaluation","223","2124981","0.0-4.0-4.0-0.3","spark_pilot_2","7408","1","17","Male","","false","","","","","[899]","./assets/img/ocean/animals/octopus.jpg","[""ArrowRight""]","revaluation","ocean","17","{""ArrowUp,ArrowLeft"":26,""ArrowUp,ArrowRight"":10,""ArrowDown,ArrowLeft"":5,""ArrowDown,ArrowRight"":17}","true","ArrowDown,ArrowRight","","","","original","1","6","","",""
"html-keyboard-response","224","2125484","0.0-4.0-4.0-1.3","spark_pilot_2","7408","1","17","Male","","","","","","","null","<div style=""font-size:60px;"">+</div>","null","fixation","","","","","","","","","","","7","","",""
"revaluation","225","2129491","0.0-4.0-4.0-0.4","spark_pilot_2","7408","1","17","Male","","false","","","","","[663]","./assets/img/ocean/animals/octopus.jpg","[""ArrowLeft""]","revaluation","ocean","5","{""ArrowUp,ArrowLeft"":26,""ArrowUp,ArrowRight"":10,""ArrowDown,ArrowLeft"":5,""ArrowDown,ArrowRight"":17}","false","ArrowDown,ArrowLeft","","","","original","1","8","","",""
"html-keyboard-response","226","2129993","0.0-4.0-4.0-1.4","spark_pilot_2","7408","1","17","Male","","","","","","","null","<div style=""font-size:60px;"">+</div>","null","fixation","","","","","","","","","","","9","","",""
"revaluation","227","2133999","0.0-4.0-4.0-0.5","spark_pilot_2","7408","1","17","Male","","false","","","","","[504]","./assets/img/ocean/animals/seahorse.jpg","[""ArrowLeft""]","revaluation","ocean","26","{""ArrowUp,ArrowLeft"":26,""ArrowUp,ArrowRight"":10,""ArrowDown,ArrowLeft"":5,""ArrowDown,ArrowRight"":17}","true","ArrowUp,ArrowLeft","","","","original","1","10","","",""
"html-keyboard-response","228","2134499","0.0-4.0-4.0-1.5","spark_pilot_2","7408","1","17","Male","","","","","","","null","<div style=""font-size:60px;"">+</div>","null","fixation","","","","","","","","","","","11","","",""
"revaluation","229","2138505","0.0-4.0-4.0-0.6","spark_pilot_2","7408","1","17","Male","","false","","","","","[782]","./assets/img/ocean/animals/seahorse.jpg","[""ArrowLeft""]","revaluation","ocean","26","{""ArrowUp,ArrowLeft"":26,""ArrowUp,ArrowRight"":10,""ArrowDown,ArrowLeft"":5,""ArrowDown,ArrowRight"":17}","true","ArrowUp,ArrowLeft","","","","original","1","12","","",""
"html-keyboard-response","230","2139006","0.0-4.0-4.0-1.6","spark_pilot_2","7408","1","17","Male","","","","","","","null","<div style=""font-size:60px;"">+</div>","null","fixation","","","","","","","","","","","13","","",""
"revaluation","231","2143011","0.0-4.0-4.0-0.7","spark_pilot_2","7408","1","17","Male","","false","","","","","[470]","./assets/img/ocean/animals/octopus.jpg","[""ArrowRight""]","revaluation","ocean","17","{""ArrowUp,ArrowLeft"":26,""ArrowUp,ArrowRight"":10,""ArrowDown,ArrowLeft"":5,""ArrowDown,ArrowRight"":17}","true","ArrowDown,ArrowRight","","","","original","1","14","","",""
"html-keyboard-response","232","2143512","0.0-4.0-4.0-1.7","spark_pilot_2","7408","1","17","Male","","","","","","","null","<div style=""font-size:60px;"">+</div>","null","fixation","","","","","","","","","","","15","","",""
"revaluation","233","2147518","0.0-4.0-4.0-0.8","spark_pilot_2","7408","1","17","Male","","false","","","","","[474]","./assets/img/ocean/animals/seahorse.jpg","[""ArrowLeft""]","revaluation","ocean","26","{""ArrowUp,ArrowLeft"":26,""ArrowUp,ArrowRight"":10,""ArrowDown,ArrowLeft"":5,""ArrowDown,ArrowRight"":17}","true","ArrowUp,ArrowLeft","","","","original","1","16","","",""
"html-keyboard-response","234","2148020","0.0-4.0-4.0-1.8","spark_pilot_2","7408","1","17","Male","","","","","","","null","<div style=""font-size:60px;"">+</div>","null","fixation","","","","","","","","","","","17","","",""
"revaluation","235","2152025","0.0-4.0-4.0-0.9","spark_pilot_2","7408","1","17","Male","","false","","","","","[528]","./assets/img/ocean/animals/seahorse.jpg","[""ArrowLeft""]","revaluation","ocean","26","{""ArrowUp,ArrowLeft"":26,""ArrowUp,ArrowRight"":10,""ArrowDown,ArrowLeft"":5,""ArrowDown,ArrowRight"":17}","true","ArrowUp,ArrowLeft","","","","original","1","18","","",""
"html-keyboard-response","236","2152526","0.0-4.0-4.0-1.9","spark_pilot_2","7408","1","17","Male","","","","","","","null","<div style=""font-size:60px;"">+</div>","null","fixation","","","","","","","","","","","19","","",""
"revaluation","237","2156531","0.0-4.0-4.0-0.10","spark_pilot_2","7408","1","17","Male","","false","","","","","[741]","./assets/img/ocean/animals/octopus.jpg","[""ArrowRight""]","revaluation","ocean","17","{""ArrowUp,ArrowLeft"":26,""ArrowUp,ArrowRight"":10,""ArrowDown,ArrowLeft"":5,""ArrowDown,ArrowRight"":17}","true","ArrowDown,ArrowRight","","","","original","1","20","","",""
"html-keyboard-response","238","2157032","0.0-4.0-4.0-1.10","spark_pilot_2","7408","1","17","Male","","","","","","","null","<div style=""font-size:60px;"">+</div>","null","fixation","","","","","","","","","","","21","","",""
"revaluation","239","2161037","0.0-4.0-4.0-0.11","spark_pilot_2","7408","1","17","Male","","false","","","","","[746]","./assets/img/ocean/animals/octopus.jpg","[""ArrowRight""]","revaluation","ocean","17","{""ArrowUp,ArrowLeft"":26,""ArrowUp,ArrowRight"":10,""ArrowDown,ArrowLeft"":5,""ArrowDown,ArrowRight"":17}","true","ArrowDown,ArrowRight","","","","original","1","22","","",""
"html-keyboard-response","240","2161539","0.0-4.0-4.0-1.11","spark_pilot_2","7408","1","17","Male","","","","","","","null","<div style=""font-size:60px;"">+</div>","null","fixation","","","","","","","","","","","23","","",""
"revaluation","241","2165544","0.0-4.0-4.0-0.12","spark_pilot_2","7408","1","17","Male","","false","","","","","[504]","./assets/img/ocean/animals/octopus.jpg","[""ArrowRight""]","revaluation","ocean","17","{""ArrowUp,ArrowLeft"":26,""ArrowUp,ArrowRight"":10,""ArrowDown,ArrowLeft"":5,""ArrowDown,ArrowRight"":17}","true","ArrowDown,ArrowRight","","","","original","1","24","","",""
"html-keyboard-response","242","2166046","0.0-4.0-4.0-1.12","spark_pilot_2","7408","1","17","Male","","","","","","","null","<div style=""font-size:60px;"">+</div>","null","fixation","","","","","","","","","","","25","","",""
"revaluation","243","2170051","0.0-4.0-4.0-0.13","spark_pilot_2","7408","1","17","Male","","false","","","","","[613]","./assets/img/ocean/animals/octopus.jpg","[""ArrowRight""]","revaluation","ocean","17","{""ArrowUp,ArrowLeft"":26,""ArrowUp,ArrowRight"":10,""ArrowDown,ArrowLeft"":5,""ArrowDown,ArrowRight"":17}","true","ArrowDown,ArrowRight","","","","original","1","26","","",""
"html-keyboard-response","244","2170552","0.0-4.0-4.0-1.13","spark_pilot_2","7408","1","17","Male","","","","","","","null","<div style=""font-size:60px;"">+</div>","null","fixation","","","","","","","","","","","27","","",""
"revaluation","245","2174557","0.0-4.0-4.0-0.14","spark_pilot_2","7408","1","17","Male","","false","","","","","[434]","./assets/img/ocean/animals/octopus.jpg","[""ArrowRight""]","revaluation","ocean","17","{""ArrowUp,ArrowLeft"":26,""ArrowUp,ArrowRight"":10,""ArrowDown,ArrowLeft"":5,""ArrowDown,ArrowRight"":17}","true","ArrowDown,ArrowRight","","","","original","1","28","","",""
"html-keyboard-response","246","2175059","0.0-4.0-4.0-1.14","spark_pilot_2","7408","1","17","Male","","","","","","","null","<div style=""font-size:60px;"">+</div>","null","fixation","","","","","","","","","","","29","","",""
"revaluation","247","2179064","0.0-4.0-4.0-0.15","spark_pilot_2","7408","1","17","Male","","false","","","","","[488]","./assets/img/ocean/animals/octopus.jpg","[""ArrowRight""]","revaluation","ocean","17","{""ArrowUp,ArrowLeft"":26,""ArrowUp,ArrowRight"":10,""ArrowDown,ArrowLeft"":5,""ArrowDown,ArrowRight"":17}","true","ArrowDown,ArrowRight","","","","original","1","30","","",""
"html-keyboard-response","248","2179566","0.0-4.0-4.0-1.15","spark_pilot_2","7408","1","17","Male","","","","","","","null","<div style=""font-size:60px;"">+</div>","null","fixation","","","","","","","","","","","31","","",""
"revaluation","249","2183571","0.0-4.0-4.0-0.16","spark_pilot_2","7408","1","17","Male","","false","","","","","[581]","./assets/img/ocean/animals/seahorse.jpg","[""ArrowLeft""]","revaluation","ocean","26","{""ArrowUp,ArrowLeft"":26,""ArrowUp,ArrowRight"":10,""ArrowDown,ArrowLeft"":5,""ArrowDown,ArrowRight"":17}","true","ArrowUp,ArrowLeft","","","","original","1","32","","",""
"html-keyboard-response","250","2184073","0.0-4.0-4.0-1.16","spark_pilot_2","7408","1","17","Male","","","","","","","null","<div style=""font-size:60px;"">+</div>","null","fixation","","","","","","","","","","","33","","",""
"revaluation","251","2188079","0.0-4.0-4.0-0.17","spark_pilot_2","7408","1","17","Male","","false","","","","","[587]","./assets/img/ocean/animals/seahorse.jpg","[""ArrowLeft""]","revaluation","ocean","26","{""ArrowUp,ArrowLeft"":26,""ArrowUp,ArrowRight"":10,""ArrowDown,ArrowLeft"":5,""ArrowDown,ArrowRight"":17}","true","ArrowUp,ArrowLeft","","","","original","1","34","","",""
"html-keyboard-response","252","2188581","0.0-4.0-4.0-1.17","spark_pilot_2","7408","1","17","Male","","","","","","","null","<div style=""font-size:60px;"">+</div>","null","fixation","","","","","","","","","","","35","","",""
"learning-instructions","253","2201126","0.0-4.0-5.0-0.0","spark_pilot_2","7408","1","17","Male","","","","","","","1102","<p> Time to play the dot game! </p>
            <p> For one minute, click the red dots on the following screen as they appear. </p>
            <p><b> Don't look away, as you will earn bonus for clicking dots</b>. </p>","","instructions","","","","","","","","","","","","","",""
"revaluation","254","2261128","0.0-4.0-6.0-0.0","spark_pilot_2","7408","1","17","Male","","","","","","","[55,64,63,52,80,65,121]","","","rest","","70","","","","","0","60000","","","","","",""
"learning-instructions","255","2268222","0.0-4.0-7.0-0.0","spark_pilot_2","7408","1","17","Male","","","","","","[{""event"":""fullscreenenter"",""trial"":2,""time"":42343},{""event"":""fullscreenexit"",""trial"":4,""time"":56909},{""event"":""blur"",""trial"":4,""time"":57665},{""event"":""focus"",""trial"":4,""time"":61439},{""event"":""blur"",""trial"":216,""time"":969813},{""event"":""focus"",""trial"":216,""time"":990395},{""event"":""blur"",""trial"":216,""time"":991585},{""event"":""focus"",""trial"":216,""time"":2099001},{""event"":""blur"",""trial"":256,""time"":2273488},{""event"":""focus"",""trial"":256,""time"":2277169},{""event"":""blur"",""trial"":256,""time"":2278607},{""event"":""focus"",""trial"":256,""time"":2285503},{""event"":""blur"",""trial"":385,""time"":2665492},{""event"":""focus"",""trial"":385,""time"":2680619},{""event"":""blur"",""trial"":422,""time"":2774427},{""event"":""focus"",""trial"":422,""time"":2934529},{""event"":""blur"",""trial"":451,""time"":3048416},{""event"":""focus"",""trial"":451,""time"":3055856},{""event"":""blur"",""trial"":454,""time"":3076121},{""event"":""focus"",""trial"":454,""time"":3086154},{""event"":""blur"",""trial"":467,""time"":3138802},{""event"":""focus"",""trial"":467,""time"":3143798}]","977","<p> You have almost finished this part of the game! </p>
            <p> We are going to ask you to make a few more choices. </p>","","instructions","","","","","","","","","","","","","",""
"learning-instructions","256","2286542","0.0-4.0-7.0-0.1","spark_pilot_2","7408","1","17","Male","","","","","","","4338","<p> First, you need to decide whether to go up or down. When you see each picture, use the arrow keys to make your choice. </p>
            <p><b>You will not see which animal you found, but try to get to the one that will give you the most treasure.</b></p>","","instructions","","","","","","","","","","","","","",""
"revaluation","257","2287805","0.0-4.0-8.0-0.0","spark_pilot_2","7408","1","17","Male","","false","","","","","[1261]","./assets/img/ocean/test/1.jpg","[""ArrowUp""]","first stage test","ocean","0","{""ArrowUp,ArrowLeft"":26,""ArrowUp,ArrowRight"":10,""ArrowDown,ArrowLeft"":5,""ArrowDown,ArrowRight"":17}","true","ArrowUp","false","","","original","1","","","",""
"html-keyboard-response","258","2288307","0.0-4.0-8.0-1.0","spark_pilot_2","7408","1","17","Male","","","","","","","null","<div style=""font-size:60px;"">+</div>","null","fixation","","","","","","","","","","","","","",""
"revaluation","259","2289558","0.0-4.0-8.0-0.1","spark_pilot_2","7408","1","17","Male","","false","","","","","[1247]","./assets/img/ocean/test/2.jpg","[""ArrowUp""]","first stage test","ocean","0","{""ArrowUp,ArrowLeft"":26,""ArrowUp,ArrowRight"":10,""ArrowDown,ArrowLeft"":5,""ArrowDown,ArrowRight"":17}","true","ArrowUp","false","","","original","1","","","",""
"html-keyboard-response","260","2290061","0.0-4.0-8.0-1.1","spark_pilot_2","7408","1","17","Male","","","","","","","null","<div style=""font-size:60px;"">+</div>","null","fixation","","","","","","","","","","","","","",""
"revaluation","261","2290989","0.0-4.0-8.0-0.2","spark_pilot_2","7408","1","17","Male","","false","","","","","[925]","./assets/img/ocean/test/0.jpg","[""ArrowUp""]","first stage test","ocean","0","{""ArrowUp,ArrowLeft"":26,""ArrowUp,ArrowRight"":10,""ArrowDown,ArrowLeft"":5,""ArrowDown,ArrowRight"":17}","true","ArrowUp","false","","","original","1","","","",""
"html-keyboard-response","262","2291491","0.0-4.0-8.0-1.2","spark_pilot_2","7408","1","17","Male","","","","","","","null","<div style=""font-size:60px;"">+</div>","null","fixation","","","","","","","","","","","","","",""
"revaluation","263","2292438","0.0-4.0-8.0-0.3","spark_pilot_2","7408","1","17","Male","","false","","","","","[944]","./assets/img/ocean/test/3.jpg","[""ArrowUp""]","first stage test","ocean","0","{""ArrowUp,ArrowLeft"":26,""ArrowUp,ArrowRight"":10,""ArrowDown,ArrowLeft"":5,""ArrowDown,ArrowRight"":17}","true","ArrowUp","false","","","original","1","","","",""
"html-keyboard-response","264","2292939","0.0-4.0-8.0-1.3","spark_pilot_2","7408","1","17","Male","","","","","","","null","<div style=""font-size:60px;"">+</div>","null","fixation","","","","","","","","","","","","","",""
"learning-instructions","265","2305093","0.0-4.0-9.0-0.0","spark_pilot_2","7408","1","17","Male","","","","","","","809","<p> Now you will see the animals again and can search their chests for treasure. </p>
            <p> This time, you will not see how much treasure you earned, but you will earn more bonus money for making better choices. </p>","","instructions","","","","","","","","","","","","","",""
"revaluation","266","2306086","0.0-4.0-10.0-0.0","spark_pilot_2","7408","1","17","Male","","false","","","","","[989]","./assets/img/ocean/animals/seahorse.jpg","[""ArrowLeft""]","second stage test","ocean","0","{""ArrowUp,ArrowLeft"":26,""ArrowUp,ArrowRight"":10,""ArrowDown,ArrowLeft"":5,""ArrowDown,ArrowRight"":17}","true","ArrowUp,ArrowLeft","","","","original","1","","","",""
"html-keyboard-response","267","2306587","0.0-4.0-10.0-1.0","spark_pilot_2","7408","1","17","Male","","","","","","","null","<div style=""font-size:60px;"">+</div>","null","fixation","","","","","","","","","","","","","",""
"revaluation","268","2307303","0.0-4.0-10.0-0.1","spark_pilot_2","7408","1","17","Male","","false","","","","","[712]","./assets/img/ocean/animals/seahorse.jpg","[""ArrowLeft""]","second stage test","ocean","0","{""ArrowUp,ArrowLeft"":26,""ArrowUp,ArrowRight"":10,""ArrowDown,ArrowLeft"":5,""ArrowDown,ArrowRight"":17}","true","ArrowUp,ArrowLeft","","","","original","1","","","",""
"html-keyboard-response","269","2307804","0.0-4.0-10.0-1.1","spark_pilot_2","7408","1","17","Male","","","","","","","null","<div style=""font-size:60px;"">+</div>","null","fixation","","","","","","","","","","","","","",""
"revaluation","270","2308557","0.0-4.0-10.0-0.2","spark_pilot_2","7408","1","17","Male","","false","","","","","[750]","./assets/img/ocean/animals/seahorse.jpg","[""ArrowLeft""]","second stage test","ocean","0","{""ArrowUp,ArrowLeft"":26,""ArrowUp,ArrowRight"":10,""ArrowDown,ArrowLeft"":5,""ArrowDown,ArrowRight"":17}","true","ArrowUp,ArrowLeft","","","","original","1","","","",""
"html-keyboard-response","271","2309060","0.0-4.0-10.0-1.2","spark_pilot_2","7408","1","17","Male","","","","","","","null","<div style=""font-size:60px;"">+</div>","null","fixation","","","","","","","","","","","","","",""
"revaluation","272","2309541","0.0-4.0-10.0-0.3","spark_pilot_2","7408","1","17","Male","","false","","","","","[480]","./assets/img/ocean/animals/seahorse.jpg","[""ArrowLeft""]","second stage test","ocean","0","{""ArrowUp,ArrowLeft"":26,""ArrowUp,ArrowRight"":10,""ArrowDown,ArrowLeft"":5,""ArrowDown,ArrowRight"":17}","true","ArrowUp,ArrowLeft","","","","original","1","","","",""
"html-keyboard-response","273","2310042","0.0-4.0-10.0-1.3","spark_pilot_2","7408","1","17","Male","","","","","","","null","<div style=""font-size:60px;"">+</div>","null","fixation","","","","","","","","","","","","","",""
"revaluation","274","2310662","0.0-4.0-10.0-0.4","spark_pilot_2","7408","1","17","Male","","false","","","","","[615]","./assets/img/ocean/animals/octopus.jpg","[""ArrowRight""]","second stage test","ocean","0","{""ArrowUp,ArrowLeft"":26,""ArrowUp,ArrowRight"":10,""ArrowDown,ArrowLeft"":5,""ArrowDown,ArrowRight"":17}","true","ArrowDown,ArrowRight","","","","original","1","","","",""
"html-keyboard-response","275","2311162","0.0-4.0-10.0-1.4","spark_pilot_2","7408","1","17","Male","","","","","","","null","<div style=""font-size:60px;"">+</div>","null","fixation","","","","","","","","","","","","","",""
"revaluation","276","2311613","0.0-4.0-10.0-0.5","spark_pilot_2","7408","1","17","Male","","false","","","","","[447]","./assets/img/ocean/animals/octopus.jpg","[""ArrowRight""]","second stage test","ocean","0","{""ArrowUp,ArrowLeft"":26,""ArrowUp,ArrowRight"":10,""ArrowDown,ArrowLeft"":5,""ArrowDown,ArrowRight"":17}","true","ArrowDown,ArrowRight","","","","original","1","","","",""
"html-keyboard-response","277","2312116","0.0-4.0-10.0-1.5","spark_pilot_2","7408","1","17","Male","","","","","","","null","<div style=""font-size:60px;"">+</div>","null","fixation","","","","","","","","","","","","","",""
"revaluation","278","2312533","0.0-4.0-10.0-0.6","spark_pilot_2","7408","1","17","Male","","false","","","","","[414]","./assets/img/ocean/animals/octopus.jpg","[""ArrowRight""]","second stage test","ocean","0","{""ArrowUp,ArrowLeft"":26,""ArrowUp,ArrowRight"":10,""ArrowDown,ArrowLeft"":5,""ArrowDown,ArrowRight"":17}","true","ArrowDown,ArrowRight","","","","original","1","","","",""
"html-keyboard-response","279","2313034","0.0-4.0-10.0-1.6","spark_pilot_2","7408","1","17","Male","","","","","","","null","<div style=""font-size:60px;"">+</div>","null","fixation","","","","","","","","","","","","","",""
"revaluation","280","2313437","0.0-4.0-10.0-0.7","spark_pilot_2","7408","1","17","Male","","false","","","","","[400]","./assets/img/ocean/animals/octopus.jpg","[""ArrowRight""]","second stage test","ocean","0","{""ArrowUp,ArrowLeft"":26,""ArrowUp,ArrowRight"":10,""ArrowDown,ArrowLeft"":5,""ArrowDown,ArrowRight"":17}","true","ArrowDown,ArrowRight","","","","original","1","","","",""
"html-keyboard-response","281","2313940","0.0-4.0-10.0-1.7","spark_pilot_2","7408","1","17","Male","","","","","","","null","<div style=""font-size:60px;"">+</div>","null","fixation","","","","","","","","","","","","","",""
"learning-instructions","282","2317629","0.0-4.0-0.1-0.2","spark_pilot_2","7408","1","17","Male","","","","","","","875","<p> This time you are searching for treasure in the <b>canyon</b>.</p>","","instructions","","","","","","","","","","","","","",""
"learning-instructions","283","2335645","0.0-4.0-0.1-0.3","spark_pilot_2","7408","1","17","Male","","","","","","","762","<p><b>New</b> animals with <b>new</b> treasure chests live here. You need to explore to discover where the animal with the best treasure chest is.</p>
                    <p> Like before, once you figure out which animal has the chest with the most treasure, you should try to get to that animal and select that chest! </p>","","instructions","","","","","","","","","","","","","",""
"learning-instructions","284","2352845","0.0-4.0-1.1-0.1","spark_pilot_2","7408","1","17","Male","","","","","","","2451","<p> Remember, when you see a picture of the place, use the up and down keys to <b>find an animal</b>.</p>
            <p> When you encounter an animal, you should use the left and right keys to <b>select a treasure chest</b>.</p>
            <p> Don't forget to look out for the robber! </p>","","instructions","","","","","","","","","","","","","",""
"revaluation","285","2358851","0.0-4.0-2.1-0.50","spark_pilot_2","7408","1","17","Male","","false","","","","","[1317,1118]","./assets/img/canyon/memory/41.jpg","[""ArrowDown"",""ArrowRight""]","value training","canyon","30","{""ArrowUp,ArrowLeft"":23,""ArrowUp,ArrowRight"":10,""ArrowDown,ArrowLeft"":8,""ArrowDown,ArrowRight"":30}","true","ArrowDown,ArrowRight","false","","","revaluation","2","0","","",""
"html-keyboard-response","286","2359352","0.0-4.0-2.1-1.50","spark_pilot_2","7408","1","17","Male","","","","","","","null","<div style=""font-size:60px;"">+</div>","null","fixation","","","","","","","","","","","1","","",""
"revaluation","287","2365358","0.0-4.0-2.1-0.51","spark_pilot_2","7408","1","17","Male","","false","","","","","[609,504]","./assets/img/canyon/memory/37.jpg","[""ArrowDown"",""ArrowRight""]","value training","canyon","30","{""ArrowUp,ArrowLeft"":23,""ArrowUp,ArrowRight"":10,""ArrowDown,ArrowLeft"":8,""ArrowDown,ArrowRight"":30}","true","ArrowDown,ArrowRight","false","","","revaluation","2","2","","",""
"html-keyboard-response","288","2365859","0.0-4.0-2.1-1.51","spark_pilot_2","7408","1","17","Male","","","","","","","null","<div style=""font-size:60px;"">+</div>","null","fixation","","","","","","","","","","","3","","",""
"revaluation","289","2371864","0.0-4.0-2.1-0.52","spark_pilot_2","7408","1","17","Male","","false","","","","","[1125,509]","./assets/img/canyon/memory/22.jpg","[""ArrowDown"",""ArrowRight""]","value training","canyon","30","{""ArrowUp,ArrowLeft"":23,""ArrowUp,ArrowRight"":10,""ArrowDown,ArrowLeft"":8,""ArrowDown,ArrowRight"":30}","true","ArrowDown,ArrowRight","false","","","revaluation","2","4","","",""
"html-keyboard-response","290","2372366","0.0-4.0-2.1-1.52","spark_pilot_2","7408","1","17","Male","","","","","","","null","<div style=""font-size:60px;"">+</div>","null","fixation","","","","","","","","","","","5","","",""
"revaluation","291","2378372","0.0-4.0-2.1-0.53","spark_pilot_2","7408","1","17","Male","","false","","","","","[635,618]","./assets/img/canyon/memory/41.jpg","[""ArrowDown"",""ArrowRight""]","value training","canyon","30","{""ArrowUp,ArrowLeft"":23,""ArrowUp,ArrowRight"":10,""ArrowDown,ArrowLeft"":8,""ArrowDown,ArrowRight"":30}","true","ArrowDown,ArrowRight","false","","","revaluation","2","6","","",""
"html-keyboard-response","292","2378873","0.0-4.0-2.1-1.53","spark_pilot_2","7408","1","17","Male","","","","","","","null","<div style=""font-size:60px;"">+</div>","null","fixation","","","","","","","","","","","7","","",""
"revaluation","293","2384877","0.0-4.0-2.1-0.54","spark_pilot_2","7408","1","17","Male","","false","","","","","[681,473]","./assets/img/canyon/memory/1.jpg","[""ArrowDown"",""ArrowRight""]","value training","canyon","30","{""ArrowUp,ArrowLeft"":23,""ArrowUp,ArrowRight"":10,""ArrowDown,ArrowLeft"":8,""ArrowDown,ArrowRight"":30}","true","ArrowDown,ArrowRight","false","","","revaluation","2","8","","",""
"html-keyboard-response","294","2385379","0.0-4.0-2.1-1.54","spark_pilot_2","7408","1","17","Male","","","","","","","null","<div style=""font-size:60px;"">+</div>","null","fixation","","","","","","","","","","","9","","",""
"revaluation","295","2391383","0.0-4.0-2.1-0.55","spark_pilot_2","7408","1","17","Male","","false","","","","","[639,558]","./assets/img/canyon/memory/23.jpg","[""ArrowDown"",""ArrowRight""]","value training","canyon","30","{""ArrowUp,ArrowLeft"":23,""ArrowUp,ArrowRight"":10,""ArrowDown,ArrowLeft"":8,""ArrowDown,ArrowRight"":30}","true","ArrowDown,ArrowRight","false","","","revaluation","2","10","","",""
"html-keyboard-response","296","2391884","0.0-4.0-2.1-1.55","spark_pilot_2","7408","1","17","Male","","","","","","","null","<div style=""font-size:60px;"">+</div>","null","fixation","","","","","","","","","","","11","","",""
"revaluation","297","2397892","0.0-4.0-2.1-0.56","spark_pilot_2","7408","1","17","Male","","false","","","","","[694,370]","./assets/img/canyon/memory/36.jpg","[""ArrowDown"",""ArrowRight""]","value training","canyon","30","{""ArrowUp,ArrowLeft"":23,""ArrowUp,ArrowRight"":10,""ArrowDown,ArrowLeft"":8,""ArrowDown,ArrowRight"":30}","true","ArrowDown,ArrowRight","false","","","revaluation","2","12","","",""
"html-keyboard-response","298","2398394","0.0-4.0-2.1-1.56","spark_pilot_2","7408","1","17","Male","","","","","","","null","<div style=""font-size:60px;"">+</div>","null","fixation","","","","","","","","","","","13","","",""
"revaluation","299","2404400","0.0-4.0-2.1-0.57","spark_pilot_2","7408","1","17","Male","","false","","","","","[815,485]","./assets/img/canyon/memory/35.jpg","[""ArrowDown"",""ArrowRight""]","value training","canyon","30","{""ArrowUp,ArrowLeft"":23,""ArrowUp,ArrowRight"":10,""ArrowDown,ArrowLeft"":8,""ArrowDown,ArrowRight"":30}","true","ArrowDown,ArrowRight","false","","","revaluation","2","14","","",""
"html-keyboard-response","300","2404901","0.0-4.0-2.1-1.57","spark_pilot_2","7408","1","17","Male","","","","","","","null","<div style=""font-size:60px;"">+</div>","null","fixation","","","","","","","","","","","15","","",""
"revaluation","301","2408907","0.0-4.0-2.1-0.58","spark_pilot_2","7408","1","17","Male","","false","","","","","[627]","./assets/img/canyon/catch/3.jpg","[""spaceBar""]","value training","canyon","0","{""ArrowUp,ArrowLeft"":23,""ArrowUp,ArrowRight"":10,""ArrowDown,ArrowLeft"":8,""ArrowDown,ArrowRight"":30}","true","spaceBar","true","","","revaluation","2","16","","",""
"html-keyboard-response","302","2409410","0.0-4.0-2.1-1.58","spark_pilot_2","7408","1","17","Male","","","","","","","null","<div style=""font-size:60px;"">+</div>","null","fixation","","","","","","","","","","","17","","",""
