"trial_type","trial_index","time_elapsed","internal_node_id","task_version","subject_id","assigned_condition","age","gender","success","timeout","failed_images","failed_audio","failed_video","browser_interaction","rt","stimulus","response","task_part","environment","score","rewardMap","correct","fullState","isCatch","numberMissed","duration","condition","order","trial_num","key_press","ground_truth","bonus"
"pavlovia","0","899","0.0-0.0","spark_pilot_2","7442","6","19","Male","","","","","","","","","","","","","","","","","","","","","","","",""
"preload","1","8592","0.0-1.0","spark_pilot_2","7442","6","19","Male","true","false","[]","[]","[]","[{""event"":""fullscreenenter"",""trial"":2,""time"":12089}]","","","","","","","","","","","","","","","","","",""
"fullscreen","2","13074","0.0-2.0","spark_pilot_2","7442","6","19","Male","true","","","","","","","","","","","","","","","","","","","","","","",""
"audio-button-response","3","21450","0.0-3.0-0.0-0.0","spark_pilot_2","7442","6","19","Male","","","","","","","8109","./assets/audio/audiotest/turtle.mp3","4","audio_test","","","","","","","","","","","","","",""
"audio-button-response","4","23687","0.0-3.0-0.1-0.1","spark_pilot_2","7442","6","19","Male","","","","","","","1229","./assets/audio/audiotest/turtle.mp3","2","audio_test","","","","","","","","","","","","","",""
"learning-instructions","5","34683","0.0-3.0-1.0-0.0","spark_pilot_2","7442","6","19","Male","","","","","","","4014.899999976158","<p> Welcome! Please remember to stay in fullscreen mode and don't click away from the experiment. </p>","","instructions","","","","","","","","","","","","","",""
"learning-instructions","6","43954","0.0-3.0-1.0-0.1","spark_pilot_2","7442","6","19","Male","","","","","","","856.2000000178814","<p> Today you will be playing a game to earn treasure. </p>
            <p> At the end of the experiment, you will earn a bonus based on how much treasure you find. </p>
            <img src='./assets/img/instructions/treasure.jpg' class='instructions-image'>","","instructions","","","","","","","","","","","","","",""
"learning-instructions","7","53337","0.0-3.0-1.0-0.2","spark_pilot_2","7442","6","19","Male","","","","","","","1119","<p> Animals have hidden treasure in treasure chests. </p>
            <p> You need to first find an animal and then choose which of their treasure chests to search. </p>
            <img src='./assets/img/space/animals/cat.jpg' class='instructions-image'>","","instructions","","","","","","","","","","","","","",""
"learning-instructions","8","71086","0.0-3.0-1.0-0.3","spark_pilot_2","7442","6","19","Male","","","","","","","4607.5","<p> In each round, you will search for treasure in a different place. In the real game, there will be two rounds. </p>
            <p> You will begin with a separate, practice round where you will search for treasure in outer space. </p>
            <img src='./assets/img/space/0.jpg' class='instructions-image'>","","instructions","","","","","","","","","","","","","",""
"learning-instructions","9","83288","0.0-3.0-1.0-0.4","spark_pilot_2","7442","6","19","Male","","","","","","","780.2999999821186","<p> On every turn, you will see a picture of the place that you are in, but the specific image may be different each time. </p>
            <p> For example, both of these images mean you are in outer space. </p>
            <img src='./assets/img/instructions/outerspace.jpg' class='instructions-image'>","","instructions","","","","","","","","","","","","","",""
"learning-instructions","10","91849","0.0-3.0-1.0-0.5","spark_pilot_2","7442","6","19","Male","","","","","","","742.0999999940395","<p> You need to decide which direction to travel in. </p>
            <p> You can choose between going <b>up or down</b> by using the arrow keys. </p>
            <img src='./assets/img/instructions/updown.jpg' class='instructions-image'>","","instructions","","","","","","","","","","","","","",""
"learning-instructions","11","101877","0.0-3.0-1.0-0.6","spark_pilot_2","7442","6","19","Male","","","","","","","1219.5","<p> You will have <b>2 seconds</b> to make your choice. </p>
            <p> If you do not make a choice within 2 seconds, you will not find an animal or earn treasure. </p>
            <img src='./assets/img/instructions/2seconds.jpg' class='instructions-image'>","","instructions","","","","","","","","","","","","","",""
"learning-instructions","12","109585","0.0-3.0-1.0-0.7","spark_pilot_2","7442","6","19","Male","","","","","","","676.6999999880791","<p> Let’s try practicing that now! </p>
            <p> When you see a picture of the place you are in, press the <b>up</b> key to travel up. </p>
            <img src='./assets/img/instructions/pressUp.jpg' class='instructions-image'>","","instructions","","","","","","","","","","","","","",""
"revaluation","13","113603","0.0-3.0-2.0-0.0","spark_pilot_2","7442","6","19","Male","","false","","","","","[1083.8999999761581]","./assets/img/space/0.jpg","[""ArrowUp""]","first stage practice","space","0","null","null","ArrowUp","false","","","","","","","",""
"html-keyboard-response","14","114112","0.0-3.0-2.0-1.0","spark_pilot_2","7442","6","19","Male","","","","","","","null","<div style=""font-size:60px;"">+</div>","null","fixation","","","","","","","","","","","","","",""
"revaluation","15","118121","0.0-3.0-2.0-0.1","spark_pilot_2","7442","6","19","Male","","true","","","","","[]","./assets/img/space/1.jpg","[]","first stage practice","space","-5","null","null","","false","","","","","","","",""
"html-keyboard-response","16","118634","0.0-3.0-2.0-1.1","spark_pilot_2","7442","6","19","Male","","","","","","","null","<div style=""font-size:60px;"">+</div>","null","fixation","","","","","","","","","","","","","",""
"revaluation","17","122646","0.0-3.0-2.0-0.2","spark_pilot_2","7442","6","19","Male","","false","","","","","[1082.0999999940395]","./assets/img/space/2.jpg","[""ArrowUp""]","first stage practice","space","0","null","null","ArrowUp","false","","","","","","","",""
"html-keyboard-response","18","123156","0.0-3.0-2.0-1.2","spark_pilot_2","7442","6","19","Male","","","","","","","null","<div style=""font-size:60px;"">+</div>","null","fixation","","","","","","","","","","","","","",""
"learning-instructions","19","129578","0.0-3.0-3.0-0.0","spark_pilot_2","7442","6","19","Male","","","","","","","1730.5999999940395","<p> Great job! Now try pressing the <b>down</b> key to travel down. </p>
            <img src='./assets/img/instructions/pressDown.jpg' class='instructions-image'>","","instructions","","","","","","","","","","","","","",""
"revaluation","20","133608","0.0-3.0-4.0-0.0","spark_pilot_2","7442","6","19","Male","","false","","","","","[974.1999999880791]","./assets/img/space/3.jpg","[""ArrowDown""]","first stage practice","space","0","null","null","ArrowDown","false","","","","","","","",""
"html-keyboard-response","21","134117","0.0-3.0-4.0-1.0","spark_pilot_2","7442","6","19","Male","","","","","","","null","<div style=""font-size:60px;"">+</div>","null","fixation","","","","","","","","","","","","","",""
"revaluation","22","138140","0.0-3.0-4.0-0.1","spark_pilot_2","7442","6","19","Male","","false","","","","","[350.30000001192093]","./assets/img/space/4.jpg","[""ArrowDown""]","first stage practice","space","0","null","null","ArrowDown","false","","","","","","","",""
"html-keyboard-response","23","138647","0.0-3.0-4.0-1.1","spark_pilot_2","7442","6","19","Male","","","","","","","null","<div style=""font-size:60px;"">+</div>","null","fixation","","","","","","","","","","","","","",""
"revaluation","24","142678","0.0-3.0-4.0-0.2","spark_pilot_2","7442","6","19","Male","","false","","","","","[471.19999998807907]","./assets/img/space/5.jpg","[""ArrowDown""]","first stage practice","space","0","null","null","ArrowDown","false","","","","","","","",""
"html-keyboard-response","25","143196","0.0-3.0-4.0-1.2","spark_pilot_2","7442","6","19","Male","","","","","","","null","<div style=""font-size:60px;"">+</div>","null","fixation","","","","","","","","","","","","","",""
"learning-instructions","26","154693","0.0-3.0-5.0-0.0","spark_pilot_2","7442","6","19","Male","","","","","","","1635.699999988079","<p> The animals don’t move, so the animal in the upper part of a place will stay in the upper part of a place, and the animal in the lower part of a place will stay in the lower part of a place. </p>","","instructions","","","","","","","","","","","","","",""
"learning-instructions","27","164524","0.0-3.0-5.0-0.1","spark_pilot_2","7442","6","19","Male","","","","","","","697.5999999940395","<p> Each animal has two treasure chests for you to choose from. </p>
            <p> The amount of treasure in each chest can range from <b> 0 to 40 pieces.</b></p>","","instructions","","","","","","","","","","","","","",""
"learning-instructions","28","176109","0.0-3.0-5.0-0.2","spark_pilot_2","7442","6","19","Male","","","","","","","391.90000000596046","<p> You should decide which chest to search for treasure by using the <b>left</b> and <b>right</b> arrow keys. </p>
            <p><b> Pay attention to which animal is on the screen, as the animals have different treasure chests. </b></p>
            <img src='./assets/img/instructions/leftright.jpg' class='instructions-image'>","","instructions","","","","","","","","","","","","","",""
"learning-instructions","29","182862","0.0-3.0-5.0-0.3","spark_pilot_2","7442","6","19","Male","","","","","","","395.09999999403954","<p> Let’s try practicing that now. </p>
            <p> When you see an animal, choose which chest to search for treasure. </p>
            <img src='./assets/img/instructions/chooseChest.jpg' class='instructions-image'>","","instructions","","","","","","","","","","","","","",""
"revaluation","30","186869","0.0-3.0-6.0-0.0","spark_pilot_2","7442","6","19","Male","","false","","","","","[843.7000000178814]","./assets/img/space/animals/cat.jpg","[""ArrowRight""]","second stage practice","space","36","{""ArrowUp,ArrowLeft"":3,""ArrowUp,ArrowRight"":36,""ArrowDown,ArrowLeft"":15,""ArrowDown,ArrowRight"":23}","true","ArrowUp,ArrowRight","","","","","","","","",""
"html-keyboard-response","31","187381","0.0-3.0-6.0-1.0","spark_pilot_2","7442","6","19","Male","","","","","","","null","<div style=""font-size:60px;"">+</div>","null","fixation","","","","","","","","","","","","","",""
"revaluation","32","191404","0.0-3.0-6.0-0.1","spark_pilot_2","7442","6","19","Male","","false","","","","","[984.0999999940395]","./assets/img/space/animals/rabbit.jpg","[""ArrowLeft""]","second stage practice","space","15","{""ArrowUp,ArrowLeft"":3,""ArrowUp,ArrowRight"":36,""ArrowDown,ArrowLeft"":15,""ArrowDown,ArrowRight"":23}","false","ArrowDown,ArrowLeft","","","","","","","","",""
"html-keyboard-response","33","191919","0.0-3.0-6.0-1.1","spark_pilot_2","7442","6","19","Male","","","","","","","null","<div style=""font-size:60px;"">+</div>","null","fixation","","","","","","","","","","","","","",""
"revaluation","34","195934","0.0-3.0-6.0-0.2","spark_pilot_2","7442","6","19","Male","","false","","","","","[858]","./assets/img/space/animals/cat.jpg","[""ArrowRight""]","second stage practice","space","36","{""ArrowUp,ArrowLeft"":3,""ArrowUp,ArrowRight"":36,""ArrowDown,ArrowLeft"":15,""ArrowDown,ArrowRight"":23}","true","ArrowUp,ArrowRight","","","","","","","","",""
"html-keyboard-response","35","196450","0.0-3.0-6.0-1.2","spark_pilot_2","7442","6","19","Male","","","","","","","null","<div style=""font-size:60px;"">+</div>","null","fixation","","","","","","","","","","","","","",""
"revaluation","36","200469","0.0-3.0-6.0-0.3","spark_pilot_2","7442","6","19","Male","","false","","","","","[846.1000000238419]","./assets/img/space/animals/rabbit.jpg","[""ArrowRight""]","second stage practice","space","23","{""ArrowUp,ArrowLeft"":3,""ArrowUp,ArrowRight"":36,""ArrowDown,ArrowLeft"":15,""ArrowDown,ArrowRight"":23}","true","ArrowDown,ArrowRight","","","","","","","","",""
"html-keyboard-response","37","200975","0.0-3.0-6.0-1.3","spark_pilot_2","7442","6","19","Male","","","","","","","null","<div style=""font-size:60px;"">+</div>","null","fixation","","","","","","","","","","","","","",""
"learning-instructions","38","218994","0.0-3.0-7.0-0.0","spark_pilot_2","7442","6","19","Male","","","","","","","1207.7999999821186","<p> Great job. Now let’s try putting it together. </p>
            <p> On each turn, you will first see a picture to remind you of the place you are in, and you need to choose whether to go up or down. </p>
            <p> Then you will see an animal and choose which of its chests to search for treasure. </p>","","instructions","","","","","","","","","","","","","",""
"learning-instructions","39","227639","0.0-3.0-7.0-0.1","spark_pilot_2","7442","6","19","Male","","","","","","","382.19999998807907","<p> When you choose whether to go up or down, try to go to the animal with the chest with the most treasure. </p>
            <p> Try practicing that now! </p>","","instructions","","","","","","","","","","","","","",""
"revaluation","40","233657","0.0-3.0-8.0-0.0","spark_pilot_2","7442","6","19","Male","","false","","","","","[887.1999999880791,881]","./assets/img/space/6.jpg","[""ArrowDown"",""ArrowRight""]","full practice","space","23","{""ArrowUp,ArrowLeft"":3,""ArrowUp,ArrowRight"":36,""ArrowDown,ArrowLeft"":15,""ArrowDown,ArrowRight"":23}","false","ArrowDown,ArrowRight","false","","","","","","","",""
"html-keyboard-response","41","234171","0.0-3.0-8.0-1.0","spark_pilot_2","7442","6","19","Male","","","","","","","null","<div style=""font-size:60px;"">+</div>","null","fixation","","","","","","","","","","","","","",""
"revaluation","42","240192","0.0-3.0-8.0-0.1","spark_pilot_2","7442","6","19","Male","","false","","","","","[711.6999999880791,581.5999999940395]","./assets/img/space/7.jpg","[""ArrowUp"",""ArrowRight""]","full practice","space","36","{""ArrowUp,ArrowLeft"":3,""ArrowUp,ArrowRight"":36,""ArrowDown,ArrowLeft"":15,""ArrowDown,ArrowRight"":23}","true","ArrowUp,ArrowRight","false","","","","","","","",""
"html-keyboard-response","43","240704","0.0-3.0-8.0-1.1","spark_pilot_2","7442","6","19","Male","","","","","","","null","<div style=""font-size:60px;"">+</div>","null","fixation","","","","","","","","","","","","","",""
"revaluation","44","246730","0.0-3.0-8.0-0.2","spark_pilot_2","7442","6","19","Male","","false","","","","","[511.59999999403954,479.19999998807907]","./assets/img/space/8.jpg","[""ArrowUp"",""ArrowLeft""]","full practice","space","3","{""ArrowUp,ArrowLeft"":3,""ArrowUp,ArrowRight"":36,""ArrowDown,ArrowLeft"":15,""ArrowDown,ArrowRight"":23}","false","ArrowUp,ArrowLeft","false","","","","","","","",""
"html-keyboard-response","45","247237","0.0-3.0-8.0-1.2","spark_pilot_2","7442","6","19","Male","","","","","","","null","<div style=""font-size:60px;"">+</div>","null","fixation","","","","","","","","","","","","","",""
"revaluation","46","253258","0.0-3.0-8.0-0.3","spark_pilot_2","7442","6","19","Male","","false","","","","","[408.5,594.1999999880791]","./assets/img/space/9.jpg","[""ArrowDown"",""ArrowRight""]","full practice","space","23","{""ArrowUp,ArrowLeft"":3,""ArrowUp,ArrowRight"":36,""ArrowDown,ArrowLeft"":15,""ArrowDown,ArrowRight"":23}","false","ArrowDown,ArrowRight","false","","","","","","","",""
"html-keyboard-response","47","253762","0.0-3.0-8.0-1.3","spark_pilot_2","7442","6","19","Male","","","","","","","null","<div style=""font-size:60px;"">+</div>","null","fixation","","","","","","","","","","","","","",""
"revaluation","48","259775","0.0-3.0-8.0-0.4","spark_pilot_2","7442","6","19","Male","","false","","","","","[266.2000000178814,1083.9000000059605]","./assets/img/space/10.jpg","[""ArrowUp"",""ArrowRight""]","full practice","space","36","{""ArrowUp,ArrowLeft"":3,""ArrowUp,ArrowRight"":36,""ArrowDown,ArrowLeft"":15,""ArrowDown,ArrowRight"":23}","true","ArrowUp,ArrowRight","false","","","","","","","",""
"html-keyboard-response","49","260276","0.0-3.0-8.0-1.4","spark_pilot_2","7442","6","19","Male","","","","","","","null","<div style=""font-size:60px;"">+</div>","null","fixation","","","","","","","","","","","","","",""
"learning-instructions","50","271561","0.0-3.0-9.0-0.0","spark_pilot_2","7442","6","19","Male","","","","","","","984.1000000238419","<p> One last thing: sometimes, you will see a robber. The robber can be anywhere in the picture. </p>
            <p> If you do not stop them, you will lose treasure. </p>
            <img src='./assets/img/instructions/robber.jpg' class='instructions-image'>","","instructions","","","","","","","","","","","","","",""
"learning-instructions","51","279117","0.0-3.0-9.0-0.1","spark_pilot_2","7442","6","19","Male","","","","","","","381.19999998807907","<p> If you see the robber, you should <b>press the space bar</b> rather than using the arrow keys. </p>
            <p> Try practicing that now! </p>","","instructions","","","","","","","","","","","","","",""
"revaluation","52","283140","0.0-3.0-10.0-0.0","spark_pilot_2","7442","6","19","Male","","false","","","","","[686.9000000059605]","./assets/img/space/catch/0.jpg","[""spaceBar""]","catch practice","space","0","{""ArrowUp,ArrowLeft"":3,""ArrowUp,ArrowRight"":36,""ArrowDown,ArrowLeft"":15,""ArrowDown,ArrowRight"":23}","true","spaceBar","true","","","","","","","",""
"html-keyboard-response","53","283650","0.0-3.0-10.0-1.0","spark_pilot_2","7442","6","19","Male","","","","","","","null","<div style=""font-size:60px;"">+</div>","null","fixation","","","","","","","","","","","","","",""
"revaluation","54","287668","0.0-3.0-10.0-0.1","spark_pilot_2","7442","6","19","Male","","false","","","","","[450.90000000596046]","./assets/img/space/catch/1.jpg","[""spaceBar""]","catch practice","space","0","{""ArrowUp,ArrowLeft"":3,""ArrowUp,ArrowRight"":36,""ArrowDown,ArrowLeft"":15,""ArrowDown,ArrowRight"":23}","true","spaceBar","true","","","","","","","",""
"html-keyboard-response","55","288184","0.0-3.0-10.0-1.1","spark_pilot_2","7442","6","19","Male","","","","","","","null","<div style=""font-size:60px;"">+</div>","null","fixation","","","","","","","","","","","","","",""
"revaluation","56","292201","0.0-3.0-10.0-0.2","spark_pilot_2","7442","6","19","Male","","false","","","","","[269]","./assets/img/space/catch/2.jpg","[""spaceBar""]","catch practice","space","0","{""ArrowUp,ArrowLeft"":3,""ArrowUp,ArrowRight"":36,""ArrowDown,ArrowLeft"":15,""ArrowDown,ArrowRight"":23}","true","spaceBar","true","","","","","","","",""
"html-keyboard-response","57","292713","0.0-3.0-10.0-1.2","spark_pilot_2","7442","6","19","Male","","","","","","","null","<div style=""font-size:60px;"">+</div>","null","fixation","","","","","","","","","","","","","",""
"learning-instructions","58","307315","0.0-3.0-11.0-0.0","spark_pilot_2","7442","6","19","Male","","","","","","","1008","<p> After you explore a place to find treasure, it will be time to play a different game. </p>
            <p> During this game, red dots will appear on the screen and fall down slowly. </p>
            <p><b> You must click on them before they reach the bottom. </b></p>
            <img src='./assets/img/instructions/dotGame.jpg' class='instructions-image'>","","instructions","","","","","","","","","","","","","",""
"learning-instructions","59","313942","0.0-3.0-11.0-0.1","spark_pilot_2","7442","6","19","Male","","","","","","","895.1999999880791","<p> For every dot you click, you will earn additional treasure. </p>
            <p> Let’s try practicing that now. </p>","","instructions","","","","","","","","","","","","","",""
"revaluation","60","328947","0.0-3.0-12.0-0.0","spark_pilot_2","7442","6","19","Male","","","","","","","[69,44]","","","rest practice","","20","","","","","0","15000","","","","","",""
"learning-instructions","61","335241","0.0-3.0-13.0-0.0-0.0","spark_pilot_2","7442","6","19","Male","","","","","","","1034.2999999821186","<p> Now, you will practice a shortened version of the game to get a sense of how it all fits together. </p>","","instructions","","","","","","","","","","","","","",""
"learning-instructions","62","339645","0.0-3.0-13.0-0.0-0.1","spark_pilot_2","7442","6","19","Male","","","","","","","1218.4000000059605","<p>This time you are searching for treasure in outer space.</p>","","instructions","","","","","","","","","","","","","",""
"learning-instructions","63","355968","0.0-3.0-13.0-1.0-0.0","spark_pilot_2","7442","6","19","Male","","","","","","","1551.300000011921","<p> Remember, when you see a picture of the place, use the up and down keys to <b>find an animal</b>.</p>
            <p> When you encounter an animal, you should use the left and right keys to <b>select a treasure chest</b>.</p>
            <p> Don't forget to look out for the robber! </p>","","instructions","","","","","","","","","","","","","",""
"revaluation","64","361992","0.0-3.0-13.0-2.0-0.0","spark_pilot_2","7442","6","19","Male","","false","","","","","[1048.5999999940395,364.60000002384186]","./assets/img/space/11.jpg","[""ArrowUp"",""ArrowRight""]","practice block","space","36","{""ArrowUp,ArrowLeft"":3,""ArrowUp,ArrowRight"":36,""ArrowDown,ArrowLeft"":15,""ArrowDown,ArrowRight"":23}","true","ArrowUp,ArrowRight","false","","","","","","","",""
"html-keyboard-response","65","362494","0.0-3.0-13.0-2.0-1.0","spark_pilot_2","7442","6","19","Male","","","","","","","null","<div style=""font-size:60px;"">+</div>","null","fixation","","","","","","","","","","","","","",""
"revaluation","66","368527","0.0-3.0-13.0-2.0-0.1","spark_pilot_2","7442","6","19","Male","","false","","","","","[838,402.90000000596046]","./assets/img/space/12.jpg","[""ArrowUp"",""ArrowRight""]","practice block","space","36","{""ArrowUp,ArrowLeft"":3,""ArrowUp,ArrowRight"":36,""ArrowDown,ArrowLeft"":15,""ArrowDown,ArrowRight"":23}","true","ArrowUp,ArrowRight","false","","","","","","","",""
"html-keyboard-response","67","369040","0.0-3.0-13.0-2.0-1.1","spark_pilot_2","7442","6","19","Male","","","","","","","null","<div style=""font-size:60px;"">+</div>","null","fixation","","","","","","","","","","","","","",""
"revaluation","68","375071","0.0-3.0-13.0-2.0-0.2","spark_pilot_2","7442","6","19","Male","","false","","","","","[518,282.7000000178814]","./assets/img/space/13.jpg","[""ArrowUp"",""ArrowRight""]","practice block","space","36","{""ArrowUp,ArrowLeft"":3,""ArrowUp,ArrowRight"":36,""ArrowDown,ArrowLeft"":15,""ArrowDown,ArrowRight"":23}","true","ArrowUp,ArrowRight","false","","","","","","","",""
"html-keyboard-response","69","375584","0.0-3.0-13.0-2.0-1.2","spark_pilot_2","7442","6","19","Male","","","","","","","null","<div style=""font-size:60px;"">+</div>","null","fixation","","","","","","","","","","","","","",""
"revaluation","70","381620","0.0-3.0-13.0-2.0-0.3","spark_pilot_2","7442","6","19","Male","","false","","","","","[735,554.8999999761581]","./assets/img/space/14.jpg","[""ArrowUp"",""ArrowRight""]","practice block","space","36","{""ArrowUp,ArrowLeft"":3,""ArrowUp,ArrowRight"":36,""ArrowDown,ArrowLeft"":15,""ArrowDown,ArrowRight"":23}","true","ArrowUp,ArrowRight","false","","","","","","","",""
"html-keyboard-response","71","382128","0.0-3.0-13.0-2.0-1.3","spark_pilot_2","7442","6","19","Male","","","","","","","null","<div style=""font-size:60px;"">+</div>","null","fixation","","","","","","","","","","","","","",""
"revaluation","72","388144","0.0-3.0-13.0-2.0-0.4","spark_pilot_2","7442","6","19","Male","","false","","","","","[989.5999999940395,719.4000000059605]","./assets/img/space/11.jpg","[""ArrowUp"",""ArrowRight""]","practice block","space","36","{""ArrowUp,ArrowLeft"":3,""ArrowUp,ArrowRight"":36,""ArrowDown,ArrowLeft"":15,""ArrowDown,ArrowRight"":23}","true","ArrowUp,ArrowRight","false","","","","","","","",""
"html-keyboard-response","73","388646","0.0-3.0-13.0-2.0-1.4","spark_pilot_2","7442","6","19","Male","","","","","","","null","<div style=""font-size:60px;"">+</div>","null","fixation","","","","","","","","","","","","","",""
"revaluation","74","394651","0.0-3.0-13.0-2.0-0.5","spark_pilot_2","7442","6","19","Male","","false","","","","","[470.90000000596046,466.89999997615814]","./assets/img/space/12.jpg","[""ArrowUp"",""ArrowRight""]","practice block","space","36","{""ArrowUp,ArrowLeft"":3,""ArrowUp,ArrowRight"":36,""ArrowDown,ArrowLeft"":15,""ArrowDown,ArrowRight"":23}","true","ArrowUp,ArrowRight","false","","","","","","","",""
"html-keyboard-response","75","395153","0.0-3.0-13.0-2.0-1.5","spark_pilot_2","7442","6","19","Male","","","","","","","null","<div style=""font-size:60px;"">+</div>","null","fixation","","","","","","","","","","","","","",""
"revaluation","76","401159","0.0-3.0-13.0-2.0-0.6","spark_pilot_2","7442","6","19","Male","","false","","","","","[732.3000000119209,319.59999999403954]","./assets/img/space/13.jpg","[""ArrowUp"",""ArrowRight""]","practice block","space","36","{""ArrowUp,ArrowLeft"":3,""ArrowUp,ArrowRight"":36,""ArrowDown,ArrowLeft"":15,""ArrowDown,ArrowRight"":23}","true","ArrowUp,ArrowRight","false","","","","","","","",""
"html-keyboard-response","77","401660","0.0-3.0-13.0-2.0-1.6","spark_pilot_2","7442","6","19","Male","","","","","","","null","<div style=""font-size:60px;"">+</div>","null","fixation","","","","","","","","","","","","","",""
"revaluation","78","407665","0.0-3.0-13.0-2.0-0.7","spark_pilot_2","7442","6","19","Male","","false","","","","","[738.0999999940395,328.90000000596046]","./assets/img/space/14.jpg","[""ArrowUp"",""ArrowRight""]","practice block","space","36","{""ArrowUp,ArrowLeft"":3,""ArrowUp,ArrowRight"":36,""ArrowDown,ArrowLeft"":15,""ArrowDown,ArrowRight"":23}","true","ArrowUp,ArrowRight","false","","","","","","","",""
"html-keyboard-response","79","408167","0.0-3.0-13.0-2.0-1.7","spark_pilot_2","7442","6","19","Male","","","","","","","null","<div style=""font-size:60px;"">+</div>","null","fixation","","","","","","","","","","","","","",""
"revaluation","80","412170","0.0-3.0-13.0-2.0-0.8","spark_pilot_2","7442","6","19","Male","","false","","","","","[451.80000001192093]","./assets/img/space/catch/3.jpg","[""spaceBar""]","practice block","space","0","{""ArrowUp,ArrowLeft"":3,""ArrowUp,ArrowRight"":36,""ArrowDown,ArrowLeft"":15,""ArrowDown,ArrowRight"":23}","true","spaceBar","true","","","","","","","",""
"html-keyboard-response","81","412671","0.0-3.0-13.0-2.0-1.8","spark_pilot_2","7442","6","19","Male","","","","","","","null","<div style=""font-size:60px;"">+</div>","null","fixation","","","","","","","","","","","","","",""
"learning-instructions","82","427194","0.0-3.0-13.0-3.0-0.0","spark_pilot_2","7442","6","19","Male","","","","","","","1325","<p> Now, you will travel with a friend who will choose whether you go up or down first. </p>
            <p> On these turns, you will just see the animal that they found. You will still get to choose which chest to search for treasure.</p>","","instructions","","","","","","","","","","","","","",""
"revaluation","83","431210","0.0-3.0-13.0-4.0-0.0","spark_pilot_2","7442","6","19","Male","","false","","","","","[982.0999999940395]","./assets/img/space/animals/cat.jpg","[""ArrowRight""]","practice block","space","36","{""ArrowUp,ArrowLeft"":3,""ArrowUp,ArrowRight"":36,""ArrowDown,ArrowLeft"":15,""ArrowDown,ArrowRight"":23}","true","ArrowUp,ArrowRight","","","","","","","","",""
"html-keyboard-response","84","431722","0.0-3.0-13.0-4.0-1.0","spark_pilot_2","7442","6","19","Male","","","","","","","null","<div style=""font-size:60px;"">+</div>","null","fixation","","","","","","","","","","","","","",""
"revaluation","85","435738","0.0-3.0-13.0-4.0-0.1","spark_pilot_2","7442","6","19","Male","","false","","","","","[441.90000000596046]","./assets/img/space/animals/cat.jpg","[""ArrowLeft""]","practice block","space","3","{""ArrowUp,ArrowLeft"":3,""ArrowUp,ArrowRight"":36,""ArrowDown,ArrowLeft"":15,""ArrowDown,ArrowRight"":23}","false","ArrowUp,ArrowLeft","","","","","","","","",""
"html-keyboard-response","86","436252","0.0-3.0-13.0-4.0-1.1","spark_pilot_2","7442","6","19","Male","","","","","","","null","<div style=""font-size:60px;"">+</div>","null","fixation","","","","","","","","","","","","","",""
"revaluation","87","440270","0.0-3.0-13.0-4.0-0.2","spark_pilot_2","7442","6","19","Male","","false","","","","","[596.0999999940395]","./assets/img/space/animals/rabbit.jpg","[""ArrowLeft""]","practice block","space","15","{""ArrowUp,ArrowLeft"":3,""ArrowUp,ArrowRight"":36,""ArrowDown,ArrowLeft"":15,""ArrowDown,ArrowRight"":23}","false","ArrowDown,ArrowLeft","","","","","","","","",""
"html-keyboard-response","88","440773","0.0-3.0-13.0-4.0-1.2","spark_pilot_2","7442","6","19","Male","","","","","","","null","<div style=""font-size:60px;"">+</div>","null","fixation","","","","","","","","","","","","","",""
"revaluation","89","444784","0.0-3.0-13.0-4.0-0.3","spark_pilot_2","7442","6","19","Male","","false","","","","","[568.7999999821186]","./assets/img/space/animals/rabbit.jpg","[""ArrowRight""]","practice block","space","23","{""ArrowUp,ArrowLeft"":3,""ArrowUp,ArrowRight"":36,""ArrowDown,ArrowLeft"":15,""ArrowDown,ArrowRight"":23}","true","ArrowDown,ArrowRight","","","","","","","","",""
"html-keyboard-response","90","445293","0.0-3.0-13.0-4.0-1.3","spark_pilot_2","7442","6","19","Male","","","","","","","null","<div style=""font-size:60px;"">+</div>","null","fixation","","","","","","","","","","","","","",""
"learning-instructions","91","454634","0.0-3.0-13.0-5.0-0.0","spark_pilot_2","7442","6","19","Male","","","","","","","1964.699999988079","<p> Time to play the dot game! </p>
            <p> For 15 seconds, click the red dots on the following screen as they appear. </p>","","instructions","","","","","","","","","","","","","",""
"revaluation","92","469636","0.0-3.0-13.0-6.0-0.0","spark_pilot_2","7442","6","19","Male","","","","","","","[57]","","","rest practice","","10","","","","","0","15000","","","","","",""
"learning-instructions","93","477181","0.0-3.0-13.0-7.0-0.0","spark_pilot_2","7442","6","19","Male","","","","","","","1422","<p> You have almost finished this part of the game! </p>
            <p> We are going to ask you to make a few more choices. </p>","","instructions","","","","","","","","","","","","","",""
"learning-instructions","94","491634","0.0-3.0-13.0-7.0-0.1","spark_pilot_2","7442","6","19","Male","","","","","","","444.7999999821186","<p> First, you need to decide whether to go up or down. When you see each picture, use the arrow keys to make your choice. </p>
            <p><b>You will not see which animal you found, but try to get to the one that will give you the most treasure.</b></p>","","instructions","","","","","","","","","","","","","",""
"revaluation","95","492559","0.0-3.0-13.0-8.0","spark_pilot_2","7442","6","19","Male","","false","","","","","[923.1999999880791]","./assets/img/space/15.jpg","[""ArrowUp""]","practice block","space","0","{""ArrowUp,ArrowLeft"":3,""ArrowUp,ArrowRight"":36,""ArrowDown,ArrowLeft"":15,""ArrowDown,ArrowRight"":23}","true","ArrowUp","false","","","","","","","",""
"html-keyboard-response","96","493070","0.0-3.0-13.0-9.0","spark_pilot_2","7442","6","19","Male","","","","","","","null","<div style=""font-size:60px;"">+</div>","null","fixation","","","","","","","","","","","","","",""
"learning-instructions","97","504902","0.0-3.0-13.0-10.0-0.0","spark_pilot_2","7442","6","19","Male","","","","","","","453.40000000596046","<p> Now you will see the animals again and can search their chests for treasure. </p>
            <p> This time, you will not see how much treasure you earned, but you will earn more bonus money for making better choices. </p>","","instructions","","","","","","","","","","","","","",""
"revaluation","98","505470","0.0-3.0-13.0-11.0-0.0","spark_pilot_2","7442","6","19","Male","","false","","","","","[565.9000000059605]","./assets/img/space/animals/cat.jpg","[""ArrowRight""]","practice block","space","0","{""ArrowUp,ArrowLeft"":3,""ArrowUp,ArrowRight"":36,""ArrowDown,ArrowLeft"":15,""ArrowDown,ArrowRight"":23}","true","ArrowUp,ArrowRight","","","","","","","","",""
"html-keyboard-response","99","505978","0.0-3.0-13.0-11.0-1.0","spark_pilot_2","7442","6","19","Male","","","","","","","null","<div style=""font-size:60px;"">+</div>","null","fixation","","","","","","","","","","","","","",""
"revaluation","100","506510","0.0-3.0-13.0-11.0-0.1","spark_pilot_2","7442","6","19","Male","","false","","","","","[529.6000000238419]","./assets/img/space/animals/rabbit.jpg","[""ArrowRight""]","practice block","space","0","{""ArrowUp,ArrowLeft"":3,""ArrowUp,ArrowRight"":36,""ArrowDown,ArrowLeft"":15,""ArrowDown,ArrowRight"":23}","true","ArrowDown,ArrowRight","","","","","","","","",""
"html-keyboard-response","101","507021","0.0-3.0-13.0-11.0-1.1","spark_pilot_2","7442","6","19","Male","","","","","","","null","<div style=""font-size:60px;"">+</div>","null","fixation","","","","","","","","","","","","","",""
"learning-instructions","102","513413","0.0-3.0-14.0-0.0","spark_pilot_2","7442","6","19","Male","","","","","","","1814","<p> Before you start, we're going to ask you a few questions about how the game works. </p>","","instructions","","","","","","","","","","","","","",""
"comp-q","103","519693","0.0-3.0-15.0-0.0-0.0","spark_pilot_2","7442","6","19","Male","","","","","","","691.2999999821186","<p> <b> True or False? </b> </p>
            <p> There can be 50 pieces of treasure in a given animal's chest. </p>","1","comp_question","","","","true","","","","","","","","","",""
"comp-q","104","527158","0.0-3.0-15.0-0.0-1.0","spark_pilot_2","7442","6","19","Male","","","","","","","799.7000000178814","<p> <b> That's right! </b> The amount of treasure in each chest can range from 0 to 40 pieces. </p>","0","comp_answer","","","","","","","","","","","","","",""
"comp-q","105","534756","0.0-3.0-15.0-0.1-0.1","spark_pilot_2","7442","6","19","Male","","","","","","","478.09999999403954","<p> <b> True or False? </b> </p><p> In this game, all animals have the same amount of treasure in their left and right chests. </p>","1","comp_question","","","","true","","","","","","","","","",""
"comp-q","106","541437","0.0-3.0-15.0-0.1-1.1","spark_pilot_2","7442","6","19","Male","","","","","","","1447.699999988079","<p> <b> That's right! </b> Animals have different amounts of treasure in their treasure chests. </p>","0","comp_answer","","","","","","","","","","","","","",""
"comp-q","107","547850","0.0-3.0-15.0-0.2-0.2","spark_pilot_2","7442","6","19","Male","","","","","","","571.5","<p> <b> True or False? </b> </p><p> The same animal will always be there if you go up in the same place. </p>","0","comp_question","","","","true","","","","","","","","","",""
"comp-q","108","555169","0.0-3.0-15.0-0.2-1.2","spark_pilot_2","7442","6","19","Male","","","","","","","879.9000000059605","<p> <b> That's right! </b> One animal lives in the upper part and one lives in the lower part of every place. </p>","0","comp_answer","","","","","","","","","","","","","",""
"comp-q","109","561070","0.0-3.0-15.0-0.3-0.3","spark_pilot_2","7442","6","19","Male","","","","","","","382","<p> <b> True or False? </b> </p><p> If you see a different picture, it means you are in a new place. </p>","0","comp_question","","","","false","","","","","","","","","",""
"comp-q","110","573492","0.0-3.0-15.0-0.3-1.3","spark_pilot_2","7442","6","19","Male","","","","","","","1322.8999999761581","<p> <b>Incorrect.</b> Lots of different images may show the same place. For example,  you may see three different images that all remind you that you are in outer space. </p>","0","comp_answer","","","","","","","","","","","","","",""
"comp-q","111","579654","0.0-3.0-15.0-0.4-0.4","spark_pilot_2","7442","6","19","Male","","","","","","","655.7999999821186","<p> <b> True or False? </b> </p><p> If you see a different picture, it means you are in a new place. </p>","1","comp_question","","","","true","","","","","","","","","",""
"comp-q","112","592385","0.0-3.0-15.0-0.4-1.4","spark_pilot_2","7442","6","19","Male","","","","","","","1495.4000000059605","<p> <b> That's right! </b> Lots of different images may show the same place. For example,  you may see three different images that all remind you that you are in outer space. </p>","0","comp_answer","","","","","","","","","","","","","",""
"learning-instructions","113","603030","0.0-3.0-16.0-0.0","spark_pilot_2","7442","6","19","Male","","","","","","","790.1000000238419","<p> Good job. Remember to do your best because the amount of treasure you earn will be converted into bonus money. </p>
            <p> It’s time to start the real game! </p>","","instructions","","","","","","","","","","","","","",""
"learning-instructions","114","606925","0.0-4.0-0.0-0.0","spark_pilot_2","7442","6","19","Male","","","","","","","1115.5999999940395","<p> This time you are searching for treasure in the <b>canyon</b>.</p>","","instructions","","","","","","","","","","","","","",""
"learning-instructions","115","624602","0.0-4.0-0.0-0.1","spark_pilot_2","7442","6","19","Male","","","","","","","373.5","<p><b>New</b> animals with <b>new</b> treasure chests live here. You need to explore to discover where the animal with the best treasure chest is.</p>
                    <p> Like before, once you figure out which animal has the chest with the most treasure, you should try to get to that animal and select that chest! </p>","","instructions","","","","","","","","","","","","","",""
"learning-instructions","116","639691","0.0-4.0-1.0-0.0","spark_pilot_2","7442","6","19","Male","","","","","","","361.7999999821186","<p> Remember, when you see a picture of the place, use the up and down keys to <b>find an animal</b>.</p>
            <p> When you encounter an animal, you should use the left and right keys to <b>select a treasure chest</b>.</p>
            <p> Don't forget to look out for the robber! </p>","","instructions","","","","","","","","","","","","","",""
"revaluation","117","645724","0.0-4.0-2.0-0.0","spark_pilot_2","7442","6","19","Male","","false","","","","","[1083.2000000178814,400]","./assets/img/canyon/memory/30.jpg","[""ArrowUp"",""ArrowRight""]","value training","canyon","10","{""ArrowUp,ArrowLeft"":23,""ArrowUp,ArrowRight"":10,""ArrowDown,ArrowLeft"":8,""ArrowDown,ArrowRight"":30}","false","ArrowUp,ArrowRight","false","","","revaluation","1","0","","",""
"html-keyboard-response","118","646236","0.0-4.0-2.0-1.0","spark_pilot_2","7442","6","19","Male","","","","","","","null","<div style=""font-size:60px;"">+</div>","null","fixation","","","","","","","","","","","1","","",""
"revaluation","119","652250","0.0-4.0-2.0-0.1","spark_pilot_2","7442","6","19","Male","","false","","","","","[571.5999999940395,296]","./assets/img/canyon/memory/2.jpg","[""ArrowUp"",""ArrowLeft""]","value training","canyon","23","{""ArrowUp,ArrowLeft"":23,""ArrowUp,ArrowRight"":10,""ArrowDown,ArrowLeft"":8,""ArrowDown,ArrowRight"":30}","false","ArrowUp,ArrowLeft","false","","","revaluation","1","2","","",""
"html-keyboard-response","120","652766","0.0-4.0-2.0-1.1","spark_pilot_2","7442","6","19","Male","","","","","","","null","<div style=""font-size:60px;"">+</div>","null","fixation","","","","","","","","","","","3","","",""
"revaluation","121","658791","0.0-4.0-2.0-0.2","spark_pilot_2","7442","6","19","Male","","false","","","","","[696.9000000059605,295.10000002384186]","./assets/img/canyon/memory/26.jpg","[""ArrowDown"",""ArrowLeft""]","value training","canyon","8","{""ArrowUp,ArrowLeft"":23,""ArrowUp,ArrowRight"":10,""ArrowDown,ArrowLeft"":8,""ArrowDown,ArrowRight"":30}","false","ArrowDown,ArrowLeft","false","","","revaluation","1","4","","",""
"html-keyboard-response","122","659307","0.0-4.0-2.0-1.2","spark_pilot_2","7442","6","19","Male","","","","","","","null","<div style=""font-size:60px;"">+</div>","null","fixation","","","","","","","","","","","5","","",""
"revaluation","123","665350","0.0-4.0-2.0-0.3","spark_pilot_2","7442","6","19","Male","","false","","","","","[730.8000000119209,553.7000000178814]","./assets/img/canyon/memory/8.jpg","[""ArrowDown"",""ArrowRight""]","value training","canyon","30","{""ArrowUp,ArrowLeft"":23,""ArrowUp,ArrowRight"":10,""ArrowDown,ArrowLeft"":8,""ArrowDown,ArrowRight"":30}","true","ArrowDown,ArrowRight","false","","","revaluation","1","6","","",""
"html-keyboard-response","124","665858","0.0-4.0-2.0-1.3","spark_pilot_2","7442","6","19","Male","","","","","","","null","<div style=""font-size:60px;"">+</div>","null","fixation","","","","","","","","","","","7","","",""
"revaluation","125","671868","0.0-4.0-2.0-0.4","spark_pilot_2","7442","6","19","Male","","false","","","","","[498.59999999403954,292.69999998807907]","./assets/img/canyon/memory/25.jpg","[""ArrowDown"",""ArrowRight""]","value training","canyon","30","{""ArrowUp,ArrowLeft"":23,""ArrowUp,ArrowRight"":10,""ArrowDown,ArrowLeft"":8,""ArrowDown,ArrowRight"":30}","true","ArrowDown,ArrowRight","false","","","revaluation","1","8","","",""
"html-keyboard-response","126","672369","0.0-4.0-2.0-1.4","spark_pilot_2","7442","6","19","Male","","","","","","","null","<div style=""font-size:60px;"">+</div>","null","fixation","","","","","","","","","","","9","","",""
"revaluation","127","678373","0.0-4.0-2.0-0.5","spark_pilot_2","7442","6","19","Male","","false","","","","","[419.40000000596046,466.19999998807907]","./assets/img/canyon/memory/34.jpg","[""ArrowDown"",""ArrowRight""]","value training","canyon","30","{""ArrowUp,ArrowLeft"":23,""ArrowUp,ArrowRight"":10,""ArrowDown,ArrowLeft"":8,""ArrowDown,ArrowRight"":30}","true","ArrowDown,ArrowRight","false","","","revaluation","1","10","","",""
"html-keyboard-response","128","678875","0.0-4.0-2.0-1.5","spark_pilot_2","7442","6","19","Male","","","","","","","null","<div style=""font-size:60px;"">+</div>","null","fixation","","","","","","","","","","","11","","",""
"revaluation","129","684881","0.0-4.0-2.0-0.6","spark_pilot_2","7442","6","19","Male","","false","","","","","[663,472.30000001192093]","./assets/img/canyon/memory/30.jpg","[""ArrowDown"",""ArrowRight""]","value training","canyon","30","{""ArrowUp,ArrowLeft"":23,""ArrowUp,ArrowRight"":10,""ArrowDown,ArrowLeft"":8,""ArrowDown,ArrowRight"":30}","true","ArrowDown,ArrowRight","false","","","revaluation","1","12","","",""
"html-keyboard-response","130","685383","0.0-4.0-2.0-1.6","spark_pilot_2","7442","6","19","Male","","","","","","","null","<div style=""font-size:60px;"">+</div>","null","fixation","","","","","","","","","","","13","","",""
"revaluation","131","691387","0.0-4.0-2.0-0.7","spark_pilot_2","7442","6","19","Male","","false","","","","","[759.7000000178814,464.69999998807907]","./assets/img/canyon/memory/12.jpg","[""ArrowDown"",""ArrowRight""]","value training","canyon","30","{""ArrowUp,ArrowLeft"":23,""ArrowUp,ArrowRight"":10,""ArrowDown,ArrowLeft"":8,""ArrowDown,ArrowRight"":30}","true","ArrowDown,ArrowRight","false","","","revaluation","1","14","","",""
"html-keyboard-response","132","691895","0.0-4.0-2.0-1.7","spark_pilot_2","7442","6","19","Male","","","","","","","null","<div style=""font-size:60px;"">+</div>","null","fixation","","","","","","","","","","","15","","",""
"revaluation","133","697899","0.0-4.0-2.0-0.8","spark_pilot_2","7442","6","19","Male","","false","","","","","[590.5,486.80000001192093]","./assets/img/canyon/memory/41.jpg","[""ArrowDown"",""ArrowRight""]","value training","canyon","30","{""ArrowUp,ArrowLeft"":23,""ArrowUp,ArrowRight"":10,""ArrowDown,ArrowLeft"":8,""ArrowDown,ArrowRight"":30}","true","ArrowDown,ArrowRight","false","","","revaluation","1","16","","",""
"html-keyboard-response","134","698401","0.0-4.0-2.0-1.8","spark_pilot_2","7442","6","19","Male","","","","","","","null","<div style=""font-size:60px;"">+</div>","null","fixation","","","","","","","","","","","17","","",""
"revaluation","135","704405","0.0-4.0-2.0-0.9","spark_pilot_2","7442","6","19","Male","","false","","","","","[501.30000001192093,448.5]","./assets/img/canyon/memory/16.jpg","[""ArrowDown"",""ArrowRight""]","value training","canyon","30","{""ArrowUp,ArrowLeft"":23,""ArrowUp,ArrowRight"":10,""ArrowDown,ArrowLeft"":8,""ArrowDown,ArrowRight"":30}","true","ArrowDown,ArrowRight","false","","","revaluation","1","18","","",""
"html-keyboard-response","136","704906","0.0-4.0-2.0-1.9","spark_pilot_2","7442","6","19","Male","","","","","","","null","<div style=""font-size:60px;"">+</div>","null","fixation","","","","","","","","","","","19","","",""
"revaluation","137","708911","0.0-4.0-2.0-0.10","spark_pilot_2","7442","6","19","Male","","false","","","","","[811.8000000119209]","./assets/img/canyon/catch/3.jpg","[""spaceBar""]","value training","canyon","0","{""ArrowUp,ArrowLeft"":23,""ArrowUp,ArrowRight"":10,""ArrowDown,ArrowLeft"":8,""ArrowDown,ArrowRight"":30}","true","spaceBar","true","","","revaluation","1","20","","",""
"html-keyboard-response","138","709413","0.0-4.0-2.0-1.10","spark_pilot_2","7442","6","19","Male","","","","","","","null","<div style=""font-size:60px;"">+</div>","null","fixation","","","","","","","","","","","21","","",""
"revaluation","139","715417","0.0-4.0-2.0-0.11","spark_pilot_2","7442","6","19","Male","","false","","","","","[523.6999999880791,330.69999998807907]","./assets/img/canyon/memory/0.jpg","[""ArrowDown"",""ArrowRight""]","value training","canyon","30","{""ArrowUp,ArrowLeft"":23,""ArrowUp,ArrowRight"":10,""ArrowDown,ArrowLeft"":8,""ArrowDown,ArrowRight"":30}","true","ArrowDown,ArrowRight","false","","","revaluation","1","22","","",""
"html-keyboard-response","140","715919","0.0-4.0-2.0-1.11","spark_pilot_2","7442","6","19","Male","","","","","","","null","<div style=""font-size:60px;"">+</div>","null","fixation","","","","","","","","","","","23","","",""
"revaluation","141","721934","0.0-4.0-2.0-0.12","spark_pilot_2","7442","6","19","Male","","false","","","","","[555.6999999880791,304.40000000596046]","./assets/img/canyon/memory/26.jpg","[""ArrowDown"",""ArrowRight""]","value training","canyon","30","{""ArrowUp,ArrowLeft"":23,""ArrowUp,ArrowRight"":10,""ArrowDown,ArrowLeft"":8,""ArrowDown,ArrowRight"":30}","true","ArrowDown,ArrowRight","false","","","revaluation","1","24","","",""
"html-keyboard-response","142","722436","0.0-4.0-2.0-1.12","spark_pilot_2","7442","6","19","Male","","","","","","","null","<div style=""font-size:60px;"">+</div>","null","fixation","","","","","","","","","","","25","","",""
"revaluation","143","728442","0.0-4.0-2.0-0.13","spark_pilot_2","7442","6","19","Male","","false","","","","","[647.0999999940395,1138.2000000178814]","./assets/img/canyon/memory/8.jpg","[""ArrowDown"",""ArrowRight""]","value training","canyon","30","{""ArrowUp,ArrowLeft"":23,""ArrowUp,ArrowRight"":10,""ArrowDown,ArrowLeft"":8,""ArrowDown,ArrowRight"":30}","true","ArrowDown,ArrowRight","false","","","revaluation","1","26","","",""
"html-keyboard-response","144","728943","0.0-4.0-2.0-1.13","spark_pilot_2","7442","6","19","Male","","","","","","","null","<div style=""font-size:60px;"">+</div>","null","fixation","","","","","","","","","","","27","","",""
"revaluation","145","732947","0.0-4.0-2.0-0.14","spark_pilot_2","7442","6","19","Male","","false","","","","","[629]","./assets/img/canyon/catch/1.jpg","[""spaceBar""]","value training","canyon","0","{""ArrowUp,ArrowLeft"":23,""ArrowUp,ArrowRight"":10,""ArrowDown,ArrowLeft"":8,""ArrowDown,ArrowRight"":30}","true","spaceBar","true","","","revaluation","1","28","","",""
"html-keyboard-response","146","733455","0.0-4.0-2.0-1.14","spark_pilot_2","7442","6","19","Male","","","","","","","null","<div style=""font-size:60px;"">+</div>","null","fixation","","","","","","","","","","","29","","",""
"revaluation","147","739461","0.0-4.0-2.0-0.15","spark_pilot_2","7442","6","19","Male","","false","","","","","[625.5,484.59999999403954]","./assets/img/canyon/memory/11.jpg","[""ArrowDown"",""ArrowRight""]","value training","canyon","30","{""ArrowUp,ArrowLeft"":23,""ArrowUp,ArrowRight"":10,""ArrowDown,ArrowLeft"":8,""ArrowDown,ArrowRight"":30}","true","ArrowDown,ArrowRight","false","","","revaluation","1","30","","",""
"html-keyboard-response","148","739962","0.0-4.0-2.0-1.15","spark_pilot_2","7442","6","19","Male","","","","","","","null","<div style=""font-size:60px;"">+</div>","null","fixation","","","","","","","","","","","31","","",""
"revaluation","149","745967","0.0-4.0-2.0-0.16","spark_pilot_2","7442","6","19","Male","","false","","","","","[710.7999999821186,463.30000001192093]","./assets/img/canyon/memory/16.jpg","[""ArrowDown"",""ArrowRight""]","value training","canyon","30","{""ArrowUp,ArrowLeft"":23,""ArrowUp,ArrowRight"":10,""ArrowDown,ArrowLeft"":8,""ArrowDown,ArrowRight"":30}","true","ArrowDown,ArrowRight","false","","","revaluation","1","32","","",""
"html-keyboard-response","150","746469","0.0-4.0-2.0-1.16","spark_pilot_2","7442","6","19","Male","","","","","","","null","<div style=""font-size:60px;"">+</div>","null","fixation","","","","","","","","","","","33","","",""
"revaluation","151","752473","0.0-4.0-2.0-0.17","spark_pilot_2","7442","6","19","Male","","false","","","","","[774.5,565.0999999940395]","./assets/img/canyon/memory/40.jpg","[""ArrowDown"",""ArrowRight""]","value training","canyon","30","{""ArrowUp,ArrowLeft"":23,""ArrowUp,ArrowRight"":10,""ArrowDown,ArrowLeft"":8,""ArrowDown,ArrowRight"":30}","true","ArrowDown,ArrowRight","false","","","revaluation","1","34","","",""
"html-keyboard-response","152","752975","0.0-4.0-2.0-1.17","spark_pilot_2","7442","6","19","Male","","","","","","","null","<div style=""font-size:60px;"">+</div>","null","fixation","","","","","","","","","","","35","","",""
"revaluation","153","758979","0.0-4.0-2.0-0.18","spark_pilot_2","7442","6","19","Male","","false","","","","","[1118.2999999821186,401.10000002384186]","./assets/img/canyon/memory/34.jpg","[""ArrowDown"",""ArrowRight""]","value training","canyon","30","{""ArrowUp,ArrowLeft"":23,""ArrowUp,ArrowRight"":10,""ArrowDown,ArrowLeft"":8,""ArrowDown,ArrowRight"":30}","true","ArrowDown,ArrowRight","false","","","revaluation","1","36","","",""
"html-keyboard-response","154","759481","0.0-4.0-2.0-1.18","spark_pilot_2","7442","6","19","Male","","","","","","","null","<div style=""font-size:60px;"">+</div>","null","fixation","","","","","","","","","","","37","","",""
"revaluation","155","765487","0.0-4.0-2.0-0.19","spark_pilot_2","7442","6","19","Male","","false","","","","","[766.9000000059605,389.2000000178814]","./assets/img/canyon/memory/4.jpg","[""ArrowDown"",""ArrowRight""]","value training","canyon","30","{""ArrowUp,ArrowLeft"":23,""ArrowUp,ArrowRight"":10,""ArrowDown,ArrowLeft"":8,""ArrowDown,ArrowRight"":30}","true","ArrowDown,ArrowRight","false","","","revaluation","1","38","","",""
"html-keyboard-response","156","765988","0.0-4.0-2.0-1.19","spark_pilot_2","7442","6","19","Male","","","","","","","null","<div style=""font-size:60px;"">+</div>","null","fixation","","","","","","","","","","","39","","",""
"revaluation","157","771993","0.0-4.0-2.0-0.20","spark_pilot_2","7442","6","19","Male","","false","","","","","[1372.4000000059605,358.69999998807907]","./assets/img/canyon/memory/0.jpg","[""ArrowDown"",""ArrowRight""]","value training","canyon","30","{""ArrowUp,ArrowLeft"":23,""ArrowUp,ArrowRight"":10,""ArrowDown,ArrowLeft"":8,""ArrowDown,ArrowRight"":30}","true","ArrowDown,ArrowRight","false","","","revaluation","1","40","","",""
"html-keyboard-response","158","772494","0.0-4.0-2.0-1.20","spark_pilot_2","7442","6","19","Male","","","","","","","null","<div style=""font-size:60px;"">+</div>","null","fixation","","","","","","","","","","","41","","",""
"revaluation","159","778499","0.0-4.0-2.0-0.21","spark_pilot_2","7442","6","19","Male","","false","","","","","[738.4000000059605,376.59999999403954]","./assets/img/canyon/memory/5.jpg","[""ArrowDown"",""ArrowRight""]","value training","canyon","30","{""ArrowUp,ArrowLeft"":23,""ArrowUp,ArrowRight"":10,""ArrowDown,ArrowLeft"":8,""ArrowDown,ArrowRight"":30}","true","ArrowDown,ArrowRight","false","","","revaluation","1","42","","",""
"html-keyboard-response","160","779000","0.0-4.0-2.0-1.21","spark_pilot_2","7442","6","19","Male","","","","","","","null","<div style=""font-size:60px;"">+</div>","null","fixation","","","","","","","","","","","43","","",""
"revaluation","161","785004","0.0-4.0-2.0-0.22","spark_pilot_2","7442","6","19","Male","","false","","","","","[539.5999999940395,618.5999999940395]","./assets/img/canyon/memory/13.jpg","[""ArrowDown"",""ArrowRight""]","value training","canyon","30","{""ArrowUp,ArrowLeft"":23,""ArrowUp,ArrowRight"":10,""ArrowDown,ArrowLeft"":8,""ArrowDown,ArrowRight"":30}","true","ArrowDown,ArrowRight","false","","","revaluation","1","44","","",""
"html-keyboard-response","162","785505","0.0-4.0-2.0-1.22","spark_pilot_2","7442","6","19","Male","","","","","","","null","<div style=""font-size:60px;"">+</div>","null","fixation","","","","","","","","","","","45","","",""
"revaluation","163","791510","0.0-4.0-2.0-0.23","spark_pilot_2","7442","6","19","Male","","false","","","","","[414.59999999403954,621.7999999821186]","./assets/img/canyon/memory/41.jpg","[""ArrowDown"",""ArrowRight""]","value training","canyon","30","{""ArrowUp,ArrowLeft"":23,""ArrowUp,ArrowRight"":10,""ArrowDown,ArrowLeft"":8,""ArrowDown,ArrowRight"":30}","true","ArrowDown,ArrowRight","false","","","revaluation","1","46","","",""
"html-keyboard-response","164","792012","0.0-4.0-2.0-1.23","spark_pilot_2","7442","6","19","Male","","","","","","","null","<div style=""font-size:60px;"">+</div>","null","fixation","","","","","","","","","","","47","","",""
"revaluation","165","798017","0.0-4.0-2.0-0.24","spark_pilot_2","7442","6","19","Male","","false","","","","","[593.6999999880791,505.30000001192093]","./assets/img/canyon/memory/29.jpg","[""ArrowDown"",""ArrowRight""]","value training","canyon","30","{""ArrowUp,ArrowLeft"":23,""ArrowUp,ArrowRight"":10,""ArrowDown,ArrowLeft"":8,""ArrowDown,ArrowRight"":30}","true","ArrowDown,ArrowRight","false","","","revaluation","1","48","","",""
"html-keyboard-response","166","798519","0.0-4.0-2.0-1.24","spark_pilot_2","7442","6","19","Male","","","","","","","null","<div style=""font-size:60px;"">+</div>","null","fixation","","","","","","","","","","","49","","",""
"revaluation","167","804525","0.0-4.0-2.0-0.25","spark_pilot_2","7442","6","19","Male","","false","","","","","[670.1999999880791,1190.5999999940395]","./assets/img/canyon/memory/5.jpg","[""ArrowDown"",""ArrowRight""]","value training","canyon","30","{""ArrowUp,ArrowLeft"":23,""ArrowUp,ArrowRight"":10,""ArrowDown,ArrowLeft"":8,""ArrowDown,ArrowRight"":30}","true","ArrowDown,ArrowRight","false","","","revaluation","1","50","","",""
"html-keyboard-response","168","805026","0.0-4.0-2.0-1.25","spark_pilot_2","7442","6","19","Male","","","","","","","null","<div style=""font-size:60px;"">+</div>","null","fixation","","","","","","","","","","","51","","",""
"revaluation","169","811040","0.0-4.0-2.0-0.26","spark_pilot_2","7442","6","19","Male","","false","","","","","[1228.699999988079,556.9000000059605]","./assets/img/canyon/memory/2.jpg","[""ArrowDown"",""ArrowRight""]","value training","canyon","30","{""ArrowUp,ArrowLeft"":23,""ArrowUp,ArrowRight"":10,""ArrowDown,ArrowLeft"":8,""ArrowDown,ArrowRight"":30}","true","ArrowDown,ArrowRight","false","","","revaluation","1","52","","",""
"html-keyboard-response","170","811542","0.0-4.0-2.0-1.26","spark_pilot_2","7442","6","19","Male","","","","","","","null","<div style=""font-size:60px;"">+</div>","null","fixation","","","","","","","","","","","53","","",""
"revaluation","171","817547","0.0-4.0-2.0-0.27","spark_pilot_2","7442","6","19","Male","","false","","","","","[582.9000000059605,432.2000000178814]","./assets/img/canyon/memory/13.jpg","[""ArrowDown"",""ArrowRight""]","value training","canyon","30","{""ArrowUp,ArrowLeft"":23,""ArrowUp,ArrowRight"":10,""ArrowDown,ArrowLeft"":8,""ArrowDown,ArrowRight"":30}","true","ArrowDown,ArrowRight","false","","","revaluation","1","54","","",""
"html-keyboard-response","172","818048","0.0-4.0-2.0-1.27","spark_pilot_2","7442","6","19","Male","","","","","","","null","<div style=""font-size:60px;"">+</div>","null","fixation","","","","","","","","","","","55","","",""
"revaluation","173","822052","0.0-4.0-2.0-0.28","spark_pilot_2","7442","6","19","Male","","false","","","","","[470.2999999821186]","./assets/img/canyon/catch/5.jpg","[""spaceBar""]","value training","canyon","0","{""ArrowUp,ArrowLeft"":23,""ArrowUp,ArrowRight"":10,""ArrowDown,ArrowLeft"":8,""ArrowDown,ArrowRight"":30}","true","spaceBar","true","","","revaluation","1","56","","",""
"html-keyboard-response","174","822554","0.0-4.0-2.0-1.28","spark_pilot_2","7442","6","19","Male","","","","","","","null","<div style=""font-size:60px;"">+</div>","null","fixation","","","","","","","","","","","57","","",""
"revaluation","175","828557","0.0-4.0-2.0-0.29","spark_pilot_2","7442","6","19","Male","","false","","","","","[636.4000000059605,372.7000000178814]","./assets/img/canyon/memory/21.jpg","[""ArrowDown"",""ArrowRight""]","value training","canyon","30","{""ArrowUp,ArrowLeft"":23,""ArrowUp,ArrowRight"":10,""ArrowDown,ArrowLeft"":8,""ArrowDown,ArrowRight"":30}","true","ArrowDown,ArrowRight","false","","","revaluation","1","58","","",""
"html-keyboard-response","176","829058","0.0-4.0-2.0-1.29","spark_pilot_2","7442","6","19","Male","","","","","","","null","<div style=""font-size:60px;"">+</div>","null","fixation","","","","","","","","","","","59","","",""
"revaluation","177","833062","0.0-4.0-2.0-0.30","spark_pilot_2","7442","6","19","Male","","false","","","","","[851.6999999880791]","./assets/img/canyon/catch/7.jpg","[""spaceBar""]","value training","canyon","0","{""ArrowUp,ArrowLeft"":23,""ArrowUp,ArrowRight"":10,""ArrowDown,ArrowLeft"":8,""ArrowDown,ArrowRight"":30}","true","spaceBar","true","","","revaluation","1","60","","",""
"html-keyboard-response","178","833564","0.0-4.0-2.0-1.30","spark_pilot_2","7442","6","19","Male","","","","","","","null","<div style=""font-size:60px;"">+</div>","null","fixation","","","","","","","","","","","61","","",""
"revaluation","179","839568","0.0-4.0-2.0-0.31","spark_pilot_2","7442","6","19","Male","","false","","","","","[617.5,664.9000000059605]","./assets/img/canyon/memory/11.jpg","[""ArrowDown"",""ArrowRight""]","value training","canyon","30","{""ArrowUp,ArrowLeft"":23,""ArrowUp,ArrowRight"":10,""ArrowDown,ArrowLeft"":8,""ArrowDown,ArrowRight"":30}","true","ArrowDown,ArrowRight","false","","","revaluation","1","62","","",""
"html-keyboard-response","180","840070","0.0-4.0-2.0-1.31","spark_pilot_2","7442","6","19","Male","","","","","","","null","<div style=""font-size:60px;"">+</div>","null","fixation","","","","","","","","","","","63","","",""
"revaluation","181","846075","0.0-4.0-2.0-0.32","spark_pilot_2","7442","6","19","Male","","false","","","","","[485.40000000596046,452.80000001192093]","./assets/img/canyon/memory/29.jpg","[""ArrowDown"",""ArrowRight""]","value training","canyon","30","{""ArrowUp,ArrowLeft"":23,""ArrowUp,ArrowRight"":10,""ArrowDown,ArrowLeft"":8,""ArrowDown,ArrowRight"":30}","true","ArrowDown,ArrowRight","false","","","revaluation","1","64","","",""
"html-keyboard-response","182","846577","0.0-4.0-2.0-1.32","spark_pilot_2","7442","6","19","Male","","","","","","","null","<div style=""font-size:60px;"">+</div>","null","fixation","","","","","","","","","","","65","","",""
"revaluation","183","852583","0.0-4.0-2.0-0.33","spark_pilot_2","7442","6","19","Male","","false","","","","","[571.0999999940395,484.09999999403954]","./assets/img/canyon/memory/40.jpg","[""ArrowDown"",""ArrowRight""]","value training","canyon","30","{""ArrowUp,ArrowLeft"":23,""ArrowUp,ArrowRight"":10,""ArrowDown,ArrowLeft"":8,""ArrowDown,ArrowRight"":30}","true","ArrowDown,ArrowRight","false","","","revaluation","1","66","","",""
"html-keyboard-response","184","853084","0.0-4.0-2.0-1.33","spark_pilot_2","7442","6","19","Male","","","","","","","null","<div style=""font-size:60px;"">+</div>","null","fixation","","","","","","","","","","","67","","",""
"revaluation","185","859088","0.0-4.0-2.0-0.34","spark_pilot_2","7442","6","19","Male","","false","","","","","[480.5,1035.6000000238419]","./assets/img/canyon/memory/22.jpg","[""ArrowDown"",""ArrowRight""]","value training","canyon","30","{""ArrowUp,ArrowLeft"":23,""ArrowUp,ArrowRight"":10,""ArrowDown,ArrowLeft"":8,""ArrowDown,ArrowRight"":30}","true","ArrowDown,ArrowRight","false","","","revaluation","1","68","","",""
"html-keyboard-response","186","859591","0.0-4.0-2.0-1.34","spark_pilot_2","7442","6","19","Male","","","","","","","null","<div style=""font-size:60px;"">+</div>","null","fixation","","","","","","","","","","","69","","",""
"revaluation","187","865596","0.0-4.0-2.0-0.35","spark_pilot_2","7442","6","19","Male","","false","","","","","[875,696.3000000119209]","./assets/img/canyon/memory/23.jpg","[""ArrowDown"",""ArrowRight""]","value training","canyon","30","{""ArrowUp,ArrowLeft"":23,""ArrowUp,ArrowRight"":10,""ArrowDown,ArrowLeft"":8,""ArrowDown,ArrowRight"":30}","true","ArrowDown,ArrowRight","false","","","revaluation","1","70","","",""
"html-keyboard-response","188","866097","0.0-4.0-2.0-1.35","spark_pilot_2","7442","6","19","Male","","","","","","","null","<div style=""font-size:60px;"">+</div>","null","fixation","","","","","","","","","","","71","","",""
"revaluation","189","870101","0.0-4.0-2.0-0.36","spark_pilot_2","7442","6","19","Male","","false","","","","","[461.40000000596046]","./assets/img/canyon/catch/6.jpg","[""spaceBar""]","value training","canyon","0","{""ArrowUp,ArrowLeft"":23,""ArrowUp,ArrowRight"":10,""ArrowDown,ArrowLeft"":8,""ArrowDown,ArrowRight"":30}","true","spaceBar","true","","","revaluation","1","72","","",""
"html-keyboard-response","190","870603","0.0-4.0-2.0-1.36","spark_pilot_2","7442","6","19","Male","","","","","","","null","<div style=""font-size:60px;"">+</div>","null","fixation","","","","","","","","","","","73","","",""
"revaluation","191","874607","0.0-4.0-2.0-0.37","spark_pilot_2","7442","6","19","Male","","false","","","","","[1030.199999988079]","./assets/img/canyon/catch/2.jpg","[""spaceBar""]","value training","canyon","0","{""ArrowUp,ArrowLeft"":23,""ArrowUp,ArrowRight"":10,""ArrowDown,ArrowLeft"":8,""ArrowDown,ArrowRight"":30}","true","spaceBar","true","","","revaluation","1","74","","",""
"html-keyboard-response","192","875108","0.0-4.0-2.0-1.37","spark_pilot_2","7442","6","19","Male","","","","","","","null","<div style=""font-size:60px;"">+</div>","null","fixation","","","","","","","","","","","75","","",""
"revaluation","193","881113","0.0-4.0-2.0-0.38","spark_pilot_2","7442","6","19","Male","","false","","","","","[640.9000000059605,1085.6000000238419]","./assets/img/canyon/memory/23.jpg","[""ArrowDown"",""ArrowRight""]","value training","canyon","30","{""ArrowUp,ArrowLeft"":23,""ArrowUp,ArrowRight"":10,""ArrowDown,ArrowLeft"":8,""ArrowDown,ArrowRight"":30}","true","ArrowDown,ArrowRight","false","","","revaluation","1","76","","",""
"html-keyboard-response","194","881615","0.0-4.0-2.0-1.38","spark_pilot_2","7442","6","19","Male","","","","","","","null","<div style=""font-size:60px;"">+</div>","null","fixation","","","","","","","","","","","77","","",""
"revaluation","195","885619","0.0-4.0-2.0-0.39","spark_pilot_2","7442","6","19","Male","","false","","","","","[505.80000001192093]","./assets/img/canyon/catch/0.jpg","[""spaceBar""]","value training","canyon","0","{""ArrowUp,ArrowLeft"":23,""ArrowUp,ArrowRight"":10,""ArrowDown,ArrowLeft"":8,""ArrowDown,ArrowRight"":30}","true","spaceBar","true","","","revaluation","1","78","","",""
"html-keyboard-response","196","886121","0.0-4.0-2.0-1.39","spark_pilot_2","7442","6","19","Male","","","","","","","null","<div style=""font-size:60px;"">+</div>","null","fixation","","","","","","","","","","","79","","",""
"revaluation","197","890125","0.0-4.0-2.0-0.40","spark_pilot_2","7442","6","19","Male","","false","","","","","[763]","./assets/img/canyon/catch/4.jpg","[""spaceBar""]","value training","canyon","0","{""ArrowUp,ArrowLeft"":23,""ArrowUp,ArrowRight"":10,""ArrowDown,ArrowLeft"":8,""ArrowDown,ArrowRight"":30}","true","spaceBar","true","","","revaluation","1","80","","",""
"html-keyboard-response","198","890626","0.0-4.0-2.0-1.40","spark_pilot_2","7442","6","19","Male","","","","","","","null","<div style=""font-size:60px;"">+</div>","null","fixation","","","","","","","","","","","81","","",""
"revaluation","199","896632","0.0-4.0-2.0-0.41","spark_pilot_2","7442","6","19","Male","","false","","","","","[685.4000000059605,316.09999999403954]","./assets/img/canyon/memory/10.jpg","[""ArrowUp"",""ArrowRight""]","value training","canyon","10","{""ArrowUp,ArrowLeft"":23,""ArrowUp,ArrowRight"":10,""ArrowDown,ArrowLeft"":8,""ArrowDown,ArrowRight"":30}","false","ArrowUp,ArrowRight","false","","","revaluation","1","82","","",""
"html-keyboard-response","200","897133","0.0-4.0-2.0-1.41","spark_pilot_2","7442","6","19","Male","","","","","","","null","<div style=""font-size:60px;"">+</div>","null","fixation","","","","","","","","","","","83","","",""
"revaluation","201","903138","0.0-4.0-2.0-0.42","spark_pilot_2","7442","6","19","Male","","false","","","","","[629.8000000119209,975.9000000059605]","./assets/img/canyon/memory/12.jpg","[""ArrowDown"",""ArrowRight""]","value training","canyon","30","{""ArrowUp,ArrowLeft"":23,""ArrowUp,ArrowRight"":10,""ArrowDown,ArrowLeft"":8,""ArrowDown,ArrowRight"":30}","true","ArrowDown,ArrowRight","false","","","revaluation","1","84","","",""
"html-keyboard-response","202","903639","0.0-4.0-2.0-1.42","spark_pilot_2","7442","6","19","Male","","","","","","","null","<div style=""font-size:60px;"">+</div>","null","fixation","","","","","","","","","","","85","","",""
"revaluation","203","909645","0.0-4.0-2.0-0.43","spark_pilot_2","7442","6","19","Male","","false","","","","","[831.6000000238419,281.30000001192093]","./assets/img/canyon/memory/31.jpg","[""ArrowUp"",""ArrowLeft""]","value training","canyon","23","{""ArrowUp,ArrowLeft"":23,""ArrowUp,ArrowRight"":10,""ArrowDown,ArrowLeft"":8,""ArrowDown,ArrowRight"":30}","false","ArrowUp,ArrowLeft","false","","","revaluation","1","86","","",""
"html-keyboard-response","204","910146","0.0-4.0-2.0-1.43","spark_pilot_2","7442","6","19","Male","","","","","","","null","<div style=""font-size:60px;"">+</div>","null","fixation","","","","","","","","","","","87","","",""
"revaluation","205","916151","0.0-4.0-2.0-0.44","spark_pilot_2","7442","6","19","Male","","false","","","","","[634.6999999880791,309.09999999403954]","./assets/img/canyon/memory/25.jpg","[""ArrowDown"",""ArrowRight""]","value training","canyon","30","{""ArrowUp,ArrowLeft"":23,""ArrowUp,ArrowRight"":10,""ArrowDown,ArrowLeft"":8,""ArrowDown,ArrowRight"":30}","true","ArrowDown,ArrowRight","false","","","revaluation","1","88","","",""
"html-keyboard-response","206","916653","0.0-4.0-2.0-1.44","spark_pilot_2","7442","6","19","Male","","","","","","","null","<div style=""font-size:60px;"">+</div>","null","fixation","","","","","","","","","","","89","","",""
"revaluation","207","922671","0.0-4.0-2.0-0.45","spark_pilot_2","7442","6","19","Male","","false","","","","","[570.1999999880791,477.39999997615814]","./assets/img/canyon/memory/22.jpg","[""ArrowDown"",""ArrowRight""]","value training","canyon","30","{""ArrowUp,ArrowLeft"":23,""ArrowUp,ArrowRight"":10,""ArrowDown,ArrowLeft"":8,""ArrowDown,ArrowRight"":30}","true","ArrowDown,ArrowRight","false","","","revaluation","1","90","","",""
"html-keyboard-response","208","923173","0.0-4.0-2.0-1.45","spark_pilot_2","7442","6","19","Male","","","","","","","null","<div style=""font-size:60px;"">+</div>","null","fixation","","","","","","","","","","","91","","",""
"revaluation","209","929178","0.0-4.0-2.0-0.46","spark_pilot_2","7442","6","19","Male","","false","","","","","[654.5999999940395,395.59999999403954]","./assets/img/canyon/memory/10.jpg","[""ArrowDown"",""ArrowRight""]","value training","canyon","30","{""ArrowUp,ArrowLeft"":23,""ArrowUp,ArrowRight"":10,""ArrowDown,ArrowLeft"":8,""ArrowDown,ArrowRight"":30}","true","ArrowDown,ArrowRight","false","","","revaluation","1","92","","",""
"html-keyboard-response","210","929693","0.0-4.0-2.0-1.46","spark_pilot_2","7442","6","19","Male","","","","","","","null","<div style=""font-size:60px;"">+</div>","null","fixation","","","","","","","","","","","93","","",""
"revaluation","211","935698","0.0-4.0-2.0-0.47","spark_pilot_2","7442","6","19","Male","","false","","","","","[531.5,539.0999999940395]","./assets/img/canyon/memory/4.jpg","[""ArrowDown"",""ArrowRight""]","value training","canyon","30","{""ArrowUp,ArrowLeft"":23,""ArrowUp,ArrowRight"":10,""ArrowDown,ArrowLeft"":8,""ArrowDown,ArrowRight"":30}","true","ArrowDown,ArrowRight","false","","","revaluation","1","94","","",""
"html-keyboard-response","212","936199","0.0-4.0-2.0-1.47","spark_pilot_2","7442","6","19","Male","","","","","","","null","<div style=""font-size:60px;"">+</div>","null","fixation","","","","","","","","","","","95","","",""
"revaluation","213","942203","0.0-4.0-2.0-0.48","spark_pilot_2","7442","6","19","Male","","false","","","","","[595.6999999880791,408.7999999821186]","./assets/img/canyon/memory/21.jpg","[""ArrowDown"",""ArrowRight""]","value training","canyon","30","{""ArrowUp,ArrowLeft"":23,""ArrowUp,ArrowRight"":10,""ArrowDown,ArrowLeft"":8,""ArrowDown,ArrowRight"":30}","true","ArrowDown,ArrowRight","false","","","revaluation","1","96","","",""
"html-keyboard-response","214","942705","0.0-4.0-2.0-1.48","spark_pilot_2","7442","6","19","Male","","","","","","","null","<div style=""font-size:60px;"">+</div>","null","fixation","","","","","","","","","","","97","","",""
"revaluation","215","948713","0.0-4.0-2.0-0.49","spark_pilot_2","7442","6","19","Male","","false","","","","","[583.1999999880791,594.4000000059605]","./assets/img/canyon/memory/31.jpg","[""ArrowDown"",""ArrowRight""]","value training","canyon","30","{""ArrowUp,ArrowLeft"":23,""ArrowUp,ArrowRight"":10,""ArrowDown,ArrowLeft"":8,""ArrowDown,ArrowRight"":30}","true","ArrowDown,ArrowRight","false","","","revaluation","1","98","","",""
"html-keyboard-response","216","949214","0.0-4.0-2.0-1.49","spark_pilot_2","7442","6","19","Male","","","","","","","null","<div style=""font-size:60px;"">+</div>","null","fixation","","","","","","","","","","","99","","",""
"learning-instructions","217","963115","0.0-4.0-3.0-0.0","spark_pilot_2","7442","6","19","Male","","","","","","","745.2000000178814","<p> Now, you will travel with a friend who will choose whether you go up or down first. </p>
            <p> On these turns, you will just see the animal that they found. You will still get to choose which chest to search for treasure.</p>","","instructions","","","","","","","","","","","","","",""
"revaluation","218","967122","0.0-4.0-4.0-0.0","spark_pilot_2","7442","6","19","Male","","false","","","","","[856.5]","./assets/img/canyon/animals/giraffe.jpg","[""ArrowRight""]","revaluation","canyon","7","{""ArrowUp,ArrowLeft"":27,""ArrowUp,ArrowRight"":15,""ArrowDown,ArrowLeft"":21,""ArrowDown,ArrowRight"":7}","false","ArrowDown,ArrowRight","","","","revaluation","1","0","","",""
"html-keyboard-response","219","967627","0.0-4.0-4.0-1.0","spark_pilot_2","7442","6","19","Male","","","","","","","null","<div style=""font-size:60px;"">+</div>","null","fixation","","","","","","","","","","","1","","",""
"revaluation","220","971650","0.0-4.0-4.0-0.1","spark_pilot_2","7442","6","19","Male","","false","","","","","[723.0999999940395]","./assets/img/canyon/animals/giraffe.jpg","[""ArrowLeft""]","revaluation","canyon","21","{""ArrowUp,ArrowLeft"":27,""ArrowUp,ArrowRight"":15,""ArrowDown,ArrowLeft"":21,""ArrowDown,ArrowRight"":7}","true","ArrowDown,ArrowLeft","","","","revaluation","1","2","","",""
"html-keyboard-response","221","972157","0.0-4.0-4.0-1.1","spark_pilot_2","7442","6","19","Male","","","","","","","null","<div style=""font-size:60px;"">+</div>","null","fixation","","","","","","","","","","","3","","",""
"revaluation","222","976165","0.0-4.0-4.0-0.2","spark_pilot_2","7442","6","19","Male","","false","","","","","[813.5]","./assets/img/canyon/animals/lion.jpg","[""ArrowRight""]","revaluation","canyon","15","{""ArrowUp,ArrowLeft"":27,""ArrowUp,ArrowRight"":15,""ArrowDown,ArrowLeft"":21,""ArrowDown,ArrowRight"":7}","false","ArrowUp,ArrowRight","","","","revaluation","1","4","","",""
"html-keyboard-response","223","976670","0.0-4.0-4.0-1.2","spark_pilot_2","7442","6","19","Male","","","","","","","null","<div style=""font-size:60px;"">+</div>","null","fixation","","","","","","","","","","","5","","",""
"revaluation","224","980693","0.0-4.0-4.0-0.3","spark_pilot_2","7442","6","19","Male","","false","","","","","[476.80000001192093]","./assets/img/canyon/animals/lion.jpg","[""ArrowLeft""]","revaluation","canyon","27","{""ArrowUp,ArrowLeft"":27,""ArrowUp,ArrowRight"":15,""ArrowDown,ArrowLeft"":21,""ArrowDown,ArrowRight"":7}","true","ArrowUp,ArrowLeft","","","","revaluation","1","6","","",""
"html-keyboard-response","225","981207","0.0-4.0-4.0-1.3","spark_pilot_2","7442","6","19","Male","","","","","","","null","<div style=""font-size:60px;"">+</div>","null","fixation","","","","","","","","","","","7","","",""
"revaluation","226","985227","0.0-4.0-4.0-0.4","spark_pilot_2","7442","6","19","Male","","false","","","","","[458.2000000178814]","./assets/img/canyon/animals/lion.jpg","[""ArrowLeft""]","revaluation","canyon","27","{""ArrowUp,ArrowLeft"":27,""ArrowUp,ArrowRight"":15,""ArrowDown,ArrowLeft"":21,""ArrowDown,ArrowRight"":7}","true","ArrowUp,ArrowLeft","","","","revaluation","1","8","","",""
"html-keyboard-response","227","985728","0.0-4.0-4.0-1.4","spark_pilot_2","7442","6","19","Male","","","","","","","null","<div style=""font-size:60px;"">+</div>","null","fixation","","","","","","","","","","","9","","",""
"revaluation","228","989737","0.0-4.0-4.0-0.5","spark_pilot_2","7442","6","19","Male","","false","","","","","[383.69999998807907]","./assets/img/canyon/animals/giraffe.jpg","[""ArrowLeft""]","revaluation","canyon","21","{""ArrowUp,ArrowLeft"":27,""ArrowUp,ArrowRight"":15,""ArrowDown,ArrowLeft"":21,""ArrowDown,ArrowRight"":7}","true","ArrowDown,ArrowLeft","","","","revaluation","1","10","","",""
"html-keyboard-response","229","990246","0.0-4.0-4.0-1.5","spark_pilot_2","7442","6","19","Male","","","","","","","null","<div style=""font-size:60px;"">+</div>","null","fixation","","","","","","","","","","","11","","",""
"revaluation","230","994253","0.0-4.0-4.0-0.6","spark_pilot_2","7442","6","19","Male","","false","","","","","[467.19999998807907]","./assets/img/canyon/animals/lion.jpg","[""ArrowLeft""]","revaluation","canyon","27","{""ArrowUp,ArrowLeft"":27,""ArrowUp,ArrowRight"":15,""ArrowDown,ArrowLeft"":21,""ArrowDown,ArrowRight"":7}","true","ArrowUp,ArrowLeft","","","","revaluation","1","12","","",""
"html-keyboard-response","231","994755","0.0-4.0-4.0-1.6","spark_pilot_2","7442","6","19","Male","","","","","","","null","<div style=""font-size:60px;"">+</div>","null","fixation","","","","","","","","","","","13","","",""
"revaluation","232","998758","0.0-4.0-4.0-0.7","spark_pilot_2","7442","6","19","Male","","false","","","","","[283.10000002384186]","./assets/img/canyon/animals/giraffe.jpg","[""ArrowLeft""]","revaluation","canyon","21","{""ArrowUp,ArrowLeft"":27,""ArrowUp,ArrowRight"":15,""ArrowDown,ArrowLeft"":21,""ArrowDown,ArrowRight"":7}","true","ArrowDown,ArrowLeft","","","","revaluation","1","14","","",""
"html-keyboard-response","233","999259","0.0-4.0-4.0-1.7","spark_pilot_2","7442","6","19","Male","","","","","","","null","<div style=""font-size:60px;"">+</div>","null","fixation","","","","","","","","","","","15","","",""
"revaluation","234","1003263","0.0-4.0-4.0-0.8","spark_pilot_2","7442","6","19","Male","","false","","","","","[423]","./assets/img/canyon/animals/lion.jpg","[""ArrowLeft""]","revaluation","canyon","27","{""ArrowUp,ArrowLeft"":27,""ArrowUp,ArrowRight"":15,""ArrowDown,ArrowLeft"":21,""ArrowDown,ArrowRight"":7}","true","ArrowUp,ArrowLeft","","","","revaluation","1","16","","",""
"html-keyboard-response","235","1003764","0.0-4.0-4.0-1.8","spark_pilot_2","7442","6","19","Male","","","","","","","null","<div style=""font-size:60px;"">+</div>","null","fixation","","","","","","","","","","","17","","",""
"revaluation","236","1007774","0.0-4.0-4.0-0.9","spark_pilot_2","7442","6","19","Male","","false","","","","","[267.2000000178814]","./assets/img/canyon/animals/lion.jpg","[""ArrowLeft""]","revaluation","canyon","27","{""ArrowUp,ArrowLeft"":27,""ArrowUp,ArrowRight"":15,""ArrowDown,ArrowLeft"":21,""ArrowDown,ArrowRight"":7}","true","ArrowUp,ArrowLeft","","","","revaluation","1","18","","",""
"html-keyboard-response","237","1008276","0.0-4.0-4.0-1.9","spark_pilot_2","7442","6","19","Male","","","","","","","null","<div style=""font-size:60px;"">+</div>","null","fixation","","","","","","","","","","","19","","",""
"revaluation","238","1012280","0.0-4.0-4.0-0.10","spark_pilot_2","7442","6","19","Male","","false","","","","","[589.1000000238419]","./assets/img/canyon/animals/giraffe.jpg","[""ArrowLeft""]","revaluation","canyon","21","{""ArrowUp,ArrowLeft"":27,""ArrowUp,ArrowRight"":15,""ArrowDown,ArrowLeft"":21,""ArrowDown,ArrowRight"":7}","true","ArrowDown,ArrowLeft","","","","revaluation","1","20","","",""
"html-keyboard-response","239","1012781","0.0-4.0-4.0-1.10","spark_pilot_2","7442","6","19","Male","","","","","","","null","<div style=""font-size:60px;"">+</div>","null","fixation","","","","","","","","","","","21","","",""
"revaluation","240","1016785","0.0-4.0-4.0-0.11","spark_pilot_2","7442","6","19","Male","","false","","","","","[475]","./assets/img/canyon/animals/lion.jpg","[""ArrowLeft""]","revaluation","canyon","27","{""ArrowUp,ArrowLeft"":27,""ArrowUp,ArrowRight"":15,""ArrowDown,ArrowLeft"":21,""ArrowDown,ArrowRight"":7}","true","ArrowUp,ArrowLeft","","","","revaluation","1","22","","",""
"html-keyboard-response","241","1017286","0.0-4.0-4.0-1.11","spark_pilot_2","7442","6","19","Male","","","","","","","null","<div style=""font-size:60px;"">+</div>","null","fixation","","","","","","","","","","","23","","",""
"revaluation","242","1021291","0.0-4.0-4.0-0.12","spark_pilot_2","7442","6","19","Male","","false","","","","","[546.2999999821186]","./assets/img/canyon/animals/lion.jpg","[""ArrowLeft""]","revaluation","canyon","27","{""ArrowUp,ArrowLeft"":27,""ArrowUp,ArrowRight"":15,""ArrowDown,ArrowLeft"":21,""ArrowDown,ArrowRight"":7}","true","ArrowUp,ArrowLeft","","","","revaluation","1","24","","",""
"html-keyboard-response","243","1021792","0.0-4.0-4.0-1.12","spark_pilot_2","7442","6","19","Male","","","","","","","null","<div style=""font-size:60px;"">+</div>","null","fixation","","","","","","","","","","","25","","",""
"revaluation","244","1025794","0.0-4.0-4.0-0.13","spark_pilot_2","7442","6","19","Male","","false","","","","","[653.9000000059605]","./assets/img/canyon/animals/giraffe.jpg","[""ArrowLeft""]","revaluation","canyon","21","{""ArrowUp,ArrowLeft"":27,""ArrowUp,ArrowRight"":15,""ArrowDown,ArrowLeft"":21,""ArrowDown,ArrowRight"":7}","true","ArrowDown,ArrowLeft","","","","revaluation","1","26","","",""
"html-keyboard-response","245","1026296","0.0-4.0-4.0-1.13","spark_pilot_2","7442","6","19","Male","","","","","","","null","<div style=""font-size:60px;"">+</div>","null","fixation","","","","","","","","","","","27","","",""
"revaluation","246","1030299","0.0-4.0-4.0-0.14","spark_pilot_2","7442","6","19","Male","","false","","","","","[295.40000000596046]","./assets/img/canyon/animals/lion.jpg","[""ArrowLeft""]","revaluation","canyon","27","{""ArrowUp,ArrowLeft"":27,""ArrowUp,ArrowRight"":15,""ArrowDown,ArrowLeft"":21,""ArrowDown,ArrowRight"":7}","true","ArrowUp,ArrowLeft","","","","revaluation","1","28","","",""
"html-keyboard-response","247","1030801","0.0-4.0-4.0-1.14","spark_pilot_2","7442","6","19","Male","","","","","","","null","<div style=""font-size:60px;"">+</div>","null","fixation","","","","","","","","","","","29","","",""
"revaluation","248","1034806","0.0-4.0-4.0-0.15","spark_pilot_2","7442","6","19","Male","","false","","","","","[294.7999999821186]","./assets/img/canyon/animals/giraffe.jpg","[""ArrowLeft""]","revaluation","canyon","21","{""ArrowUp,ArrowLeft"":27,""ArrowUp,ArrowRight"":15,""ArrowDown,ArrowLeft"":21,""ArrowDown,ArrowRight"":7}","true","ArrowDown,ArrowLeft","","","","revaluation","1","30","","",""
"html-keyboard-response","249","1035307","0.0-4.0-4.0-1.15","spark_pilot_2","7442","6","19","Male","","","","","","","null","<div style=""font-size:60px;"">+</div>","null","fixation","","","","","","","","","","","31","","",""
"revaluation","250","1039313","0.0-4.0-4.0-0.16","spark_pilot_2","7442","6","19","Male","","false","","","","","[524.3000000119209]","./assets/img/canyon/animals/giraffe.jpg","[""ArrowLeft""]","revaluation","canyon","21","{""ArrowUp,ArrowLeft"":27,""ArrowUp,ArrowRight"":15,""ArrowDown,ArrowLeft"":21,""ArrowDown,ArrowRight"":7}","true","ArrowDown,ArrowLeft","","","","revaluation","1","32","","",""
"html-keyboard-response","251","1039814","0.0-4.0-4.0-1.16","spark_pilot_2","7442","6","19","Male","","","","","","","null","<div style=""font-size:60px;"">+</div>","null","fixation","","","","","","","","","","","33","","",""
"revaluation","252","1043819","0.0-4.0-4.0-0.17","spark_pilot_2","7442","6","19","Male","","false","","","","","[345.5]","./assets/img/canyon/animals/giraffe.jpg","[""ArrowLeft""]","revaluation","canyon","21","{""ArrowUp,ArrowLeft"":27,""ArrowUp,ArrowRight"":15,""ArrowDown,ArrowLeft"":21,""ArrowDown,ArrowRight"":7}","true","ArrowDown,ArrowLeft","","","","revaluation","1","34","","",""
"html-keyboard-response","253","1044321","0.0-4.0-4.0-1.17","spark_pilot_2","7442","6","19","Male","","","","","","","null","<div style=""font-size:60px;"">+</div>","null","fixation","","","","","","","","","","","35","","",""
"learning-instructions","254","1057512","0.0-4.0-5.0-0.0","spark_pilot_2","7442","6","19","Male","","","","","","","1547.5","<p> Time to play the dot game! </p>
            <p> For one minute, click the red dots on the following screen as they appear. </p>
            <p><b> Don't look away, as you will earn bonus for clicking dots</b>. </p>","","instructions","","","","","","","","","","","","","",""
"revaluation","255","1117514","0.0-4.0-6.0-0.0","spark_pilot_2","7442","6","19","Male","","","","","","","[49,69,53,47,53,33,33]","","","rest","","70","","","","","0","60000","","","","","",""
"learning-instructions","256","1124630","0.0-4.0-7.0-0.0","spark_pilot_2","7442","6","19","Male","","","","","","","739.2999999821186","<p> You have almost finished this part of the game! </p>
            <p> We are going to ask you to make a few more choices. </p>","","instructions","","","","","","","","","","","","","",""
"learning-instructions","257","1139395","0.0-4.0-7.0-0.1","spark_pilot_2","7442","6","19","Male","","","","","","","794.3000000119209","<p> First, you need to decide whether to go up or down. When you see each picture, use the arrow keys to make your choice. </p>
            <p><b>You will not see which animal you found, but try to get to the one that will give you the most treasure.</b></p>","","instructions","","","","","","","","","","","","","",""
"revaluation","258","1140718","0.0-4.0-8.0-0.0","spark_pilot_2","7442","6","19","Male","","false","","","","","[1321.2999999821186]","./assets/img/canyon/test/0.jpg","[""ArrowUp""]","first stage test","canyon","0","{""ArrowUp,ArrowLeft"":27,""ArrowUp,ArrowRight"":15,""ArrowDown,ArrowLeft"":21,""ArrowDown,ArrowRight"":7}","true","ArrowUp","false","","","revaluation","1","","","",""
"html-keyboard-response","259","1141227","0.0-4.0-8.0-1.0","spark_pilot_2","7442","6","19","Male","","","","","","","null","<div style=""font-size:60px;"">+</div>","null","fixation","","","","","","","","","","","","","",""
"revaluation","260","1142750","0.0-4.0-8.0-0.1","spark_pilot_2","7442","6","19","Male","","false","","","","","[1520.2000000178814]","./assets/img/canyon/test/1.jpg","[""ArrowDown""]","first stage test","canyon","0","{""ArrowUp,ArrowLeft"":27,""ArrowUp,ArrowRight"":15,""ArrowDown,ArrowLeft"":21,""ArrowDown,ArrowRight"":7}","false","ArrowDown","false","","","revaluation","1","","","",""
"html-keyboard-response","261","1143262","0.0-4.0-8.0-1.1","spark_pilot_2","7442","6","19","Male","","","","","","","null","<div style=""font-size:60px;"">+</div>","null","fixation","","","","","","","","","","","","","",""
"revaluation","262","1145036","0.0-4.0-8.0-0.2","spark_pilot_2","7442","6","19","Male","","false","","","","","[1772.699999988079]","./assets/img/canyon/test/2.jpg","[""ArrowDown""]","first stage test","canyon","0","{""ArrowUp,ArrowLeft"":27,""ArrowUp,ArrowRight"":15,""ArrowDown,ArrowLeft"":21,""ArrowDown,ArrowRight"":7}","false","ArrowDown","false","","","revaluation","1","","","",""
"html-keyboard-response","263","1145541","0.0-4.0-8.0-1.2","spark_pilot_2","7442","6","19","Male","","","","","","","null","<div style=""font-size:60px;"">+</div>","null","fixation","","","","","","","","","","","","","",""
"revaluation","264","1146381","0.0-4.0-8.0-0.3","spark_pilot_2","7442","6","19","Male","","false","","","","","[837.0999999940395]","./assets/img/canyon/test/3.jpg","[""ArrowDown""]","first stage test","canyon","0","{""ArrowUp,ArrowLeft"":27,""ArrowUp,ArrowRight"":15,""ArrowDown,ArrowLeft"":21,""ArrowDown,ArrowRight"":7}","false","ArrowDown","false","","","revaluation","1","","","",""
"html-keyboard-response","265","1146893","0.0-4.0-8.0-1.3","spark_pilot_2","7442","6","19","Male","","","","","","","null","<div style=""font-size:60px;"">+</div>","null","fixation","","","","","","","","","","","","","",""
"learning-instructions","266","1158773","0.0-4.0-9.0-0.0","spark_pilot_2","7442","6","19","Male","","","","","","","532.0999999940395","<p> Now you will see the animals again and can search their chests for treasure. </p>
            <p> This time, you will not see how much treasure you earned, but you will earn more bonus money for making better choices. </p>","","instructions","","","","","","","","","","","","","",""
"revaluation","267","1159587","0.0-4.0-10.0-0.0","spark_pilot_2","7442","6","19","Male","","false","","","","","[812.2000000178814]","./assets/img/canyon/animals/lion.jpg","[""ArrowLeft""]","second stage test","canyon","0","{""ArrowUp,ArrowLeft"":27,""ArrowUp,ArrowRight"":15,""ArrowDown,ArrowLeft"":21,""ArrowDown,ArrowRight"":7}","true","ArrowUp,ArrowLeft","","","","revaluation","1","","","",""
"html-keyboard-response","268","1160103","0.0-4.0-10.0-1.0","spark_pilot_2","7442","6","19","Male","","","","","","","null","<div style=""font-size:60px;"">+</div>","null","fixation","","","","","","","","","","","","","",""
"revaluation","269","1160894","0.0-4.0-10.0-0.1","spark_pilot_2","7442","6","19","Male","","false","","","","","[789.7000000178814]","./assets/img/canyon/animals/lion.jpg","[""ArrowLeft""]","second stage test","canyon","0","{""ArrowUp,ArrowLeft"":27,""ArrowUp,ArrowRight"":15,""ArrowDown,ArrowLeft"":21,""ArrowDown,ArrowRight"":7}","true","ArrowUp,ArrowLeft","","","","revaluation","1","","","",""
"html-keyboard-response","270","1161400","0.0-4.0-10.0-1.1","spark_pilot_2","7442","6","19","Male","","","","","","","null","<div style=""font-size:60px;"">+</div>","null","fixation","","","","","","","","","","","","","",""
"revaluation","271","1161904","0.0-4.0-10.0-0.2","spark_pilot_2","7442","6","19","Male","","false","","","","","[501.5]","./assets/img/canyon/animals/lion.jpg","[""ArrowLeft""]","second stage test","canyon","0","{""ArrowUp,ArrowLeft"":27,""ArrowUp,ArrowRight"":15,""ArrowDown,ArrowLeft"":21,""ArrowDown,ArrowRight"":7}","true","ArrowUp,ArrowLeft","","","","revaluation","1","","","",""
"html-keyboard-response","272","1162417","0.0-4.0-10.0-1.2","spark_pilot_2","7442","6","19","Male","","","","","","","null","<div style=""font-size:60px;"">+</div>","null","fixation","","","","","","","","","","","","","",""
"revaluation","273","1162784","0.0-4.0-10.0-0.3","spark_pilot_2","7442","6","19","Male","","false","","","","","[364.69999998807907]","./assets/img/canyon/animals/lion.jpg","[""ArrowLeft""]","second stage test","canyon","0","{""ArrowUp,ArrowLeft"":27,""ArrowUp,ArrowRight"":15,""ArrowDown,ArrowLeft"":21,""ArrowDown,ArrowRight"":7}","true","ArrowUp,ArrowLeft","","","","revaluation","1","","","",""
"html-keyboard-response","274","1163300","0.0-4.0-10.0-1.3","spark_pilot_2","7442","6","19","Male","","","","","","","null","<div style=""font-size:60px;"">+</div>","null","fixation","","","","","","","","","","","","","",""
"revaluation","275","1163574","0.0-4.0-10.0-0.4","spark_pilot_2","7442","6","19","Male","","false","","","","","[271.7999999821186]","./assets/img/canyon/animals/giraffe.jpg","[""ArrowLeft""]","second stage test","canyon","0","{""ArrowUp,ArrowLeft"":27,""ArrowUp,ArrowRight"":15,""ArrowDown,ArrowLeft"":21,""ArrowDown,ArrowRight"":7}","true","ArrowDown,ArrowLeft","","","","revaluation","1","","","",""
"html-keyboard-response","276","1164081","0.0-4.0-10.0-1.4","spark_pilot_2","7442","6","19","Male","","","","","","","null","<div style=""font-size:60px;"">+</div>","null","fixation","","","","","","","","","","","","","",""
"revaluation","277","1164310","0.0-4.0-10.0-0.5","spark_pilot_2","7442","6","19","Male","","false","","","","","[226.7999999821186]","./assets/img/canyon/animals/giraffe.jpg","[""ArrowLeft""]","second stage test","canyon","0","{""ArrowUp,ArrowLeft"":27,""ArrowUp,ArrowRight"":15,""ArrowDown,ArrowLeft"":21,""ArrowDown,ArrowRight"":7}","true","ArrowDown,ArrowLeft","","","","revaluation","1","","","",""
"html-keyboard-response","278","1164816","0.0-4.0-10.0-1.5","spark_pilot_2","7442","6","19","Male","","","","","","","null","<div style=""font-size:60px;"">+</div>","null","fixation","","","","","","","","","","","","","",""
"revaluation","279","1164988","0.0-4.0-10.0-0.6","spark_pilot_2","7442","6","19","Male","","false","","","","","[170.19999998807907]","./assets/img/canyon/animals/giraffe.jpg","[""ArrowLeft""]","second stage test","canyon","0","{""ArrowUp,ArrowLeft"":27,""ArrowUp,ArrowRight"":15,""ArrowDown,ArrowLeft"":21,""ArrowDown,ArrowRight"":7}","true","ArrowDown,ArrowLeft","","","","revaluation","1","","","",""
"html-keyboard-response","280","1165500","0.0-4.0-10.0-1.6","spark_pilot_2","7442","6","19","Male","","","","","","","null","<div style=""font-size:60px;"">+</div>","null","fixation","","","","","","","","","","","","","",""
"revaluation","281","1165543","0.0-4.0-10.0-0.7","spark_pilot_2","7442","6","19","Male","","false","","","","","[41.400000005960464]","./assets/img/canyon/animals/giraffe.jpg","[""ArrowLeft""]","second stage test","canyon","0","{""ArrowUp,ArrowLeft"":27,""ArrowUp,ArrowRight"":15,""ArrowDown,ArrowLeft"":21,""ArrowDown,ArrowRight"":7}","true","ArrowDown,ArrowLeft","","","","revaluation","1","","","",""
"html-keyboard-response","282","1166047","0.0-4.0-10.0-1.7","spark_pilot_2","7442","6","19","Male","","","","","","","null","<div style=""font-size:60px;"">+</div>","null","fixation","","","","","","","","","","","","","",""
"learning-instructions","283","1170539","0.0-4.0-0.1-0.2","spark_pilot_2","7442","6","19","Male","","","","","","","1777.800000011921","<p> This time you are searching for treasure in the <b>ocean</b>.</p>","","instructions","","","","","","","","","","","","","",""
"learning-instructions","284","1189355","0.0-4.0-0.1-0.3","spark_pilot_2","7442","6","19","Male","","","","","","","1574.2999999821186","<p><b>New</b> animals with <b>new</b> treasure chests live here. You need to explore to discover where the animal with the best treasure chest is.</p>
                    <p> Like before, once you figure out which animal has the chest with the most treasure, you should try to get to that animal and select that chest! </p>","","instructions","","","","","","","","","","","","","",""
"learning-instructions","285","1205341","0.0-4.0-1.1-0.1","spark_pilot_2","7442","6","19","Male","","","","","","","1260.699999988079","<p> Remember, when you see a picture of the place, use the up and down keys to <b>find an animal</b>.</p>
            <p> When you encounter an animal, you should use the left and right keys to <b>select a treasure chest</b>.</p>
            <p> Don't forget to look out for the robber! </p>","","instructions","","","","","","","","","","","","","",""
"revaluation","286","1211362","0.0-4.0-2.1-0.50","spark_pilot_2","7442","6","19","Male","","false","","","","","[929.2000000178814,286.69999998807907]","./assets/img/ocean/memory/41.jpg","[""ArrowDown"",""ArrowRight""]","value training","ocean","17","{""ArrowUp,ArrowLeft"":26,""ArrowUp,ArrowRight"":10,""ArrowDown,ArrowLeft"":5,""ArrowDown,ArrowRight"":17}","false","ArrowDown,ArrowRight","false","","","original","2","0","","",""
"html-keyboard-response","287","1211875","0.0-4.0-2.1-1.50","spark_pilot_2","7442","6","19","Male","","","","","","","null","<div style=""font-size:60px;"">+</div>","null","fixation","","","","","","","","","","","1","","",""
"revaluation","288","1217891","0.0-4.0-2.1-0.51","spark_pilot_2","7442","6","19","Male","","false","","","","","[411.69999998807907,215.39999997615814]","./assets/img/ocean/memory/4.jpg","[""ArrowDown"",""ArrowLeft""]","value training","ocean","5","{""ArrowUp,ArrowLeft"":26,""ArrowUp,ArrowRight"":10,""ArrowDown,ArrowLeft"":5,""ArrowDown,ArrowRight"":17}","false","ArrowDown,ArrowLeft","false","","","original","2","2","","",""
"html-keyboard-response","289","1218401","0.0-4.0-2.1-1.51","spark_pilot_2","7442","6","19","Male","","","","","","","null","<div style=""font-size:60px;"">+</div>","null","fixation","","","","","","","","","","","3","","",""
"revaluation","290","1224427","0.0-4.0-2.1-0.52","spark_pilot_2","7442","6","19","Male","","false","","","","","[485.59999999403954,349.2999999821186]","./assets/img/ocean/memory/12.jpg","[""ArrowUp"",""ArrowRight""]","value training","ocean","10","{""ArrowUp,ArrowLeft"":26,""ArrowUp,ArrowRight"":10,""ArrowDown,ArrowLeft"":5,""ArrowDown,ArrowRight"":17}","false","ArrowUp,ArrowRight","false","","","original","2","4","","",""
"html-keyboard-response","291","1224931","0.0-4.0-2.1-1.52","spark_pilot_2","7442","6","19","Male","","","","","","","null","<div style=""font-size:60px;"">+</div>","null","fixation","","","","","","","","","","","5","","",""
"revaluation","292","1230955","0.0-4.0-2.1-0.53","spark_pilot_2","7442","6","19","Male","","false","","","","","[449.30000001192093,295.09999999403954]","./assets/img/ocean/memory/40.jpg","[""ArrowUp"",""ArrowLeft""]","value training","ocean","26","{""ArrowUp,ArrowLeft"":26,""ArrowUp,ArrowRight"":10,""ArrowDown,ArrowLeft"":5,""ArrowDown,ArrowRight"":17}","true","ArrowUp,ArrowLeft","false","","","original","2","6","","",""
"html-keyboard-response","293","1231463","0.0-4.0-2.1-1.53","spark_pilot_2","7442","6","19","Male","","","","","","","null","<div style=""font-size:60px;"">+</div>","null","fixation","","","","","","","","","","","7","","",""
"revaluation","294","1235472","0.0-4.0-2.1-0.54","spark_pilot_2","7442","6","19","Male","","false","","","","","[503.30000001192093]","./assets/img/ocean/catch/3.jpg","[""spaceBar""]","value training","ocean","0","{""ArrowUp,ArrowLeft"":26,""ArrowUp,ArrowRight"":10,""ArrowDown,ArrowLeft"":5,""ArrowDown,ArrowRight"":17}","true","spaceBar","true","","","original","2","8","","",""
"html-keyboard-response","295","1235974","0.0-4.0-2.1-1.54","spark_pilot_2","7442","6","19","Male","","","","","","","null","<div style=""font-size:60px;"">+</div>","null","fixation","","","","","","","","","","","9","","",""
"revaluation","296","1241978","0.0-4.0-2.1-0.55","spark_pilot_2","7442","6","19","Male","","false","","","","","[497.39999997615814,438.10000002384186]","./assets/img/ocean/memory/13.jpg","[""ArrowUp"",""ArrowLeft""]","value training","ocean","26","{""ArrowUp,ArrowLeft"":26,""ArrowUp,ArrowRight"":10,""ArrowDown,ArrowLeft"":5,""ArrowDown,ArrowRight"":17}","true","ArrowUp,ArrowLeft","false","","","original","2","10","","",""
"html-keyboard-response","297","1242479","0.0-4.0-2.1-1.55","spark_pilot_2","7442","6","19","Male","","","","","","","null","<div style=""font-size:60px;"">+</div>","null","fixation","","","","","","","","","","","11","","",""
"revaluation","298","1248485","0.0-4.0-2.1-0.56","spark_pilot_2","7442","6","19","Male","","false","","","","","[705.9000000059605,644.7000000178814]","./assets/img/ocean/memory/40.jpg","[""ArrowUp"",""ArrowLeft""]","value training","ocean","26","{""ArrowUp,ArrowLeft"":26,""ArrowUp,ArrowRight"":10,""ArrowDown,ArrowLeft"":5,""ArrowDown,ArrowRight"":17}","true","ArrowUp,ArrowLeft","false","","","original","2","12","","",""
"html-keyboard-response","299","1248986","0.0-4.0-2.1-1.56","spark_pilot_2","7442","6","19","Male","","","","","","","null","<div style=""font-size:60px;"">+</div>","null","fixation","","","","","","","","","","","13","","",""
"revaluation","300","1254991","0.0-4.0-2.1-0.57","spark_pilot_2","7442","6","19","Male","","false","","","","","[597.5999999940395,418.40000000596046]","./assets/img/ocean/memory/23.jpg","[""ArrowUp"",""ArrowLeft""]","value training","ocean","26","{""ArrowUp,ArrowLeft"":26,""ArrowUp,ArrowRight"":10,""ArrowDown,ArrowLeft"":5,""ArrowDown,ArrowRight"":17}","true","ArrowUp,ArrowLeft","false","","","original","2","14","","",""
"html-keyboard-response","301","1255493","0.0-4.0-2.1-1.57","spark_pilot_2","7442","6","19","Male","","","","","","","null","<div style=""font-size:60px;"">+</div>","null","fixation","","","","","","","","","","","15","","",""
"revaluation","302","1261499","0.0-4.0-2.1-0.58","spark_pilot_2","7442","6","19","Male","","false","","","","","[425.5,553.7999999821186]","./assets/img/ocean/memory/8.jpg","[""ArrowUp"",""ArrowLeft""]","value training","ocean","26","{""ArrowUp,ArrowLeft"":26,""ArrowUp,ArrowRight"":10,""ArrowDown,ArrowLeft"":5,""ArrowDown,ArrowRight"":17}","true","ArrowUp,ArrowLeft","false","","","original","2","16","","",""
"html-keyboard-response","303","1262001","0.0-4.0-2.1-1.58","spark_pilot_2","7442","6","19","Male","","","","","","","null","<div style=""font-size:60px;"">+</div>","null","fixation","","","","","","","","","","","17","","",""
"revaluation","304","1268006","0.0-4.0-2.1-0.59","spark_pilot_2","7442","6","19","Male","","false","","","","","[448.69999998807907,395.90000000596046]","./assets/img/ocean/memory/16.jpg","[""ArrowUp"",""ArrowLeft""]","value training","ocean","26","{""ArrowUp,ArrowLeft"":26,""ArrowUp,ArrowRight"":10,""ArrowDown,ArrowLeft"":5,""ArrowDown,ArrowRight"":17}","true","ArrowUp,ArrowLeft","false","","","original","2","18","","",""
"html-keyboard-response","305","1268507","0.0-4.0-2.1-1.59","spark_pilot_2","7442","6","19","Male","","","","","","","null","<div style=""font-size:60px;"">+</div>","null","fixation","","","","","","","","","","","19","","",""
"revaluation","306","1274514","0.0-4.0-2.1-0.60","spark_pilot_2","7442","6","19","Male","","false","","","","","[436.2999999821186,434.80000001192093]","./assets/img/ocean/memory/8.jpg","[""ArrowUp"",""ArrowLeft""]","value training","ocean","26","{""ArrowUp,ArrowLeft"":26,""ArrowUp,ArrowRight"":10,""ArrowDown,ArrowLeft"":5,""ArrowDown,ArrowRight"":17}","true","ArrowUp,ArrowLeft","false","","","original","2","20","","",""
