"trial_type","trial_index","time_elapsed","internal_node_id","task_version","subject_id","assigned_condition","age","gender","success","timeout","failed_images","failed_audio","failed_video","browser_interaction","rt","stimulus","response","task_part","environment","score","rewardMap","correct","fullState","isCatch","numberMissed","duration","condition","order","trial_num","key_press","ground_truth","bonus"
"pavlovia","0","1505","0.0-0.0","spark_pilot_2","7349","2","13","Female","","","","","","","","","","","","","","","","","","","","","","","",""
"preload","1","8289","0.0-1.0","spark_pilot_2","7349","2","13","Female","true","false","[]","[]","[]","[{""event"":""fullscreenenter"",""trial"":2,""time"":19791},{""event"":""blur"",""trial"":363,""time"":2784584},{""event"":""focus"",""trial"":365,""time"":2791372}]","","","","","","","","","","","","","","","","","",""
"fullscreen","2","20220","0.0-2.0","spark_pilot_2","7349","2","13","Female","true","","","","","","","","","","","","","","","","","","","","","","",""
"audio-button-response","3","31785","0.0-3.0-0.0-0.0","spark_pilot_2","7349","2","13","Female","","","","","","","5227","./assets/audio/audiotest/turtle.mp3","2","audio_test","","","","","","","","","","","","","",""
"learning-instructions","4","52051","0.0-3.0-1.0-0.0","spark_pilot_2","7349","2","13","Female","","","","","","","13156.199999988079","<p> Welcome! Please remember to stay in fullscreen mode and don't click away from the experiment. </p>","","instructions","","","","","","","","","","","","","",""
"learning-instructions","5","62422","0.0-3.0-1.0-0.1","spark_pilot_2","7349","2","13","Female","","","","","","","1849","<p> Today you will be playing a game to earn treasure. </p>
            <p> At the end of the experiment, you will earn a bonus based on how much treasure you find. </p>
            <img src='./assets/img/instructions/treasure.jpg' class='instructions-image'>","","instructions","","","","","","","","","","","","","",""
"learning-instructions","6","71958","0.0-3.0-1.0-0.2","spark_pilot_2","7349","2","13","Female","","","","","","","1115.5999999940395","<p> Animals have hidden treasure in treasure chests. </p>
            <p> You need to first find an animal and then choose which of their treasure chests to search. </p>
            <img src='./assets/img/space/animals/cat.jpg' class='instructions-image'>","","instructions","","","","","","","","","","","","","",""
"learning-instructions","7","87366","0.0-3.0-1.0-0.3","spark_pilot_2","7349","2","13","Female","","","","","","","2099.699999988079","<p> In each round, you will search for treasure in a different place. In the real game, there will be two rounds. </p>
            <p> You will begin with a separate, practice round where you will search for treasure in outer space. </p>
            <img src='./assets/img/space/0.jpg' class='instructions-image'>","","instructions","","","","","","","","","","","","","",""
"learning-instructions","8","100385","0.0-3.0-1.0-0.4","spark_pilot_2","7349","2","13","Female","","","","","","","1486.5999999940395","<p> On every turn, you will see a picture of the place that you are in, but the specific image may be different each time. </p>
            <p> For example, both of these images mean you are in outer space. </p>
            <img src='./assets/img/instructions/outerspace.jpg' class='instructions-image'>","","instructions","","","","","","","","","","","","","",""
"learning-instructions","9","112463","0.0-3.0-1.0-0.5","spark_pilot_2","7349","2","13","Female","","","","","","","4117.399999976158","<p> You need to decide which direction to travel in. </p>
            <p> You can choose between going <b>up or down</b> by using the arrow keys. </p>
            <img src='./assets/img/instructions/updown.jpg' class='instructions-image'>","","instructions","","","","","","","","","","","","","",""
"learning-instructions","10","125786","0.0-3.0-1.0-0.6","spark_pilot_2","7349","2","13","Female","","","","","","","4402.5","<p> You will have <b>2 seconds</b> to make your choice. </p>
            <p> If you do not make a choice within 2 seconds, you will not find an animal or earn treasure. </p>
            <img src='./assets/img/instructions/2seconds.jpg' class='instructions-image'>","","instructions","","","","","","","","","","","","","",""
"learning-instructions","11","133866","0.0-3.0-1.0-0.7","spark_pilot_2","7349","2","13","Female","","","","","","","908.0999999940395","<p> Let’s try practicing that now! </p>
            <p> When you see a picture of the place you are in, press the <b>up</b> key to travel up. </p>
            <img src='./assets/img/instructions/pressUp.jpg' class='instructions-image'>","","instructions","","","","","","","","","","","","","",""
"revaluation","12","137960","0.0-3.0-2.0-0.0","spark_pilot_2","7349","2","13","Female","","false","","","","","[890.8000000119209]","./assets/img/space/0.jpg","[""ArrowUp""]","first stage practice","space","0","null","null","ArrowUp","false","","","","","","","",""
"html-keyboard-response","13","138469","0.0-3.0-2.0-1.0","spark_pilot_2","7349","2","13","Female","","","","","","","null","<div style=""font-size:60px;"">+</div>","null","fixation","","","","","","","","","","","","","",""
"revaluation","14","142494","0.0-3.0-2.0-0.1","spark_pilot_2","7349","2","13","Female","","false","","","","","[906.8000000119209]","./assets/img/space/1.jpg","[""ArrowUp""]","first stage practice","space","0","null","null","ArrowUp","false","","","","","","","",""
"html-keyboard-response","15","143005","0.0-3.0-2.0-1.1","spark_pilot_2","7349","2","13","Female","","","","","","","null","<div style=""font-size:60px;"">+</div>","null","fixation","","","","","","","","","","","","","",""
"revaluation","16","147029","0.0-3.0-2.0-0.2","spark_pilot_2","7349","2","13","Female","","true","","","","","[]","./assets/img/space/2.jpg","[]","first stage practice","space","-5","null","null","","false","","","","","","","",""
"html-keyboard-response","17","147533","0.0-3.0-2.0-1.2","spark_pilot_2","7349","2","13","Female","","","","","","","null","<div style=""font-size:60px;"">+</div>","null","fixation","","","","","","","","","","","","","",""
"learning-instructions","18","164003","0.0-3.0-3.0-0.0","spark_pilot_2","7349","2","13","Female","","","","","","","11669.59999999404","<p> Great job! Now try pressing the <b>down</b> key to travel down. </p>
            <img src='./assets/img/instructions/pressDown.jpg' class='instructions-image'>","","instructions","","","","","","","","","","","","","",""
"revaluation","19","168030","0.0-3.0-4.0-0.0","spark_pilot_2","7349","2","13","Female","","false","","","","","[585.5]","./assets/img/space/3.jpg","[""ArrowDown""]","first stage practice","space","0","null","null","ArrowDown","false","","","","","","","",""
"html-keyboard-response","20","168549","0.0-3.0-4.0-1.0","spark_pilot_2","7349","2","13","Female","","","","","","","null","<div style=""font-size:60px;"">+</div>","null","fixation","","","","","","","","","","","","","",""
"revaluation","21","172598","0.0-3.0-4.0-0.1","spark_pilot_2","7349","2","13","Female","","false","","","","","[794]","./assets/img/space/4.jpg","[""ArrowDown""]","first stage practice","space","0","null","null","ArrowDown","false","","","","","","","",""
"html-keyboard-response","22","173108","0.0-3.0-4.0-1.1","spark_pilot_2","7349","2","13","Female","","","","","","","null","<div style=""font-size:60px;"">+</div>","null","fixation","","","","","","","","","","","","","",""
"revaluation","23","177135","0.0-3.0-4.0-0.2","spark_pilot_2","7349","2","13","Female","","false","","","","","[834.5999999940395]","./assets/img/space/5.jpg","[""ArrowDown""]","first stage practice","space","0","null","null","ArrowDown","false","","","","","","","",""
"html-keyboard-response","24","177645","0.0-3.0-4.0-1.2","spark_pilot_2","7349","2","13","Female","","","","","","","null","<div style=""font-size:60px;"">+</div>","null","fixation","","","","","","","","","","","","","",""
"learning-instructions","25","206965","0.0-3.0-5.0-0.0","spark_pilot_2","7349","2","13","Female","","","","","","","19342.40000000596","<p> The animals don’t move, so the animal in the upper part of a place will stay in the upper part of a place, and the animal in the lower part of a place will stay in the lower part of a place. </p>","","instructions","","","","","","","","","","","","","",""
"learning-instructions","26","219412","0.0-3.0-5.0-0.1","spark_pilot_2","7349","2","13","Female","","","","","","","3148.5999999940395","<p> Each animal has two treasure chests for you to choose from. </p>
            <p> The amount of treasure in each chest can range from <b> 0 to 40 pieces.</b></p>","","instructions","","","","","","","","","","","","","",""
"learning-instructions","27","232711","0.0-3.0-5.0-0.2","spark_pilot_2","7349","2","13","Female","","","","","","","1965.2999999821186","<p> You should decide which chest to search for treasure by using the <b>left</b> and <b>right</b> arrow keys. </p>
            <p><b> Pay attention to which animal is on the screen, as the animals have different treasure chests. </b></p>
            <img src='./assets/img/instructions/leftright.jpg' class='instructions-image'>","","instructions","","","","","","","","","","","","","",""
"learning-instructions","28","241080","0.0-3.0-5.0-0.3","spark_pilot_2","7349","2","13","Female","","","","","","","1882.9000000059605","<p> Let’s try practicing that now. </p>
            <p> When you see an animal, choose which chest to search for treasure. </p>
            <img src='./assets/img/instructions/chooseChest.jpg' class='instructions-image'>","","instructions","","","","","","","","","","","","","",""
"revaluation","29","245140","0.0-3.0-6.0-0.0","spark_pilot_2","7349","2","13","Female","","false","","","","","[834.6999999880791]","./assets/img/space/animals/rabbit.jpg","[""ArrowRight""]","second stage practice","space","23","{""ArrowUp,ArrowLeft"":3,""ArrowUp,ArrowRight"":36,""ArrowDown,ArrowLeft"":15,""ArrowDown,ArrowRight"":23}","true","ArrowDown,ArrowRight","","","","","","","","",""
"html-keyboard-response","30","245653","0.0-3.0-6.0-1.0","spark_pilot_2","7349","2","13","Female","","","","","","","null","<div style=""font-size:60px;"">+</div>","null","fixation","","","","","","","","","","","","","",""
"revaluation","31","249686","0.0-3.0-6.0-0.1","spark_pilot_2","7349","2","13","Female","","false","","","","","[12.299999982118607]","./assets/img/space/animals/cat.jpg","[""ArrowLeft""]","second stage practice","space","3","{""ArrowUp,ArrowLeft"":3,""ArrowUp,ArrowRight"":36,""ArrowDown,ArrowLeft"":15,""ArrowDown,ArrowRight"":23}","false","ArrowUp,ArrowLeft","","","","","","","","",""
"html-keyboard-response","32","250197","0.0-3.0-6.0-1.1","spark_pilot_2","7349","2","13","Female","","","","","","","null","<div style=""font-size:60px;"">+</div>","null","fixation","","","","","","","","","","","","","",""
"revaluation","33","254222","0.0-3.0-6.0-0.2","spark_pilot_2","7349","2","13","Female","","false","","","","","[500.7999999821186]","./assets/img/space/animals/cat.jpg","[""ArrowRight""]","second stage practice","space","36","{""ArrowUp,ArrowLeft"":3,""ArrowUp,ArrowRight"":36,""ArrowDown,ArrowLeft"":15,""ArrowDown,ArrowRight"":23}","true","ArrowUp,ArrowRight","","","","","","","","",""
"html-keyboard-response","34","254741","0.0-3.0-6.0-1.2","spark_pilot_2","7349","2","13","Female","","","","","","","null","<div style=""font-size:60px;"">+</div>","null","fixation","","","","","","","","","","","","","",""
"revaluation","35","258765","0.0-3.0-6.0-0.3","spark_pilot_2","7349","2","13","Female","","false","","","","","[777.1999999880791]","./assets/img/space/animals/rabbit.jpg","[""ArrowRight""]","second stage practice","space","23","{""ArrowUp,ArrowLeft"":3,""ArrowUp,ArrowRight"":36,""ArrowDown,ArrowLeft"":15,""ArrowDown,ArrowRight"":23}","true","ArrowDown,ArrowRight","","","","","","","","",""
"html-keyboard-response","36","259277","0.0-3.0-6.0-1.3","spark_pilot_2","7349","2","13","Female","","","","","","","null","<div style=""font-size:60px;"">+</div>","null","fixation","","","","","","","","","","","","","",""
"learning-instructions","37","303637","0.0-3.0-7.0-0.0","spark_pilot_2","7349","2","13","Female","","","","","","","27348.30000001192","<p> Great job. Now let’s try putting it together. </p>
            <p> On each turn, you will first see a picture to remind you of the place you are in, and you need to choose whether to go up or down. </p>
            <p> Then you will see an animal and choose which of its chests to search for treasure. </p>","","instructions","","","","","","","","","","","","","",""
"learning-instructions","38","314172","0.0-3.0-7.0-0.1","spark_pilot_2","7349","2","13","Female","","","","","","","2111.800000011921","<p> When you choose whether to go up or down, try to go to the animal with the chest with the most treasure. </p>
            <p> Try practicing that now! </p>","","instructions","","","","","","","","","","","","","",""
"revaluation","39","320237","0.0-3.0-8.0-0.0","spark_pilot_2","7349","2","13","Female","","false","","","","","[1073.2999999821186,712.7999999821186]","./assets/img/space/6.jpg","[""ArrowDown"",""ArrowRight""]","full practice","space","23","{""ArrowUp,ArrowLeft"":3,""ArrowUp,ArrowRight"":36,""ArrowDown,ArrowLeft"":15,""ArrowDown,ArrowRight"":23}","false","ArrowDown,ArrowRight","false","","","","","","","",""
"html-keyboard-response","40","320742","0.0-3.0-8.0-1.0","spark_pilot_2","7349","2","13","Female","","","","","","","null","<div style=""font-size:60px;"">+</div>","null","fixation","","","","","","","","","","","","","",""
"revaluation","41","326774","0.0-3.0-8.0-0.1","spark_pilot_2","7349","2","13","Female","","false","","","","","[820.5,691.1999999880791]","./assets/img/space/7.jpg","[""ArrowUp"",""ArrowLeft""]","full practice","space","3","{""ArrowUp,ArrowLeft"":3,""ArrowUp,ArrowRight"":36,""ArrowDown,ArrowLeft"":15,""ArrowDown,ArrowRight"":23}","false","ArrowUp,ArrowLeft","false","","","","","","","",""
"html-keyboard-response","42","327284","0.0-3.0-8.0-1.1","spark_pilot_2","7349","2","13","Female","","","","","","","null","<div style=""font-size:60px;"">+</div>","null","fixation","","","","","","","","","","","","","",""
"revaluation","43","333334","0.0-3.0-8.0-0.2","spark_pilot_2","7349","2","13","Female","","false","","","","","[1361.0999999940395,964.5999999940395]","./assets/img/space/8.jpg","[""ArrowDown"",""ArrowRight""]","full practice","space","23","{""ArrowUp,ArrowLeft"":3,""ArrowUp,ArrowRight"":36,""ArrowDown,ArrowLeft"":15,""ArrowDown,ArrowRight"":23}","false","ArrowDown,ArrowRight","false","","","","","","","",""
"html-keyboard-response","44","333853","0.0-3.0-8.0-1.2","spark_pilot_2","7349","2","13","Female","","","","","","","null","<div style=""font-size:60px;"">+</div>","null","fixation","","","","","","","","","","","","","",""
"revaluation","45","339894","0.0-3.0-8.0-0.3","spark_pilot_2","7349","2","13","Female","","false","","","","","[805.5999999940395,707.2000000178814]","./assets/img/space/9.jpg","[""ArrowDown"",""ArrowLeft""]","full practice","space","15","{""ArrowUp,ArrowLeft"":3,""ArrowUp,ArrowRight"":36,""ArrowDown,ArrowLeft"":15,""ArrowDown,ArrowRight"":23}","false","ArrowDown,ArrowLeft","false","","","","","","","",""
"html-keyboard-response","46","340404","0.0-3.0-8.0-1.3","spark_pilot_2","7349","2","13","Female","","","","","","","null","<div style=""font-size:60px;"">+</div>","null","fixation","","","","","","","","","","","","","",""
"revaluation","47","346438","0.0-3.0-8.0-0.4","spark_pilot_2","7349","2","13","Female","","false","","","","","[919.5,521.0999999940395]","./assets/img/space/10.jpg","[""ArrowDown"",""ArrowRight""]","full practice","space","23","{""ArrowUp,ArrowLeft"":3,""ArrowUp,ArrowRight"":36,""ArrowDown,ArrowLeft"":15,""ArrowDown,ArrowRight"":23}","false","ArrowDown,ArrowRight","false","","","","","","","",""
"html-keyboard-response","48","346957","0.0-3.0-8.0-1.4","spark_pilot_2","7349","2","13","Female","","","","","","","null","<div style=""font-size:60px;"">+</div>","null","fixation","","","","","","","","","","","","","",""
"learning-instructions","49","362853","0.0-3.0-9.0-0.0","spark_pilot_2","7349","2","13","Female","","","","","","","5407.800000011921","<p> One last thing: sometimes, you will see a robber. The robber can be anywhere in the picture. </p>
            <p> If you do not stop them, you will lose treasure. </p>
            <img src='./assets/img/instructions/robber.jpg' class='instructions-image'>","","instructions","","","","","","","","","","","","","",""
"learning-instructions","50","375217","0.0-3.0-9.0-0.1","spark_pilot_2","7349","2","13","Female","","","","","","","5086.5","<p> If you see the robber, you should <b>press the space bar</b> rather than using the arrow keys. </p>
            <p> Try practicing that now! </p>","","instructions","","","","","","","","","","","","","",""
"revaluation","51","379262","0.0-3.0-10.0-0.0","spark_pilot_2","7349","2","13","Female","","false","","","","","[1576.2000000178814]","./assets/img/space/catch/0.jpg","[""ArrowDown""]","catch practice","space","-10","{""ArrowUp,ArrowLeft"":3,""ArrowUp,ArrowRight"":36,""ArrowDown,ArrowLeft"":15,""ArrowDown,ArrowRight"":23}","false","ArrowDown","true","","","","","","","",""
"html-keyboard-response","52","379773","0.0-3.0-10.0-1.0","spark_pilot_2","7349","2","13","Female","","","","","","","null","<div style=""font-size:60px;"">+</div>","null","fixation","","","","","","","","","","","","","",""
"revaluation","53","383805","0.0-3.0-10.0-0.1","spark_pilot_2","7349","2","13","Female","","false","","","","","[516.9000000059605]","./assets/img/space/catch/1.jpg","[""spaceBar""]","catch practice","space","0","{""ArrowUp,ArrowLeft"":3,""ArrowUp,ArrowRight"":36,""ArrowDown,ArrowLeft"":15,""ArrowDown,ArrowRight"":23}","true","spaceBar","true","","","","","","","",""
"html-keyboard-response","54","384316","0.0-3.0-10.0-1.1","spark_pilot_2","7349","2","13","Female","","","","","","","null","<div style=""font-size:60px;"">+</div>","null","fixation","","","","","","","","","","","","","",""
"revaluation","55","388333","0.0-3.0-10.0-0.2","spark_pilot_2","7349","2","13","Female","","false","","","","","[600.7999999821186]","./assets/img/space/catch/2.jpg","[""spaceBar""]","catch practice","space","0","{""ArrowUp,ArrowLeft"":3,""ArrowUp,ArrowRight"":36,""ArrowDown,ArrowLeft"":15,""ArrowDown,ArrowRight"":23}","true","spaceBar","true","","","","","","","",""
"html-keyboard-response","56","388860","0.0-3.0-10.0-1.2","spark_pilot_2","7349","2","13","Female","","","","","","","null","<div style=""font-size:60px;"">+</div>","null","fixation","","","","","","","","","","","","","",""
"learning-instructions","57","522493","0.0-3.0-11.0-0.0","spark_pilot_2","7349","2","13","Female","","","","","","","119757.5","<p> After you explore a place to find treasure, it will be time to play a different game. </p>
            <p> During this game, red dots will appear on the screen and fall down slowly. </p>
            <p><b> You must click on them before they reach the bottom. </b></p>
            <img src='./assets/img/instructions/dotGame.jpg' class='instructions-image'>","","instructions","","","","","","","","","","","","","",""
"learning-instructions","58","529410","0.0-3.0-11.0-0.1","spark_pilot_2","7349","2","13","Female","","","","","","","1061.5","<p> For every dot you click, you will earn additional treasure. </p>
            <p> Let’s try practicing that now. </p>","","instructions","","","","","","","","","","","","","",""
"revaluation","59","544446","0.0-3.0-12.0-0.0","spark_pilot_2","7349","2","13","Female","","","","","","","[-1]","","","rest practice","","10","","","","","1","15000","","","","","",""
"learning-instructions","60","629522","0.0-3.0-13.0-0.0-0.0","spark_pilot_2","7349","2","13","Female","","","","","","","79669.90000000596","<p> Now, you will practice a shortened version of the game to get a sense of how it all fits together. </p>","","instructions","","","","","","","","","","","","","",""
"learning-instructions","61","760584","0.0-3.0-13.0-0.0-0.1","spark_pilot_2","7349","2","13","Female","","","","","","","127611.10000002384","<p>This time you are searching for treasure in outer space.</p>","","instructions","","","","","","","","","","","","","",""
"learning-instructions","62","910876","0.0-3.0-13.0-1.0-0.0","spark_pilot_2","7349","2","13","Female","","","","","","","135186.19999998808","<p> Remember, when you see a picture of the place, use the up and down keys to <b>find an animal</b>.</p>
            <p> When you encounter an animal, you should use the left and right keys to <b>select a treasure chest</b>.</p>
            <p> Don't forget to look out for the robber! </p>","","instructions","","","","","","","","","","","","","",""
"revaluation","63","916926","0.0-3.0-13.0-2.0-0.0","spark_pilot_2","7349","2","13","Female","","false","","","","","[930.9000000059605,935.0999999940395]","./assets/img/space/11.jpg","[""ArrowDown"",""ArrowRight""]","practice block","space","23","{""ArrowUp,ArrowLeft"":3,""ArrowUp,ArrowRight"":36,""ArrowDown,ArrowLeft"":15,""ArrowDown,ArrowRight"":23}","false","ArrowDown,ArrowRight","false","","","","","","","",""
"html-keyboard-response","64","917437","0.0-3.0-13.0-2.0-1.0","spark_pilot_2","7349","2","13","Female","","","","","","","null","<div style=""font-size:60px;"">+</div>","null","fixation","","","","","","","","","","","","","",""
"revaluation","65","923494","0.0-3.0-13.0-2.0-0.1","spark_pilot_2","7349","2","13","Female","","false","","","","","[624.7999999821186,1408.199999988079]","./assets/img/space/12.jpg","[""ArrowDown"",""ArrowLeft""]","practice block","space","15","{""ArrowUp,ArrowLeft"":3,""ArrowUp,ArrowRight"":36,""ArrowDown,ArrowLeft"":15,""ArrowDown,ArrowRight"":23}","false","ArrowDown,ArrowLeft","false","","","","","","","",""
"html-keyboard-response","66","924005","0.0-3.0-13.0-2.0-1.1","spark_pilot_2","7349","2","13","Female","","","","","","","null","<div style=""font-size:60px;"">+</div>","null","fixation","","","","","","","","","","","","","",""
"revaluation","67","930037","0.0-3.0-13.0-2.0-0.2","spark_pilot_2","7349","2","13","Female","","false","","","","","[591.6999999880791,582.1999999880791]","./assets/img/space/13.jpg","[""ArrowUp"",""ArrowRight""]","practice block","space","36","{""ArrowUp,ArrowLeft"":3,""ArrowUp,ArrowRight"":36,""ArrowDown,ArrowLeft"":15,""ArrowDown,ArrowRight"":23}","true","ArrowUp,ArrowRight","false","","","","","","","",""
"html-keyboard-response","68","930540","0.0-3.0-13.0-2.0-1.2","spark_pilot_2","7349","2","13","Female","","","","","","","null","<div style=""font-size:60px;"">+</div>","null","fixation","","","","","","","","","","","","","",""
"revaluation","69","936584","0.0-3.0-13.0-2.0-0.3","spark_pilot_2","7349","2","13","Female","","false","","","","","[834.6999999880791,1211.5]","./assets/img/space/14.jpg","[""ArrowDown"",""ArrowLeft""]","practice block","space","15","{""ArrowUp,ArrowLeft"":3,""ArrowUp,ArrowRight"":36,""ArrowDown,ArrowLeft"":15,""ArrowDown,ArrowRight"":23}","false","ArrowDown,ArrowLeft","false","","","","","","","",""
"html-keyboard-response","70","937101","0.0-3.0-13.0-2.0-1.3","spark_pilot_2","7349","2","13","Female","","","","","","","null","<div style=""font-size:60px;"">+</div>","null","fixation","","","","","","","","","","","","","",""
"revaluation","71","943134","0.0-3.0-13.0-2.0-0.4","spark_pilot_2","7349","2","13","Female","","false","","","","","[457.19999998807907,617.0999999940395]","./assets/img/space/11.jpg","[""ArrowUp"",""ArrowLeft""]","practice block","space","3","{""ArrowUp,ArrowLeft"":3,""ArrowUp,ArrowRight"":36,""ArrowDown,ArrowLeft"":15,""ArrowDown,ArrowRight"":23}","false","ArrowUp,ArrowLeft","false","","","","","","","",""
"html-keyboard-response","72","943645","0.0-3.0-13.0-2.0-1.4","spark_pilot_2","7349","2","13","Female","","","","","","","null","<div style=""font-size:60px;"">+</div>","null","fixation","","","","","","","","","","","","","",""
"revaluation","73","949678","0.0-3.0-13.0-2.0-0.5","spark_pilot_2","7349","2","13","Female","","false","","","","","[811.3000000119209,1120.8999999761581]","./assets/img/space/12.jpg","[""ArrowDown"",""ArrowLeft""]","practice block","space","15","{""ArrowUp,ArrowLeft"":3,""ArrowUp,ArrowRight"":36,""ArrowDown,ArrowLeft"":15,""ArrowDown,ArrowRight"":23}","false","ArrowDown,ArrowLeft","false","","","","","","","",""
"html-keyboard-response","74","950189","0.0-3.0-13.0-2.0-1.5","spark_pilot_2","7349","2","13","Female","","","","","","","null","<div style=""font-size:60px;"">+</div>","null","fixation","","","","","","","","","","","","","",""
"revaluation","75","956230","0.0-3.0-13.0-2.0-0.6","spark_pilot_2","7349","2","13","Female","","false","","","","","[593.9000000059605,853]","./assets/img/space/13.jpg","[""ArrowDown"",""ArrowLeft""]","practice block","space","15","{""ArrowUp,ArrowLeft"":3,""ArrowUp,ArrowRight"":36,""ArrowDown,ArrowLeft"":15,""ArrowDown,ArrowRight"":23}","false","ArrowDown,ArrowLeft","false","","","","","","","",""
"html-keyboard-response","76","956741","0.0-3.0-13.0-2.0-1.6","spark_pilot_2","7349","2","13","Female","","","","","","","null","<div style=""font-size:60px;"">+</div>","null","fixation","","","","","","","","","","","","","",""
"revaluation","77","962774","0.0-3.0-13.0-2.0-0.7","spark_pilot_2","7349","2","13","Female","","false","","","","","[1131.1000000238419,919.6000000238419]","./assets/img/space/14.jpg","[""ArrowDown"",""ArrowRight""]","practice block","space","23","{""ArrowUp,ArrowLeft"":3,""ArrowUp,ArrowRight"":36,""ArrowDown,ArrowLeft"":15,""ArrowDown,ArrowRight"":23}","false","ArrowDown,ArrowRight","false","","","","","","","",""
"html-keyboard-response","78","963285","0.0-3.0-13.0-2.0-1.7","spark_pilot_2","7349","2","13","Female","","","","","","","null","<div style=""font-size:60px;"">+</div>","null","fixation","","","","","","","","","","","","","",""
"revaluation","79","967317","0.0-3.0-13.0-2.0-0.8","spark_pilot_2","7349","2","13","Female","","false","","","","","[1572.199999988079]","./assets/img/space/catch/3.jpg","[""ArrowUp""]","practice block","space","-10","{""ArrowUp,ArrowLeft"":3,""ArrowUp,ArrowRight"":36,""ArrowDown,ArrowLeft"":15,""ArrowDown,ArrowRight"":23}","false","ArrowUp","true","","","","","","","",""
"html-keyboard-response","80","967820","0.0-3.0-13.0-2.0-1.8","spark_pilot_2","7349","2","13","Female","","","","","","","null","<div style=""font-size:60px;"">+</div>","null","fixation","","","","","","","","","","","","","",""
"learning-instructions","81","1187707","0.0-3.0-13.0-3.0-0.0","spark_pilot_2","7349","2","13","Female","","","","","","","206473.90000000596","<p> Now, you will travel with a friend who will choose whether you go up or down first. </p>
            <p> On these turns, you will just see the animal that they found. You will still get to choose which chest to search for treasure.</p>","","instructions","","","","","","","","","","","","","",""
"revaluation","82","1191766","0.0-3.0-13.0-4.0-0.0","spark_pilot_2","7349","2","13","Female","","false","","","","","[752.0999999940395]","./assets/img/space/animals/cat.jpg","[""ArrowRight""]","practice block","space","36","{""ArrowUp,ArrowLeft"":3,""ArrowUp,ArrowRight"":36,""ArrowDown,ArrowLeft"":15,""ArrowDown,ArrowRight"":23}","true","ArrowUp,ArrowRight","","","","","","","","",""
"html-keyboard-response","83","1192277","0.0-3.0-13.0-4.0-1.0","spark_pilot_2","7349","2","13","Female","","","","","","","null","<div style=""font-size:60px;"">+</div>","null","fixation","","","","","","","","","","","","","",""
"revaluation","84","1196310","0.0-3.0-13.0-4.0-0.1","spark_pilot_2","7349","2","13","Female","","false","","","","","[593.4000000059605]","./assets/img/space/animals/rabbit.jpg","[""ArrowLeft""]","practice block","space","15","{""ArrowUp,ArrowLeft"":3,""ArrowUp,ArrowRight"":36,""ArrowDown,ArrowLeft"":15,""ArrowDown,ArrowRight"":23}","false","ArrowDown,ArrowLeft","","","","","","","","",""
"html-keyboard-response","85","1196821","0.0-3.0-13.0-4.0-1.1","spark_pilot_2","7349","2","13","Female","","","","","","","null","<div style=""font-size:60px;"">+</div>","null","fixation","","","","","","","","","","","","","",""
"revaluation","86","1200846","0.0-3.0-13.0-4.0-0.2","spark_pilot_2","7349","2","13","Female","","false","","","","","[501.90000000596046]","./assets/img/space/animals/rabbit.jpg","[""ArrowRight""]","practice block","space","23","{""ArrowUp,ArrowLeft"":3,""ArrowUp,ArrowRight"":36,""ArrowDown,ArrowLeft"":15,""ArrowDown,ArrowRight"":23}","true","ArrowDown,ArrowRight","","","","","","","","",""
"html-keyboard-response","87","1201357","0.0-3.0-13.0-4.0-1.2","spark_pilot_2","7349","2","13","Female","","","","","","","null","<div style=""font-size:60px;"">+</div>","null","fixation","","","","","","","","","","","","","",""
"revaluation","88","1205381","0.0-3.0-13.0-4.0-0.3","spark_pilot_2","7349","2","13","Female","","false","","","","","[717.3999999761581]","./assets/img/space/animals/cat.jpg","[""ArrowLeft""]","practice block","space","3","{""ArrowUp,ArrowLeft"":3,""ArrowUp,ArrowRight"":36,""ArrowDown,ArrowLeft"":15,""ArrowDown,ArrowRight"":23}","false","ArrowUp,ArrowLeft","","","","","","","","",""
"html-keyboard-response","89","1205892","0.0-3.0-13.0-4.0-1.3","spark_pilot_2","7349","2","13","Female","","","","","","","null","<div style=""font-size:60px;"">+</div>","null","fixation","","","","","","","","","","","","","",""
"learning-instructions","90","1222137","0.0-3.0-13.0-5.0-0.0","spark_pilot_2","7349","2","13","Female","","","","","","","8705.800000011921","<p> Time to play the dot game! </p>
            <p> For 15 seconds, click the red dots on the following screen as they appear. </p>","","instructions","","","","","","","","","","","","","",""
"revaluation","91","1237158","0.0-3.0-13.0-6.0-0.0","spark_pilot_2","7349","2","13","Female","","","","","","","[112]","","","rest practice","","10","","","","","0","15000","","","","","",""
"learning-instructions","92","1247113","0.0-3.0-13.0-7.0-0.0","spark_pilot_2","7349","2","13","Female","","","","","","","3734.800000011921","<p> You have almost finished this part of the game! </p>
            <p> We are going to ask you to make a few more choices. </p>","","instructions","","","","","","","","","","","","","",""
"learning-instructions","93","1268606","0.0-3.0-13.0-7.0-0.1","spark_pilot_2","7349","2","13","Female","","","","","","","7329.5999999940395","<p> First, you need to decide whether to go up or down. When you see each picture, use the arrow keys to make your choice. </p>
            <p><b>You will not see which animal you found, but try to get to the one that will give you the most treasure.</b></p>","","instructions","","","","","","","","","","","","","",""
"revaluation","94","1270123","0.0-3.0-13.0-8.0","spark_pilot_2","7349","2","13","Female","","false","","","","","[1500.3999999761581]","./assets/img/space/15.jpg","[""ArrowUp""]","practice block","space","0","{""ArrowUp,ArrowLeft"":3,""ArrowUp,ArrowRight"":36,""ArrowDown,ArrowLeft"":15,""ArrowDown,ArrowRight"":23}","true","ArrowUp","false","","","","","","","",""
"html-keyboard-response","95","1270633","0.0-3.0-13.0-9.0","spark_pilot_2","7349","2","13","Female","","","","","","","null","<div style=""font-size:60px;"">+</div>","null","fixation","","","","","","","","","","","","","",""
"learning-instructions","96","1305745","0.0-3.0-13.0-10.0-0.0","spark_pilot_2","7349","2","13","Female","","","","","","","22895.80000001192","<p> Now you will see the animals again and can search their chests for treasure. </p>
            <p> This time, you will not see how much treasure you earned, but you will earn more bonus money for making better choices. </p>","","instructions","","","","","","","","","","","","","",""
"revaluation","97","1306875","0.0-3.0-13.0-11.0-0.0","spark_pilot_2","7349","2","13","Female","","false","","","","","[1101.5]","./assets/img/space/animals/cat.jpg","[""ArrowRight""]","practice block","space","0","{""ArrowUp,ArrowLeft"":3,""ArrowUp,ArrowRight"":36,""ArrowDown,ArrowLeft"":15,""ArrowDown,ArrowRight"":23}","true","ArrowUp,ArrowRight","","","","","","","","",""
"html-keyboard-response","98","1307381","0.0-3.0-13.0-11.0-1.0","spark_pilot_2","7349","2","13","Female","","","","","","","null","<div style=""font-size:60px;"">+</div>","null","fixation","","","","","","","","","","","","","",""
"revaluation","99","1308321","0.0-3.0-13.0-11.0-0.1","spark_pilot_2","7349","2","13","Female","","false","","","","","[920.4000000059605]","./assets/img/space/animals/rabbit.jpg","[""ArrowLeft""]","practice block","space","0","{""ArrowUp,ArrowLeft"":3,""ArrowUp,ArrowRight"":36,""ArrowDown,ArrowLeft"":15,""ArrowDown,ArrowRight"":23}","false","ArrowDown,ArrowLeft","","","","","","","","",""
"html-keyboard-response","100","1308829","0.0-3.0-13.0-11.0-1.1","spark_pilot_2","7349","2","13","Female","","","","","","","null","<div style=""font-size:60px;"">+</div>","null","fixation","","","","","","","","","","","","","",""
"learning-instructions","101","1316043","0.0-3.0-14.0-0.0","spark_pilot_2","7349","2","13","Female","","","","","","","2522.600000023842","<p> Before you start, we're going to ask you a few questions about how the game works. </p>","","instructions","","","","","","","","","","","","","",""
"comp-q","102","1324728","0.0-3.0-15.0-0.0-0.0","spark_pilot_2","7349","2","13","Female","","","","","","","2975.199999988079","<p> <b> True or False? </b> </p>
            <p> There can be 50 pieces of treasure in a given animal's chest. </p>","1","comp_question","","","","true","","","","","","","","","",""
"comp-q","103","1350375","0.0-3.0-15.0-0.0-1.0","spark_pilot_2","7349","2","13","Female","","","","","","","18892.19999998808","<p> <b> That's right! </b> The amount of treasure in each chest can range from 0 to 40 pieces. </p>","0","comp_answer","","","","","","","","","","","","","",""
"comp-q","104","1381350","0.0-3.0-15.0-0.1-0.1","spark_pilot_2","7349","2","13","Female","","","","","","","23705","<p> <b> True or False? </b> </p><p> In this game, all animals have the same amount of treasure in their left and right chests. </p>","1","comp_question","","","","true","","","","","","","","","",""
"comp-q","105","1508733","0.0-3.0-15.0-0.1-1.1","spark_pilot_2","7349","2","13","Female","","","","","","","122039.29999998212","<p> <b> That's right! </b> Animals have different amounts of treasure in their treasure chests. </p>","0","comp_answer","","","","","","","","","","","","","",""
"comp-q","106","1516384","0.0-3.0-15.0-0.2-0.2","spark_pilot_2","7349","2","13","Female","","","","","","","1680.5999999940395","<p> <b> True or False? </b> </p><p> The same animal will always be there if you go up in the same place. </p>","1","comp_question","","","","false","","","","","","","","","",""
"comp-q","107","1524782","0.0-3.0-15.0-0.2-1.2","spark_pilot_2","7349","2","13","Female","","","","","","","1992.800000011921","<p> <b>Incorrect.</b> One animal lives in the upper part and one lives in the lower part of every place. </p>","0","comp_answer","","","","","","","","","","","","","",""
"comp-q","108","1536062","0.0-3.0-15.0-0.3-0.3","spark_pilot_2","7349","2","13","Female","","","","","","","5452","<p> <b> True or False? </b> </p><p> The same animal will always be there if you go up in the same place. </p>","0","comp_question","","","","true","","","","","","","","","",""
"comp-q","109","1647404","0.0-3.0-15.0-0.3-1.3","spark_pilot_2","7349","2","13","Female","","","","","","","104776.80000001192","<p> <b> That's right! </b> One animal lives in the upper part and one lives in the lower part of every place. </p>","0","comp_answer","","","","","","","","","","","","","",""
"comp-q","110","1655096","0.0-3.0-15.0-0.4-0.4","spark_pilot_2","7349","2","13","Female","","","","","","","1934.3999999761581","<p> <b> True or False? </b> </p><p> If you see a different picture, it means you are in a new place. </p>","0","comp_question","","","","false","","","","","","","","","",""
"comp-q","111","1669408","0.0-3.0-15.0-0.4-1.4","spark_pilot_2","7349","2","13","Female","","","","","","","3074.300000011921","<p> <b>Incorrect.</b> Lots of different images may show the same place. For example,  you may see three different images that all remind you that you are in outer space. </p>","0","comp_answer","","","","","","","","","","","","","",""
"comp-q","112","1676488","0.0-3.0-15.0-0.5-0.5","spark_pilot_2","7349","2","13","Female","","","","","","","1569","<p> <b> True or False? </b> </p><p> If you see a different picture, it means you are in a new place. </p>","0","comp_question","","","","false","","","","","","","","","",""
"comp-q","113","1690182","0.0-3.0-15.0-0.5-1.5","spark_pilot_2","7349","2","13","Female","","","","","","","2632","<p> <b>Incorrect.</b> Lots of different images may show the same place. For example,  you may see three different images that all remind you that you are in outer space. </p>","0","comp_answer","","","","","","","","","","","","","",""
"comp-q","114","1698805","0.0-3.0-15.0-0.6-0.6","spark_pilot_2","7349","2","13","Female","","","","","","","3116.5","<p> <b> True or False? </b> </p><p> If you see a different picture, it means you are in a new place. </p>","1","comp_question","","","","true","","","","","","","","","",""
"comp-q","115","1815269","0.0-3.0-15.0-0.6-1.6","spark_pilot_2","7349","2","13","Female","","","","","","","105076.19999998808","<p> <b> That's right! </b> Lots of different images may show the same place. For example,  you may see three different images that all remind you that you are in outer space. </p>","0","comp_answer","","","","","","","","","","","","","",""
"learning-instructions","116","1826972","0.0-3.0-16.0-0.0","spark_pilot_2","7349","2","13","Female","","","","","","","1627.7999999821186","<p> Good job. Remember to do your best because the amount of treasure you earn will be converted into bonus money. </p>
            <p> It’s time to start the real game! </p>","","instructions","","","","","","","","","","","","","",""
"learning-instructions","117","1830985","0.0-4.0-0.0-0.0","spark_pilot_2","7349","2","13","Female","","","","","","","1226","<p> This time you are searching for treasure in the <b>ocean</b>.</p>","","instructions","","","","","","","","","","","","","",""
"learning-instructions","118","1851368","0.0-4.0-0.0-0.1","spark_pilot_2","7349","2","13","Female","","","","","","","2386.7999999821186","<p><b>New</b> animals with <b>new</b> treasure chests live here. You need to explore to discover where the animal with the best treasure chest is.</p>
                    <p> Like before, once you figure out which animal has the chest with the most treasure, you should try to get to that animal and select that chest! </p>","","instructions","","","","","","","","","","","","","",""
"learning-instructions","119","1868183","0.0-4.0-1.0-0.0","spark_pilot_2","7349","2","13","Female","","","","","","","2072","<p> Remember, when you see a picture of the place, use the up and down keys to <b>find an animal</b>.</p>
            <p> When you encounter an animal, you should use the left and right keys to <b>select a treasure chest</b>.</p>
            <p> Don't forget to look out for the robber! </p>","","instructions","","","","","","","","","","","","","",""
"revaluation","120","1874231","0.0-4.0-2.0-0.0","spark_pilot_2","7349","2","13","Female","","false","","","","","[1420.800000011921,982.3999999761581]","./assets/img/ocean/memory/3.jpg","[""ArrowDown"",""ArrowRight""]","value training","ocean","30","{""ArrowUp,ArrowLeft"":23,""ArrowUp,ArrowRight"":10,""ArrowDown,ArrowLeft"":8,""ArrowDown,ArrowRight"":30}","true","ArrowDown,ArrowRight","false","","","revaluation","1","0","","",""
"html-keyboard-response","121","1874765","0.0-4.0-2.0-1.0","spark_pilot_2","7349","2","13","Female","","","","","","","null","<div style=""font-size:60px;"">+</div>","null","fixation","","","","","","","","","","","1","","",""
"revaluation","122","1878805","0.0-4.0-2.0-0.1","spark_pilot_2","7349","2","13","Female","","false","","","","","[635.5999999940395]","./assets/img/ocean/catch/2.jpg","[""ArrowUp""]","value training","ocean","-10","{""ArrowUp,ArrowLeft"":23,""ArrowUp,ArrowRight"":10,""ArrowDown,ArrowLeft"":8,""ArrowDown,ArrowRight"":30}","false","ArrowUp","true","","","revaluation","1","2","","",""
"html-keyboard-response","123","1879317","0.0-4.0-2.0-1.1","spark_pilot_2","7349","2","13","Female","","","","","","","null","<div style=""font-size:60px;"">+</div>","null","fixation","","","","","","","","","","","3","","",""
"revaluation","124","1885350","0.0-4.0-2.0-0.2","spark_pilot_2","7349","2","13","Female","","false","","","","","[1878.9000000059605,831.5999999940395]","./assets/img/ocean/memory/5.jpg","[""ArrowUp"",""ArrowRight""]","value training","ocean","10","{""ArrowUp,ArrowLeft"":23,""ArrowUp,ArrowRight"":10,""ArrowDown,ArrowLeft"":8,""ArrowDown,ArrowRight"":30}","false","ArrowUp,ArrowRight","false","","","revaluation","1","4","","",""
"html-keyboard-response","125","1885861","0.0-4.0-2.0-1.2","spark_pilot_2","7349","2","13","Female","","","","","","","null","<div style=""font-size:60px;"">+</div>","null","fixation","","","","","","","","","","","5","","",""
"revaluation","126","1889893","0.0-4.0-2.0-0.3","spark_pilot_2","7349","2","13","Female","","true","","","","","[]","./assets/img/ocean/memory/24.jpg","[]","value training","ocean","-5","{""ArrowUp,ArrowLeft"":23,""ArrowUp,ArrowRight"":10,""ArrowDown,ArrowLeft"":8,""ArrowDown,ArrowRight"":30}","false","","false","","","revaluation","1","6","","",""
"html-keyboard-response","127","1890405","0.0-4.0-2.0-1.3","spark_pilot_2","7349","2","13","Female","","","","","","","null","<div style=""font-size:60px;"">+</div>","null","fixation","","","","","","","","","","","7","","",""
"revaluation","128","1896438","0.0-4.0-2.0-0.4","spark_pilot_2","7349","2","13","Female","","false","","","","","[1239.5999999940395,654.0999999940395]","./assets/img/ocean/memory/13.jpg","[""ArrowDown"",""ArrowRight""]","value training","ocean","30","{""ArrowUp,ArrowLeft"":23,""ArrowUp,ArrowRight"":10,""ArrowDown,ArrowLeft"":8,""ArrowDown,ArrowRight"":30}","true","ArrowDown,ArrowRight","false","","","revaluation","1","8","","",""
"html-keyboard-response","129","1896949","0.0-4.0-2.0-1.4","spark_pilot_2","7349","2","13","Female","","","","","","","null","<div style=""font-size:60px;"">+</div>","null","fixation","","","","","","","","","","","9","","",""
"revaluation","130","1903006","0.0-4.0-2.0-0.5","spark_pilot_2","7349","2","13","Female","","false","","","","","[958.3000000119209,872.5]","./assets/img/ocean/memory/41.jpg","[""ArrowDown"",""ArrowRight""]","value training","ocean","30","{""ArrowUp,ArrowLeft"":23,""ArrowUp,ArrowRight"":10,""ArrowDown,ArrowLeft"":8,""ArrowDown,ArrowRight"":30}","true","ArrowDown,ArrowRight","false","","","revaluation","1","10","","",""
"html-keyboard-response","131","1903517","0.0-4.0-2.0-1.5","spark_pilot_2","7349","2","13","Female","","","","","","","null","<div style=""font-size:60px;"">+</div>","null","fixation","","","","","","","","","","","11","","",""
"revaluation","132","1909557","0.0-4.0-2.0-0.6","spark_pilot_2","7349","2","13","Female","","false","","","","","[849.0999999940395,754]","./assets/img/ocean/memory/5.jpg","[""ArrowUp"",""ArrowLeft""]","value training","ocean","23","{""ArrowUp,ArrowLeft"":23,""ArrowUp,ArrowRight"":10,""ArrowDown,ArrowLeft"":8,""ArrowDown,ArrowRight"":30}","false","ArrowUp,ArrowLeft","false","","","revaluation","1","12","","",""
"html-keyboard-response","133","1910061","0.0-4.0-2.0-1.6","spark_pilot_2","7349","2","13","Female","","","","","","","null","<div style=""font-size:60px;"">+</div>","null","fixation","","","","","","","","","","","13","","",""
"revaluation","134","1916104","0.0-4.0-2.0-0.7","spark_pilot_2","7349","2","13","Female","","false","","","","","[805.8999999761581,740.7000000178814]","./assets/img/ocean/memory/33.jpg","[""ArrowUp"",""ArrowRight""]","value training","ocean","10","{""ArrowUp,ArrowLeft"":23,""ArrowUp,ArrowRight"":10,""ArrowDown,ArrowLeft"":8,""ArrowDown,ArrowRight"":30}","false","ArrowUp,ArrowRight","false","","","revaluation","1","14","","",""
"html-keyboard-response","135","1916613","0.0-4.0-2.0-1.7","spark_pilot_2","7349","2","13","Female","","","","","","","null","<div style=""font-size:60px;"">+</div>","null","fixation","","","","","","","","","","","15","","",""
"revaluation","136","1922646","0.0-4.0-2.0-0.8","spark_pilot_2","7349","2","13","Female","","false","","","","","[1285.199999988079,836.7000000178814]","./assets/img/ocean/memory/14.jpg","[""ArrowUp"",""ArrowLeft""]","value training","ocean","23","{""ArrowUp,ArrowLeft"":23,""ArrowUp,ArrowRight"":10,""ArrowDown,ArrowLeft"":8,""ArrowDown,ArrowRight"":30}","false","ArrowUp,ArrowLeft","false","","","revaluation","1","16","","",""
"html-keyboard-response","137","1923157","0.0-4.0-2.0-1.8","spark_pilot_2","7349","2","13","Female","","","","","","","null","<div style=""font-size:60px;"">+</div>","null","fixation","","","","","","","","","","","17","","",""
"revaluation","138","1927190","0.0-4.0-2.0-0.9","spark_pilot_2","7349","2","13","Female","","false","","","","","[1013.7999999821186]","./assets/img/ocean/catch/6.jpg","[""spaceBar""]","value training","ocean","0","{""ArrowUp,ArrowLeft"":23,""ArrowUp,ArrowRight"":10,""ArrowDown,ArrowLeft"":8,""ArrowDown,ArrowRight"":30}","true","spaceBar","true","","","revaluation","1","18","","",""
"html-keyboard-response","139","1927701","0.0-4.0-2.0-1.9","spark_pilot_2","7349","2","13","Female","","","","","","","null","<div style=""font-size:60px;"">+</div>","null","fixation","","","","","","","","","","","19","","",""
"revaluation","140","1933734","0.0-4.0-2.0-0.10","spark_pilot_2","7349","2","13","Female","","false","","","","","[555.5,740.1999999880791]","./assets/img/ocean/memory/21.jpg","[""ArrowUp"",""ArrowRight""]","value training","ocean","10","{""ArrowUp,ArrowLeft"":23,""ArrowUp,ArrowRight"":10,""ArrowDown,ArrowLeft"":8,""ArrowDown,ArrowRight"":30}","false","ArrowUp,ArrowRight","false","","","revaluation","1","20","","",""
"html-keyboard-response","141","1934245","0.0-4.0-2.0-1.10","spark_pilot_2","7349","2","13","Female","","","","","","","null","<div style=""font-size:60px;"">+</div>","null","fixation","","","","","","","","","","","21","","",""
"revaluation","142","1940277","0.0-4.0-2.0-0.11","spark_pilot_2","7349","2","13","Female","","false","","","","","[1285.300000011921,596.2000000178814]","./assets/img/ocean/memory/17.jpg","[""ArrowUp"",""ArrowLeft""]","value training","ocean","23","{""ArrowUp,ArrowLeft"":23,""ArrowUp,ArrowRight"":10,""ArrowDown,ArrowLeft"":8,""ArrowDown,ArrowRight"":30}","false","ArrowUp,ArrowLeft","false","","","revaluation","1","22","","",""
"html-keyboard-response","143","1940789","0.0-4.0-2.0-1.11","spark_pilot_2","7349","2","13","Female","","","","","","","null","<div style=""font-size:60px;"">+</div>","null","fixation","","","","","","","","","","","23","","",""
"revaluation","144","1944814","0.0-4.0-2.0-0.12","spark_pilot_2","7349","2","13","Female","","false","","","","","[822.5]","./assets/img/ocean/catch/0.jpg","[""spaceBar""]","value training","ocean","0","{""ArrowUp,ArrowLeft"":23,""ArrowUp,ArrowRight"":10,""ArrowDown,ArrowLeft"":8,""ArrowDown,ArrowRight"":30}","true","spaceBar","true","","","revaluation","1","24","","",""
"html-keyboard-response","145","1945325","0.0-4.0-2.0-1.12","spark_pilot_2","7349","2","13","Female","","","","","","","null","<div style=""font-size:60px;"">+</div>","null","fixation","","","","","","","","","","","25","","",""
"revaluation","146","1951358","0.0-4.0-2.0-0.13","spark_pilot_2","7349","2","13","Female","","false","","","","","[977.7000000178814,1440.800000011921]","./assets/img/ocean/memory/32.jpg","[""ArrowUp"",""ArrowLeft""]","value training","ocean","23","{""ArrowUp,ArrowLeft"":23,""ArrowUp,ArrowRight"":10,""ArrowDown,ArrowLeft"":8,""ArrowDown,ArrowRight"":30}","false","ArrowUp,ArrowLeft","false","","","revaluation","1","26","","",""
"html-keyboard-response","147","1951869","0.0-4.0-2.0-1.13","spark_pilot_2","7349","2","13","Female","","","","","","","null","<div style=""font-size:60px;"">+</div>","null","fixation","","","","","","","","","","","27","","",""
"revaluation","148","1955893","0.0-4.0-2.0-0.14","spark_pilot_2","7349","2","13","Female","","true","","","","","[]","./assets/img/ocean/memory/1.jpg","[]","value training","ocean","-5","{""ArrowUp,ArrowLeft"":23,""ArrowUp,ArrowRight"":10,""ArrowDown,ArrowLeft"":8,""ArrowDown,ArrowRight"":30}","false","","false","","","revaluation","1","28","","",""
"html-keyboard-response","149","1956397","0.0-4.0-2.0-1.14","spark_pilot_2","7349","2","13","Female","","","","","","","null","<div style=""font-size:60px;"">+</div>","null","fixation","","","","","","","","","","","29","","",""
"revaluation","150","1962430","0.0-4.0-2.0-0.15","spark_pilot_2","7349","2","13","Female","","false","","","","","[462.2000000178814,828.6999999880791]","./assets/img/ocean/memory/8.jpg","[""ArrowUp"",""ArrowLeft""]","value training","ocean","23","{""ArrowUp,ArrowLeft"":23,""ArrowUp,ArrowRight"":10,""ArrowDown,ArrowLeft"":8,""ArrowDown,ArrowRight"":30}","false","ArrowUp,ArrowLeft","false","","","revaluation","1","30","","",""
"html-keyboard-response","151","1962940","0.0-4.0-2.0-1.15","spark_pilot_2","7349","2","13","Female","","","","","","","null","<div style=""font-size:60px;"">+</div>","null","fixation","","","","","","","","","","","31","","",""
"revaluation","152","1968974","0.0-4.0-2.0-0.16","spark_pilot_2","7349","2","13","Female","","false","","","","","[863.2000000178814,1134.199999988079]","./assets/img/ocean/memory/31.jpg","[""ArrowUp"",""ArrowRight""]","value training","ocean","10","{""ArrowUp,ArrowLeft"":23,""ArrowUp,ArrowRight"":10,""ArrowDown,ArrowLeft"":8,""ArrowDown,ArrowRight"":30}","false","ArrowUp,ArrowRight","false","","","revaluation","1","32","","",""
"html-keyboard-response","153","1969485","0.0-4.0-2.0-1.16","spark_pilot_2","7349","2","13","Female","","","","","","","null","<div style=""font-size:60px;"">+</div>","null","fixation","","","","","","","","","","","33","","",""
"revaluation","154","1975518","0.0-4.0-2.0-0.17","spark_pilot_2","7349","2","13","Female","","false","","","","","[740.3000000119209,859.9000000059605]","./assets/img/ocean/memory/11.jpg","[""ArrowUp"",""ArrowLeft""]","value training","ocean","23","{""ArrowUp,ArrowLeft"":23,""ArrowUp,ArrowRight"":10,""ArrowDown,ArrowLeft"":8,""ArrowDown,ArrowRight"":30}","false","ArrowUp,ArrowLeft","false","","","revaluation","1","34","","",""
"html-keyboard-response","155","1976028","0.0-4.0-2.0-1.17","spark_pilot_2","7349","2","13","Female","","","","","","","null","<div style=""font-size:60px;"">+</div>","null","fixation","","","","","","","","","","","35","","",""
"revaluation","156","1982070","0.0-4.0-2.0-0.18","spark_pilot_2","7349","2","13","Female","","false","","","","","[693.7999999821186,869.2000000178814]","./assets/img/ocean/memory/29.jpg","[""ArrowUp"",""ArrowLeft""]","value training","ocean","23","{""ArrowUp,ArrowLeft"":23,""ArrowUp,ArrowRight"":10,""ArrowDown,ArrowLeft"":8,""ArrowDown,ArrowRight"":30}","false","ArrowUp,ArrowLeft","false","","","revaluation","1","36","","",""
"html-keyboard-response","157","1982580","0.0-4.0-2.0-1.18","spark_pilot_2","7349","2","13","Female","","","","","","","null","<div style=""font-size:60px;"">+</div>","null","fixation","","","","","","","","","","","37","","",""
"revaluation","158","1988605","0.0-4.0-2.0-0.19","spark_pilot_2","7349","2","13","Female","","false","","","","","[591.1999999880791,897.0999999940395]","./assets/img/ocean/memory/25.jpg","[""ArrowUp"",""ArrowLeft""]","value training","ocean","23","{""ArrowUp,ArrowLeft"":23,""ArrowUp,ArrowRight"":10,""ArrowDown,ArrowLeft"":8,""ArrowDown,ArrowRight"":30}","false","ArrowUp,ArrowLeft","false","","","revaluation","1","38","","",""
"html-keyboard-response","159","1989117","0.0-4.0-2.0-1.19","spark_pilot_2","7349","2","13","Female","","","","","","","null","<div style=""font-size:60px;"">+</div>","null","fixation","","","","","","","","","","","39","","",""
"revaluation","160","1995149","0.0-4.0-2.0-0.20","spark_pilot_2","7349","2","13","Female","","true","","","","","[836.1000000238419]","./assets/img/ocean/memory/38.jpg","[""ArrowUp""]","value training","ocean","-5","{""ArrowUp,ArrowLeft"":23,""ArrowUp,ArrowRight"":10,""ArrowDown,ArrowLeft"":8,""ArrowDown,ArrowRight"":30}","false","ArrowUp","false","","","revaluation","1","40","","",""
"html-keyboard-response","161","1995661","0.0-4.0-2.0-1.20","spark_pilot_2","7349","2","13","Female","","","","","","","null","<div style=""font-size:60px;"">+</div>","null","fixation","","","","","","","","","","","41","","",""
"revaluation","162","2001693","0.0-4.0-2.0-0.21","spark_pilot_2","7349","2","13","Female","","true","","","","","[1039.9000000059605]","./assets/img/ocean/memory/26.jpg","[""ArrowDown""]","value training","ocean","-5","{""ArrowUp,ArrowLeft"":23,""ArrowUp,ArrowRight"":10,""ArrowDown,ArrowLeft"":8,""ArrowDown,ArrowRight"":30}","false","ArrowDown","false","","","revaluation","1","42","","",""
"html-keyboard-response","163","2002204","0.0-4.0-2.0-1.21","spark_pilot_2","7349","2","13","Female","","","","","","","null","<div style=""font-size:60px;"">+</div>","null","fixation","","","","","","","","","","","43","","",""
"revaluation","164","2006229","0.0-4.0-2.0-0.22","spark_pilot_2","7349","2","13","Female","","true","","","","","[]","./assets/img/ocean/memory/33.jpg","[]","value training","ocean","-5","{""ArrowUp,ArrowLeft"":23,""ArrowUp,ArrowRight"":10,""ArrowDown,ArrowLeft"":8,""ArrowDown,ArrowRight"":30}","false","","false","","","revaluation","1","44","","",""
"html-keyboard-response","165","2006741","0.0-4.0-2.0-1.22","spark_pilot_2","7349","2","13","Female","","","","","","","null","<div style=""font-size:60px;"">+</div>","null","fixation","","","","","","","","","","","45","","",""
"revaluation","166","2012773","0.0-4.0-2.0-0.23","spark_pilot_2","7349","2","13","Female","","false","","","","","[424.30000001192093,715.5999999940395]","./assets/img/ocean/memory/8.jpg","[""ArrowUp"",""ArrowRight""]","value training","ocean","10","{""ArrowUp,ArrowLeft"":23,""ArrowUp,ArrowRight"":10,""ArrowDown,ArrowLeft"":8,""ArrowDown,ArrowRight"":30}","false","ArrowUp,ArrowRight","false","","","revaluation","1","46","","",""
"html-keyboard-response","167","2013287","0.0-4.0-2.0-1.23","spark_pilot_2","7349","2","13","Female","","","","","","","null","<div style=""font-size:60px;"">+</div>","null","fixation","","","","","","","","","","","47","","",""
"revaluation","168","2019328","0.0-4.0-2.0-0.24","spark_pilot_2","7349","2","13","Female","","false","","","","","[704,1418.2000000178814]","./assets/img/ocean/memory/14.jpg","[""ArrowUp"",""ArrowLeft""]","value training","ocean","23","{""ArrowUp,ArrowLeft"":23,""ArrowUp,ArrowRight"":10,""ArrowDown,ArrowLeft"":8,""ArrowDown,ArrowRight"":30}","false","ArrowUp,ArrowLeft","false","","","revaluation","1","48","","",""
"html-keyboard-response","169","2019836","0.0-4.0-2.0-1.24","spark_pilot_2","7349","2","13","Female","","","","","","","null","<div style=""font-size:60px;"">+</div>","null","fixation","","","","","","","","","","","49","","",""
"revaluation","170","2025869","0.0-4.0-2.0-0.25","spark_pilot_2","7349","2","13","Female","","false","","","","","[586.1999999880791,834.5999999940395]","./assets/img/ocean/memory/11.jpg","[""ArrowUp"",""ArrowLeft""]","value training","ocean","23","{""ArrowUp,ArrowLeft"":23,""ArrowUp,ArrowRight"":10,""ArrowDown,ArrowLeft"":8,""ArrowDown,ArrowRight"":30}","false","ArrowUp,ArrowLeft","false","","","revaluation","1","50","","",""
"html-keyboard-response","171","2026381","0.0-4.0-2.0-1.25","spark_pilot_2","7349","2","13","Female","","","","","","","null","<div style=""font-size:60px;"">+</div>","null","fixation","","","","","","","","","","","51","","",""
"revaluation","172","2032422","0.0-4.0-2.0-0.26","spark_pilot_2","7349","2","13","Female","","false","","","","","[881.8000000119209,1587.9000000059605]","./assets/img/ocean/memory/17.jpg","[""ArrowDown"",""ArrowLeft""]","value training","ocean","8","{""ArrowUp,ArrowLeft"":23,""ArrowUp,ArrowRight"":10,""ArrowDown,ArrowLeft"":8,""ArrowDown,ArrowRight"":30}","false","ArrowDown,ArrowLeft","false","","","revaluation","1","52","","",""
"html-keyboard-response","173","2032933","0.0-4.0-2.0-1.26","spark_pilot_2","7349","2","13","Female","","","","","","","null","<div style=""font-size:60px;"">+</div>","null","fixation","","","","","","","","","","","53","","",""
"revaluation","174","2038965","0.0-4.0-2.0-0.27","spark_pilot_2","7349","2","13","Female","","false","","","","","[694.6000000238419,579.0999999940395]","./assets/img/ocean/memory/16.jpg","[""ArrowUp"",""ArrowLeft""]","value training","ocean","23","{""ArrowUp,ArrowLeft"":23,""ArrowUp,ArrowRight"":10,""ArrowDown,ArrowLeft"":8,""ArrowDown,ArrowRight"":30}","false","ArrowUp,ArrowLeft","false","","","revaluation","1","54","","",""
"html-keyboard-response","175","2039476","0.0-4.0-2.0-1.27","spark_pilot_2","7349","2","13","Female","","","","","","","null","<div style=""font-size:60px;"">+</div>","null","fixation","","","","","","","","","","","55","","",""
"revaluation","176","2043494","0.0-4.0-2.0-0.28","spark_pilot_2","7349","2","13","Female","","false","","","","","[968.2999999821186]","./assets/img/ocean/catch/5.jpg","[""spaceBar""]","value training","ocean","0","{""ArrowUp,ArrowLeft"":23,""ArrowUp,ArrowRight"":10,""ArrowDown,ArrowLeft"":8,""ArrowDown,ArrowRight"":30}","true","spaceBar","true","","","revaluation","1","56","","",""
"html-keyboard-response","177","2044005","0.0-4.0-2.0-1.28","spark_pilot_2","7349","2","13","Female","","","","","","","null","<div style=""font-size:60px;"">+</div>","null","fixation","","","","","","","","","","","57","","",""
"revaluation","178","2048029","0.0-4.0-2.0-0.29","spark_pilot_2","7349","2","13","Female","","false","","","","","[1017.0999999940395]","./assets/img/ocean/catch/1.jpg","[""spaceBar""]","value training","ocean","0","{""ArrowUp,ArrowLeft"":23,""ArrowUp,ArrowRight"":10,""ArrowDown,ArrowLeft"":8,""ArrowDown,ArrowRight"":30}","true","spaceBar","true","","","revaluation","1","58","","",""
"html-keyboard-response","179","2048540","0.0-4.0-2.0-1.29","spark_pilot_2","7349","2","13","Female","","","","","","","null","<div style=""font-size:60px;"">+</div>","null","fixation","","","","","","","","","","","59","","",""
"revaluation","180","2054582","0.0-4.0-2.0-0.30","spark_pilot_2","7349","2","13","Female","","false","","","","","[768.3000000119209,651.8000000119209]","./assets/img/ocean/memory/1.jpg","[""ArrowUp"",""ArrowRight""]","value training","ocean","10","{""ArrowUp,ArrowLeft"":23,""ArrowUp,ArrowRight"":10,""ArrowDown,ArrowLeft"":8,""ArrowDown,ArrowRight"":30}","false","ArrowUp,ArrowRight","false","","","revaluation","1","60","","",""
"html-keyboard-response","181","2055093","0.0-4.0-2.0-1.30","spark_pilot_2","7349","2","13","Female","","","","","","","null","<div style=""font-size:60px;"">+</div>","null","fixation","","","","","","","","","","","61","","",""
"revaluation","182","2061126","0.0-4.0-2.0-0.31","spark_pilot_2","7349","2","13","Female","","false","","","","","[1661.9000000059605,884]","./assets/img/ocean/memory/20.jpg","[""ArrowUp"",""ArrowLeft""]","value training","ocean","23","{""ArrowUp,ArrowLeft"":23,""ArrowUp,ArrowRight"":10,""ArrowDown,ArrowLeft"":8,""ArrowDown,ArrowRight"":30}","false","ArrowUp,ArrowLeft","false","","","revaluation","1","62","","",""
"html-keyboard-response","183","2061636","0.0-4.0-2.0-1.31","spark_pilot_2","7349","2","13","Female","","","","","","","null","<div style=""font-size:60px;"">+</div>","null","fixation","","","","","","","","","","","63","","",""
"revaluation","184","2067670","0.0-4.0-2.0-0.32","spark_pilot_2","7349","2","13","Female","","false","","","","","[947.8000000119209,1755.1000000238419]","./assets/img/ocean/memory/31.jpg","[""ArrowUp"",""ArrowLeft""]","value training","ocean","23","{""ArrowUp,ArrowLeft"":23,""ArrowUp,ArrowRight"":10,""ArrowDown,ArrowLeft"":8,""ArrowDown,ArrowRight"":30}","false","ArrowUp,ArrowLeft","false","","","revaluation","1","64","","",""
"html-keyboard-response","185","2068181","0.0-4.0-2.0-1.32","spark_pilot_2","7349","2","13","Female","","","","","","","null","<div style=""font-size:60px;"">+</div>","null","fixation","","","","","","","","","","","65","","",""
"revaluation","186","2074221","0.0-4.0-2.0-0.33","spark_pilot_2","7349","2","13","Female","","false","","","","","[1580.5,960]","./assets/img/ocean/memory/26.jpg","[""ArrowUp"",""ArrowRight""]","value training","ocean","10","{""ArrowUp,ArrowLeft"":23,""ArrowUp,ArrowRight"":10,""ArrowDown,ArrowLeft"":8,""ArrowDown,ArrowRight"":30}","false","ArrowUp,ArrowRight","false","","","revaluation","1","66","","",""
"html-keyboard-response","187","2074733","0.0-4.0-2.0-1.33","spark_pilot_2","7349","2","13","Female","","","","","","","null","<div style=""font-size:60px;"">+</div>","null","fixation","","","","","","","","","","","67","","",""
"revaluation","188","2080774","0.0-4.0-2.0-0.34","spark_pilot_2","7349","2","13","Female","","false","","","","","[524,920.0999999940395]","./assets/img/ocean/memory/3.jpg","[""ArrowUp"",""ArrowLeft""]","value training","ocean","23","{""ArrowUp,ArrowLeft"":23,""ArrowUp,ArrowRight"":10,""ArrowDown,ArrowLeft"":8,""ArrowDown,ArrowRight"":30}","false","ArrowUp,ArrowLeft","false","","","revaluation","1","68","","",""
"html-keyboard-response","189","2081285","0.0-4.0-2.0-1.34","spark_pilot_2","7349","2","13","Female","","","","","","","null","<div style=""font-size:60px;"">+</div>","null","fixation","","","","","","","","","","","69","","",""
"revaluation","190","2087318","0.0-4.0-2.0-0.35","spark_pilot_2","7349","2","13","Female","","false","","","","","[1223.199999988079,656.6999999880791]","./assets/img/ocean/memory/24.jpg","[""ArrowUp"",""ArrowLeft""]","value training","ocean","23","{""ArrowUp,ArrowLeft"":23,""ArrowUp,ArrowRight"":10,""ArrowDown,ArrowLeft"":8,""ArrowDown,ArrowRight"":30}","false","ArrowUp,ArrowLeft","false","","","revaluation","1","70","","",""
"html-keyboard-response","191","2087828","0.0-4.0-2.0-1.35","spark_pilot_2","7349","2","13","Female","","","","","","","null","<div style=""font-size:60px;"">+</div>","null","fixation","","","","","","","","","","","71","","",""
"revaluation","192","2091854","0.0-4.0-2.0-0.36","spark_pilot_2","7349","2","13","Female","","false","","","","","[1430.9000000059605]","./assets/img/ocean/catch/7.jpg","[""spaceBar""]","value training","ocean","0","{""ArrowUp,ArrowLeft"":23,""ArrowUp,ArrowRight"":10,""ArrowDown,ArrowLeft"":8,""ArrowDown,ArrowRight"":30}","true","spaceBar","true","","","revaluation","1","72","","",""
"html-keyboard-response","193","2092365","0.0-4.0-2.0-1.36","spark_pilot_2","7349","2","13","Female","","","","","","","null","<div style=""font-size:60px;"">+</div>","null","fixation","","","","","","","","","","","73","","",""
"revaluation","194","2096390","0.0-4.0-2.0-0.37","spark_pilot_2","7349","2","13","Female","","false","","","","","[912.1000000238419]","./assets/img/ocean/catch/4.jpg","[""spaceBar""]","value training","ocean","0","{""ArrowUp,ArrowLeft"":23,""ArrowUp,ArrowRight"":10,""ArrowDown,ArrowLeft"":8,""ArrowDown,ArrowRight"":30}","true","spaceBar","true","","","revaluation","1","74","","",""
"html-keyboard-response","195","2096901","0.0-4.0-2.0-1.37","spark_pilot_2","7349","2","13","Female","","","","","","","null","<div style=""font-size:60px;"">+</div>","null","fixation","","","","","","","","","","","75","","",""
"revaluation","196","2100933","0.0-4.0-2.0-0.38","spark_pilot_2","7349","2","13","Female","","false","","","","","[881.1999999880791]","./assets/img/ocean/catch/3.jpg","[""spaceBar""]","value training","ocean","0","{""ArrowUp,ArrowLeft"":23,""ArrowUp,ArrowRight"":10,""ArrowDown,ArrowLeft"":8,""ArrowDown,ArrowRight"":30}","true","spaceBar","true","","","revaluation","1","76","","",""
"html-keyboard-response","197","2101445","0.0-4.0-2.0-1.38","spark_pilot_2","7349","2","13","Female","","","","","","","null","<div style=""font-size:60px;"">+</div>","null","fixation","","","","","","","","","","","77","","",""
"revaluation","198","2107486","0.0-4.0-2.0-0.39","spark_pilot_2","7349","2","13","Female","","false","","","","","[877.4000000059605,1849.9000000059605]","./assets/img/ocean/memory/16.jpg","[""ArrowUp"",""ArrowLeft""]","value training","ocean","23","{""ArrowUp,ArrowLeft"":23,""ArrowUp,ArrowRight"":10,""ArrowDown,ArrowLeft"":8,""ArrowDown,ArrowRight"":30}","false","ArrowUp,ArrowLeft","false","","","revaluation","1","78","","",""
"html-keyboard-response","199","2107997","0.0-4.0-2.0-1.39","spark_pilot_2","7349","2","13","Female","","","","","","","null","<div style=""font-size:60px;"">+</div>","null","fixation","","","","","","","","","","","79","","",""
"revaluation","200","2114029","0.0-4.0-2.0-0.40","spark_pilot_2","7349","2","13","Female","","false","","","","","[634.5,899.1999999880791]","./assets/img/ocean/memory/29.jpg","[""ArrowUp"",""ArrowRight""]","value training","ocean","10","{""ArrowUp,ArrowLeft"":23,""ArrowUp,ArrowRight"":10,""ArrowDown,ArrowLeft"":8,""ArrowDown,ArrowRight"":30}","false","ArrowUp,ArrowRight","false","","","revaluation","1","80","","",""
"html-keyboard-response","201","2114541","0.0-4.0-2.0-1.40","spark_pilot_2","7349","2","13","Female","","","","","","","null","<div style=""font-size:60px;"">+</div>","null","fixation","","","","","","","","","","","81","","",""
"revaluation","202","2120581","0.0-4.0-2.0-0.41","spark_pilot_2","7349","2","13","Female","","false","","","","","[490.19999998807907,600.4000000059605]","./assets/img/ocean/memory/39.jpg","[""ArrowDown"",""ArrowRight""]","value training","ocean","30","{""ArrowUp,ArrowLeft"":23,""ArrowUp,ArrowRight"":10,""ArrowDown,ArrowLeft"":8,""ArrowDown,ArrowRight"":30}","true","ArrowDown,ArrowRight","false","","","revaluation","1","82","","",""
"html-keyboard-response","203","2121093","0.0-4.0-2.0-1.41","spark_pilot_2","7349","2","13","Female","","","","","","","null","<div style=""font-size:60px;"">+</div>","null","fixation","","","","","","","","","","","83","","",""
"revaluation","204","2127125","0.0-4.0-2.0-0.42","spark_pilot_2","7349","2","13","Female","","false","","","","","[481.90000000596046,588]","./assets/img/ocean/memory/20.jpg","[""ArrowDown"",""ArrowRight""]","value training","ocean","30","{""ArrowUp,ArrowLeft"":23,""ArrowUp,ArrowRight"":10,""ArrowDown,ArrowLeft"":8,""ArrowDown,ArrowRight"":30}","true","ArrowDown,ArrowRight","false","","","revaluation","1","84","","",""
"html-keyboard-response","205","2127637","0.0-4.0-2.0-1.42","spark_pilot_2","7349","2","13","Female","","","","","","","null","<div style=""font-size:60px;"">+</div>","null","fixation","","","","","","","","","","","85","","",""
"revaluation","206","2133671","0.0-4.0-2.0-0.43","spark_pilot_2","7349","2","13","Female","","false","","","","","[912.6000000238419,918.7000000178814]","./assets/img/ocean/memory/21.jpg","[""ArrowDown"",""ArrowRight""]","value training","ocean","30","{""ArrowUp,ArrowLeft"":23,""ArrowUp,ArrowRight"":10,""ArrowDown,ArrowLeft"":8,""ArrowDown,ArrowRight"":30}","true","ArrowDown,ArrowRight","false","","","revaluation","1","86","","",""
"html-keyboard-response","207","2134181","0.0-4.0-2.0-1.43","spark_pilot_2","7349","2","13","Female","","","","","","","null","<div style=""font-size:60px;"">+</div>","null","fixation","","","","","","","","","","","87","","",""
"revaluation","208","2140221","0.0-4.0-2.0-0.44","spark_pilot_2","7349","2","13","Female","","false","","","","","[1026.6000000238419,777.9000000059605]","./assets/img/ocean/memory/41.jpg","[""ArrowUp"",""ArrowLeft""]","value training","ocean","23","{""ArrowUp,ArrowLeft"":23,""ArrowUp,ArrowRight"":10,""ArrowDown,ArrowLeft"":8,""ArrowDown,ArrowRight"":30}","false","ArrowUp,ArrowLeft","false","","","revaluation","1","88","","",""
"html-keyboard-response","209","2140732","0.0-4.0-2.0-1.44","spark_pilot_2","7349","2","13","Female","","","","","","","null","<div style=""font-size:60px;"">+</div>","null","fixation","","","","","","","","","","","89","","",""
"revaluation","210","2146765","0.0-4.0-2.0-0.45","spark_pilot_2","7349","2","13","Female","","false","","","","","[788.8000000119209,660.0999999940395]","./assets/img/ocean/memory/39.jpg","[""ArrowDown"",""ArrowRight""]","value training","ocean","30","{""ArrowUp,ArrowLeft"":23,""ArrowUp,ArrowRight"":10,""ArrowDown,ArrowLeft"":8,""ArrowDown,ArrowRight"":30}","true","ArrowDown,ArrowRight","false","","","revaluation","1","90","","",""
"html-keyboard-response","211","2147277","0.0-4.0-2.0-1.45","spark_pilot_2","7349","2","13","Female","","","","","","","null","<div style=""font-size:60px;"">+</div>","null","fixation","","","","","","","","","","","91","","",""
"revaluation","212","2153309","0.0-4.0-2.0-0.46","spark_pilot_2","7349","2","13","Female","","false","","","","","[601.0999999940395,641.5]","./assets/img/ocean/memory/32.jpg","[""ArrowDown"",""ArrowLeft""]","value training","ocean","8","{""ArrowUp,ArrowLeft"":23,""ArrowUp,ArrowRight"":10,""ArrowDown,ArrowLeft"":8,""ArrowDown,ArrowRight"":30}","false","ArrowDown,ArrowLeft","false","","","revaluation","1","92","","",""
"html-keyboard-response","213","2153820","0.0-4.0-2.0-1.46","spark_pilot_2","7349","2","13","Female","","","","","","","null","<div style=""font-size:60px;"">+</div>","null","fixation","","","","","","","","","","","93","","",""
"revaluation","214","2159854","0.0-4.0-2.0-0.47","spark_pilot_2","7349","2","13","Female","","false","","","","","[565.3000000119209,433.30000001192093]","./assets/img/ocean/memory/38.jpg","[""ArrowDown"",""ArrowRight""]","value training","ocean","30","{""ArrowUp,ArrowLeft"":23,""ArrowUp,ArrowRight"":10,""ArrowDown,ArrowLeft"":8,""ArrowDown,ArrowRight"":30}","true","ArrowDown,ArrowRight","false","","","revaluation","1","94","","",""
"html-keyboard-response","215","2160365","0.0-4.0-2.0-1.47","spark_pilot_2","7349","2","13","Female","","","","","","","null","<div style=""font-size:60px;"">+</div>","null","fixation","","","","","","","","","","","95","","",""
"revaluation","216","2166405","0.0-4.0-2.0-0.48","spark_pilot_2","7349","2","13","Female","","false","","","","","[589.8000000119209,635]","./assets/img/ocean/memory/25.jpg","[""ArrowDown"",""ArrowRight""]","value training","ocean","30","{""ArrowUp,ArrowLeft"":23,""ArrowUp,ArrowRight"":10,""ArrowDown,ArrowLeft"":8,""ArrowDown,ArrowRight"":30}","true","ArrowDown,ArrowRight","false","","","revaluation","1","96","","",""
"html-keyboard-response","217","2166908","0.0-4.0-2.0-1.48","spark_pilot_2","7349","2","13","Female","","","","","","","null","<div style=""font-size:60px;"">+</div>","null","fixation","","","","","","","","","","","97","","",""
"revaluation","218","2172959","0.0-4.0-2.0-0.49","spark_pilot_2","7349","2","13","Female","","false","","","","","[1075.4000000059605,553.0999999940395]","./assets/img/ocean/memory/13.jpg","[""ArrowDown"",""ArrowRight""]","value training","ocean","30","{""ArrowUp,ArrowLeft"":23,""ArrowUp,ArrowRight"":10,""ArrowDown,ArrowLeft"":8,""ArrowDown,ArrowRight"":30}","true","ArrowDown,ArrowRight","false","","","revaluation","1","98","","",""
"html-keyboard-response","219","2173485","0.0-4.0-2.0-1.49","spark_pilot_2","7349","2","13","Female","","","","","","","null","<div style=""font-size:60px;"">+</div>","null","fixation","","","","","","","","","","","99","","",""
"learning-instructions","220","2212752","0.0-4.0-3.0-0.0","spark_pilot_2","7349","2","13","Female","","","","","","","26248.399999976158","<p> Now, you will travel with a friend who will choose whether you go up or down first. </p>
            <p> On these turns, you will just see the animal that they found. You will still get to choose which chest to search for treasure.</p>","","instructions","","","","","","","","","","","","","",""
"revaluation","221","2216862","0.0-4.0-4.0-0.0","spark_pilot_2","7349","2","13","Female","","false","","","","","[1280.4000000059605]","./assets/img/ocean/animals/octopus.jpg","[""ArrowRight""]","revaluation","ocean","15","{""ArrowUp,ArrowLeft"":27,""ArrowUp,ArrowRight"":15,""ArrowDown,ArrowLeft"":21,""ArrowDown,ArrowRight"":7}","false","ArrowUp,ArrowRight","","","","revaluation","1","0","","",""
"html-keyboard-response","222","2217388","0.0-4.0-4.0-1.0","spark_pilot_2","7349","2","13","Female","","","","","","","null","<div style=""font-size:60px;"">+</div>","null","fixation","","","","","","","","","","","1","","",""
"revaluation","223","2221413","0.0-4.0-4.0-0.1","spark_pilot_2","7349","2","13","Female","","false","","","","","[843.5999999940395]","./assets/img/ocean/animals/seahorse.jpg","[""ArrowRight""]","revaluation","ocean","7","{""ArrowUp,ArrowLeft"":27,""ArrowUp,ArrowRight"":15,""ArrowDown,ArrowLeft"":21,""ArrowDown,ArrowRight"":7}","false","ArrowDown,ArrowRight","","","","revaluation","1","2","","",""
"html-keyboard-response","224","2221917","0.0-4.0-4.0-1.1","spark_pilot_2","7349","2","13","Female","","","","","","","null","<div style=""font-size:60px;"">+</div>","null","fixation","","","","","","","","","","","3","","",""
"revaluation","225","2225950","0.0-4.0-4.0-0.2","spark_pilot_2","7349","2","13","Female","","false","","","","","[401.30000001192093]","./assets/img/ocean/animals/octopus.jpg","[""ArrowLeft""]","revaluation","ocean","27","{""ArrowUp,ArrowLeft"":27,""ArrowUp,ArrowRight"":15,""ArrowDown,ArrowLeft"":21,""ArrowDown,ArrowRight"":7}","true","ArrowUp,ArrowLeft","","","","revaluation","1","4","","",""
"html-keyboard-response","226","2226461","0.0-4.0-4.0-1.2","spark_pilot_2","7349","2","13","Female","","","","","","","null","<div style=""font-size:60px;"">+</div>","null","fixation","","","","","","","","","","","5","","",""
"revaluation","227","2230486","0.0-4.0-4.0-0.3","spark_pilot_2","7349","2","13","Female","","false","","","","","[658]","./assets/img/ocean/animals/octopus.jpg","[""ArrowLeft""]","revaluation","ocean","27","{""ArrowUp,ArrowLeft"":27,""ArrowUp,ArrowRight"":15,""ArrowDown,ArrowLeft"":21,""ArrowDown,ArrowRight"":7}","true","ArrowUp,ArrowLeft","","","","revaluation","1","6","","",""
"html-keyboard-response","228","2230997","0.0-4.0-4.0-1.3","spark_pilot_2","7349","2","13","Female","","","","","","","null","<div style=""font-size:60px;"">+</div>","null","fixation","","","","","","","","","","","7","","",""
"revaluation","229","2235021","0.0-4.0-4.0-0.4","spark_pilot_2","7349","2","13","Female","","false","","","","","[718.0999999940395]","./assets/img/ocean/animals/octopus.jpg","[""ArrowLeft""]","revaluation","ocean","27","{""ArrowUp,ArrowLeft"":27,""ArrowUp,ArrowRight"":15,""ArrowDown,ArrowLeft"":21,""ArrowDown,ArrowRight"":7}","true","ArrowUp,ArrowLeft","","","","revaluation","1","8","","",""
"html-keyboard-response","230","2235532","0.0-4.0-4.0-1.4","spark_pilot_2","7349","2","13","Female","","","","","","","null","<div style=""font-size:60px;"">+</div>","null","fixation","","","","","","","","","","","9","","",""
"revaluation","231","2239558","0.0-4.0-4.0-0.5","spark_pilot_2","7349","2","13","Female","","false","","","","","[457]","./assets/img/ocean/animals/seahorse.jpg","[""ArrowLeft""]","revaluation","ocean","21","{""ArrowUp,ArrowLeft"":27,""ArrowUp,ArrowRight"":15,""ArrowDown,ArrowLeft"":21,""ArrowDown,ArrowRight"":7}","true","ArrowDown,ArrowLeft","","","","revaluation","1","10","","",""
"html-keyboard-response","232","2240068","0.0-4.0-4.0-1.5","spark_pilot_2","7349","2","13","Female","","","","","","","null","<div style=""font-size:60px;"">+</div>","null","fixation","","","","","","","","","","","11","","",""
"revaluation","233","2244095","0.0-4.0-4.0-0.6","spark_pilot_2","7349","2","13","Female","","false","","","","","[553.6999999880791]","./assets/img/ocean/animals/octopus.jpg","[""ArrowLeft""]","revaluation","ocean","27","{""ArrowUp,ArrowLeft"":27,""ArrowUp,ArrowRight"":15,""ArrowDown,ArrowLeft"":21,""ArrowDown,ArrowRight"":7}","true","ArrowUp,ArrowLeft","","","","revaluation","1","12","","",""
"html-keyboard-response","234","2244605","0.0-4.0-4.0-1.6","spark_pilot_2","7349","2","13","Female","","","","","","","null","<div style=""font-size:60px;"">+</div>","null","fixation","","","","","","","","","","","13","","",""
"revaluation","235","2248637","0.0-4.0-4.0-0.7","spark_pilot_2","7349","2","13","Female","","false","","","","","[491.69999998807907]","./assets/img/ocean/animals/octopus.jpg","[""ArrowLeft""]","revaluation","ocean","27","{""ArrowUp,ArrowLeft"":27,""ArrowUp,ArrowRight"":15,""ArrowDown,ArrowLeft"":21,""ArrowDown,ArrowRight"":7}","true","ArrowUp,ArrowLeft","","","","revaluation","1","14","","",""
"html-keyboard-response","236","2249140","0.0-4.0-4.0-1.7","spark_pilot_2","7349","2","13","Female","","","","","","","null","<div style=""font-size:60px;"">+</div>","null","fixation","","","","","","","","","","","15","","",""
"revaluation","237","2253169","0.0-4.0-4.0-0.8","spark_pilot_2","7349","2","13","Female","","false","","","","","[584.2999999821186]","./assets/img/ocean/animals/seahorse.jpg","[""ArrowLeft""]","revaluation","ocean","21","{""ArrowUp,ArrowLeft"":27,""ArrowUp,ArrowRight"":15,""ArrowDown,ArrowLeft"":21,""ArrowDown,ArrowRight"":7}","true","ArrowDown,ArrowLeft","","","","revaluation","1","16","","",""
"html-keyboard-response","238","2253700","0.0-4.0-4.0-1.8","spark_pilot_2","7349","2","13","Female","","","","","","","null","<div style=""font-size:60px;"">+</div>","null","fixation","","","","","","","","","","","17","","",""
"revaluation","239","2257735","0.0-4.0-4.0-0.9","spark_pilot_2","7349","2","13","Female","","false","","","","","[603.5]","./assets/img/ocean/animals/seahorse.jpg","[""ArrowLeft""]","revaluation","ocean","21","{""ArrowUp,ArrowLeft"":27,""ArrowUp,ArrowRight"":15,""ArrowDown,ArrowLeft"":21,""ArrowDown,ArrowRight"":7}","true","ArrowDown,ArrowLeft","","","","revaluation","1","18","","",""
"html-keyboard-response","240","2258252","0.0-4.0-4.0-1.9","spark_pilot_2","7349","2","13","Female","","","","","","","null","<div style=""font-size:60px;"">+</div>","null","fixation","","","","","","","","","","","19","","",""
"revaluation","241","2262285","0.0-4.0-4.0-0.10","spark_pilot_2","7349","2","13","Female","","false","","","","","[482.5]","./assets/img/ocean/animals/octopus.jpg","[""ArrowLeft""]","revaluation","ocean","27","{""ArrowUp,ArrowLeft"":27,""ArrowUp,ArrowRight"":15,""ArrowDown,ArrowLeft"":21,""ArrowDown,ArrowRight"":7}","true","ArrowUp,ArrowLeft","","","","revaluation","1","20","","",""
"html-keyboard-response","242","2262789","0.0-4.0-4.0-1.10","spark_pilot_2","7349","2","13","Female","","","","","","","null","<div style=""font-size:60px;"">+</div>","null","fixation","","","","","","","","","","","21","","",""
"revaluation","243","2266814","0.0-4.0-4.0-0.11","spark_pilot_2","7349","2","13","Female","","false","","","","","[433.30000001192093]","./assets/img/ocean/animals/seahorse.jpg","[""ArrowLeft""]","revaluation","ocean","21","{""ArrowUp,ArrowLeft"":27,""ArrowUp,ArrowRight"":15,""ArrowDown,ArrowLeft"":21,""ArrowDown,ArrowRight"":7}","true","ArrowDown,ArrowLeft","","","","revaluation","1","22","","",""
"html-keyboard-response","244","2267325","0.0-4.0-4.0-1.11","spark_pilot_2","7349","2","13","Female","","","","","","","null","<div style=""font-size:60px;"">+</div>","null","fixation","","","","","","","","","","","23","","",""
"revaluation","245","2271349","0.0-4.0-4.0-0.12","spark_pilot_2","7349","2","13","Female","","false","","","","","[551]","./assets/img/ocean/animals/octopus.jpg","[""ArrowLeft""]","revaluation","ocean","27","{""ArrowUp,ArrowLeft"":27,""ArrowUp,ArrowRight"":15,""ArrowDown,ArrowLeft"":21,""ArrowDown,ArrowRight"":7}","true","ArrowUp,ArrowLeft","","","","revaluation","1","24","","",""
"html-keyboard-response","246","2271861","0.0-4.0-4.0-1.12","spark_pilot_2","7349","2","13","Female","","","","","","","null","<div style=""font-size:60px;"">+</div>","null","fixation","","","","","","","","","","","25","","",""
"revaluation","247","2275885","0.0-4.0-4.0-0.13","spark_pilot_2","7349","2","13","Female","","false","","","","","[495.90000000596046]","./assets/img/ocean/animals/seahorse.jpg","[""ArrowLeft""]","revaluation","ocean","21","{""ArrowUp,ArrowLeft"":27,""ArrowUp,ArrowRight"":15,""ArrowDown,ArrowLeft"":21,""ArrowDown,ArrowRight"":7}","true","ArrowDown,ArrowLeft","","","","revaluation","1","26","","",""
"html-keyboard-response","248","2276396","0.0-4.0-4.0-1.13","spark_pilot_2","7349","2","13","Female","","","","","","","null","<div style=""font-size:60px;"">+</div>","null","fixation","","","","","","","","","","","27","","",""
"revaluation","249","2280442","0.0-4.0-4.0-0.14","spark_pilot_2","7349","2","13","Female","","false","","","","","[157.09999999403954]","./assets/img/ocean/animals/seahorse.jpg","[""ArrowLeft""]","revaluation","ocean","21","{""ArrowUp,ArrowLeft"":27,""ArrowUp,ArrowRight"":15,""ArrowDown,ArrowLeft"":21,""ArrowDown,ArrowRight"":7}","true","ArrowDown,ArrowLeft","","","","revaluation","1","28","","",""
"html-keyboard-response","250","2280958","0.0-4.0-4.0-1.14","spark_pilot_2","7349","2","13","Female","","","","","","","null","<div style=""font-size:60px;"">+</div>","null","fixation","","","","","","","","","","","29","","",""
"revaluation","251","2284982","0.0-4.0-4.0-0.15","spark_pilot_2","7349","2","13","Female","","false","","","","","[821.5]","./assets/img/ocean/animals/seahorse.jpg","[""ArrowLeft""]","revaluation","ocean","21","{""ArrowUp,ArrowLeft"":27,""ArrowUp,ArrowRight"":15,""ArrowDown,ArrowLeft"":21,""ArrowDown,ArrowRight"":7}","true","ArrowDown,ArrowLeft","","","","revaluation","1","30","","",""
"html-keyboard-response","252","2285492","0.0-4.0-4.0-1.15","spark_pilot_2","7349","2","13","Female","","","","","","","null","<div style=""font-size:60px;"">+</div>","null","fixation","","","","","","","","","","","31","","",""
"revaluation","253","2289517","0.0-4.0-4.0-0.16","spark_pilot_2","7349","2","13","Female","","false","","","","","[455.09999999403954]","./assets/img/ocean/animals/seahorse.jpg","[""ArrowLeft""]","revaluation","ocean","21","{""ArrowUp,ArrowLeft"":27,""ArrowUp,ArrowRight"":15,""ArrowDown,ArrowLeft"":21,""ArrowDown,ArrowRight"":7}","true","ArrowDown,ArrowLeft","","","","revaluation","1","32","","",""
"html-keyboard-response","254","2290028","0.0-4.0-4.0-1.16","spark_pilot_2","7349","2","13","Female","","","","","","","null","<div style=""font-size:60px;"">+</div>","null","fixation","","","","","","","","","","","33","","",""
"revaluation","255","2294053","0.0-4.0-4.0-0.17","spark_pilot_2","7349","2","13","Female","","false","","","","","[354.19999998807907]","./assets/img/ocean/animals/octopus.jpg","[""ArrowLeft""]","revaluation","ocean","27","{""ArrowUp,ArrowLeft"":27,""ArrowUp,ArrowRight"":15,""ArrowDown,ArrowLeft"":21,""ArrowDown,ArrowRight"":7}","true","ArrowUp,ArrowLeft","","","","revaluation","1","34","","",""
"html-keyboard-response","256","2294557","0.0-4.0-4.0-1.17","spark_pilot_2","7349","2","13","Female","","","","","","","null","<div style=""font-size:60px;"">+</div>","null","fixation","","","","","","","","","","","35","","",""
"learning-instructions","257","2310654","0.0-4.0-5.0-0.0","spark_pilot_2","7349","2","13","Female","","","","","","","4551.9000000059605","<p> Time to play the dot game! </p>
            <p> For one minute, click the red dots on the following screen as they appear. </p>
            <p><b> Don't look away, as you will earn bonus for clicking dots</b>. </p>","","instructions","","","","","","","","","","","","","",""
"revaluation","258","2370662","0.0-4.0-6.0-0.0","spark_pilot_2","7349","2","13","Female","","","","","","","[119,132,88,124,124,122,91]","","","rest","","70","","","","","0","60000","","","","","",""
"learning-instructions","259","2378685","0.0-4.0-7.0-0.0","spark_pilot_2","7349","2","13","Female","","","","","","","1867.7999999821186","<p> You have almost finished this part of the game! </p>
            <p> We are going to ask you to make a few more choices. </p>","","instructions","","","","","","","","","","","","","",""
"learning-instructions","260","2394043","0.0-4.0-7.0-0.1","spark_pilot_2","7349","2","13","Female","","","","","","","1378.2999999821186","<p> First, you need to decide whether to go up or down. When you see each picture, use the arrow keys to make your choice. </p>
            <p><b>You will not see which animal you found, but try to get to the one that will give you the most treasure.</b></p>","","instructions","","","","","","","","","","","","","",""
"revaluation","261","2395235","0.0-4.0-8.0-0.0","spark_pilot_2","7349","2","13","Female","","false","","","","","[1165.3999999761581]","./assets/img/ocean/test/0.jpg","[""ArrowDown""]","first stage test","ocean","0","{""ArrowUp,ArrowLeft"":27,""ArrowUp,ArrowRight"":15,""ArrowDown,ArrowLeft"":21,""ArrowDown,ArrowRight"":7}","false","ArrowDown","false","","","revaluation","1","","","",""
"html-keyboard-response","262","2395741","0.0-4.0-8.0-1.0","spark_pilot_2","7349","2","13","Female","","","","","","","null","<div style=""font-size:60px;"">+</div>","null","fixation","","","","","","","","","","","","","",""
"revaluation","263","2396917","0.0-4.0-8.0-0.1","spark_pilot_2","7349","2","13","Female","","false","","","","","[1158.2000000178814]","./assets/img/ocean/test/3.jpg","[""ArrowUp""]","first stage test","ocean","0","{""ArrowUp,ArrowLeft"":27,""ArrowUp,ArrowRight"":15,""ArrowDown,ArrowLeft"":21,""ArrowDown,ArrowRight"":7}","true","ArrowUp","false","","","revaluation","1","","","",""
"html-keyboard-response","264","2397421","0.0-4.0-8.0-1.1","spark_pilot_2","7349","2","13","Female","","","","","","","null","<div style=""font-size:60px;"">+</div>","null","fixation","","","","","","","","","","","","","",""
"revaluation","265","2398151","0.0-4.0-8.0-0.2","spark_pilot_2","7349","2","13","Female","","false","","","","","[712.9000000059605]","./assets/img/ocean/test/1.jpg","[""ArrowDown""]","first stage test","ocean","0","{""ArrowUp,ArrowLeft"":27,""ArrowUp,ArrowRight"":15,""ArrowDown,ArrowLeft"":21,""ArrowDown,ArrowRight"":7}","false","ArrowDown","false","","","revaluation","1","","","",""
"html-keyboard-response","266","2398661","0.0-4.0-8.0-1.2","spark_pilot_2","7349","2","13","Female","","","","","","","null","<div style=""font-size:60px;"">+</div>","null","fixation","","","","","","","","","","","","","",""
"revaluation","267","2399280","0.0-4.0-8.0-0.3","spark_pilot_2","7349","2","13","Female","","false","","","","","[608.6999999880791]","./assets/img/ocean/test/2.jpg","[""ArrowUp""]","first stage test","ocean","0","{""ArrowUp,ArrowLeft"":27,""ArrowUp,ArrowRight"":15,""ArrowDown,ArrowLeft"":21,""ArrowDown,ArrowRight"":7}","true","ArrowUp","false","","","revaluation","1","","","",""
"html-keyboard-response","268","2399789","0.0-4.0-8.0-1.3","spark_pilot_2","7349","2","13","Female","","","","","","","null","<div style=""font-size:60px;"">+</div>","null","fixation","","","","","","","","","","","","","",""
"learning-instructions","269","2418979","0.0-4.0-9.0-0.0","spark_pilot_2","7349","2","13","Female","","","","","","","7836.4000000059605","<p> Now you will see the animals again and can search their chests for treasure. </p>
            <p> This time, you will not see how much treasure you earned, but you will earn more bonus money for making better choices. </p>","","instructions","","","","","","","","","","","","","",""
"revaluation","270","2420081","0.0-4.0-10.0-0.0","spark_pilot_2","7349","2","13","Female","","false","","","","","[1090.199999988079]","./assets/img/ocean/animals/octopus.jpg","[""ArrowLeft""]","second stage test","ocean","0","{""ArrowUp,ArrowLeft"":27,""ArrowUp,ArrowRight"":15,""ArrowDown,ArrowLeft"":21,""ArrowDown,ArrowRight"":7}","true","ArrowUp,ArrowLeft","","","","revaluation","1","","","",""
"html-keyboard-response","271","2420589","0.0-4.0-10.0-1.0","spark_pilot_2","7349","2","13","Female","","","","","","","null","<div style=""font-size:60px;"">+</div>","null","fixation","","","","","","","","","","","","","",""
"revaluation","272","2421405","0.0-4.0-10.0-0.1","spark_pilot_2","7349","2","13","Female","","false","","","","","[802.6999999880791]","./assets/img/ocean/animals/octopus.jpg","[""ArrowLeft""]","second stage test","ocean","0","{""ArrowUp,ArrowLeft"":27,""ArrowUp,ArrowRight"":15,""ArrowDown,ArrowLeft"":21,""ArrowDown,ArrowRight"":7}","true","ArrowUp,ArrowLeft","","","","revaluation","1","","","",""
"html-keyboard-response","273","2421917","0.0-4.0-10.0-1.1","spark_pilot_2","7349","2","13","Female","","","","","","","null","<div style=""font-size:60px;"">+</div>","null","fixation","","","","","","","","","","","","","",""
"revaluation","274","2422845","0.0-4.0-10.0-0.2","spark_pilot_2","7349","2","13","Female","","false","","","","","[916.9000000059605]","./assets/img/ocean/animals/octopus.jpg","[""ArrowRight""]","second stage test","ocean","0","{""ArrowUp,ArrowLeft"":27,""ArrowUp,ArrowRight"":15,""ArrowDown,ArrowLeft"":21,""ArrowDown,ArrowRight"":7}","false","ArrowUp,ArrowRight","","","","revaluation","1","","","",""
"html-keyboard-response","275","2423349","0.0-4.0-10.0-1.2","spark_pilot_2","7349","2","13","Female","","","","","","","null","<div style=""font-size:60px;"">+</div>","null","fixation","","","","","","","","","","","","","",""
"revaluation","276","2424163","0.0-4.0-10.0-0.3","spark_pilot_2","7349","2","13","Female","","false","","","","","[800.3999999761581]","./assets/img/ocean/animals/octopus.jpg","[""ArrowRight""]","second stage test","ocean","0","{""ArrowUp,ArrowLeft"":27,""ArrowUp,ArrowRight"":15,""ArrowDown,ArrowLeft"":21,""ArrowDown,ArrowRight"":7}","false","ArrowUp,ArrowRight","","","","revaluation","1","","","",""
"html-keyboard-response","277","2424669","0.0-4.0-10.0-1.3","spark_pilot_2","7349","2","13","Female","","","","","","","null","<div style=""font-size:60px;"">+</div>","null","fixation","","","","","","","","","","","","","",""
"revaluation","278","2425681","0.0-4.0-10.0-0.4","spark_pilot_2","7349","2","13","Female","","false","","","","","[1003.4000000059605]","./assets/img/ocean/animals/seahorse.jpg","[""ArrowLeft""]","second stage test","ocean","0","{""ArrowUp,ArrowLeft"":27,""ArrowUp,ArrowRight"":15,""ArrowDown,ArrowLeft"":21,""ArrowDown,ArrowRight"":7}","true","ArrowDown,ArrowLeft","","","","revaluation","1","","","",""
"html-keyboard-response","279","2426189","0.0-4.0-10.0-1.4","spark_pilot_2","7349","2","13","Female","","","","","","","null","<div style=""font-size:60px;"">+</div>","null","fixation","","","","","","","","","","","","","",""
"revaluation","280","2427233","0.0-4.0-10.0-0.5","spark_pilot_2","7349","2","13","Female","","false","","","","","[1026.4000000059605]","./assets/img/ocean/animals/seahorse.jpg","[""ArrowLeft""]","second stage test","ocean","0","{""ArrowUp,ArrowLeft"":27,""ArrowUp,ArrowRight"":15,""ArrowDown,ArrowLeft"":21,""ArrowDown,ArrowRight"":7}","true","ArrowDown,ArrowLeft","","","","revaluation","1","","","",""
"html-keyboard-response","281","2427741","0.0-4.0-10.0-1.5","spark_pilot_2","7349","2","13","Female","","","","","","","null","<div style=""font-size:60px;"">+</div>","null","fixation","","","","","","","","","","","","","",""
"revaluation","282","2428822","0.0-4.0-10.0-0.6","spark_pilot_2","7349","2","13","Female","","false","","","","","[1070.6000000238419]","./assets/img/ocean/animals/seahorse.jpg","[""ArrowLeft""]","second stage test","ocean","0","{""ArrowUp,ArrowLeft"":27,""ArrowUp,ArrowRight"":15,""ArrowDown,ArrowLeft"":21,""ArrowDown,ArrowRight"":7}","true","ArrowDown,ArrowLeft","","","","revaluation","1","","","",""
"html-keyboard-response","283","2429325","0.0-4.0-10.0-1.6","spark_pilot_2","7349","2","13","Female","","","","","","","null","<div style=""font-size:60px;"">+</div>","null","fixation","","","","","","","","","","","","","",""
"revaluation","284","2430576","0.0-4.0-10.0-0.7","spark_pilot_2","7349","2","13","Female","","false","","","","","[1239.5999999940395]","./assets/img/ocean/animals/seahorse.jpg","[""ArrowLeft""]","second stage test","ocean","0","{""ArrowUp,ArrowLeft"":27,""ArrowUp,ArrowRight"":15,""ArrowDown,ArrowLeft"":21,""ArrowDown,ArrowRight"":7}","true","ArrowDown,ArrowLeft","","","","revaluation","1","","","",""
"html-keyboard-response","285","2431084","0.0-4.0-10.0-1.7","spark_pilot_2","7349","2","13","Female","","","","","","","null","<div style=""font-size:60px;"">+</div>","null","fixation","","","","","","","","","","","","","",""
"learning-instructions","286","2443761","0.0-4.0-0.1-0.2","spark_pilot_2","7349","2","13","Female","","","","","","","9813","<p> This time you are searching for treasure in the <b>canyon</b>.</p>","","instructions","","","","","","","","","","","","","",""
"learning-instructions","287","2542662","0.0-4.0-0.1-0.3","spark_pilot_2","7349","2","13","Female","","","","","","","81632.5","<p><b>New</b> animals with <b>new</b> treasure chests live here. You need to explore to discover where the animal with the best treasure chest is.</p>
                    <p> Like before, once you figure out which animal has the chest with the most treasure, you should try to get to that animal and select that chest! </p>","","instructions","","","","","","","","","","","","","",""
"learning-instructions","288","2559322","0.0-4.0-1.1-0.1","spark_pilot_2","7349","2","13","Female","","","","","","","1183.199999988079","<p> Remember, when you see a picture of the place, use the up and down keys to <b>find an animal</b>.</p>
            <p> When you encounter an animal, you should use the left and right keys to <b>select a treasure chest</b>.</p>
            <p> Don't forget to look out for the robber! </p>","","instructions","","","","","","","","","","","","","",""
"revaluation","289","2565374","0.0-4.0-2.1-0.50","spark_pilot_2","7349","2","13","Female","","false","","","","","[1199.2999999821186,682.5999999940395]","./assets/img/canyon/memory/17.jpg","[""ArrowDown"",""ArrowLeft""]","value training","canyon","5","{""ArrowUp,ArrowLeft"":26,""ArrowUp,ArrowRight"":10,""ArrowDown,ArrowLeft"":5,""ArrowDown,ArrowRight"":17}","false","ArrowDown,ArrowLeft","false","","","original","2","0","","",""
"html-keyboard-response","290","2565885","0.0-4.0-2.1-1.50","spark_pilot_2","7349","2","13","Female","","","","","","","null","<div style=""font-size:60px;"">+</div>","null","fixation","","","","","","","","","","","1","","",""
"revaluation","291","2571931","0.0-4.0-2.1-0.51","spark_pilot_2","7349","2","13","Female","","false","","","","","[555,456.7000000178814]","./assets/img/canyon/memory/24.jpg","[""ArrowDown"",""ArrowRight""]","value training","canyon","17","{""ArrowUp,ArrowLeft"":26,""ArrowUp,ArrowRight"":10,""ArrowDown,ArrowLeft"":5,""ArrowDown,ArrowRight"":17}","false","ArrowDown,ArrowRight","false","","","original","2","2","","",""
"html-keyboard-response","292","2572437","0.0-4.0-2.1-1.51","spark_pilot_2","7349","2","13","Female","","","","","","","null","<div style=""font-size:60px;"">+</div>","null","fixation","","","","","","","","","","","3","","",""
"revaluation","293","2578470","0.0-4.0-2.1-0.52","spark_pilot_2","7349","2","13","Female","","false","","","","","[1484,1093.800000011921]","./assets/img/canyon/memory/39.jpg","[""ArrowUp"",""ArrowRight""]","value training","canyon","10","{""ArrowUp,ArrowLeft"":26,""ArrowUp,ArrowRight"":10,""ArrowDown,ArrowLeft"":5,""ArrowDown,ArrowRight"":17}","false","ArrowUp,ArrowRight","false","","","original","2","4","","",""
"html-keyboard-response","294","2578981","0.0-4.0-2.1-1.52","spark_pilot_2","7349","2","13","Female","","","","","","","null","<div style=""font-size:60px;"">+</div>","null","fixation","","","","","","","","","","","5","","",""
"revaluation","295","2585014","0.0-4.0-2.1-0.53","spark_pilot_2","7349","2","13","Female","","false","","","","","[1030.4000000059605,1137.800000011921]","./assets/img/canyon/memory/26.jpg","[""ArrowUp"",""ArrowLeft""]","value training","canyon","26","{""ArrowUp,ArrowLeft"":26,""ArrowUp,ArrowRight"":10,""ArrowDown,ArrowLeft"":5,""ArrowDown,ArrowRight"":17}","true","ArrowUp,ArrowLeft","false","","","original","2","6","","",""
"html-keyboard-response","296","2585525","0.0-4.0-2.1-1.53","spark_pilot_2","7349","2","13","Female","","","","","","","null","<div style=""font-size:60px;"">+</div>","null","fixation","","","","","","","","","","","7","","",""
"revaluation","297","2591557","0.0-4.0-2.1-0.54","spark_pilot_2","7349","2","13","Female","","false","","","","","[2001.7000000178814,1715.2000000178814]","./assets/img/canyon/memory/38.jpg","[""ArrowDown"",""ArrowRight""]","value training","canyon","17","{""ArrowUp,ArrowLeft"":26,""ArrowUp,ArrowRight"":10,""ArrowDown,ArrowLeft"":5,""ArrowDown,ArrowRight"":17}","false","ArrowDown,ArrowRight","false","","","original","2","8","","",""
"html-keyboard-response","298","2592060","0.0-4.0-2.1-1.54","spark_pilot_2","7349","2","13","Female","","","","","","","null","<div style=""font-size:60px;"">+</div>","null","fixation","","","","","","","","","","","9","","",""
"revaluation","299","2598093","0.0-4.0-2.1-0.55","spark_pilot_2","7349","2","13","Female","","true","","","","","[1746]","./assets/img/canyon/memory/33.jpg","[""ArrowDown""]","value training","canyon","-5","{""ArrowUp,ArrowLeft"":26,""ArrowUp,ArrowRight"":10,""ArrowDown,ArrowLeft"":5,""ArrowDown,ArrowRight"":17}","false","ArrowDown","false","","","original","2","10","","",""
"html-keyboard-response","300","2598597","0.0-4.0-2.1-1.55","spark_pilot_2","7349","2","13","Female","","","","","","","null","<div style=""font-size:60px;"">+</div>","null","fixation","","","","","","","","","","","11","","",""
"revaluation","301","2604638","0.0-4.0-2.1-0.56","spark_pilot_2","7349","2","13","Female","","false","","","","","[1238.699999988079,1531.8999999761581]","./assets/img/canyon/memory/32.jpg","[""ArrowUp"",""ArrowRight""]","value training","canyon","10","{""ArrowUp,ArrowLeft"":26,""ArrowUp,ArrowRight"":10,""ArrowDown,ArrowLeft"":5,""ArrowDown,ArrowRight"":17}","false","ArrowUp,ArrowRight","false","","","original","2","12","","",""
"html-keyboard-response","302","2605148","0.0-4.0-2.1-1.56","spark_pilot_2","7349","2","13","Female","","","","","","","null","<div style=""font-size:60px;"">+</div>","null","fixation","","","","","","","","","","","13","","",""
"revaluation","303","2611181","0.0-4.0-2.1-0.57","spark_pilot_2","7349","2","13","Female","","true","","","","","[1625.5999999940395]","./assets/img/canyon/memory/13.jpg","[""ArrowDown""]","value training","canyon","-5","{""ArrowUp,ArrowLeft"":26,""ArrowUp,ArrowRight"":10,""ArrowDown,ArrowLeft"":5,""ArrowDown,ArrowRight"":17}","false","ArrowDown","false","","","original","2","14","","",""
"html-keyboard-response","304","2611684","0.0-4.0-2.1-1.57","spark_pilot_2","7349","2","13","Female","","","","","","","null","<div style=""font-size:60px;"">+</div>","null","fixation","","","","","","","","","","","15","","",""
"revaluation","305","2615716","0.0-4.0-2.1-0.58","spark_pilot_2","7349","2","13","Female","","true","","","","","[]","./assets/img/canyon/memory/3.jpg","[]","value training","canyon","-5","{""ArrowUp,ArrowLeft"":26,""ArrowUp,ArrowRight"":10,""ArrowDown,ArrowLeft"":5,""ArrowDown,ArrowRight"":17}","false","","false","","","original","2","16","","",""
