"trial_type","trial_index","time_elapsed","internal_node_id","task_version","subject_id","assigned_condition","age","gender","success","timeout","failed_images","failed_audio","failed_video","browser_interaction","rt","stimulus","response","task_part","environment","score","rewardMap","correct","fullState","isCatch","numberMissed","duration","condition","order","trial_num","key_press","ground_truth","bonus"
"pavlovia","0","929","0.0-0.0","spark_pilot_2","7397","6","16","Female","","","","","","","","","","","","","","","","","","","","","","","",""
"preload","1","35510","0.0-1.0","spark_pilot_2","7397","6","16","Female","true","false","[]","[]","[]","[{""event"":""blur"",""trial"":2,""time"":97548},{""event"":""focus"",""trial"":2,""time"":101940},{""event"":""fullscreenenter"",""trial"":2,""time"":102074}]","","","","","","","","","","","","","","","","","",""
"fullscreen","2","103036","0.0-2.0","spark_pilot_2","7397","6","16","Female","true","","","","","","","","","","","","","","","","","","","","","","",""
"audio-button-response","3","105176","0.0-3.0-0.0-0.0","spark_pilot_2","7397","6","16","Female","","","","","","","1515","./assets/audio/audiotest/turtle.mp3","2","audio_test","","","","","","","","","","","","","",""
"learning-instructions","4","116256","0.0-3.0-1.0-0.0","spark_pilot_2","7397","6","16","Female","","","","","","","4088.5999999046326","<p> Welcome! Please remember to stay in fullscreen mode and don't click away from the experiment. </p>","","instructions","","","","","","","","","","","","","",""
"learning-instructions","5","126143","0.0-3.0-1.0-0.1","spark_pilot_2","7397","6","16","Female","","","","","","","1455.8999996185303","<p> Today you will be playing a game to earn treasure. </p>
            <p> At the end of the experiment, you will earn a bonus based on how much treasure you find. </p>
            <img src='./assets/img/instructions/treasure.jpg' class='instructions-image'>","","instructions","","","","","","","","","","","","","",""
"learning-instructions","6","135854","0.0-3.0-1.0-0.2","spark_pilot_2","7397","6","16","Female","","","","","","","1439.1999998092651","<p> Animals have hidden treasure in treasure chests. </p>
            <p> You need to first find an animal and then choose which of their treasure chests to search. </p>
            <img src='./assets/img/space/animals/cat.jpg' class='instructions-image'>","","instructions","","","","","","","","","","","","","",""
"learning-instructions","7","151345","0.0-3.0-1.0-0.3","spark_pilot_2","7397","6","16","Female","","","","","","","2316.7000002861023","<p> In each round, you will search for treasure in a different place. In the real game, there will be two rounds. </p>
            <p> You will begin with a separate, practice round where you will search for treasure in outer space. </p>
            <img src='./assets/img/space/0.jpg' class='instructions-image'>","","instructions","","","","","","","","","","","","","",""
"learning-instructions","8","163726","0.0-3.0-1.0-0.4","spark_pilot_2","7397","6","16","Female","","","","","","","938.0999999046326","<p> On every turn, you will see a picture of the place that you are in, but the specific image may be different each time. </p>
            <p> For example, both of these images mean you are in outer space. </p>
            <img src='./assets/img/instructions/outerspace.jpg' class='instructions-image'>","","instructions","","","","","","","","","","","","","",""
"learning-instructions","9","172964","0.0-3.0-1.0-0.5","spark_pilot_2","7397","6","16","Female","","","","","","","1397","<p> You need to decide which direction to travel in. </p>
            <p> You can choose between going <b>up or down</b> by using the arrow keys. </p>
            <img src='./assets/img/instructions/updown.jpg' class='instructions-image'>","","instructions","","","","","","","","","","","","","",""
"learning-instructions","10","183103","0.0-3.0-1.0-0.6","spark_pilot_2","7397","6","16","Female","","","","","","","1307","<p> You will have <b>2 seconds</b> to make your choice. </p>
            <p> If you do not make a choice within 2 seconds, you will not find an animal or earn treasure. </p>
            <img src='./assets/img/instructions/2seconds.jpg' class='instructions-image'>","","instructions","","","","","","","","","","","","","",""
"learning-instructions","11","190905","0.0-3.0-1.0-0.7","spark_pilot_2","7397","6","16","Female","","","","","","","745.5","<p> Let’s try practicing that now! </p>
            <p> When you see a picture of the place you are in, press the <b>up</b> key to travel up. </p>
            <img src='./assets/img/instructions/pressUp.jpg' class='instructions-image'>","","instructions","","","","","","","","","","","","","",""
"revaluation","12","194947","0.0-3.0-2.0-0.0","spark_pilot_2","7397","6","16","Female","","false","","","","","[1547.3999996185303]","./assets/img/space/0.jpg","[""ArrowUp""]","first stage practice","space","0","null","null","ArrowUp","false","","","","","","","",""
"html-keyboard-response","13","195458","0.0-3.0-2.0-1.0","spark_pilot_2","7397","6","16","Female","","","","","","","null","<div style=""font-size:60px;"">+</div>","null","fixation","","","","","","","","","","","","","",""
"revaluation","14","199469","0.0-3.0-2.0-0.1","spark_pilot_2","7397","6","16","Female","","false","","","","","[801.9000000953674]","./assets/img/space/1.jpg","[""ArrowUp""]","first stage practice","space","0","null","null","ArrowUp","false","","","","","","","",""
"html-keyboard-response","15","199981","0.0-3.0-2.0-1.1","spark_pilot_2","7397","6","16","Female","","","","","","","null","<div style=""font-size:60px;"">+</div>","null","fixation","","","","","","","","","","","","","",""
"revaluation","16","203992","0.0-3.0-2.0-0.2","spark_pilot_2","7397","6","16","Female","","false","","","","","[364.2999997138977]","./assets/img/space/2.jpg","[""ArrowUp""]","first stage practice","space","0","null","null","ArrowUp","false","","","","","","","",""
"html-keyboard-response","17","204504","0.0-3.0-2.0-1.2","spark_pilot_2","7397","6","16","Female","","","","","","","null","<div style=""font-size:60px;"">+</div>","null","fixation","","","","","","","","","","","","","",""
"learning-instructions","18","209927","0.0-3.0-3.0-0.0","spark_pilot_2","7397","6","16","Female","","","","","","","716.8000001907349","<p> Great job! Now try pressing the <b>down</b> key to travel down. </p>
            <img src='./assets/img/instructions/pressDown.jpg' class='instructions-image'>","","instructions","","","","","","","","","","","","","",""
"revaluation","19","213955","0.0-3.0-4.0-0.0","spark_pilot_2","7397","6","16","Female","","false","","","","","[489.7000002861023]","./assets/img/space/3.jpg","[""ArrowDown""]","first stage practice","space","0","null","null","ArrowDown","false","","","","","","","",""
"html-keyboard-response","20","214460","0.0-3.0-4.0-1.0","spark_pilot_2","7397","6","16","Female","","","","","","","null","<div style=""font-size:60px;"">+</div>","null","fixation","","","","","","","","","","","","","",""
"revaluation","21","218477","0.0-3.0-4.0-0.1","spark_pilot_2","7397","6","16","Female","","false","","","","","[753.9000000953674]","./assets/img/space/4.jpg","[""ArrowDown""]","first stage practice","space","0","null","null","ArrowDown","false","","","","","","","",""
"html-keyboard-response","22","218988","0.0-3.0-4.0-1.1","spark_pilot_2","7397","6","16","Female","","","","","","","null","<div style=""font-size:60px;"">+</div>","null","fixation","","","","","","","","","","","","","",""
"revaluation","23","223009","0.0-3.0-4.0-0.2","spark_pilot_2","7397","6","16","Female","","false","","","","","[544.6999998092651]","./assets/img/space/5.jpg","[""ArrowDown""]","first stage practice","space","0","null","null","ArrowDown","false","","","","","","","",""
"html-keyboard-response","24","223521","0.0-3.0-4.0-1.2","spark_pilot_2","7397","6","16","Female","","","","","","","null","<div style=""font-size:60px;"">+</div>","null","fixation","","","","","","","","","","","","","",""
"learning-instructions","25","235052","0.0-3.0-5.0-0.0","spark_pilot_2","7397","6","16","Female","","","","","","","1661.8999996185303","<p> The animals don’t move, so the animal in the upper part of a place will stay in the upper part of a place, and the animal in the lower part of a place will stay in the lower part of a place. </p>","","instructions","","","","","","","","","","","","","",""
"learning-instructions","26","246127","0.0-3.0-5.0-0.1","spark_pilot_2","7397","6","16","Female","","","","","","","1920.6999998092651","<p> Each animal has two treasure chests for you to choose from. </p>
            <p> The amount of treasure in each chest can range from <b> 0 to 40 pieces.</b></p>","","instructions","","","","","","","","","","","","","",""
"learning-instructions","27","258746","0.0-3.0-5.0-0.2","spark_pilot_2","7397","6","16","Female","","","","","","","1408.4000000953674","<p> You should decide which chest to search for treasure by using the <b>left</b> and <b>right</b> arrow keys. </p>
            <p><b> Pay attention to which animal is on the screen, as the animals have different treasure chests. </b></p>
            <img src='./assets/img/instructions/leftright.jpg' class='instructions-image'>","","instructions","","","","","","","","","","","","","",""
"learning-instructions","28","266895","0.0-3.0-5.0-0.3","spark_pilot_2","7397","6","16","Female","","","","","","","1770.8999996185303","<p> Let’s try practicing that now. </p>
            <p> When you see an animal, choose which chest to search for treasure. </p>
            <img src='./assets/img/instructions/chooseChest.jpg' class='instructions-image'>","","instructions","","","","","","","","","","","","","",""
"revaluation","29","270914","0.0-3.0-6.0-0.0","spark_pilot_2","7397","6","16","Female","","false","","","","","[1033]","./assets/img/space/animals/cat.jpg","[""ArrowRight""]","second stage practice","space","36","{""ArrowUp,ArrowLeft"":3,""ArrowUp,ArrowRight"":36,""ArrowDown,ArrowLeft"":15,""ArrowDown,ArrowRight"":23}","true","ArrowUp,ArrowRight","","","","","","","","",""
"html-keyboard-response","30","271425","0.0-3.0-6.0-1.0","spark_pilot_2","7397","6","16","Female","","","","","","","null","<div style=""font-size:60px;"">+</div>","null","fixation","","","","","","","","","","","","","",""
"revaluation","31","275437","0.0-3.0-6.0-0.1","spark_pilot_2","7397","6","16","Female","","false","","","","","[536.7999997138977]","./assets/img/space/animals/cat.jpg","[""ArrowRight""]","second stage practice","space","36","{""ArrowUp,ArrowLeft"":3,""ArrowUp,ArrowRight"":36,""ArrowDown,ArrowLeft"":15,""ArrowDown,ArrowRight"":23}","true","ArrowUp,ArrowRight","","","","","","","","",""
"html-keyboard-response","32","275948","0.0-3.0-6.0-1.1","spark_pilot_2","7397","6","16","Female","","","","","","","null","<div style=""font-size:60px;"">+</div>","null","fixation","","","","","","","","","","","","","",""
"revaluation","33","279970","0.0-3.0-6.0-0.2","spark_pilot_2","7397","6","16","Female","","false","","","","","[807.8000001907349]","./assets/img/space/animals/rabbit.jpg","[""ArrowLeft""]","second stage practice","space","15","{""ArrowUp,ArrowLeft"":3,""ArrowUp,ArrowRight"":36,""ArrowDown,ArrowLeft"":15,""ArrowDown,ArrowRight"":23}","false","ArrowDown,ArrowLeft","","","","","","","","",""
"html-keyboard-response","34","280481","0.0-3.0-6.0-1.2","spark_pilot_2","7397","6","16","Female","","","","","","","null","<div style=""font-size:60px;"">+</div>","null","fixation","","","","","","","","","","","","","",""
"revaluation","35","284492","0.0-3.0-6.0-0.3","spark_pilot_2","7397","6","16","Female","","false","","","","","[491.59999990463257]","./assets/img/space/animals/rabbit.jpg","[""ArrowRight""]","second stage practice","space","23","{""ArrowUp,ArrowLeft"":3,""ArrowUp,ArrowRight"":36,""ArrowDown,ArrowLeft"":15,""ArrowDown,ArrowRight"":23}","true","ArrowDown,ArrowRight","","","","","","","","",""
"html-keyboard-response","36","284998","0.0-3.0-6.0-1.3","spark_pilot_2","7397","6","16","Female","","","","","","","null","<div style=""font-size:60px;"">+</div>","null","fixation","","","","","","","","","","","","","",""
"learning-instructions","37","302471","0.0-3.0-7.0-0.0","spark_pilot_2","7397","6","16","Female","","","","","","","632.6000003814697","<p> Great job. Now let’s try putting it together. </p>
            <p> On each turn, you will first see a picture to remind you of the place you are in, and you need to choose whether to go up or down. </p>
            <p> Then you will see an animal and choose which of its chests to search for treasure. </p>","","instructions","","","","","","","","","","","","","",""
"learning-instructions","38","312263","0.0-3.0-7.0-0.1","spark_pilot_2","7397","6","16","Female","","","","","","","1028.0999999046326","<p> When you choose whether to go up or down, try to go to the animal with the chest with the most treasure. </p>
            <p> Try practicing that now! </p>","","instructions","","","","","","","","","","","","","",""
"revaluation","39","318306","0.0-3.0-8.0-0.0","spark_pilot_2","7397","6","16","Female","","false","","","","","[794.0999999046326,802.4000000953674]","./assets/img/space/6.jpg","[""ArrowUp"",""ArrowRight""]","full practice","space","36","{""ArrowUp,ArrowLeft"":3,""ArrowUp,ArrowRight"":36,""ArrowDown,ArrowLeft"":15,""ArrowDown,ArrowRight"":23}","true","ArrowUp,ArrowRight","false","","","","","","","",""
"html-keyboard-response","40","318817","0.0-3.0-8.0-1.0","spark_pilot_2","7397","6","16","Female","","","","","","","null","<div style=""font-size:60px;"">+</div>","null","fixation","","","","","","","","","","","","","",""
"revaluation","41","324845","0.0-3.0-8.0-0.1","spark_pilot_2","7397","6","16","Female","","false","","","","","[770.6999998092651,551.8000001907349]","./assets/img/space/7.jpg","[""ArrowUp"",""ArrowLeft""]","full practice","space","3","{""ArrowUp,ArrowLeft"":3,""ArrowUp,ArrowRight"":36,""ArrowDown,ArrowLeft"":15,""ArrowDown,ArrowRight"":23}","false","ArrowUp,ArrowLeft","false","","","","","","","",""
"html-keyboard-response","42","325356","0.0-3.0-8.0-1.1","spark_pilot_2","7397","6","16","Female","","","","","","","null","<div style=""font-size:60px;"">+</div>","null","fixation","","","","","","","","","","","","","",""
"revaluation","43","331372","0.0-3.0-8.0-0.2","spark_pilot_2","7397","6","16","Female","","false","","","","","[803.3999996185303,406.80000019073486]","./assets/img/space/8.jpg","[""ArrowUp"",""ArrowRight""]","full practice","space","36","{""ArrowUp,ArrowLeft"":3,""ArrowUp,ArrowRight"":36,""ArrowDown,ArrowLeft"":15,""ArrowDown,ArrowRight"":23}","true","ArrowUp,ArrowRight","false","","","","","","","",""
"html-keyboard-response","44","331884","0.0-3.0-8.0-1.2","spark_pilot_2","7397","6","16","Female","","","","","","","null","<div style=""font-size:60px;"">+</div>","null","fixation","","","","","","","","","","","","","",""
"revaluation","45","337901","0.0-3.0-8.0-0.3","spark_pilot_2","7397","6","16","Female","","false","","","","","[872.5999999046326,390.2000002861023]","./assets/img/space/9.jpg","[""ArrowUp"",""ArrowRight""]","full practice","space","36","{""ArrowUp,ArrowLeft"":3,""ArrowUp,ArrowRight"":36,""ArrowDown,ArrowLeft"":15,""ArrowDown,ArrowRight"":23}","true","ArrowUp,ArrowRight","false","","","","","","","",""
"html-keyboard-response","46","338412","0.0-3.0-8.0-1.3","spark_pilot_2","7397","6","16","Female","","","","","","","null","<div style=""font-size:60px;"">+</div>","null","fixation","","","","","","","","","","","","","",""
"revaluation","47","344430","0.0-3.0-8.0-0.4","spark_pilot_2","7397","6","16","Female","","false","","","","","[809.2000002861023,553]","./assets/img/space/10.jpg","[""ArrowUp"",""ArrowRight""]","full practice","space","36","{""ArrowUp,ArrowLeft"":3,""ArrowUp,ArrowRight"":36,""ArrowDown,ArrowLeft"":15,""ArrowDown,ArrowRight"":23}","true","ArrowUp,ArrowRight","false","","","","","","","",""
"html-keyboard-response","48","344936","0.0-3.0-8.0-1.4","spark_pilot_2","7397","6","16","Female","","","","","","","null","<div style=""font-size:60px;"">+</div>","null","fixation","","","","","","","","","","","","","",""
"learning-instructions","49","356320","0.0-3.0-9.0-0.0","spark_pilot_2","7397","6","16","Female","","","","","","","1068.0999999046326","<p> One last thing: sometimes, you will see a robber. The robber can be anywhere in the picture. </p>
            <p> If you do not stop them, you will lose treasure. </p>
            <img src='./assets/img/instructions/robber.jpg' class='instructions-image'>","","instructions","","","","","","","","","","","","","",""
"learning-instructions","50","364002","0.0-3.0-9.0-0.1","spark_pilot_2","7397","6","16","Female","","","","","","","504.5","<p> If you see the robber, you should <b>press the space bar</b> rather than using the arrow keys. </p>
            <p> Try practicing that now! </p>","","instructions","","","","","","","","","","","","","",""
"revaluation","51","368018","0.0-3.0-10.0-0.0","spark_pilot_2","7397","6","16","Female","","false","","","","","[1059.0999999046326]","./assets/img/space/catch/0.jpg","[""ArrowUp""]","catch practice","space","-10","{""ArrowUp,ArrowLeft"":3,""ArrowUp,ArrowRight"":36,""ArrowDown,ArrowLeft"":15,""ArrowDown,ArrowRight"":23}","false","ArrowUp","true","","","","","","","",""
"html-keyboard-response","52","368530","0.0-3.0-10.0-1.0","spark_pilot_2","7397","6","16","Female","","","","","","","null","<div style=""font-size:60px;"">+</div>","null","fixation","","","","","","","","","","","","","",""
"revaluation","53","372552","0.0-3.0-10.0-0.1","spark_pilot_2","7397","6","16","Female","","false","","","","","[887.8000001907349]","./assets/img/space/catch/1.jpg","[""spaceBar""]","catch practice","space","0","{""ArrowUp,ArrowLeft"":3,""ArrowUp,ArrowRight"":36,""ArrowDown,ArrowLeft"":15,""ArrowDown,ArrowRight"":23}","true","spaceBar","true","","","","","","","",""
"html-keyboard-response","54","373063","0.0-3.0-10.0-1.1","spark_pilot_2","7397","6","16","Female","","","","","","","null","<div style=""font-size:60px;"">+</div>","null","fixation","","","","","","","","","","","","","",""
"revaluation","55","377074","0.0-3.0-10.0-0.2","spark_pilot_2","7397","6","16","Female","","false","","","","","[835]","./assets/img/space/catch/2.jpg","[""spaceBar""]","catch practice","space","0","{""ArrowUp,ArrowLeft"":3,""ArrowUp,ArrowRight"":36,""ArrowDown,ArrowLeft"":15,""ArrowDown,ArrowRight"":23}","true","spaceBar","true","","","","","","","",""
"html-keyboard-response","56","377586","0.0-3.0-10.0-1.2","spark_pilot_2","7397","6","16","Female","","","","","","","null","<div style=""font-size:60px;"">+</div>","null","fixation","","","","","","","","","","","","","",""
"learning-instructions","57","394366","0.0-3.0-11.0-0.0","spark_pilot_2","7397","6","16","Female","","","","","","","3167.4000000953674","<p> After you explore a place to find treasure, it will be time to play a different game. </p>
            <p> During this game, red dots will appear on the screen and fall down slowly. </p>
            <p><b> You must click on them before they reach the bottom. </b></p>
            <img src='./assets/img/instructions/dotGame.jpg' class='instructions-image'>","","instructions","","","","","","","","","","","","","",""
"learning-instructions","58","400825","0.0-3.0-11.0-0.1","spark_pilot_2","7397","6","16","Female","","","","","","","773.9000000953674","<p> For every dot you click, you will earn additional treasure. </p>
            <p> Let’s try practicing that now. </p>","","instructions","","","","","","","","","","","","","",""
"revaluation","59","415840","0.0-3.0-12.0-0.0","spark_pilot_2","7397","6","16","Female","","","","","","","[105]","","","rest practice","","10","","","","","0","15000","","","","","",""
"learning-instructions","60","423916","0.0-3.0-13.0-0.0-0.0","spark_pilot_2","7397","6","16","Female","","","","","","","2808.5","<p> Now, you will practice a shortened version of the game to get a sense of how it all fits together. </p>","","instructions","","","","","","","","","","","","","",""
"learning-instructions","61","428573","0.0-3.0-13.0-0.0-0.1","spark_pilot_2","7397","6","16","Female","","","","","","","1448.8999996185303","<p>This time you are searching for treasure in outer space.</p>","","instructions","","","","","","","","","","","","","",""
"learning-instructions","62","444674","0.0-3.0-13.0-1.0-0.0","spark_pilot_2","7397","6","16","Female","","","","","","","1305.3000001907349","<p> Remember, when you see a picture of the place, use the up and down keys to <b>find an animal</b>.</p>
            <p> When you encounter an animal, you should use the left and right keys to <b>select a treasure chest</b>.</p>
            <p> Don't forget to look out for the robber! </p>","","instructions","","","","","","","","","","","","","",""
"revaluation","63","450705","0.0-3.0-13.0-2.0-0.0","spark_pilot_2","7397","6","16","Female","","false","","","","","[1425.6000003814697,700.8000001907349]","./assets/img/space/11.jpg","[""ArrowUp"",""ArrowRight""]","practice block","space","36","{""ArrowUp,ArrowLeft"":3,""ArrowUp,ArrowRight"":36,""ArrowDown,ArrowLeft"":15,""ArrowDown,ArrowRight"":23}","true","ArrowUp,ArrowRight","false","","","","","","","",""
"html-keyboard-response","64","451218","0.0-3.0-13.0-2.0-1.0","spark_pilot_2","7397","6","16","Female","","","","","","","null","<div style=""font-size:60px;"">+</div>","null","fixation","","","","","","","","","","","","","",""
"revaluation","65","457245","0.0-3.0-13.0-2.0-0.1","spark_pilot_2","7397","6","16","Female","","false","","","","","[1310.8000001907349,565]","./assets/img/space/12.jpg","[""ArrowUp"",""ArrowRight""]","practice block","space","36","{""ArrowUp,ArrowLeft"":3,""ArrowUp,ArrowRight"":36,""ArrowDown,ArrowLeft"":15,""ArrowDown,ArrowRight"":23}","true","ArrowUp,ArrowRight","false","","","","","","","",""
"html-keyboard-response","66","457757","0.0-3.0-13.0-2.0-1.1","spark_pilot_2","7397","6","16","Female","","","","","","","null","<div style=""font-size:60px;"">+</div>","null","fixation","","","","","","","","","","","","","",""
"revaluation","67","463772","0.0-3.0-13.0-2.0-0.2","spark_pilot_2","7397","6","16","Female","","false","","","","","[895.7000002861023,492.09999990463257]","./assets/img/space/13.jpg","[""ArrowUp"",""ArrowRight""]","practice block","space","36","{""ArrowUp,ArrowLeft"":3,""ArrowUp,ArrowRight"":36,""ArrowDown,ArrowLeft"":15,""ArrowDown,ArrowRight"":23}","true","ArrowUp,ArrowRight","false","","","","","","","",""
"html-keyboard-response","68","464285","0.0-3.0-13.0-2.0-1.2","spark_pilot_2","7397","6","16","Female","","","","","","","null","<div style=""font-size:60px;"">+</div>","null","fixation","","","","","","","","","","","","","",""
"revaluation","69","470301","0.0-3.0-13.0-2.0-0.3","spark_pilot_2","7397","6","16","Female","","false","","","","","[952.5,448.5]","./assets/img/space/14.jpg","[""ArrowUp"",""ArrowRight""]","practice block","space","36","{""ArrowUp,ArrowLeft"":3,""ArrowUp,ArrowRight"":36,""ArrowDown,ArrowLeft"":15,""ArrowDown,ArrowRight"":23}","true","ArrowUp,ArrowRight","false","","","","","","","",""
"html-keyboard-response","70","470812","0.0-3.0-13.0-2.0-1.3","spark_pilot_2","7397","6","16","Female","","","","","","","null","<div style=""font-size:60px;"">+</div>","null","fixation","","","","","","","","","","","","","",""
"revaluation","71","476835","0.0-3.0-13.0-2.0-0.4","spark_pilot_2","7397","6","16","Female","","false","","","","","[1073.2999997138977,408.19999980926514]","./assets/img/space/11.jpg","[""ArrowUp"",""ArrowRight""]","practice block","space","36","{""ArrowUp,ArrowLeft"":3,""ArrowUp,ArrowRight"":36,""ArrowDown,ArrowLeft"":15,""ArrowDown,ArrowRight"":23}","true","ArrowUp,ArrowRight","false","","","","","","","",""
"html-keyboard-response","72","477339","0.0-3.0-13.0-2.0-1.4","spark_pilot_2","7397","6","16","Female","","","","","","","null","<div style=""font-size:60px;"">+</div>","null","fixation","","","","","","","","","","","","","",""
"revaluation","73","483360","0.0-3.0-13.0-2.0-0.5","spark_pilot_2","7397","6","16","Female","","false","","","","","[991.6000003814697,6.600000381469727]","./assets/img/space/12.jpg","[""ArrowUp"",""ArrowRight""]","practice block","space","36","{""ArrowUp,ArrowLeft"":3,""ArrowUp,ArrowRight"":36,""ArrowDown,ArrowLeft"":15,""ArrowDown,ArrowRight"":23}","true","ArrowUp,ArrowRight","false","","","","","","","",""
"html-keyboard-response","74","483870","0.0-3.0-13.0-2.0-1.5","spark_pilot_2","7397","6","16","Female","","","","","","","null","<div style=""font-size:60px;"">+</div>","null","fixation","","","","","","","","","","","","","",""
"revaluation","75","489884","0.0-3.0-13.0-2.0-0.6","spark_pilot_2","7397","6","16","Female","","false","","","","","[718.8000001907349,335.2000002861023]","./assets/img/space/13.jpg","[""ArrowUp"",""ArrowRight""]","practice block","space","36","{""ArrowUp,ArrowLeft"":3,""ArrowUp,ArrowRight"":36,""ArrowDown,ArrowLeft"":15,""ArrowDown,ArrowRight"":23}","true","ArrowUp,ArrowRight","false","","","","","","","",""
"html-keyboard-response","76","490390","0.0-3.0-13.0-2.0-1.6","spark_pilot_2","7397","6","16","Female","","","","","","","null","<div style=""font-size:60px;"">+</div>","null","fixation","","","","","","","","","","","","","",""
"revaluation","77","496407","0.0-3.0-13.0-2.0-0.7","spark_pilot_2","7397","6","16","Female","","false","","","","","[662.6999998092651,431.3999996185303]","./assets/img/space/14.jpg","[""ArrowUp"",""ArrowRight""]","practice block","space","36","{""ArrowUp,ArrowLeft"":3,""ArrowUp,ArrowRight"":36,""ArrowDown,ArrowLeft"":15,""ArrowDown,ArrowRight"":23}","true","ArrowUp,ArrowRight","false","","","","","","","",""
"html-keyboard-response","78","496914","0.0-3.0-13.0-2.0-1.7","spark_pilot_2","7397","6","16","Female","","","","","","","null","<div style=""font-size:60px;"">+</div>","null","fixation","","","","","","","","","","","","","",""
"revaluation","79","500923","0.0-3.0-13.0-2.0-0.8","spark_pilot_2","7397","6","16","Female","","false","","","","","[694]","./assets/img/space/catch/3.jpg","[""spaceBar""]","practice block","space","0","{""ArrowUp,ArrowLeft"":3,""ArrowUp,ArrowRight"":36,""ArrowDown,ArrowLeft"":15,""ArrowDown,ArrowRight"":23}","true","spaceBar","true","","","","","","","",""
"html-keyboard-response","80","501429","0.0-3.0-13.0-2.0-1.8","spark_pilot_2","7397","6","16","Female","","","","","","","null","<div style=""font-size:60px;"">+</div>","null","fixation","","","","","","","","","","","","","",""
"learning-instructions","81","517189","0.0-3.0-13.0-3.0-0.0","spark_pilot_2","7397","6","16","Female","","","","","","","2115.0999999046326","<p> Now, you will travel with a friend who will choose whether you go up or down first. </p>
            <p> On these turns, you will just see the animal that they found. You will still get to choose which chest to search for treasure.</p>","","instructions","","","","","","","","","","","","","",""
"revaluation","82","521216","0.0-3.0-13.0-4.0-0.0","spark_pilot_2","7397","6","16","Female","","false","","","","","[1092.0999999046326]","./assets/img/space/animals/cat.jpg","[""ArrowRight""]","practice block","space","36","{""ArrowUp,ArrowLeft"":3,""ArrowUp,ArrowRight"":36,""ArrowDown,ArrowLeft"":15,""ArrowDown,ArrowRight"":23}","true","ArrowUp,ArrowRight","","","","","","","","",""
"html-keyboard-response","83","521728","0.0-3.0-13.0-4.0-1.0","spark_pilot_2","7397","6","16","Female","","","","","","","null","<div style=""font-size:60px;"">+</div>","null","fixation","","","","","","","","","","","","","",""
"revaluation","84","525760","0.0-3.0-13.0-4.0-0.1","spark_pilot_2","7397","6","16","Female","","false","","","","","[820.2000002861023]","./assets/img/space/animals/rabbit.jpg","[""ArrowRight""]","practice block","space","23","{""ArrowUp,ArrowLeft"":3,""ArrowUp,ArrowRight"":36,""ArrowDown,ArrowLeft"":15,""ArrowDown,ArrowRight"":23}","true","ArrowDown,ArrowRight","","","","","","","","",""
"html-keyboard-response","85","526262","0.0-3.0-13.0-4.0-1.1","spark_pilot_2","7397","6","16","Female","","","","","","","null","<div style=""font-size:60px;"">+</div>","null","fixation","","","","","","","","","","","","","",""
"revaluation","86","530273","0.0-3.0-13.0-4.0-0.2","spark_pilot_2","7397","6","16","Female","","false","","","","","[518.6999998092651]","./assets/img/space/animals/rabbit.jpg","[""ArrowRight""]","practice block","space","23","{""ArrowUp,ArrowLeft"":3,""ArrowUp,ArrowRight"":36,""ArrowDown,ArrowLeft"":15,""ArrowDown,ArrowRight"":23}","true","ArrowDown,ArrowRight","","","","","","","","",""
"html-keyboard-response","87","530784","0.0-3.0-13.0-4.0-1.2","spark_pilot_2","7397","6","16","Female","","","","","","","null","<div style=""font-size:60px;"">+</div>","null","fixation","","","","","","","","","","","","","",""
"revaluation","88","534796","0.0-3.0-13.0-4.0-0.3","spark_pilot_2","7397","6","16","Female","","false","","","","","[501.7000002861023]","./assets/img/space/animals/cat.jpg","[""ArrowRight""]","practice block","space","36","{""ArrowUp,ArrowLeft"":3,""ArrowUp,ArrowRight"":36,""ArrowDown,ArrowLeft"":15,""ArrowDown,ArrowRight"":23}","true","ArrowUp,ArrowRight","","","","","","","","",""
"html-keyboard-response","89","535307","0.0-3.0-13.0-4.0-1.3","spark_pilot_2","7397","6","16","Female","","","","","","","null","<div style=""font-size:60px;"">+</div>","null","fixation","","","","","","","","","","","","","",""
"learning-instructions","90","546020","0.0-3.0-13.0-5.0-0.0","spark_pilot_2","7397","6","16","Female","","","","","","","3330.4000000953674","<p> Time to play the dot game! </p>
            <p> For 15 seconds, click the red dots on the following screen as they appear. </p>","","instructions","","","","","","","","","","","","","",""
"revaluation","91","561025","0.0-3.0-13.0-6.0-0.0","spark_pilot_2","7397","6","16","Female","","","","","","","[111,104]","","","rest practice","","20","","","","","0","15000","","","","","",""
"learning-instructions","92","569023","0.0-3.0-13.0-7.0-0.0","spark_pilot_2","7397","6","16","Female","","","","","","","1864.2999997138977","<p> You have almost finished this part of the game! </p>
            <p> We are going to ask you to make a few more choices. </p>","","instructions","","","","","","","","","","","","","",""
"learning-instructions","93","583598","0.0-3.0-13.0-7.0-0.1","spark_pilot_2","7397","6","16","Female","","","","","","","545.5999999046326","<p> First, you need to decide whether to go up or down. When you see each picture, use the arrow keys to make your choice. </p>
            <p><b>You will not see which animal you found, but try to get to the one that will give you the most treasure.</b></p>","","instructions","","","","","","","","","","","","","",""
"revaluation","94","584471","0.0-3.0-13.0-8.0","spark_pilot_2","7397","6","16","Female","","false","","","","","[871.2000002861023]","./assets/img/space/15.jpg","[""ArrowUp""]","practice block","space","0","{""ArrowUp,ArrowLeft"":3,""ArrowUp,ArrowRight"":36,""ArrowDown,ArrowLeft"":15,""ArrowDown,ArrowRight"":23}","true","ArrowUp","false","","","","","","","",""
"html-keyboard-response","95","584982","0.0-3.0-13.0-9.0","spark_pilot_2","7397","6","16","Female","","","","","","","null","<div style=""font-size:60px;"">+</div>","null","fixation","","","","","","","","","","","","","",""
"learning-instructions","96","597108","0.0-3.0-13.0-10.0-0.0","spark_pilot_2","7397","6","16","Female","","","","","","","732.9000000953674","<p> Now you will see the animals again and can search their chests for treasure. </p>
            <p> This time, you will not see how much treasure you earned, but you will earn more bonus money for making better choices. </p>","","instructions","","","","","","","","","","","","","",""
"revaluation","97","597539","0.0-3.0-13.0-11.0-0.0","spark_pilot_2","7397","6","16","Female","","false","","","","","[428.40000009536743]","./assets/img/space/animals/cat.jpg","[""ArrowRight""]","practice block","space","0","{""ArrowUp,ArrowLeft"":3,""ArrowUp,ArrowRight"":36,""ArrowDown,ArrowLeft"":15,""ArrowDown,ArrowRight"":23}","true","ArrowUp,ArrowRight","","","","","","","","",""
"html-keyboard-response","98","598047","0.0-3.0-13.0-11.0-1.0","spark_pilot_2","7397","6","16","Female","","","","","","","null","<div style=""font-size:60px;"">+</div>","null","fixation","","","","","","","","","","","","","",""
"revaluation","99","598846","0.0-3.0-13.0-11.0-0.1","spark_pilot_2","7397","6","16","Female","","false","","","","","[795.1000003814697]","./assets/img/space/animals/rabbit.jpg","[""ArrowRight""]","practice block","space","0","{""ArrowUp,ArrowLeft"":3,""ArrowUp,ArrowRight"":36,""ArrowDown,ArrowLeft"":15,""ArrowDown,ArrowRight"":23}","true","ArrowDown,ArrowRight","","","","","","","","",""
"html-keyboard-response","100","599351","0.0-3.0-13.0-11.0-1.1","spark_pilot_2","7397","6","16","Female","","","","","","","null","<div style=""font-size:60px;"">+</div>","null","fixation","","","","","","","","","","","","","",""
"learning-instructions","101","604692","0.0-3.0-14.0-0.0","spark_pilot_2","7397","6","16","Female","","","","","","","755.4000000953674","<p> Before you start, we're going to ask you a few questions about how the game works. </p>","","instructions","","","","","","","","","","","","","",""
"comp-q","102","611775","0.0-3.0-15.0-0.0-0.0","spark_pilot_2","7397","6","16","Female","","","","","","","953.4000000953674","<p> <b> True or False? </b> </p>
            <p> There can be 50 pieces of treasure in a given animal's chest. </p>","1","comp_question","","","","true","","","","","","","","","",""
"comp-q","103","619929","0.0-3.0-15.0-0.0-1.0","spark_pilot_2","7397","6","16","Female","","","","","","","1485.7000002861023","<p> <b> That's right! </b> The amount of treasure in each chest can range from 0 to 40 pieces. </p>","0","comp_answer","","","","","","","","","","","","","",""
"comp-q","104","627635","0.0-3.0-15.0-0.1-0.1","spark_pilot_2","7397","6","16","Female","","","","","","","572.6999998092651","<p> <b> True or False? </b> </p><p> In this game, all animals have the same amount of treasure in their left and right chests. </p>","1","comp_question","","","","true","","","","","","","","","",""
"comp-q","105","635519","0.0-3.0-15.0-0.1-1.1","spark_pilot_2","7397","6","16","Female","","","","","","","2642.300000190735","<p> <b> That's right! </b> Animals have different amounts of treasure in their treasure chests. </p>","0","comp_answer","","","","","","","","","","","","","",""
"comp-q","106","642626","0.0-3.0-15.0-0.2-0.2","spark_pilot_2","7397","6","16","Female","","","","","","","1258.8000001907349","<p> <b> True or False? </b> </p><p> The same animal will always be there if you go up in the same place. </p>","0","comp_question","","","","true","","","","","","","","","",""
"comp-q","107","651764","0.0-3.0-15.0-0.2-1.2","spark_pilot_2","7397","6","16","Female","","","","","","","2686.300000190735","<p> <b> That's right! </b> One animal lives in the upper part and one lives in the lower part of every place. </p>","0","comp_answer","","","","","","","","","","","","","",""
"comp-q","108","658219","0.0-3.0-15.0-0.3-0.3","spark_pilot_2","7397","6","16","Female","","","","","","","927.0999999046326","<p> <b> True or False? </b> </p><p> If you see a different picture, it means you are in a new place. </p>","1","comp_question","","","","true","","","","","","","","","",""
"comp-q","109","671086","0.0-3.0-15.0-0.3-1.3","spark_pilot_2","7397","6","16","Female","","","","","","","1613.2999997138977","<p> <b> That's right! </b> Lots of different images may show the same place. For example,  you may see three different images that all remind you that you are in outer space. </p>","0","comp_answer","","","","","","","","","","","","","",""
"learning-instructions","110","684045","0.0-3.0-16.0-0.0","spark_pilot_2","7397","6","16","Female","","","","","","","3094.5999999046326","<p> Good job. Remember to do your best because the amount of treasure you earn will be converted into bonus money. </p>
            <p> It’s time to start the real game! </p>","","instructions","","","","","","","","","","","","","",""
"learning-instructions","111","687879","0.0-4.0-0.0-0.0","spark_pilot_2","7397","6","16","Female","","","","","","","1061.5","<p> This time you are searching for treasure in the <b>canyon</b>.</p>","","instructions","","","","","","","","","","","","","",""
"learning-instructions","112","706774","0.0-4.0-0.0-0.1","spark_pilot_2","7397","6","16","Female","","","","","","","1567.9000000953674","<p><b>New</b> animals with <b>new</b> treasure chests live here. You need to explore to discover where the animal with the best treasure chest is.</p>
                    <p> Like before, once you figure out which animal has the chest with the most treasure, you should try to get to that animal and select that chest! </p>","","instructions","","","","","","","","","","","","","",""
"learning-instructions","113","724861","0.0-4.0-1.0-0.0","spark_pilot_2","7397","6","16","Female","","","","","","","3356.0999999046326","<p> Remember, when you see a picture of the place, use the up and down keys to <b>find an animal</b>.</p>
            <p> When you encounter an animal, you should use the left and right keys to <b>select a treasure chest</b>.</p>
            <p> Don't forget to look out for the robber! </p>","","instructions","","","","","","","","","","","","","",""
"revaluation","114","730891","0.0-4.0-2.0-0.0","spark_pilot_2","7397","6","16","Female","","false","","","","","[763.6000003814697,492.7000002861023]","./assets/img/canyon/memory/22.jpg","[""ArrowDown"",""ArrowRight""]","value training","canyon","30","{""ArrowUp,ArrowLeft"":23,""ArrowUp,ArrowRight"":10,""ArrowDown,ArrowLeft"":8,""ArrowDown,ArrowRight"":30}","true","ArrowDown,ArrowRight","false","","","revaluation","1","0","","",""
"html-keyboard-response","115","731402","0.0-4.0-2.0-1.0","spark_pilot_2","7397","6","16","Female","","","","","","","null","<div style=""font-size:60px;"">+</div>","null","fixation","","","","","","","","","","","1","","",""
"revaluation","116","737419","0.0-4.0-2.0-0.1","spark_pilot_2","7397","6","16","Female","","false","","","","","[525.8000001907349,506.2000002861023]","./assets/img/canyon/memory/37.jpg","[""ArrowDown"",""ArrowLeft""]","value training","canyon","8","{""ArrowUp,ArrowLeft"":23,""ArrowUp,ArrowRight"":10,""ArrowDown,ArrowLeft"":8,""ArrowDown,ArrowRight"":30}","false","ArrowDown,ArrowLeft","false","","","revaluation","1","2","","",""
"html-keyboard-response","117","737929","0.0-4.0-2.0-1.1","spark_pilot_2","7397","6","16","Female","","","","","","","null","<div style=""font-size:60px;"">+</div>","null","fixation","","","","","","","","","","","3","","",""
"revaluation","118","741939","0.0-4.0-2.0-0.2","spark_pilot_2","7397","6","16","Female","","false","","","","","[605.1999998092651]","./assets/img/canyon/catch/1.jpg","[""ArrowUp""]","value training","canyon","-10","{""ArrowUp,ArrowLeft"":23,""ArrowUp,ArrowRight"":10,""ArrowDown,ArrowLeft"":8,""ArrowDown,ArrowRight"":30}","false","ArrowUp","true","","","revaluation","1","4","","",""
"html-keyboard-response","119","742453","0.0-4.0-2.0-1.2","spark_pilot_2","7397","6","16","Female","","","","","","","null","<div style=""font-size:60px;"">+</div>","null","fixation","","","","","","","","","","","5","","",""
"revaluation","120","748469","0.0-4.0-2.0-0.3","spark_pilot_2","7397","6","16","Female","","false","","","","","[1276.3000001907349,1287.2000002861023]","./assets/img/canyon/memory/14.jpg","[""ArrowUp"",""ArrowRight""]","value training","canyon","10","{""ArrowUp,ArrowLeft"":23,""ArrowUp,ArrowRight"":10,""ArrowDown,ArrowLeft"":8,""ArrowDown,ArrowRight"":30}","false","ArrowUp,ArrowRight","false","","","revaluation","1","6","","",""
"html-keyboard-response","121","748981","0.0-4.0-2.0-1.3","spark_pilot_2","7397","6","16","Female","","","","","","","null","<div style=""font-size:60px;"">+</div>","null","fixation","","","","","","","","","","","7","","",""
"revaluation","122","755003","0.0-4.0-2.0-0.4","spark_pilot_2","7397","6","16","Female","","false","","","","","[683.4000000953674,793.1999998092651]","./assets/img/canyon/memory/26.jpg","[""ArrowUp"",""ArrowLeft""]","value training","canyon","23","{""ArrowUp,ArrowLeft"":23,""ArrowUp,ArrowRight"":10,""ArrowDown,ArrowLeft"":8,""ArrowDown,ArrowRight"":30}","false","ArrowUp,ArrowLeft","false","","","revaluation","1","8","","",""
"html-keyboard-response","123","755515","0.0-4.0-2.0-1.4","spark_pilot_2","7397","6","16","Female","","","","","","","null","<div style=""font-size:60px;"">+</div>","null","fixation","","","","","","","","","","","9","","",""
"revaluation","124","761544","0.0-4.0-2.0-0.5","spark_pilot_2","7397","6","16","Female","","false","","","","","[779.7000002861023,572.9000000953674]","./assets/img/canyon/memory/27.jpg","[""ArrowDown"",""ArrowRight""]","value training","canyon","30","{""ArrowUp,ArrowLeft"":23,""ArrowUp,ArrowRight"":10,""ArrowDown,ArrowLeft"":8,""ArrowDown,ArrowRight"":30}","true","ArrowDown,ArrowRight","false","","","revaluation","1","10","","",""
"html-keyboard-response","125","762053","0.0-4.0-2.0-1.5","spark_pilot_2","7397","6","16","Female","","","","","","","null","<div style=""font-size:60px;"">+</div>","null","fixation","","","","","","","","","","","11","","",""
"revaluation","126","768073","0.0-4.0-2.0-0.6","spark_pilot_2","7397","6","16","Female","","false","","","","","[898.0999999046326,462.09999990463257]","./assets/img/canyon/memory/3.jpg","[""ArrowDown"",""ArrowRight""]","value training","canyon","30","{""ArrowUp,ArrowLeft"":23,""ArrowUp,ArrowRight"":10,""ArrowDown,ArrowLeft"":8,""ArrowDown,ArrowRight"":30}","true","ArrowDown,ArrowRight","false","","","revaluation","1","12","","",""
"html-keyboard-response","127","768582","0.0-4.0-2.0-1.6","spark_pilot_2","7397","6","16","Female","","","","","","","null","<div style=""font-size:60px;"">+</div>","null","fixation","","","","","","","","","","","13","","",""
"revaluation","128","774595","0.0-4.0-2.0-0.7","spark_pilot_2","7397","6","16","Female","","false","","","","","[1130.2999997138977,700.3000001907349]","./assets/img/canyon/memory/10.jpg","[""ArrowDown"",""ArrowRight""]","value training","canyon","30","{""ArrowUp,ArrowLeft"":23,""ArrowUp,ArrowRight"":10,""ArrowDown,ArrowLeft"":8,""ArrowDown,ArrowRight"":30}","true","ArrowDown,ArrowRight","false","","","revaluation","1","14","","",""
"html-keyboard-response","129","775104","0.0-4.0-2.0-1.7","spark_pilot_2","7397","6","16","Female","","","","","","","null","<div style=""font-size:60px;"">+</div>","null","fixation","","","","","","","","","","","15","","",""
"revaluation","130","779120","0.0-4.0-2.0-0.8","spark_pilot_2","7397","6","16","Female","","false","","","","","[792.5]","./assets/img/canyon/catch/0.jpg","[""spaceBar""]","value training","canyon","0","{""ArrowUp,ArrowLeft"":23,""ArrowUp,ArrowRight"":10,""ArrowDown,ArrowLeft"":8,""ArrowDown,ArrowRight"":30}","true","spaceBar","true","","","revaluation","1","16","","",""
"html-keyboard-response","131","779630","0.0-4.0-2.0-1.8","spark_pilot_2","7397","6","16","Female","","","","","","","null","<div style=""font-size:60px;"">+</div>","null","fixation","","","","","","","","","","","17","","",""
"revaluation","132","785657","0.0-4.0-2.0-0.9","spark_pilot_2","7397","6","16","Female","","false","","","","","[559.9000000953674,626.8000001907349]","./assets/img/canyon/memory/25.jpg","[""ArrowDown"",""ArrowRight""]","value training","canyon","30","{""ArrowUp,ArrowLeft"":23,""ArrowUp,ArrowRight"":10,""ArrowDown,ArrowLeft"":8,""ArrowDown,ArrowRight"":30}","true","ArrowDown,ArrowRight","false","","","revaluation","1","18","","",""
"html-keyboard-response","133","786164","0.0-4.0-2.0-1.9","spark_pilot_2","7397","6","16","Female","","","","","","","null","<div style=""font-size:60px;"">+</div>","null","fixation","","","","","","","","","","","19","","",""
"revaluation","134","792193","0.0-4.0-2.0-0.10","spark_pilot_2","7397","6","16","Female","","false","","","","","[988.6999998092651,624]","./assets/img/canyon/memory/9.jpg","[""ArrowDown"",""ArrowRight""]","value training","canyon","30","{""ArrowUp,ArrowLeft"":23,""ArrowUp,ArrowRight"":10,""ArrowDown,ArrowLeft"":8,""ArrowDown,ArrowRight"":30}","true","ArrowDown,ArrowRight","false","","","revaluation","1","20","","",""
"html-keyboard-response","135","792694","0.0-4.0-2.0-1.10","spark_pilot_2","7397","6","16","Female","","","","","","","null","<div style=""font-size:60px;"">+</div>","null","fixation","","","","","","","","","","","21","","",""
"revaluation","136","798716","0.0-4.0-2.0-0.11","spark_pilot_2","7397","6","16","Female","","false","","","","","[1052,578.6999998092651]","./assets/img/canyon/memory/41.jpg","[""ArrowDown"",""ArrowRight""]","value training","canyon","30","{""ArrowUp,ArrowLeft"":23,""ArrowUp,ArrowRight"":10,""ArrowDown,ArrowLeft"":8,""ArrowDown,ArrowRight"":30}","true","ArrowDown,ArrowRight","false","","","revaluation","1","22","","",""
"html-keyboard-response","137","799222","0.0-4.0-2.0-1.11","spark_pilot_2","7397","6","16","Female","","","","","","","null","<div style=""font-size:60px;"">+</div>","null","fixation","","","","","","","","","","","23","","",""
"revaluation","138","805237","0.0-4.0-2.0-0.12","spark_pilot_2","7397","6","16","Female","","false","","","","","[1057.5,677.9000000953674]","./assets/img/canyon/memory/37.jpg","[""ArrowDown"",""ArrowRight""]","value training","canyon","30","{""ArrowUp,ArrowLeft"":23,""ArrowUp,ArrowRight"":10,""ArrowDown,ArrowLeft"":8,""ArrowDown,ArrowRight"":30}","true","ArrowDown,ArrowRight","false","","","revaluation","1","24","","",""
"html-keyboard-response","139","805742","0.0-4.0-2.0-1.12","spark_pilot_2","7397","6","16","Female","","","","","","","null","<div style=""font-size:60px;"">+</div>","null","fixation","","","","","","","","","","","25","","",""
"revaluation","140","811758","0.0-4.0-2.0-0.13","spark_pilot_2","7397","6","16","Female","","false","","","","","[780.5,431.7999997138977]","./assets/img/canyon/memory/7.jpg","[""ArrowDown"",""ArrowRight""]","value training","canyon","30","{""ArrowUp,ArrowLeft"":23,""ArrowUp,ArrowRight"":10,""ArrowDown,ArrowLeft"":8,""ArrowDown,ArrowRight"":30}","true","ArrowDown,ArrowRight","false","","","revaluation","1","26","","",""
"html-keyboard-response","141","812269","0.0-4.0-2.0-1.13","spark_pilot_2","7397","6","16","Female","","","","","","","null","<div style=""font-size:60px;"">+</div>","null","fixation","","","","","","","","","","","27","","",""
"revaluation","142","818289","0.0-4.0-2.0-0.14","spark_pilot_2","7397","6","16","Female","","false","","","","","[498.5,275.19999980926514]","./assets/img/canyon/memory/25.jpg","[""ArrowDown"",""ArrowRight""]","value training","canyon","30","{""ArrowUp,ArrowLeft"":23,""ArrowUp,ArrowRight"":10,""ArrowDown,ArrowLeft"":8,""ArrowDown,ArrowRight"":30}","true","ArrowDown,ArrowRight","false","","","revaluation","1","28","","",""
"html-keyboard-response","143","818797","0.0-4.0-2.0-1.14","spark_pilot_2","7397","6","16","Female","","","","","","","null","<div style=""font-size:60px;"">+</div>","null","fixation","","","","","","","","","","","29","","",""
"revaluation","144","824812","0.0-4.0-2.0-0.15","spark_pilot_2","7397","6","16","Female","","false","","","","","[429,489.40000009536743]","./assets/img/canyon/memory/14.jpg","[""ArrowDown"",""ArrowRight""]","value training","canyon","30","{""ArrowUp,ArrowLeft"":23,""ArrowUp,ArrowRight"":10,""ArrowDown,ArrowLeft"":8,""ArrowDown,ArrowRight"":30}","true","ArrowDown,ArrowRight","false","","","revaluation","1","30","","",""
"html-keyboard-response","145","825321","0.0-4.0-2.0-1.15","spark_pilot_2","7397","6","16","Female","","","","","","","null","<div style=""font-size:60px;"">+</div>","null","fixation","","","","","","","","","","","31","","",""
"revaluation","146","831341","0.0-4.0-2.0-0.16","spark_pilot_2","7397","6","16","Female","","false","","","","","[728.7000002861023,601.2999997138977]","./assets/img/canyon/memory/5.jpg","[""ArrowDown"",""ArrowRight""]","value training","canyon","30","{""ArrowUp,ArrowLeft"":23,""ArrowUp,ArrowRight"":10,""ArrowDown,ArrowLeft"":8,""ArrowDown,ArrowRight"":30}","true","ArrowDown,ArrowRight","false","","","revaluation","1","32","","",""
"html-keyboard-response","147","831851","0.0-4.0-2.0-1.16","spark_pilot_2","7397","6","16","Female","","","","","","","null","<div style=""font-size:60px;"">+</div>","null","fixation","","","","","","","","","","","33","","",""
"revaluation","148","837875","0.0-4.0-2.0-0.17","spark_pilot_2","7397","6","16","Female","","false","","","","","[759.1999998092651,471.7999997138977]","./assets/img/canyon/memory/22.jpg","[""ArrowDown"",""ArrowRight""]","value training","canyon","30","{""ArrowUp,ArrowLeft"":23,""ArrowUp,ArrowRight"":10,""ArrowDown,ArrowLeft"":8,""ArrowDown,ArrowRight"":30}","true","ArrowDown,ArrowRight","false","","","revaluation","1","34","","",""
"html-keyboard-response","149","838377","0.0-4.0-2.0-1.17","spark_pilot_2","7397","6","16","Female","","","","","","","null","<div style=""font-size:60px;"">+</div>","null","fixation","","","","","","","","","","","35","","",""
"revaluation","150","842398","0.0-4.0-2.0-0.18","spark_pilot_2","7397","6","16","Female","","false","","","","","[844.9000000953674]","./assets/img/canyon/catch/7.jpg","[""spaceBar""]","value training","canyon","0","{""ArrowUp,ArrowLeft"":23,""ArrowUp,ArrowRight"":10,""ArrowDown,ArrowLeft"":8,""ArrowDown,ArrowRight"":30}","true","spaceBar","true","","","revaluation","1","36","","",""
"html-keyboard-response","151","842903","0.0-4.0-2.0-1.18","spark_pilot_2","7397","6","16","Female","","","","","","","null","<div style=""font-size:60px;"">+</div>","null","fixation","","","","","","","","","","","37","","",""
"revaluation","152","848920","0.0-4.0-2.0-0.19","spark_pilot_2","7397","6","16","Female","","false","","","","","[939.1999998092651,473.3999996185303]","./assets/img/canyon/memory/15.jpg","[""ArrowDown"",""ArrowRight""]","value training","canyon","30","{""ArrowUp,ArrowLeft"":23,""ArrowUp,ArrowRight"":10,""ArrowDown,ArrowLeft"":8,""ArrowDown,ArrowRight"":30}","true","ArrowDown,ArrowRight","false","","","revaluation","1","38","","",""
"html-keyboard-response","153","849423","0.0-4.0-2.0-1.19","spark_pilot_2","7397","6","16","Female","","","","","","","null","<div style=""font-size:60px;"">+</div>","null","fixation","","","","","","","","","","","39","","",""
"revaluation","154","855448","0.0-4.0-2.0-0.20","spark_pilot_2","7397","6","16","Female","","false","","","","","[670.0999999046326,283.80000019073486]","./assets/img/canyon/memory/40.jpg","[""ArrowDown"",""ArrowRight""]","value training","canyon","30","{""ArrowUp,ArrowLeft"":23,""ArrowUp,ArrowRight"":10,""ArrowDown,ArrowLeft"":8,""ArrowDown,ArrowRight"":30}","true","ArrowDown,ArrowRight","false","","","revaluation","1","40","","",""
"html-keyboard-response","155","855951","0.0-4.0-2.0-1.20","spark_pilot_2","7397","6","16","Female","","","","","","","null","<div style=""font-size:60px;"">+</div>","null","fixation","","","","","","","","","","","41","","",""
"revaluation","156","859971","0.0-4.0-2.0-0.21","spark_pilot_2","7397","6","16","Female","","false","","","","","[741]","./assets/img/canyon/catch/2.jpg","[""spaceBar""]","value training","canyon","0","{""ArrowUp,ArrowLeft"":23,""ArrowUp,ArrowRight"":10,""ArrowDown,ArrowLeft"":8,""ArrowDown,ArrowRight"":30}","true","spaceBar","true","","","revaluation","1","42","","",""
"html-keyboard-response","157","860488","0.0-4.0-2.0-1.21","spark_pilot_2","7397","6","16","Female","","","","","","","null","<div style=""font-size:60px;"">+</div>","null","fixation","","","","","","","","","","","43","","",""
"revaluation","158","866515","0.0-4.0-2.0-0.22","spark_pilot_2","7397","6","16","Female","","false","","","","","[845.1999998092651,530.9000000953674]","./assets/img/canyon/memory/35.jpg","[""ArrowDown"",""ArrowRight""]","value training","canyon","30","{""ArrowUp,ArrowLeft"":23,""ArrowUp,ArrowRight"":10,""ArrowDown,ArrowLeft"":8,""ArrowDown,ArrowRight"":30}","true","ArrowDown,ArrowRight","false","","","revaluation","1","44","","",""
"html-keyboard-response","159","867025","0.0-4.0-2.0-1.22","spark_pilot_2","7397","6","16","Female","","","","","","","null","<div style=""font-size:60px;"">+</div>","null","fixation","","","","","","","","","","","45","","",""
"revaluation","160","873048","0.0-4.0-2.0-0.23","spark_pilot_2","7397","6","16","Female","","false","","","","","[752.5999999046326,342.90000009536743]","./assets/img/canyon/memory/27.jpg","[""ArrowDown"",""ArrowRight""]","value training","canyon","30","{""ArrowUp,ArrowLeft"":23,""ArrowUp,ArrowRight"":10,""ArrowDown,ArrowLeft"":8,""ArrowDown,ArrowRight"":30}","true","ArrowDown,ArrowRight","false","","","revaluation","1","46","","",""
"html-keyboard-response","161","873559","0.0-4.0-2.0-1.23","spark_pilot_2","7397","6","16","Female","","","","","","","null","<div style=""font-size:60px;"">+</div>","null","fixation","","","","","","","","","","","47","","",""
"revaluation","162","877573","0.0-4.0-2.0-0.24","spark_pilot_2","7397","6","16","Female","","false","","","","","[642.7000002861023]","./assets/img/canyon/catch/6.jpg","[""spaceBar""]","value training","canyon","0","{""ArrowUp,ArrowLeft"":23,""ArrowUp,ArrowRight"":10,""ArrowDown,ArrowLeft"":8,""ArrowDown,ArrowRight"":30}","true","spaceBar","true","","","revaluation","1","48","","",""
"html-keyboard-response","163","878076","0.0-4.0-2.0-1.24","spark_pilot_2","7397","6","16","Female","","","","","","","null","<div style=""font-size:60px;"">+</div>","null","fixation","","","","","","","","","","","49","","",""
"revaluation","164","882095","0.0-4.0-2.0-0.25","spark_pilot_2","7397","6","16","Female","","true","","","","","[]","./assets/img/canyon/memory/40.jpg","[]","value training","canyon","-5","{""ArrowUp,ArrowLeft"":23,""ArrowUp,ArrowRight"":10,""ArrowDown,ArrowLeft"":8,""ArrowDown,ArrowRight"":30}","false","","false","","","revaluation","1","50","","",""
"html-keyboard-response","165","882599","0.0-4.0-2.0-1.25","spark_pilot_2","7397","6","16","Female","","","","","","","null","<div style=""font-size:60px;"">+</div>","null","fixation","","","","","","","","","","","51","","",""
"revaluation","166","888625","0.0-4.0-2.0-0.26","spark_pilot_2","7397","6","16","Female","","false","","","","","[621.5999999046326,358.30000019073486]","./assets/img/canyon/memory/19.jpg","[""ArrowDown"",""ArrowRight""]","value training","canyon","30","{""ArrowUp,ArrowLeft"":23,""ArrowUp,ArrowRight"":10,""ArrowDown,ArrowLeft"":8,""ArrowDown,ArrowRight"":30}","true","ArrowDown,ArrowRight","false","","","revaluation","1","52","","",""
"html-keyboard-response","167","889133","0.0-4.0-2.0-1.26","spark_pilot_2","7397","6","16","Female","","","","","","","null","<div style=""font-size:60px;"">+</div>","null","fixation","","","","","","","","","","","53","","",""
"revaluation","168","895163","0.0-4.0-2.0-0.27","spark_pilot_2","7397","6","16","Female","","false","","","","","[784.4000000953674,423.69999980926514]","./assets/img/canyon/memory/31.jpg","[""ArrowDown"",""ArrowRight""]","value training","canyon","30","{""ArrowUp,ArrowLeft"":23,""ArrowUp,ArrowRight"":10,""ArrowDown,ArrowLeft"":8,""ArrowDown,ArrowRight"":30}","true","ArrowDown,ArrowRight","false","","","revaluation","1","54","","",""
"html-keyboard-response","169","895670","0.0-4.0-2.0-1.27","spark_pilot_2","7397","6","16","Female","","","","","","","null","<div style=""font-size:60px;"">+</div>","null","fixation","","","","","","","","","","","55","","",""
"revaluation","170","901692","0.0-4.0-2.0-0.28","spark_pilot_2","7397","6","16","Female","","false","","","","","[481.59999990463257,264.2000002861023]","./assets/img/canyon/memory/16.jpg","[""ArrowDown"",""ArrowRight""]","value training","canyon","30","{""ArrowUp,ArrowLeft"":23,""ArrowUp,ArrowRight"":10,""ArrowDown,ArrowLeft"":8,""ArrowDown,ArrowRight"":30}","true","ArrowDown,ArrowRight","false","","","revaluation","1","56","","",""
"html-keyboard-response","171","902204","0.0-4.0-2.0-1.28","spark_pilot_2","7397","6","16","Female","","","","","","","null","<div style=""font-size:60px;"">+</div>","null","fixation","","","","","","","","","","","57","","",""
"revaluation","172","908217","0.0-4.0-2.0-0.29","spark_pilot_2","7397","6","16","Female","","false","","","","","[426.19999980926514,150.90000009536743]","./assets/img/canyon/memory/7.jpg","[""ArrowDown"",""ArrowRight""]","value training","canyon","30","{""ArrowUp,ArrowLeft"":23,""ArrowUp,ArrowRight"":10,""ArrowDown,ArrowLeft"":8,""ArrowDown,ArrowRight"":30}","true","ArrowDown,ArrowRight","false","","","revaluation","1","58","","",""
"html-keyboard-response","173","908720","0.0-4.0-2.0-1.29","spark_pilot_2","7397","6","16","Female","","","","","","","null","<div style=""font-size:60px;"">+</div>","null","fixation","","","","","","","","","","","59","","",""
"revaluation","174","914739","0.0-4.0-2.0-0.30","spark_pilot_2","7397","6","16","Female","","false","","","","","[828.0999999046326,981.1999998092651]","./assets/img/canyon/memory/13.jpg","[""ArrowDown"",""ArrowRight""]","value training","canyon","30","{""ArrowUp,ArrowLeft"":23,""ArrowUp,ArrowRight"":10,""ArrowDown,ArrowLeft"":8,""ArrowDown,ArrowRight"":30}","true","ArrowDown,ArrowRight","false","","","revaluation","1","60","","",""
"html-keyboard-response","175","915250","0.0-4.0-2.0-1.30","spark_pilot_2","7397","6","16","Female","","","","","","","null","<div style=""font-size:60px;"">+</div>","null","fixation","","","","","","","","","","","61","","",""
"revaluation","176","921292","0.0-4.0-2.0-0.31","spark_pilot_2","7397","6","16","Female","","false","","","","","[601.1999998092651,605.8000001907349]","./assets/img/canyon/memory/9.jpg","[""ArrowDown"",""ArrowRight""]","value training","canyon","30","{""ArrowUp,ArrowLeft"":23,""ArrowUp,ArrowRight"":10,""ArrowDown,ArrowLeft"":8,""ArrowDown,ArrowRight"":30}","true","ArrowDown,ArrowRight","false","","","revaluation","1","62","","",""
"html-keyboard-response","177","921801","0.0-4.0-2.0-1.31","spark_pilot_2","7397","6","16","Female","","","","","","","null","<div style=""font-size:60px;"">+</div>","null","fixation","","","","","","","","","","","63","","",""
"revaluation","178","927815","0.0-4.0-2.0-0.32","spark_pilot_2","7397","6","16","Female","","false","","","","","[490.19999980926514,362.40000009536743]","./assets/img/canyon/memory/19.jpg","[""ArrowDown"",""ArrowRight""]","value training","canyon","30","{""ArrowUp,ArrowLeft"":23,""ArrowUp,ArrowRight"":10,""ArrowDown,ArrowLeft"":8,""ArrowDown,ArrowRight"":30}","true","ArrowDown,ArrowRight","false","","","revaluation","1","64","","",""
"html-keyboard-response","179","928318","0.0-4.0-2.0-1.32","spark_pilot_2","7397","6","16","Female","","","","","","","null","<div style=""font-size:60px;"">+</div>","null","fixation","","","","","","","","","","","65","","",""
"revaluation","180","934338","0.0-4.0-2.0-0.33","spark_pilot_2","7397","6","16","Female","","false","","","","","[547.6999998092651,476.40000009536743]","./assets/img/canyon/memory/35.jpg","[""ArrowDown"",""ArrowRight""]","value training","canyon","30","{""ArrowUp,ArrowLeft"":23,""ArrowUp,ArrowRight"":10,""ArrowDown,ArrowLeft"":8,""ArrowDown,ArrowRight"":30}","true","ArrowDown,ArrowRight","false","","","revaluation","1","66","","",""
"html-keyboard-response","181","934848","0.0-4.0-2.0-1.33","spark_pilot_2","7397","6","16","Female","","","","","","","null","<div style=""font-size:60px;"">+</div>","null","fixation","","","","","","","","","","","67","","",""
"revaluation","182","940882","0.0-4.0-2.0-0.34","spark_pilot_2","7397","6","16","Female","","false","","","","","[664.9000000953674,490.09999990463257]","./assets/img/canyon/memory/3.jpg","[""ArrowDown"",""ArrowRight""]","value training","canyon","30","{""ArrowUp,ArrowLeft"":23,""ArrowUp,ArrowRight"":10,""ArrowDown,ArrowLeft"":8,""ArrowDown,ArrowRight"":30}","true","ArrowDown,ArrowRight","false","","","revaluation","1","68","","",""
"html-keyboard-response","183","941392","0.0-4.0-2.0-1.34","spark_pilot_2","7397","6","16","Female","","","","","","","null","<div style=""font-size:60px;"">+</div>","null","fixation","","","","","","","","","","","69","","",""
"revaluation","184","947425","0.0-4.0-2.0-0.35","spark_pilot_2","7397","6","16","Female","","false","","","","","[549.0999999046326,655.4000000953674]","./assets/img/canyon/memory/41.jpg","[""ArrowDown"",""ArrowRight""]","value training","canyon","30","{""ArrowUp,ArrowLeft"":23,""ArrowUp,ArrowRight"":10,""ArrowDown,ArrowLeft"":8,""ArrowDown,ArrowRight"":30}","true","ArrowDown,ArrowRight","false","","","revaluation","1","70","","",""
"html-keyboard-response","185","947931","0.0-4.0-2.0-1.35","spark_pilot_2","7397","6","16","Female","","","","","","","null","<div style=""font-size:60px;"">+</div>","null","fixation","","","","","","","","","","","71","","",""
"revaluation","186","953958","0.0-4.0-2.0-0.36","spark_pilot_2","7397","6","16","Female","","false","","","","","[893.5999999046326,870.4000000953674]","./assets/img/canyon/memory/32.jpg","[""ArrowDown"",""ArrowRight""]","value training","canyon","30","{""ArrowUp,ArrowLeft"":23,""ArrowUp,ArrowRight"":10,""ArrowDown,ArrowLeft"":8,""ArrowDown,ArrowRight"":30}","true","ArrowDown,ArrowRight","false","","","revaluation","1","72","","",""
"html-keyboard-response","187","954469","0.0-4.0-2.0-1.36","spark_pilot_2","7397","6","16","Female","","","","","","","null","<div style=""font-size:60px;"">+</div>","null","fixation","","","","","","","","","","","73","","",""
"revaluation","188","960488","0.0-4.0-2.0-0.37","spark_pilot_2","7397","6","16","Female","","false","","","","","[653.5999999046326,675.4000000953674]","./assets/img/canyon/memory/31.jpg","[""ArrowDown"",""ArrowRight""]","value training","canyon","30","{""ArrowUp,ArrowLeft"":23,""ArrowUp,ArrowRight"":10,""ArrowDown,ArrowLeft"":8,""ArrowDown,ArrowRight"":30}","true","ArrowDown,ArrowRight","false","","","revaluation","1","74","","",""
"html-keyboard-response","189","960997","0.0-4.0-2.0-1.37","spark_pilot_2","7397","6","16","Female","","","","","","","null","<div style=""font-size:60px;"">+</div>","null","fixation","","","","","","","","","","","75","","",""
"revaluation","190","967011","0.0-4.0-2.0-0.38","spark_pilot_2","7397","6","16","Female","","false","","","","","[481.59999990463257,630.4000000953674]","./assets/img/canyon/memory/32.jpg","[""ArrowDown"",""ArrowRight""]","value training","canyon","30","{""ArrowUp,ArrowLeft"":23,""ArrowUp,ArrowRight"":10,""ArrowDown,ArrowLeft"":8,""ArrowDown,ArrowRight"":30}","true","ArrowDown,ArrowRight","false","","","revaluation","1","76","","",""
"html-keyboard-response","191","967518","0.0-4.0-2.0-1.38","spark_pilot_2","7397","6","16","Female","","","","","","","null","<div style=""font-size:60px;"">+</div>","null","fixation","","","","","","","","","","","77","","",""
"revaluation","192","971547","0.0-4.0-2.0-0.39","spark_pilot_2","7397","6","16","Female","","false","","","","","[679.7999997138977]","./assets/img/canyon/catch/3.jpg","[""spaceBar""]","value training","canyon","0","{""ArrowUp,ArrowLeft"":23,""ArrowUp,ArrowRight"":10,""ArrowDown,ArrowLeft"":8,""ArrowDown,ArrowRight"":30}","true","spaceBar","true","","","revaluation","1","78","","",""
"html-keyboard-response","193","972052","0.0-4.0-2.0-1.39","spark_pilot_2","7397","6","16","Female","","","","","","","null","<div style=""font-size:60px;"">+</div>","null","fixation","","","","","","","","","","","79","","",""
"revaluation","194","978071","0.0-4.0-2.0-0.40","spark_pilot_2","7397","6","16","Female","","false","","","","","[986.3000001907349,902.2000002861023]","./assets/img/canyon/memory/10.jpg","[""ArrowDown"",""ArrowRight""]","value training","canyon","30","{""ArrowUp,ArrowLeft"":23,""ArrowUp,ArrowRight"":10,""ArrowDown,ArrowLeft"":8,""ArrowDown,ArrowRight"":30}","true","ArrowDown,ArrowRight","false","","","revaluation","1","80","","",""
"html-keyboard-response","195","978574","0.0-4.0-2.0-1.40","spark_pilot_2","7397","6","16","Female","","","","","","","null","<div style=""font-size:60px;"">+</div>","null","fixation","","","","","","","","","","","81","","",""
"revaluation","196","984596","0.0-4.0-2.0-0.41","spark_pilot_2","7397","6","16","Female","","false","","","","","[649.0999999046326,443.90000009536743]","./assets/img/canyon/memory/26.jpg","[""ArrowDown"",""ArrowRight""]","value training","canyon","30","{""ArrowUp,ArrowLeft"":23,""ArrowUp,ArrowRight"":10,""ArrowDown,ArrowLeft"":8,""ArrowDown,ArrowRight"":30}","true","ArrowDown,ArrowRight","false","","","revaluation","1","82","","",""
"html-keyboard-response","197","985102","0.0-4.0-2.0-1.41","spark_pilot_2","7397","6","16","Female","","","","","","","null","<div style=""font-size:60px;"">+</div>","null","fixation","","","","","","","","","","","83","","",""
"revaluation","198","989117","0.0-4.0-2.0-0.42","spark_pilot_2","7397","6","16","Female","","false","","","","","[746.1999998092651]","./assets/img/canyon/catch/4.jpg","[""spaceBar""]","value training","canyon","0","{""ArrowUp,ArrowLeft"":23,""ArrowUp,ArrowRight"":10,""ArrowDown,ArrowLeft"":8,""ArrowDown,ArrowRight"":30}","true","spaceBar","true","","","revaluation","1","84","","",""
"html-keyboard-response","199","989626","0.0-4.0-2.0-1.42","spark_pilot_2","7397","6","16","Female","","","","","","","null","<div style=""font-size:60px;"">+</div>","null","fixation","","","","","","","","","","","85","","",""
"revaluation","200","995648","0.0-4.0-2.0-0.43","spark_pilot_2","7397","6","16","Female","","false","","","","","[693.3000001907349,781.0999999046326]","./assets/img/canyon/memory/20.jpg","[""ArrowDown"",""ArrowRight""]","value training","canyon","30","{""ArrowUp,ArrowLeft"":23,""ArrowUp,ArrowRight"":10,""ArrowDown,ArrowLeft"":8,""ArrowDown,ArrowRight"":30}","true","ArrowDown,ArrowRight","false","","","revaluation","1","86","","",""
"html-keyboard-response","201","996156","0.0-4.0-2.0-1.43","spark_pilot_2","7397","6","16","Female","","","","","","","null","<div style=""font-size:60px;"">+</div>","null","fixation","","","","","","","","","","","87","","",""
"revaluation","202","1002178","0.0-4.0-2.0-0.44","spark_pilot_2","7397","6","16","Female","","false","","","","","[670.6999998092651,495.80000019073486]","./assets/img/canyon/memory/20.jpg","[""ArrowDown"",""ArrowRight""]","value training","canyon","30","{""ArrowUp,ArrowLeft"":23,""ArrowUp,ArrowRight"":10,""ArrowDown,ArrowLeft"":8,""ArrowDown,ArrowRight"":30}","true","ArrowDown,ArrowRight","false","","","revaluation","1","88","","",""
"html-keyboard-response","203","1002682","0.0-4.0-2.0-1.44","spark_pilot_2","7397","6","16","Female","","","","","","","null","<div style=""font-size:60px;"">+</div>","null","fixation","","","","","","","","","","","89","","",""
"revaluation","204","1008707","0.0-4.0-2.0-0.45","spark_pilot_2","7397","6","16","Female","","false","","","","","[709.9000000953674,731.4000000953674]","./assets/img/canyon/memory/5.jpg","[""ArrowDown"",""ArrowRight""]","value training","canyon","30","{""ArrowUp,ArrowLeft"":23,""ArrowUp,ArrowRight"":10,""ArrowDown,ArrowLeft"":8,""ArrowDown,ArrowRight"":30}","true","ArrowDown,ArrowRight","false","","","revaluation","1","90","","",""
"html-keyboard-response","205","1009209","0.0-4.0-2.0-1.45","spark_pilot_2","7397","6","16","Female","","","","","","","null","<div style=""font-size:60px;"">+</div>","null","fixation","","","","","","","","","","","91","","",""
"revaluation","206","1015231","0.0-4.0-2.0-0.46","spark_pilot_2","7397","6","16","Female","","false","","","","","[680.0999999046326,573.6999998092651]","./assets/img/canyon/memory/15.jpg","[""ArrowDown"",""ArrowRight""]","value training","canyon","30","{""ArrowUp,ArrowLeft"":23,""ArrowUp,ArrowRight"":10,""ArrowDown,ArrowLeft"":8,""ArrowDown,ArrowRight"":30}","true","ArrowDown,ArrowRight","false","","","revaluation","1","92","","",""
"html-keyboard-response","207","1015736","0.0-4.0-2.0-1.46","spark_pilot_2","7397","6","16","Female","","","","","","","null","<div style=""font-size:60px;"">+</div>","null","fixation","","","","","","","","","","","93","","",""
"revaluation","208","1021754","0.0-4.0-2.0-0.47","spark_pilot_2","7397","6","16","Female","","false","","","","","[631,485.40000009536743]","./assets/img/canyon/memory/13.jpg","[""ArrowDown"",""ArrowRight""]","value training","canyon","30","{""ArrowUp,ArrowLeft"":23,""ArrowUp,ArrowRight"":10,""ArrowDown,ArrowLeft"":8,""ArrowDown,ArrowRight"":30}","true","ArrowDown,ArrowRight","false","","","revaluation","1","94","","",""
"html-keyboard-response","209","1022259","0.0-4.0-2.0-1.47","spark_pilot_2","7397","6","16","Female","","","","","","","null","<div style=""font-size:60px;"">+</div>","null","fixation","","","","","","","","","","","95","","",""
"revaluation","210","1028296","0.0-4.0-2.0-0.48","spark_pilot_2","7397","6","16","Female","","false","","","","","[570.5,476.40000009536743]","./assets/img/canyon/memory/16.jpg","[""ArrowDown"",""ArrowRight""]","value training","canyon","30","{""ArrowUp,ArrowLeft"":23,""ArrowUp,ArrowRight"":10,""ArrowDown,ArrowLeft"":8,""ArrowDown,ArrowRight"":30}","true","ArrowDown,ArrowRight","false","","","revaluation","1","96","","",""
"html-keyboard-response","211","1028799","0.0-4.0-2.0-1.48","spark_pilot_2","7397","6","16","Female","","","","","","","null","<div style=""font-size:60px;"">+</div>","null","fixation","","","","","","","","","","","97","","",""
"revaluation","212","1032810","0.0-4.0-2.0-0.49","spark_pilot_2","7397","6","16","Female","","false","","","","","[665.5999999046326]","./assets/img/canyon/catch/5.jpg","[""spaceBar""]","value training","canyon","0","{""ArrowUp,ArrowLeft"":23,""ArrowUp,ArrowRight"":10,""ArrowDown,ArrowLeft"":8,""ArrowDown,ArrowRight"":30}","true","spaceBar","true","","","revaluation","1","98","","",""
"html-keyboard-response","213","1033319","0.0-4.0-2.0-1.49","spark_pilot_2","7397","6","16","Female","","","","","","","null","<div style=""font-size:60px;"">+</div>","null","fixation","","","","","","","","","","","99","","",""
"learning-instructions","214","1047993","0.0-4.0-3.0-0.0","spark_pilot_2","7397","6","16","Female","","","","","","","1078.9000000953674","<p> Now, you will travel with a friend who will choose whether you go up or down first. </p>
            <p> On these turns, you will just see the animal that they found. You will still get to choose which chest to search for treasure.</p>","","instructions","","","","","","","","","","","","","",""
"revaluation","215","1052011","0.0-4.0-4.0-0.0","spark_pilot_2","7397","6","16","Female","","false","","","","","[935.9000000953674]","./assets/img/canyon/animals/giraffe.jpg","[""ArrowRight""]","revaluation","canyon","7","{""ArrowUp,ArrowLeft"":27,""ArrowUp,ArrowRight"":15,""ArrowDown,ArrowLeft"":21,""ArrowDown,ArrowRight"":7}","false","ArrowDown,ArrowRight","","","","revaluation","1","0","","",""
"html-keyboard-response","216","1052533","0.0-4.0-4.0-1.0","spark_pilot_2","7397","6","16","Female","","","","","","","null","<div style=""font-size:60px;"">+</div>","null","fixation","","","","","","","","","","","1","","",""
"revaluation","217","1056544","0.0-4.0-4.0-0.1","spark_pilot_2","7397","6","16","Female","","false","","","","","[898]","./assets/img/canyon/animals/lion.jpg","[""ArrowLeft""]","revaluation","canyon","27","{""ArrowUp,ArrowLeft"":27,""ArrowUp,ArrowRight"":15,""ArrowDown,ArrowLeft"":21,""ArrowDown,ArrowRight"":7}","true","ArrowUp,ArrowLeft","","","","revaluation","1","2","","",""
"html-keyboard-response","218","1057048","0.0-4.0-4.0-1.1","spark_pilot_2","7397","6","16","Female","","","","","","","null","<div style=""font-size:60px;"">+</div>","null","fixation","","","","","","","","","","","3","","",""
"revaluation","219","1061068","0.0-4.0-4.0-0.2","spark_pilot_2","7397","6","16","Female","","false","","","","","[406.69999980926514]","./assets/img/canyon/animals/giraffe.jpg","[""ArrowLeft""]","revaluation","canyon","21","{""ArrowUp,ArrowLeft"":27,""ArrowUp,ArrowRight"":15,""ArrowDown,ArrowLeft"":21,""ArrowDown,ArrowRight"":7}","true","ArrowDown,ArrowLeft","","","","revaluation","1","4","","",""
"html-keyboard-response","220","1061579","0.0-4.0-4.0-1.2","spark_pilot_2","7397","6","16","Female","","","","","","","null","<div style=""font-size:60px;"">+</div>","null","fixation","","","","","","","","","","","5","","",""
"revaluation","221","1065591","0.0-4.0-4.0-0.3","spark_pilot_2","7397","6","16","Female","","false","","","","","[749.3000001907349]","./assets/img/canyon/animals/lion.jpg","[""ArrowLeft""]","revaluation","canyon","27","{""ArrowUp,ArrowLeft"":27,""ArrowUp,ArrowRight"":15,""ArrowDown,ArrowLeft"":21,""ArrowDown,ArrowRight"":7}","true","ArrowUp,ArrowLeft","","","","revaluation","1","6","","",""
"html-keyboard-response","222","1066102","0.0-4.0-4.0-1.3","spark_pilot_2","7397","6","16","Female","","","","","","","null","<div style=""font-size:60px;"">+</div>","null","fixation","","","","","","","","","","","7","","",""
"revaluation","223","1070113","0.0-4.0-4.0-0.4","spark_pilot_2","7397","6","16","Female","","false","","","","","[392]","./assets/img/canyon/animals/giraffe.jpg","[""ArrowLeft""]","revaluation","canyon","21","{""ArrowUp,ArrowLeft"":27,""ArrowUp,ArrowRight"":15,""ArrowDown,ArrowLeft"":21,""ArrowDown,ArrowRight"":7}","true","ArrowDown,ArrowLeft","","","","revaluation","1","8","","",""
"html-keyboard-response","224","1070624","0.0-4.0-4.0-1.4","spark_pilot_2","7397","6","16","Female","","","","","","","null","<div style=""font-size:60px;"">+</div>","null","fixation","","","","","","","","","","","9","","",""
"revaluation","225","1074636","0.0-4.0-4.0-0.5","spark_pilot_2","7397","6","16","Female","","false","","","","","[545.5999999046326]","./assets/img/canyon/animals/giraffe.jpg","[""ArrowLeft""]","revaluation","canyon","21","{""ArrowUp,ArrowLeft"":27,""ArrowUp,ArrowRight"":15,""ArrowDown,ArrowLeft"":21,""ArrowDown,ArrowRight"":7}","true","ArrowDown,ArrowLeft","","","","revaluation","1","10","","",""
"html-keyboard-response","226","1075147","0.0-4.0-4.0-1.5","spark_pilot_2","7397","6","16","Female","","","","","","","null","<div style=""font-size:60px;"">+</div>","null","fixation","","","","","","","","","","","11","","",""
"revaluation","227","1079155","0.0-4.0-4.0-0.6","spark_pilot_2","7397","6","16","Female","","false","","","","","[630.4000000953674]","./assets/img/canyon/animals/lion.jpg","[""ArrowRight""]","revaluation","canyon","15","{""ArrowUp,ArrowLeft"":27,""ArrowUp,ArrowRight"":15,""ArrowDown,ArrowLeft"":21,""ArrowDown,ArrowRight"":7}","false","ArrowUp,ArrowRight","","","","revaluation","1","12","","",""
"html-keyboard-response","228","1079657","0.0-4.0-4.0-1.6","spark_pilot_2","7397","6","16","Female","","","","","","","null","<div style=""font-size:60px;"">+</div>","null","fixation","","","","","","","","","","","13","","",""
"revaluation","229","1083687","0.0-4.0-4.0-0.7","spark_pilot_2","7397","6","16","Female","","false","","","","","[308.40000009536743]","./assets/img/canyon/animals/lion.jpg","[""ArrowLeft""]","revaluation","canyon","27","{""ArrowUp,ArrowLeft"":27,""ArrowUp,ArrowRight"":15,""ArrowDown,ArrowLeft"":21,""ArrowDown,ArrowRight"":7}","true","ArrowUp,ArrowLeft","","","","revaluation","1","14","","",""
"html-keyboard-response","230","1084200","0.0-4.0-4.0-1.7","spark_pilot_2","7397","6","16","Female","","","","","","","null","<div style=""font-size:60px;"">+</div>","null","fixation","","","","","","","","","","","15","","",""
"revaluation","231","1088221","0.0-4.0-4.0-0.8","spark_pilot_2","7397","6","16","Female","","false","","","","","[447.09999990463257]","./assets/img/canyon/animals/giraffe.jpg","[""ArrowLeft""]","revaluation","canyon","21","{""ArrowUp,ArrowLeft"":27,""ArrowUp,ArrowRight"":15,""ArrowDown,ArrowLeft"":21,""ArrowDown,ArrowRight"":7}","true","ArrowDown,ArrowLeft","","","","revaluation","1","16","","",""
"html-keyboard-response","232","1088726","0.0-4.0-4.0-1.8","spark_pilot_2","7397","6","16","Female","","","","","","","null","<div style=""font-size:60px;"">+</div>","null","fixation","","","","","","","","","","","17","","",""
"revaluation","233","1092739","0.0-4.0-4.0-0.9","spark_pilot_2","7397","6","16","Female","","false","","","","","[394.2999997138977]","./assets/img/canyon/animals/lion.jpg","[""ArrowLeft""]","revaluation","canyon","27","{""ArrowUp,ArrowLeft"":27,""ArrowUp,ArrowRight"":15,""ArrowDown,ArrowLeft"":21,""ArrowDown,ArrowRight"":7}","true","ArrowUp,ArrowLeft","","","","revaluation","1","18","","",""
"html-keyboard-response","234","1093242","0.0-4.0-4.0-1.9","spark_pilot_2","7397","6","16","Female","","","","","","","null","<div style=""font-size:60px;"">+</div>","null","fixation","","","","","","","","","","","19","","",""
"revaluation","235","1097255","0.0-4.0-4.0-0.10","spark_pilot_2","7397","6","16","Female","","false","","","","","[489.19999980926514]","./assets/img/canyon/animals/giraffe.jpg","[""ArrowLeft""]","revaluation","canyon","21","{""ArrowUp,ArrowLeft"":27,""ArrowUp,ArrowRight"":15,""ArrowDown,ArrowLeft"":21,""ArrowDown,ArrowRight"":7}","true","ArrowDown,ArrowLeft","","","","revaluation","1","20","","",""
"html-keyboard-response","236","1097768","0.0-4.0-4.0-1.10","spark_pilot_2","7397","6","16","Female","","","","","","","null","<div style=""font-size:60px;"">+</div>","null","fixation","","","","","","","","","","","21","","",""
"revaluation","237","1101779","0.0-4.0-4.0-0.11","spark_pilot_2","7397","6","16","Female","","false","","","","","[438.7999997138977]","./assets/img/canyon/animals/giraffe.jpg","[""ArrowLeft""]","revaluation","canyon","21","{""ArrowUp,ArrowLeft"":27,""ArrowUp,ArrowRight"":15,""ArrowDown,ArrowLeft"":21,""ArrowDown,ArrowRight"":7}","true","ArrowDown,ArrowLeft","","","","revaluation","1","22","","",""
"html-keyboard-response","238","1102287","0.0-4.0-4.0-1.11","spark_pilot_2","7397","6","16","Female","","","","","","","null","<div style=""font-size:60px;"">+</div>","null","fixation","","","","","","","","","","","23","","",""
"revaluation","239","1106296","0.0-4.0-4.0-0.12","spark_pilot_2","7397","6","16","Female","","false","","","","","[239.89999961853027]","./assets/img/canyon/animals/giraffe.jpg","[""ArrowLeft""]","revaluation","canyon","21","{""ArrowUp,ArrowLeft"":27,""ArrowUp,ArrowRight"":15,""ArrowDown,ArrowLeft"":21,""ArrowDown,ArrowRight"":7}","true","ArrowDown,ArrowLeft","","","","revaluation","1","24","","",""
"html-keyboard-response","240","1106814","0.0-4.0-4.0-1.12","spark_pilot_2","7397","6","16","Female","","","","","","","null","<div style=""font-size:60px;"">+</div>","null","fixation","","","","","","","","","","","25","","",""
"revaluation","241","1110831","0.0-4.0-4.0-0.13","spark_pilot_2","7397","6","16","Female","","false","","","","","[455.59999990463257]","./assets/img/canyon/animals/lion.jpg","[""ArrowLeft""]","revaluation","canyon","27","{""ArrowUp,ArrowLeft"":27,""ArrowUp,ArrowRight"":15,""ArrowDown,ArrowLeft"":21,""ArrowDown,ArrowRight"":7}","true","ArrowUp,ArrowLeft","","","","revaluation","1","26","","",""
"html-keyboard-response","242","1111344","0.0-4.0-4.0-1.13","spark_pilot_2","7397","6","16","Female","","","","","","","null","<div style=""font-size:60px;"">+</div>","null","fixation","","","","","","","","","","","27","","",""
"revaluation","243","1115359","0.0-4.0-4.0-0.14","spark_pilot_2","7397","6","16","Female","","false","","","","","[559.4000000953674]","./assets/img/canyon/animals/lion.jpg","[""ArrowLeft""]","revaluation","canyon","27","{""ArrowUp,ArrowLeft"":27,""ArrowUp,ArrowRight"":15,""ArrowDown,ArrowLeft"":21,""ArrowDown,ArrowRight"":7}","true","ArrowUp,ArrowLeft","","","","revaluation","1","28","","",""
"html-keyboard-response","244","1115865","0.0-4.0-4.0-1.14","spark_pilot_2","7397","6","16","Female","","","","","","","null","<div style=""font-size:60px;"">+</div>","null","fixation","","","","","","","","","","","29","","",""
"revaluation","245","1119889","0.0-4.0-4.0-0.15","spark_pilot_2","7397","6","16","Female","","false","","","","","[267.69999980926514]","./assets/img/canyon/animals/giraffe.jpg","[""ArrowLeft""]","revaluation","canyon","21","{""ArrowUp,ArrowLeft"":27,""ArrowUp,ArrowRight"":15,""ArrowDown,ArrowLeft"":21,""ArrowDown,ArrowRight"":7}","true","ArrowDown,ArrowLeft","","","","revaluation","1","30","","",""
"html-keyboard-response","246","1120403","0.0-4.0-4.0-1.15","spark_pilot_2","7397","6","16","Female","","","","","","","null","<div style=""font-size:60px;"">+</div>","null","fixation","","","","","","","","","","","31","","",""
"revaluation","247","1124417","0.0-4.0-4.0-0.16","spark_pilot_2","7397","6","16","Female","","false","","","","","[640]","./assets/img/canyon/animals/lion.jpg","[""ArrowLeft""]","revaluation","canyon","27","{""ArrowUp,ArrowLeft"":27,""ArrowUp,ArrowRight"":15,""ArrowDown,ArrowLeft"":21,""ArrowDown,ArrowRight"":7}","true","ArrowUp,ArrowLeft","","","","revaluation","1","32","","",""
"html-keyboard-response","248","1124923","0.0-4.0-4.0-1.16","spark_pilot_2","7397","6","16","Female","","","","","","","null","<div style=""font-size:60px;"">+</div>","null","fixation","","","","","","","","","","","33","","",""
"revaluation","249","1128943","0.0-4.0-4.0-0.17","spark_pilot_2","7397","6","16","Female","","false","","","","","[377.40000009536743]","./assets/img/canyon/animals/lion.jpg","[""ArrowLeft""]","revaluation","canyon","27","{""ArrowUp,ArrowLeft"":27,""ArrowUp,ArrowRight"":15,""ArrowDown,ArrowLeft"":21,""ArrowDown,ArrowRight"":7}","true","ArrowUp,ArrowLeft","","","","revaluation","1","34","","",""
"html-keyboard-response","250","1129446","0.0-4.0-4.0-1.17","spark_pilot_2","7397","6","16","Female","","","","","","","null","<div style=""font-size:60px;"">+</div>","null","fixation","","","","","","","","","","","35","","",""
"learning-instructions","251","1144405","0.0-4.0-5.0-0.0","spark_pilot_2","7397","6","16","Female","","","","","","","1502.4000000953674","<p> Time to play the dot game! </p>
            <p> For one minute, click the red dots on the following screen as they appear. </p>
            <p><b> Don't look away, as you will earn bonus for clicking dots</b>. </p>","","instructions","","","","","","","","","","","","","",""
"revaluation","252","1204407","0.0-4.0-6.0-0.0","spark_pilot_2","7397","6","16","Female","","","","","","","[77,81,67,103,73,119]","","","rest","","60","","","","","0","60000","","","","","",""
"learning-instructions","253","1214599","0.0-4.0-7.0-0.0","spark_pilot_2","7397","6","16","Female","","","","","","","3348.0999999046326","<p> You have almost finished this part of the game! </p>
            <p> We are going to ask you to make a few more choices. </p>","","instructions","","","","","","","","","","","","","",""
"learning-instructions","254","1229524","0.0-4.0-7.0-0.1","spark_pilot_2","7397","6","16","Female","","","","","","","950.5","<p> First, you need to decide whether to go up or down. When you see each picture, use the arrow keys to make your choice. </p>
            <p><b>You will not see which animal you found, but try to get to the one that will give you the most treasure.</b></p>","","instructions","","","","","","","","","","","","","",""
"revaluation","255","1230365","0.0-4.0-8.0-0.0","spark_pilot_2","7397","6","16","Female","","false","","","","","[837.8999996185303]","./assets/img/canyon/test/0.jpg","[""ArrowUp""]","first stage test","canyon","0","{""ArrowUp,ArrowLeft"":27,""ArrowUp,ArrowRight"":15,""ArrowDown,ArrowLeft"":21,""ArrowDown,ArrowRight"":7}","true","ArrowUp","false","","","revaluation","1","","","",""
"html-keyboard-response","256","1230876","0.0-4.0-8.0-1.0","spark_pilot_2","7397","6","16","Female","","","","","","","null","<div style=""font-size:60px;"">+</div>","null","fixation","","","","","","","","","","","","","",""
"revaluation","257","1231853","0.0-4.0-8.0-0.1","spark_pilot_2","7397","6","16","Female","","false","","","","","[973.4000000953674]","./assets/img/canyon/test/1.jpg","[""ArrowUp""]","first stage test","canyon","0","{""ArrowUp,ArrowLeft"":27,""ArrowUp,ArrowRight"":15,""ArrowDown,ArrowLeft"":21,""ArrowDown,ArrowRight"":7}","true","ArrowUp","false","","","revaluation","1","","","",""
"html-keyboard-response","258","1232368","0.0-4.0-8.0-1.1","spark_pilot_2","7397","6","16","Female","","","","","","","null","<div style=""font-size:60px;"">+</div>","null","fixation","","","","","","","","","","","","","",""
"revaluation","259","1233063","0.0-4.0-8.0-0.2","spark_pilot_2","7397","6","16","Female","","false","","","","","[690.4000000953674]","./assets/img/canyon/test/3.jpg","[""ArrowDown""]","first stage test","canyon","0","{""ArrowUp,ArrowLeft"":27,""ArrowUp,ArrowRight"":15,""ArrowDown,ArrowLeft"":21,""ArrowDown,ArrowRight"":7}","false","ArrowDown","false","","","revaluation","1","","","",""
"html-keyboard-response","260","1233564","0.0-4.0-8.0-1.2","spark_pilot_2","7397","6","16","Female","","","","","","","null","<div style=""font-size:60px;"">+</div>","null","fixation","","","","","","","","","","","","","",""
"revaluation","261","1234361","0.0-4.0-8.0-0.3","spark_pilot_2","7397","6","16","Female","","false","","","","","[793.5]","./assets/img/canyon/test/2.jpg","[""ArrowDown""]","first stage test","canyon","0","{""ArrowUp,ArrowLeft"":27,""ArrowUp,ArrowRight"":15,""ArrowDown,ArrowLeft"":21,""ArrowDown,ArrowRight"":7}","false","ArrowDown","false","","","revaluation","1","","","",""
"html-keyboard-response","262","1234876","0.0-4.0-8.0-1.3","spark_pilot_2","7397","6","16","Female","","","","","","","null","<div style=""font-size:60px;"">+</div>","null","fixation","","","","","","","","","","","","","",""
"learning-instructions","263","1248767","0.0-4.0-9.0-0.0","spark_pilot_2","7397","6","16","Female","","","","","","","2540","<p> Now you will see the animals again and can search their chests for treasure. </p>
            <p> This time, you will not see how much treasure you earned, but you will earn more bonus money for making better choices. </p>","","instructions","","","","","","","","","","","","","",""
"revaluation","264","1249611","0.0-4.0-10.0-0.0","spark_pilot_2","7397","6","16","Female","","false","","","","","[841.7000002861023]","./assets/img/canyon/animals/lion.jpg","[""ArrowLeft""]","second stage test","canyon","0","{""ArrowUp,ArrowLeft"":27,""ArrowUp,ArrowRight"":15,""ArrowDown,ArrowLeft"":21,""ArrowDown,ArrowRight"":7}","true","ArrowUp,ArrowLeft","","","","revaluation","1","","","",""
"html-keyboard-response","265","1250118","0.0-4.0-10.0-1.0","spark_pilot_2","7397","6","16","Female","","","","","","","null","<div style=""font-size:60px;"">+</div>","null","fixation","","","","","","","","","","","","","",""
"revaluation","266","1250457","0.0-4.0-10.0-0.1","spark_pilot_2","7397","6","16","Female","","false","","","","","[335.19999980926514]","./assets/img/canyon/animals/lion.jpg","[""ArrowLeft""]","second stage test","canyon","0","{""ArrowUp,ArrowLeft"":27,""ArrowUp,ArrowRight"":15,""ArrowDown,ArrowLeft"":21,""ArrowDown,ArrowRight"":7}","true","ArrowUp,ArrowLeft","","","","revaluation","1","","","",""
"html-keyboard-response","267","1250961","0.0-4.0-10.0-1.1","spark_pilot_2","7397","6","16","Female","","","","","","","null","<div style=""font-size:60px;"">+</div>","null","fixation","","","","","","","","","","","","","",""
"revaluation","268","1251340","0.0-4.0-10.0-0.2","spark_pilot_2","7397","6","16","Female","","false","","","","","[375.09999990463257]","./assets/img/canyon/animals/lion.jpg","[""ArrowLeft""]","second stage test","canyon","0","{""ArrowUp,ArrowLeft"":27,""ArrowUp,ArrowRight"":15,""ArrowDown,ArrowLeft"":21,""ArrowDown,ArrowRight"":7}","true","ArrowUp,ArrowLeft","","","","revaluation","1","","","",""
"html-keyboard-response","269","1251846","0.0-4.0-10.0-1.2","spark_pilot_2","7397","6","16","Female","","","","","","","null","<div style=""font-size:60px;"">+</div>","null","fixation","","","","","","","","","","","","","",""
"revaluation","270","1252236","0.0-4.0-10.0-0.3","spark_pilot_2","7397","6","16","Female","","false","","","","","[385.7999997138977]","./assets/img/canyon/animals/lion.jpg","[""ArrowLeft""]","second stage test","canyon","0","{""ArrowUp,ArrowLeft"":27,""ArrowUp,ArrowRight"":15,""ArrowDown,ArrowLeft"":21,""ArrowDown,ArrowRight"":7}","true","ArrowUp,ArrowLeft","","","","revaluation","1","","","",""
"html-keyboard-response","271","1252742","0.0-4.0-10.0-1.3","spark_pilot_2","7397","6","16","Female","","","","","","","null","<div style=""font-size:60px;"">+</div>","null","fixation","","","","","","","","","","","","","",""
"revaluation","272","1253491","0.0-4.0-10.0-0.4","spark_pilot_2","7397","6","16","Female","","false","","","","","[745.6999998092651]","./assets/img/canyon/animals/giraffe.jpg","[""ArrowRight""]","second stage test","canyon","0","{""ArrowUp,ArrowLeft"":27,""ArrowUp,ArrowRight"":15,""ArrowDown,ArrowLeft"":21,""ArrowDown,ArrowRight"":7}","false","ArrowDown,ArrowRight","","","","revaluation","1","","","",""
"html-keyboard-response","273","1254000","0.0-4.0-10.0-1.4","spark_pilot_2","7397","6","16","Female","","","","","","","null","<div style=""font-size:60px;"">+</div>","null","fixation","","","","","","","","","","","","","",""
"revaluation","274","1254605","0.0-4.0-10.0-0.5","spark_pilot_2","7397","6","16","Female","","false","","","","","[600.1000003814697]","./assets/img/canyon/animals/giraffe.jpg","[""ArrowLeft""]","second stage test","canyon","0","{""ArrowUp,ArrowLeft"":27,""ArrowUp,ArrowRight"":15,""ArrowDown,ArrowLeft"":21,""ArrowDown,ArrowRight"":7}","true","ArrowDown,ArrowLeft","","","","revaluation","1","","","",""
"html-keyboard-response","275","1255122","0.0-4.0-10.0-1.5","spark_pilot_2","7397","6","16","Female","","","","","","","null","<div style=""font-size:60px;"">+</div>","null","fixation","","","","","","","","","","","","","",""
"revaluation","276","1255586","0.0-4.0-10.0-0.6","spark_pilot_2","7397","6","16","Female","","false","","","","","[461.19999980926514]","./assets/img/canyon/animals/giraffe.jpg","[""ArrowLeft""]","second stage test","canyon","0","{""ArrowUp,ArrowLeft"":27,""ArrowUp,ArrowRight"":15,""ArrowDown,ArrowLeft"":21,""ArrowDown,ArrowRight"":7}","true","ArrowDown,ArrowLeft","","","","revaluation","1","","","",""
"html-keyboard-response","277","1256092","0.0-4.0-10.0-1.6","spark_pilot_2","7397","6","16","Female","","","","","","","null","<div style=""font-size:60px;"">+</div>","null","fixation","","","","","","","","","","","","","",""
"revaluation","278","1256512","0.0-4.0-10.0-0.7","spark_pilot_2","7397","6","16","Female","","false","","","","","[416.80000019073486]","./assets/img/canyon/animals/giraffe.jpg","[""ArrowLeft""]","second stage test","canyon","0","{""ArrowUp,ArrowLeft"":27,""ArrowUp,ArrowRight"":15,""ArrowDown,ArrowLeft"":21,""ArrowDown,ArrowRight"":7}","true","ArrowDown,ArrowLeft","","","","revaluation","1","","","",""
"html-keyboard-response","279","1257020","0.0-4.0-10.0-1.7","spark_pilot_2","7397","6","16","Female","","","","","","","null","<div style=""font-size:60px;"">+</div>","null","fixation","","","","","","","","","","","","","",""
"learning-instructions","280","1260954","0.0-4.0-0.1-0.2","spark_pilot_2","7397","6","16","Female","","","","","","","1223.0999999046326","<p> This time you are searching for treasure in the <b>ocean</b>.</p>","","instructions","","","","","","","","","","","","","",""
"learning-instructions","281","1280841","0.0-4.0-0.1-0.3","spark_pilot_2","7397","6","16","Female","","","","","","","2634.5999999046326","<p><b>New</b> animals with <b>new</b> treasure chests live here. You need to explore to discover where the animal with the best treasure chest is.</p>
                    <p> Like before, once you figure out which animal has the chest with the most treasure, you should try to get to that animal and select that chest! </p>","","instructions","","","","","","","","","","","","","",""
"learning-instructions","282","1296131","0.0-4.0-1.1-0.1","spark_pilot_2","7397","6","16","Female","","","","","","","559.3000001907349","<p> Remember, when you see a picture of the place, use the up and down keys to <b>find an animal</b>.</p>
            <p> When you encounter an animal, you should use the left and right keys to <b>select a treasure chest</b>.</p>
            <p> Don't forget to look out for the robber! </p>","","instructions","","","","","","","","","","","","","",""
"revaluation","283","1302152","0.0-4.0-2.1-0.50","spark_pilot_2","7397","6","16","Female","","false","","","","","[997.4000000953674,699.6999998092651]","./assets/img/ocean/memory/32.jpg","[""ArrowDown"",""ArrowLeft""]","value training","ocean","5","{""ArrowUp,ArrowLeft"":26,""ArrowUp,ArrowRight"":10,""ArrowDown,ArrowLeft"":5,""ArrowDown,ArrowRight"":17}","false","ArrowDown,ArrowLeft","false","","","original","2","0","","",""
"html-keyboard-response","284","1302663","0.0-4.0-2.1-1.50","spark_pilot_2","7397","6","16","Female","","","","","","","null","<div style=""font-size:60px;"">+</div>","null","fixation","","","","","","","","","","","1","","",""
"revaluation","285","1308691","0.0-4.0-2.1-0.51","spark_pilot_2","7397","6","16","Female","","false","","","","","[581.1999998092651,390.2000002861023]","./assets/img/ocean/memory/26.jpg","[""ArrowDown"",""ArrowRight""]","value training","ocean","17","{""ArrowUp,ArrowLeft"":26,""ArrowUp,ArrowRight"":10,""ArrowDown,ArrowLeft"":5,""ArrowDown,ArrowRight"":17}","false","ArrowDown,ArrowRight","false","","","original","2","2","","",""
"html-keyboard-response","286","1309202","0.0-4.0-2.1-1.51","spark_pilot_2","7397","6","16","Female","","","","","","","null","<div style=""font-size:60px;"">+</div>","null","fixation","","","","","","","","","","","3","","",""
"revaluation","287","1315218","0.0-4.0-2.1-0.52","spark_pilot_2","7397","6","16","Female","","false","","","","","[443.09999990463257,358]","./assets/img/ocean/memory/16.jpg","[""ArrowUp"",""ArrowRight""]","value training","ocean","10","{""ArrowUp,ArrowLeft"":26,""ArrowUp,ArrowRight"":10,""ArrowDown,ArrowLeft"":5,""ArrowDown,ArrowRight"":17}","false","ArrowUp,ArrowRight","false","","","original","2","4","","",""
"html-keyboard-response","288","1315730","0.0-4.0-2.1-1.52","spark_pilot_2","7397","6","16","Female","","","","","","","null","<div style=""font-size:60px;"">+</div>","null","fixation","","","","","","","","","","","5","","",""
"revaluation","289","1321768","0.0-4.0-2.1-0.53","spark_pilot_2","7397","6","16","Female","","false","","","","","[792,458.90000009536743]","./assets/img/ocean/memory/19.jpg","[""ArrowUp"",""ArrowLeft""]","value training","ocean","26","{""ArrowUp,ArrowLeft"":26,""ArrowUp,ArrowRight"":10,""ArrowDown,ArrowLeft"":5,""ArrowDown,ArrowRight"":17}","true","ArrowUp,ArrowLeft","false","","","original","2","6","","",""
"html-keyboard-response","290","1322284","0.0-4.0-2.1-1.53","spark_pilot_2","7397","6","16","Female","","","","","","","null","<div style=""font-size:60px;"">+</div>","null","fixation","","","","","","","","","","","7","","",""
"revaluation","291","1328312","0.0-4.0-2.1-0.54","spark_pilot_2","7397","6","16","Female","","false","","","","","[586.9000000953674,400.59999990463257]","./assets/img/ocean/memory/14.jpg","[""ArrowUp"",""ArrowLeft""]","value training","ocean","26","{""ArrowUp,ArrowLeft"":26,""ArrowUp,ArrowRight"":10,""ArrowDown,ArrowLeft"":5,""ArrowDown,ArrowRight"":17}","true","ArrowUp,ArrowLeft","false","","","original","2","8","","",""
"html-keyboard-response","292","1328817","0.0-4.0-2.1-1.54","spark_pilot_2","7397","6","16","Female","","","","","","","null","<div style=""font-size:60px;"">+</div>","null","fixation","","","","","","","","","","","9","","",""
"revaluation","293","1334847","0.0-4.0-2.1-0.55","spark_pilot_2","7397","6","16","Female","","false","","","","","[573.8000001907349,372]","./assets/img/ocean/memory/25.jpg","[""ArrowUp"",""ArrowLeft""]","value training","ocean","26","{""ArrowUp,ArrowLeft"":26,""ArrowUp,ArrowRight"":10,""ArrowDown,ArrowLeft"":5,""ArrowDown,ArrowRight"":17}","true","ArrowUp,ArrowLeft","false","","","original","2","10","","",""
"html-keyboard-response","294","1335350","0.0-4.0-2.1-1.55","spark_pilot_2","7397","6","16","Female","","","","","","","null","<div style=""font-size:60px;"">+</div>","null","fixation","","","","","","","","","","","11","","",""
"revaluation","295","1341374","0.0-4.0-2.1-0.56","spark_pilot_2","7397","6","16","Female","","false","","","","","[913.5999999046326,426.7999997138977]","./assets/img/ocean/memory/20.jpg","[""ArrowUp"",""ArrowLeft""]","value training","ocean","26","{""ArrowUp,ArrowLeft"":26,""ArrowUp,ArrowRight"":10,""ArrowDown,ArrowLeft"":5,""ArrowDown,ArrowRight"":17}","true","ArrowUp,ArrowLeft","false","","","original","2","12","","",""
"html-keyboard-response","296","1341877","0.0-4.0-2.1-1.56","spark_pilot_2","7397","6","16","Female","","","","","","","null","<div style=""font-size:60px;"">+</div>","null","fixation","","","","","","","","","","","13","","",""
"revaluation","297","1347903","0.0-4.0-2.1-0.57","spark_pilot_2","7397","6","16","Female","","false","","","","","[522.5999999046326,304.09999990463257]","./assets/img/ocean/memory/7.jpg","[""ArrowUp"",""ArrowLeft""]","value training","ocean","26","{""ArrowUp,ArrowLeft"":26,""ArrowUp,ArrowRight"":10,""ArrowDown,ArrowLeft"":5,""ArrowDown,ArrowRight"":17}","true","ArrowUp,ArrowLeft","false","","","original","2","14","","",""
"html-keyboard-response","298","1348414","0.0-4.0-2.1-1.57","spark_pilot_2","7397","6","16","Female","","","","","","","null","<div style=""font-size:60px;"">+</div>","null","fixation","","","","","","","","","","","15","","",""
"revaluation","299","1354444","0.0-4.0-2.1-0.58","spark_pilot_2","7397","6","16","Female","","false","","","","","[522.5,349.7000002861023]","./assets/img/ocean/memory/31.jpg","[""ArrowUp"",""ArrowLeft""]","value training","ocean","26","{""ArrowUp,ArrowLeft"":26,""ArrowUp,ArrowRight"":10,""ArrowDown,ArrowLeft"":5,""ArrowDown,ArrowRight"":17}","true","ArrowUp,ArrowLeft","false","","","original","2","16","","",""
"html-keyboard-response","300","1354946","0.0-4.0-2.1-1.58","spark_pilot_2","7397","6","16","Female","","","","","","","null","<div style=""font-size:60px;"">+</div>","null","fixation","","","","","","","","","","","17","","",""
"revaluation","301","1360958","0.0-4.0-2.1-0.59","spark_pilot_2","7397","6","16","Female","","false","","","","","[765.6999998092651,403.40000009536743]","./assets/img/ocean/memory/14.jpg","[""ArrowUp"",""ArrowLeft""]","value training","ocean","26","{""ArrowUp,ArrowLeft"":26,""ArrowUp,ArrowRight"":10,""ArrowDown,ArrowLeft"":5,""ArrowDown,ArrowRight"":17}","true","ArrowUp,ArrowLeft","false","","","original","2","18","","",""
"html-keyboard-response","302","1361468","0.0-4.0-2.1-1.59","spark_pilot_2","7397","6","16","Female","","","","","","","null","<div style=""font-size:60px;"">+</div>","null","fixation","","","","","","","","","","","19","","",""
"revaluation","303","1367484","0.0-4.0-2.1-0.60","spark_pilot_2","7397","6","16","Female","","false","","","","","[702.7000002861023,455]","./assets/img/ocean/memory/26.jpg","[""ArrowUp"",""ArrowLeft""]","value training","ocean","26","{""ArrowUp,ArrowLeft"":26,""ArrowUp,ArrowRight"":10,""ArrowDown,ArrowLeft"":5,""ArrowDown,ArrowRight"":17}","true","ArrowUp,ArrowLeft","false","","","original","2","20","","",""
"html-keyboard-response","304","1367992","0.0-4.0-2.1-1.60","spark_pilot_2","7397","6","16","Female","","","","","","","null","<div style=""font-size:60px;"">+</div>","null","fixation","","","","","","","","","","","21","","",""
