"trial_type","trial_index","time_elapsed","internal_node_id","task_version","subject_id","assigned_condition","age","gender","success","timeout","failed_images","failed_audio","failed_video","browser_interaction","rt","stimulus","response","task_part","environment","score","rewardMap","correct","fullState","isCatch","numberMissed","duration","condition","order","trial_num","key_press","ground_truth","bonus"
"pavlovia","0","1027","0.0-0.0","spark_pilot_2","7337","6","13","Male","","","","","","","","","","","","","","","","","","","","","","","",""
"preload","1","4155","0.0-1.0","spark_pilot_2","7337","6","13","Male","true","false","[]","[]","[]","[{""event"":""fullscreenenter"",""trial"":2,""time"":15344},{""event"":""blur"",""trial"":5,""time"":44799},{""event"":""focus"",""trial"":5,""time"":44854},{""event"":""blur"",""trial"":5,""time"":45323},{""event"":""focus"",""trial"":5,""time"":45559},{""event"":""blur"",""trial"":5,""time"":45840},{""event"":""focus"",""trial"":5,""time"":45951},{""event"":""blur"",""trial"":5,""time"":48415},{""event"":""focus"",""trial"":5,""time"":48559}]","","","","","","","","","","","","","","","","","",""
"fullscreen","2","16319","0.0-2.0","spark_pilot_2","7337","6","13","Male","true","","","","","","","","","","","","","","","","","","","","","","",""
"audio-button-response","3","19013","0.0-3.0-0.0-0.0","spark_pilot_2","7337","6","13","Male","","","","","","","2200","./assets/audio/audiotest/turtle.mp3","2","audio_test","","","","","","","","","","","","","",""
"learning-instructions","4","42397","0.0-3.0-1.0-0.0","spark_pilot_2","7337","6","13","Male","","","","","","[{""event"":""fullscreenenter"",""trial"":2,""time"":15344},{""event"":""blur"",""trial"":5,""time"":44799},{""event"":""focus"",""trial"":5,""time"":44854},{""event"":""blur"",""trial"":5,""time"":45323},{""event"":""focus"",""trial"":5,""time"":45559},{""event"":""blur"",""trial"":5,""time"":45840},{""event"":""focus"",""trial"":5,""time"":45951},{""event"":""blur"",""trial"":5,""time"":48415},{""event"":""focus"",""trial"":5,""time"":48559}]","16381.199999988079","<p> Welcome! Please remember to stay in fullscreen mode and don't click away from the experiment. </p>","","instructions","","","","","","","","","","","","","",""
"learning-instructions","5","52557","0.0-3.0-1.0-0.1","spark_pilot_2","7337","6","13","Male","","","","","","","1740.2999999523163","<p> Today you will be playing a game to earn treasure. </p>
            <p> At the end of the experiment, you will earn a bonus based on how much treasure you find. </p>
            <img src='./assets/img/instructions/treasure.jpg' class='instructions-image'>","","instructions","","","","","","","","","","","","","",""
"learning-instructions","6","65853","0.0-3.0-1.0-0.2","spark_pilot_2","7337","6","13","Male","","","","","","","5026.800000011921","<p> Animals have hidden treasure in treasure chests. </p>
            <p> You need to first find an animal and then choose which of their treasure chests to search. </p>
            <img src='./assets/img/space/animals/cat.jpg' class='instructions-image'>","","instructions","","","","","","","","","","","","","",""
"learning-instructions","7","80749","0.0-3.0-1.0-0.3","spark_pilot_2","7337","6","13","Male","","","","","","","1722.699999988079","<p> In each round, you will search for treasure in a different place. In the real game, there will be two rounds. </p>
            <p> You will begin with a separate, practice round where you will search for treasure in outer space. </p>
            <img src='./assets/img/space/0.jpg' class='instructions-image'>","","instructions","","","","","","","","","","","","","",""
"learning-instructions","8","96461","0.0-3.0-1.0-0.4","spark_pilot_2","7337","6","13","Male","","","","","","","4284.599999964237","<p> On every turn, you will see a picture of the place that you are in, but the specific image may be different each time. </p>
            <p> For example, both of these images mean you are in outer space. </p>
            <img src='./assets/img/instructions/outerspace.jpg' class='instructions-image'>","","instructions","","","","","","","","","","","","","",""
"learning-instructions","9","106101","0.0-3.0-1.0-0.5","spark_pilot_2","7337","6","13","Male","","","","","","","1804.8999999761581","<p> You need to decide which direction to travel in. </p>
            <p> You can choose between going <b>up or down</b> by using the arrow keys. </p>
            <img src='./assets/img/instructions/updown.jpg' class='instructions-image'>","","instructions","","","","","","","","","","","","","",""
"learning-instructions","10","117908","0.0-3.0-1.0-0.6","spark_pilot_2","7337","6","13","Male","","","","","","","2971.5","<p> You will have <b>2 seconds</b> to make your choice. </p>
            <p> If you do not make a choice within 2 seconds, you will not find an animal or earn treasure. </p>
            <img src='./assets/img/instructions/2seconds.jpg' class='instructions-image'>","","instructions","","","","","","","","","","","","","",""
"learning-instructions","11","128260","0.0-3.0-1.0-0.7","spark_pilot_2","7337","6","13","Male","","","","","","","3115.300000011921","<p> Let’s try practicing that now! </p>
            <p> When you see a picture of the place you are in, press the <b>up</b> key to travel up. </p>
            <img src='./assets/img/instructions/pressUp.jpg' class='instructions-image'>","","instructions","","","","","","","","","","","","","",""
"revaluation","12","132292","0.0-3.0-2.0-0.0","spark_pilot_2","7337","6","13","Male","","false","","","","","[819.3000000119209]","./assets/img/space/0.jpg","[""ArrowUp""]","first stage practice","space","0","null","null","ArrowUp","false","","","","","","","",""
"html-keyboard-response","13","132796","0.0-3.0-2.0-1.0","spark_pilot_2","7337","6","13","Male","","","","","","","null","<div style=""font-size:60px;"">+</div>","null","fixation","","","","","","","","","","","","","",""
"revaluation","14","136823","0.0-3.0-2.0-0.1","spark_pilot_2","7337","6","13","Male","","false","","","","","[805.6999999880791]","./assets/img/space/1.jpg","[""ArrowUp""]","first stage practice","space","0","null","null","ArrowUp","false","","","","","","","",""
"html-keyboard-response","15","137325","0.0-3.0-2.0-1.1","spark_pilot_2","7337","6","13","Male","","","","","","","null","<div style=""font-size:60px;"">+</div>","null","fixation","","","","","","","","","","","","","",""
"revaluation","16","141330","0.0-3.0-2.0-0.2","spark_pilot_2","7337","6","13","Male","","false","","","","","[1350.5]","./assets/img/space/2.jpg","[""ArrowUp""]","first stage practice","space","0","null","null","ArrowUp","false","","","","","","","",""
"html-keyboard-response","17","141844","0.0-3.0-2.0-1.2","spark_pilot_2","7337","6","13","Male","","","","","","","null","<div style=""font-size:60px;"">+</div>","null","fixation","","","","","","","","","","","","","",""
"learning-instructions","18","148932","0.0-3.0-3.0-0.0","spark_pilot_2","7337","6","13","Male","","","","","","","2356.300000011921","<p> Great job! Now try pressing the <b>down</b> key to travel down. </p>
            <img src='./assets/img/instructions/pressDown.jpg' class='instructions-image'>","","instructions","","","","","","","","","","","","","",""
"revaluation","19","152958","0.0-3.0-4.0-0.0","spark_pilot_2","7337","6","13","Male","","false","","","","","[591.8000000119209]","./assets/img/space/3.jpg","[""ArrowDown""]","first stage practice","space","0","null","null","ArrowDown","false","","","","","","","",""
"html-keyboard-response","20","153476","0.0-3.0-4.0-1.0","spark_pilot_2","7337","6","13","Male","","","","","","","null","<div style=""font-size:60px;"">+</div>","null","fixation","","","","","","","","","","","","","",""
"revaluation","21","157499","0.0-3.0-4.0-0.1","spark_pilot_2","7337","6","13","Male","","false","","","","","[737.1999999880791]","./assets/img/space/4.jpg","[""ArrowDown""]","first stage practice","space","0","null","null","ArrowDown","false","","","","","","","",""
"html-keyboard-response","22","158011","0.0-3.0-4.0-1.1","spark_pilot_2","7337","6","13","Male","","","","","","","null","<div style=""font-size:60px;"">+</div>","null","fixation","","","","","","","","","","","","","",""
"revaluation","23","162036","0.0-3.0-4.0-0.2","spark_pilot_2","7337","6","13","Male","","false","","","","","[790]","./assets/img/space/5.jpg","[""ArrowDown""]","first stage practice","space","0","null","null","ArrowDown","false","","","","","","","",""
"html-keyboard-response","24","162543","0.0-3.0-4.0-1.2","spark_pilot_2","7337","6","13","Male","","","","","","","null","<div style=""font-size:60px;"">+</div>","null","fixation","","","","","","","","","","","","","",""
"learning-instructions","25","174252","0.0-3.0-5.0-0.0","spark_pilot_2","7337","6","13","Male","","","","","","","1836.800000011921","<p> The animals don’t move, so the animal in the upper part of a place will stay in the upper part of a place, and the animal in the lower part of a place will stay in the lower part of a place. </p>","","instructions","","","","","","","","","","","","","",""
"learning-instructions","26","186381","0.0-3.0-5.0-0.1","spark_pilot_2","7337","6","13","Male","","","","","","","2993.5","<p> Each animal has two treasure chests for you to choose from. </p>
            <p> The amount of treasure in each chest can range from <b> 0 to 40 pieces.</b></p>","","instructions","","","","","","","","","","","","","",""
"learning-instructions","27","201557","0.0-3.0-5.0-0.2","spark_pilot_2","7337","6","13","Male","","","","","","","3970.199999988079","<p> You should decide which chest to search for treasure by using the <b>left</b> and <b>right</b> arrow keys. </p>
            <p><b> Pay attention to which animal is on the screen, as the animals have different treasure chests. </b></p>
            <img src='./assets/img/instructions/leftright.jpg' class='instructions-image'>","","instructions","","","","","","","","","","","","","",""
"learning-instructions","28","209716","0.0-3.0-5.0-0.3","spark_pilot_2","7337","6","13","Male","","","","","","","1780.300000011921","<p> Let’s try practicing that now. </p>
            <p> When you see an animal, choose which chest to search for treasure. </p>
            <img src='./assets/img/instructions/chooseChest.jpg' class='instructions-image'>","","instructions","","","","","","","","","","","","","",""
"revaluation","29","213743","0.0-3.0-6.0-0.0","spark_pilot_2","7337","6","13","Male","","false","","","","","[1079.7999999523163]","./assets/img/space/animals/cat.jpg","[""ArrowLeft""]","second stage practice","space","3","{""ArrowUp,ArrowLeft"":3,""ArrowUp,ArrowRight"":36,""ArrowDown,ArrowLeft"":15,""ArrowDown,ArrowRight"":23}","false","ArrowUp,ArrowLeft","","","","","","","","",""
"html-keyboard-response","30","214260","0.0-3.0-6.0-1.0","spark_pilot_2","7337","6","13","Male","","","","","","","null","<div style=""font-size:60px;"">+</div>","null","fixation","","","","","","","","","","","","","",""
"revaluation","31","218299","0.0-3.0-6.0-0.1","spark_pilot_2","7337","6","13","Male","","false","","","","","[802.0999999642372]","./assets/img/space/animals/cat.jpg","[""ArrowLeft""]","second stage practice","space","3","{""ArrowUp,ArrowLeft"":3,""ArrowUp,ArrowRight"":36,""ArrowDown,ArrowLeft"":15,""ArrowDown,ArrowRight"":23}","false","ArrowUp,ArrowLeft","","","","","","","","",""
"html-keyboard-response","32","218809","0.0-3.0-6.0-1.1","spark_pilot_2","7337","6","13","Male","","","","","","","null","<div style=""font-size:60px;"">+</div>","null","fixation","","","","","","","","","","","","","",""
"revaluation","33","222833","0.0-3.0-6.0-0.2","spark_pilot_2","7337","6","13","Male","","false","","","","","[349.89999997615814]","./assets/img/space/animals/rabbit.jpg","[""ArrowLeft""]","second stage practice","space","15","{""ArrowUp,ArrowLeft"":3,""ArrowUp,ArrowRight"":36,""ArrowDown,ArrowLeft"":15,""ArrowDown,ArrowRight"":23}","false","ArrowDown,ArrowLeft","","","","","","","","",""
"html-keyboard-response","34","223345","0.0-3.0-6.0-1.2","spark_pilot_2","7337","6","13","Male","","","","","","","null","<div style=""font-size:60px;"">+</div>","null","fixation","","","","","","","","","","","","","",""
"revaluation","35","227365","0.0-3.0-6.0-0.3","spark_pilot_2","7337","6","13","Male","","false","","","","","[394.10000002384186]","./assets/img/space/animals/rabbit.jpg","[""ArrowLeft""]","second stage practice","space","15","{""ArrowUp,ArrowLeft"":3,""ArrowUp,ArrowRight"":36,""ArrowDown,ArrowLeft"":15,""ArrowDown,ArrowRight"":23}","false","ArrowDown,ArrowLeft","","","","","","","","",""
"html-keyboard-response","36","227880","0.0-3.0-6.0-1.3","spark_pilot_2","7337","6","13","Male","","","","","","","null","<div style=""font-size:60px;"">+</div>","null","fixation","","","","","","","","","","","","","",""
"learning-instructions","37","246253","0.0-3.0-7.0-0.0","spark_pilot_2","7337","6","13","Male","","","","","","","1516.800000011921","<p> Great job. Now let’s try putting it together. </p>
            <p> On each turn, you will first see a picture to remind you of the place you are in, and you need to choose whether to go up or down. </p>
            <p> Then you will see an animal and choose which of its chests to search for treasure. </p>","","instructions","","","","","","","","","","","","","",""
"learning-instructions","38","257437","0.0-3.0-7.0-0.1","spark_pilot_2","7337","6","13","Male","","","","","","","2910.800000011921","<p> When you choose whether to go up or down, try to go to the animal with the chest with the most treasure. </p>
            <p> Try practicing that now! </p>","","instructions","","","","","","","","","","","","","",""
"revaluation","39","263460","0.0-3.0-8.0-0.0","spark_pilot_2","7337","6","13","Male","","false","","","","","[1040,708.1999999880791]","./assets/img/space/6.jpg","[""ArrowUp"",""ArrowLeft""]","full practice","space","3","{""ArrowUp,ArrowLeft"":3,""ArrowUp,ArrowRight"":36,""ArrowDown,ArrowLeft"":15,""ArrowDown,ArrowRight"":23}","false","ArrowUp,ArrowLeft","false","","","","","","","",""
"html-keyboard-response","40","263977","0.0-3.0-8.0-1.0","spark_pilot_2","7337","6","13","Male","","","","","","","null","<div style=""font-size:60px;"">+</div>","null","fixation","","","","","","","","","","","","","",""
"revaluation","41","270015","0.0-3.0-8.0-0.1","spark_pilot_2","7337","6","13","Male","","false","","","","","[1182.5,947.1999999880791]","./assets/img/space/7.jpg","[""ArrowUp"",""ArrowLeft""]","full practice","space","3","{""ArrowUp,ArrowLeft"":3,""ArrowUp,ArrowRight"":36,""ArrowDown,ArrowLeft"":15,""ArrowDown,ArrowRight"":23}","false","ArrowUp,ArrowLeft","false","","","","","","","",""
"html-keyboard-response","42","270529","0.0-3.0-8.0-1.1","spark_pilot_2","7337","6","13","Male","","","","","","","null","<div style=""font-size:60px;"">+</div>","null","fixation","","","","","","","","","","","","","",""
"revaluation","43","276567","0.0-3.0-8.0-0.2","spark_pilot_2","7337","6","13","Male","","false","","","","","[439.60000002384186,543]","./assets/img/space/8.jpg","[""ArrowUp"",""ArrowLeft""]","full practice","space","3","{""ArrowUp,ArrowLeft"":3,""ArrowUp,ArrowRight"":36,""ArrowDown,ArrowLeft"":15,""ArrowDown,ArrowRight"":23}","false","ArrowUp,ArrowLeft","false","","","","","","","",""
"html-keyboard-response","44","277078","0.0-3.0-8.0-1.2","spark_pilot_2","7337","6","13","Male","","","","","","","null","<div style=""font-size:60px;"">+</div>","null","fixation","","","","","","","","","","","","","",""
"revaluation","45","283117","0.0-3.0-8.0-0.3","spark_pilot_2","7337","6","13","Male","","false","","","","","[1029.3999999761581,591.4000000357628]","./assets/img/space/9.jpg","[""ArrowUp"",""ArrowLeft""]","full practice","space","3","{""ArrowUp,ArrowLeft"":3,""ArrowUp,ArrowRight"":36,""ArrowDown,ArrowLeft"":15,""ArrowDown,ArrowRight"":23}","false","ArrowUp,ArrowLeft","false","","","","","","","",""
"html-keyboard-response","46","283628","0.0-3.0-8.0-1.3","spark_pilot_2","7337","6","13","Male","","","","","","","null","<div style=""font-size:60px;"">+</div>","null","fixation","","","","","","","","","","","","","",""
"revaluation","47","289638","0.0-3.0-8.0-0.4","spark_pilot_2","7337","6","13","Male","","false","","","","","[581.4000000357628,667.3999999761581]","./assets/img/space/10.jpg","[""ArrowUp"",""ArrowRight""]","full practice","space","36","{""ArrowUp,ArrowLeft"":3,""ArrowUp,ArrowRight"":36,""ArrowDown,ArrowLeft"":15,""ArrowDown,ArrowRight"":23}","true","ArrowUp,ArrowRight","false","","","","","","","",""
"html-keyboard-response","48","290139","0.0-3.0-8.0-1.4","spark_pilot_2","7337","6","13","Male","","","","","","","null","<div style=""font-size:60px;"">+</div>","null","fixation","","","","","","","","","","","","","",""
"learning-instructions","49","303453","0.0-3.0-9.0-0.0","spark_pilot_2","7337","6","13","Male","","","","","","","2688.400000035763","<p> One last thing: sometimes, you will see a robber. The robber can be anywhere in the picture. </p>
            <p> If you do not stop them, you will lose treasure. </p>
            <img src='./assets/img/instructions/robber.jpg' class='instructions-image'>","","instructions","","","","","","","","","","","","","",""
"learning-instructions","50","311509","0.0-3.0-9.0-0.1","spark_pilot_2","7337","6","13","Male","","","","","","","885","<p> If you see the robber, you should <b>press the space bar</b> rather than using the arrow keys. </p>
            <p> Try practicing that now! </p>","","instructions","","","","","","","","","","","","","",""
"revaluation","51","315533","0.0-3.0-10.0-0.0","spark_pilot_2","7337","6","13","Male","","false","","","","","[871.3999999761581]","./assets/img/space/catch/0.jpg","[""spaceBar""]","catch practice","space","0","{""ArrowUp,ArrowLeft"":3,""ArrowUp,ArrowRight"":36,""ArrowDown,ArrowLeft"":15,""ArrowDown,ArrowRight"":23}","true","spaceBar","true","","","","","","","",""
"html-keyboard-response","52","316043","0.0-3.0-10.0-1.0","spark_pilot_2","7337","6","13","Male","","","","","","","null","<div style=""font-size:60px;"">+</div>","null","fixation","","","","","","","","","","","","","",""
"revaluation","53","320065","0.0-3.0-10.0-0.1","spark_pilot_2","7337","6","13","Male","","false","","","","","[831.0999999642372]","./assets/img/space/catch/1.jpg","[""spaceBar""]","catch practice","space","0","{""ArrowUp,ArrowLeft"":3,""ArrowUp,ArrowRight"":36,""ArrowDown,ArrowLeft"":15,""ArrowDown,ArrowRight"":23}","true","spaceBar","true","","","","","","","",""
"html-keyboard-response","54","320578","0.0-3.0-10.0-1.1","spark_pilot_2","7337","6","13","Male","","","","","","","null","<div style=""font-size:60px;"">+</div>","null","fixation","","","","","","","","","","","","","",""
"revaluation","55","324590","0.0-3.0-10.0-0.2","spark_pilot_2","7337","6","13","Male","","false","","","","","[655.8999999761581]","./assets/img/space/catch/2.jpg","[""spaceBar""]","catch practice","space","0","{""ArrowUp,ArrowLeft"":3,""ArrowUp,ArrowRight"":36,""ArrowDown,ArrowLeft"":15,""ArrowDown,ArrowRight"":23}","true","spaceBar","true","","","","","","","",""
"html-keyboard-response","56","325093","0.0-3.0-10.0-1.2","spark_pilot_2","7337","6","13","Male","","","","","","","null","<div style=""font-size:60px;"">+</div>","null","fixation","","","","","","","","","","","","","",""
"learning-instructions","57","340309","0.0-3.0-11.0-0.0","spark_pilot_2","7337","6","13","Male","","","","","","","1564.800000011921","<p> After you explore a place to find treasure, it will be time to play a different game. </p>
            <p> During this game, red dots will appear on the screen and fall down slowly. </p>
            <p><b> You must click on them before they reach the bottom. </b></p>
            <img src='./assets/img/instructions/dotGame.jpg' class='instructions-image'>","","instructions","","","","","","","","","","","","","",""
"learning-instructions","58","347084","0.0-3.0-11.0-0.1","spark_pilot_2","7337","6","13","Male","","","","","","","1100.699999988079","<p> For every dot you click, you will earn additional treasure. </p>
            <p> Let’s try practicing that now. </p>","","instructions","","","","","","","","","","","","","",""
"revaluation","59","362091","0.0-3.0-12.0-0.0","spark_pilot_2","7337","6","13","Male","","","","","","","[124]","","","rest practice","","10","","","","","0","15000","","","","","",""
"learning-instructions","60","368933","0.0-3.0-13.0-0.0-0.0","spark_pilot_2","7337","6","13","Male","","","","","","","1559.199999988079","<p> Now, you will practice a shortened version of the game to get a sense of how it all fits together. </p>","","instructions","","","","","","","","","","","","","",""
"learning-instructions","61","372997","0.0-3.0-13.0-0.0-0.1","spark_pilot_2","7337","6","13","Male","","","","","","","873.6000000238419","<p>This time you are searching for treasure in outer space.</p>","","instructions","","","","","","","","","","","","","",""
"learning-instructions","62","391077","0.0-3.0-13.0-1.0-0.0","spark_pilot_2","7337","6","13","Male","","","","","","","3303","<p> Remember, when you see a picture of the place, use the up and down keys to <b>find an animal</b>.</p>
            <p> When you encounter an animal, you should use the left and right keys to <b>select a treasure chest</b>.</p>
            <p> Don't forget to look out for the robber! </p>","","instructions","","","","","","","","","","","","","",""
"revaluation","63","397099","0.0-3.0-13.0-2.0-0.0","spark_pilot_2","7337","6","13","Male","","false","","","","","[1111.5,781.3999999761581]","./assets/img/space/11.jpg","[""ArrowUp"",""ArrowLeft""]","practice block","space","3","{""ArrowUp,ArrowLeft"":3,""ArrowUp,ArrowRight"":36,""ArrowDown,ArrowLeft"":15,""ArrowDown,ArrowRight"":23}","false","ArrowUp,ArrowLeft","false","","","","","","","",""
"html-keyboard-response","64","397613","0.0-3.0-13.0-2.0-1.0","spark_pilot_2","7337","6","13","Male","","","","","","","null","<div style=""font-size:60px;"">+</div>","null","fixation","","","","","","","","","","","","","",""
"revaluation","65","403635","0.0-3.0-13.0-2.0-0.1","spark_pilot_2","7337","6","13","Male","","false","","","","","[603.0999999642372,537.1000000238419]","./assets/img/space/12.jpg","[""ArrowUp"",""ArrowRight""]","practice block","space","36","{""ArrowUp,ArrowLeft"":3,""ArrowUp,ArrowRight"":36,""ArrowDown,ArrowLeft"":15,""ArrowDown,ArrowRight"":23}","true","ArrowUp,ArrowRight","false","","","","","","","",""
"html-keyboard-response","66","404145","0.0-3.0-13.0-2.0-1.1","spark_pilot_2","7337","6","13","Male","","","","","","","null","<div style=""font-size:60px;"">+</div>","null","fixation","","","","","","","","","","","","","",""
"revaluation","67","410176","0.0-3.0-13.0-2.0-0.2","spark_pilot_2","7337","6","13","Male","","false","","","","","[664.1000000238419,540.5]","./assets/img/space/13.jpg","[""ArrowUp"",""ArrowRight""]","practice block","space","36","{""ArrowUp,ArrowLeft"":3,""ArrowUp,ArrowRight"":36,""ArrowDown,ArrowLeft"":15,""ArrowDown,ArrowRight"":23}","true","ArrowUp,ArrowRight","false","","","","","","","",""
"html-keyboard-response","68","410678","0.0-3.0-13.0-2.0-1.2","spark_pilot_2","7337","6","13","Male","","","","","","","null","<div style=""font-size:60px;"">+</div>","null","fixation","","","","","","","","","","","","","",""
"revaluation","69","416694","0.0-3.0-13.0-2.0-0.3","spark_pilot_2","7337","6","13","Male","","false","","","","","[548,507.19999998807907]","./assets/img/space/14.jpg","[""ArrowUp"",""ArrowRight""]","practice block","space","36","{""ArrowUp,ArrowLeft"":3,""ArrowUp,ArrowRight"":36,""ArrowDown,ArrowLeft"":15,""ArrowDown,ArrowRight"":23}","true","ArrowUp,ArrowRight","false","","","","","","","",""
"html-keyboard-response","70","417209","0.0-3.0-13.0-2.0-1.3","spark_pilot_2","7337","6","13","Male","","","","","","","null","<div style=""font-size:60px;"">+</div>","null","fixation","","","","","","","","","","","","","",""
"revaluation","71","423217","0.0-3.0-13.0-2.0-0.4","spark_pilot_2","7337","6","13","Male","","false","","","","","[561.8000000119209,1176.7999999523163]","./assets/img/space/11.jpg","[""ArrowUp"",""ArrowRight""]","practice block","space","36","{""ArrowUp,ArrowLeft"":3,""ArrowUp,ArrowRight"":36,""ArrowDown,ArrowLeft"":15,""ArrowDown,ArrowRight"":23}","true","ArrowUp,ArrowRight","false","","","","","","","",""
"html-keyboard-response","72","423718","0.0-3.0-13.0-2.0-1.4","spark_pilot_2","7337","6","13","Male","","","","","","","null","<div style=""font-size:60px;"">+</div>","null","fixation","","","","","","","","","","","","","",""
"revaluation","73","429727","0.0-3.0-13.0-2.0-0.5","spark_pilot_2","7337","6","13","Male","","false","","","","","[1397.0999999642372,601.1999999880791]","./assets/img/space/12.jpg","[""ArrowUp"",""ArrowRight""]","practice block","space","36","{""ArrowUp,ArrowLeft"":3,""ArrowUp,ArrowRight"":36,""ArrowDown,ArrowLeft"":15,""ArrowDown,ArrowRight"":23}","true","ArrowUp,ArrowRight","false","","","","","","","",""
"html-keyboard-response","74","430228","0.0-3.0-13.0-2.0-1.5","spark_pilot_2","7337","6","13","Male","","","","","","","null","<div style=""font-size:60px;"">+</div>","null","fixation","","","","","","","","","","","","","",""
"revaluation","75","436232","0.0-3.0-13.0-2.0-0.6","spark_pilot_2","7337","6","13","Male","","false","","","","","[1103.5999999642372,599.3000000119209]","./assets/img/space/13.jpg","[""ArrowUp"",""ArrowRight""]","practice block","space","36","{""ArrowUp,ArrowLeft"":3,""ArrowUp,ArrowRight"":36,""ArrowDown,ArrowLeft"":15,""ArrowDown,ArrowRight"":23}","true","ArrowUp,ArrowRight","false","","","","","","","",""
"html-keyboard-response","76","436735","0.0-3.0-13.0-2.0-1.6","spark_pilot_2","7337","6","13","Male","","","","","","","null","<div style=""font-size:60px;"">+</div>","null","fixation","","","","","","","","","","","","","",""
"revaluation","77","442743","0.0-3.0-13.0-2.0-0.7","spark_pilot_2","7337","6","13","Male","","false","","","","","[1029,344.9000000357628]","./assets/img/space/14.jpg","[""ArrowUp"",""ArrowRight""]","practice block","space","36","{""ArrowUp,ArrowLeft"":3,""ArrowUp,ArrowRight"":36,""ArrowDown,ArrowLeft"":15,""ArrowDown,ArrowRight"":23}","true","ArrowUp,ArrowRight","false","","","","","","","",""
"html-keyboard-response","78","443245","0.0-3.0-13.0-2.0-1.7","spark_pilot_2","7337","6","13","Male","","","","","","","null","<div style=""font-size:60px;"">+</div>","null","fixation","","","","","","","","","","","","","",""
"revaluation","79","447252","0.0-3.0-13.0-2.0-0.8","spark_pilot_2","7337","6","13","Male","","false","","","","","[987.4000000357628]","./assets/img/space/catch/3.jpg","[""spaceBar""]","practice block","space","0","{""ArrowUp,ArrowLeft"":3,""ArrowUp,ArrowRight"":36,""ArrowDown,ArrowLeft"":15,""ArrowDown,ArrowRight"":23}","true","spaceBar","true","","","","","","","",""
"html-keyboard-response","80","447754","0.0-3.0-13.0-2.0-1.8","spark_pilot_2","7337","6","13","Male","","","","","","","null","<div style=""font-size:60px;"">+</div>","null","fixation","","","","","","","","","","","","","",""
"learning-instructions","81","462517","0.0-3.0-13.0-3.0-0.0","spark_pilot_2","7337","6","13","Male","","","","","","","1605","<p> Now, you will travel with a friend who will choose whether you go up or down first. </p>
            <p> On these turns, you will just see the animal that they found. You will still get to choose which chest to search for treasure.</p>","","instructions","","","","","","","","","","","","","",""
"revaluation","82","466534","0.0-3.0-13.0-4.0-0.0","spark_pilot_2","7337","6","13","Male","","false","","","","","[984]","./assets/img/space/animals/cat.jpg","[""ArrowRight""]","practice block","space","36","{""ArrowUp,ArrowLeft"":3,""ArrowUp,ArrowRight"":36,""ArrowDown,ArrowLeft"":15,""ArrowDown,ArrowRight"":23}","true","ArrowUp,ArrowRight","","","","","","","","",""
"html-keyboard-response","83","467047","0.0-3.0-13.0-4.0-1.0","spark_pilot_2","7337","6","13","Male","","","","","","","null","<div style=""font-size:60px;"">+</div>","null","fixation","","","","","","","","","","","","","",""
"revaluation","84","471063","0.0-3.0-13.0-4.0-0.1","spark_pilot_2","7337","6","13","Male","","false","","","","","[483.7000000476837]","./assets/img/space/animals/cat.jpg","[""ArrowRight""]","practice block","space","36","{""ArrowUp,ArrowLeft"":3,""ArrowUp,ArrowRight"":36,""ArrowDown,ArrowLeft"":15,""ArrowDown,ArrowRight"":23}","true","ArrowUp,ArrowRight","","","","","","","","",""
"html-keyboard-response","85","471579","0.0-3.0-13.0-4.0-1.1","spark_pilot_2","7337","6","13","Male","","","","","","","null","<div style=""font-size:60px;"">+</div>","null","fixation","","","","","","","","","","","","","",""
"revaluation","86","475602","0.0-3.0-13.0-4.0-0.2","spark_pilot_2","7337","6","13","Male","","false","","","","","[349.69999998807907]","./assets/img/space/animals/rabbit.jpg","[""ArrowRight""]","practice block","space","23","{""ArrowUp,ArrowLeft"":3,""ArrowUp,ArrowRight"":36,""ArrowDown,ArrowLeft"":15,""ArrowDown,ArrowRight"":23}","true","ArrowDown,ArrowRight","","","","","","","","",""
"html-keyboard-response","87","476111","0.0-3.0-13.0-4.0-1.2","spark_pilot_2","7337","6","13","Male","","","","","","","null","<div style=""font-size:60px;"">+</div>","null","fixation","","","","","","","","","","","","","",""
"revaluation","88","480132","0.0-3.0-13.0-4.0-0.3","spark_pilot_2","7337","6","13","Male","","false","","","","","[708.3999999761581]","./assets/img/space/animals/rabbit.jpg","[""ArrowRight""]","practice block","space","23","{""ArrowUp,ArrowLeft"":3,""ArrowUp,ArrowRight"":36,""ArrowDown,ArrowLeft"":15,""ArrowDown,ArrowRight"":23}","true","ArrowDown,ArrowRight","","","","","","","","",""
"html-keyboard-response","89","480647","0.0-3.0-13.0-4.0-1.3","spark_pilot_2","7337","6","13","Male","","","","","","","null","<div style=""font-size:60px;"">+</div>","null","fixation","","","","","","","","","","","","","",""
"learning-instructions","90","489421","0.0-3.0-13.0-5.0-0.0","spark_pilot_2","7337","6","13","Male","","","","","","","1369.3999999761581","<p> Time to play the dot game! </p>
            <p> For 15 seconds, click the red dots on the following screen as they appear. </p>","","instructions","","","","","","","","","","","","","",""
"revaluation","91","504422","0.0-3.0-13.0-6.0-0.0","spark_pilot_2","7337","6","13","Male","","","","","","","[124]","","","rest practice","","10","","","","","0","15000","","","","","",""
"learning-instructions","92","512397","0.0-3.0-13.0-7.0-0.0","spark_pilot_2","7337","6","13","Male","","","","","","","1825.0999999642372","<p> You have almost finished this part of the game! </p>
            <p> We are going to ask you to make a few more choices. </p>","","instructions","","","","","","","","","","","","","",""
"learning-instructions","93","532452","0.0-3.0-13.0-7.0-0.1","spark_pilot_2","7337","6","13","Male","","","","","","","6040.299999952316","<p> First, you need to decide whether to go up or down. When you see each picture, use the arrow keys to make your choice. </p>
            <p><b>You will not see which animal you found, but try to get to the one that will give you the most treasure.</b></p>","","instructions","","","","","","","","","","","","","",""
"revaluation","94","533855","0.0-3.0-13.0-8.0","spark_pilot_2","7337","6","13","Male","","false","","","","","[1400.199999988079]","./assets/img/space/15.jpg","[""ArrowUp""]","practice block","space","0","{""ArrowUp,ArrowLeft"":3,""ArrowUp,ArrowRight"":36,""ArrowDown,ArrowLeft"":15,""ArrowDown,ArrowRight"":23}","true","ArrowUp","false","","","","","","","",""
"html-keyboard-response","95","534361","0.0-3.0-13.0-9.0","spark_pilot_2","7337","6","13","Male","","","","","","","null","<div style=""font-size:60px;"">+</div>","null","fixation","","","","","","","","","","","","","",""
"learning-instructions","96","548277","0.0-3.0-13.0-10.0-0.0","spark_pilot_2","7337","6","13","Male","","","","","","","2505","<p> Now you will see the animals again and can search their chests for treasure. </p>
            <p> This time, you will not see how much treasure you earned, but you will earn more bonus money for making better choices. </p>","","instructions","","","","","","","","","","","","","",""
"revaluation","97","549238","0.0-3.0-13.0-11.0-0.0","spark_pilot_2","7337","6","13","Male","","false","","","","","[959.0999999642372]","./assets/img/space/animals/cat.jpg","[""ArrowRight""]","practice block","space","0","{""ArrowUp,ArrowLeft"":3,""ArrowUp,ArrowRight"":36,""ArrowDown,ArrowLeft"":15,""ArrowDown,ArrowRight"":23}","true","ArrowUp,ArrowRight","","","","","","","","",""
"html-keyboard-response","98","549745","0.0-3.0-13.0-11.0-1.0","spark_pilot_2","7337","6","13","Male","","","","","","","null","<div style=""font-size:60px;"">+</div>","null","fixation","","","","","","","","","","","","","",""
"revaluation","99","550758","0.0-3.0-13.0-11.0-0.1","spark_pilot_2","7337","6","13","Male","","false","","","","","[1007.1999999880791]","./assets/img/space/animals/rabbit.jpg","[""ArrowRight""]","practice block","space","0","{""ArrowUp,ArrowLeft"":3,""ArrowUp,ArrowRight"":36,""ArrowDown,ArrowLeft"":15,""ArrowDown,ArrowRight"":23}","true","ArrowDown,ArrowRight","","","","","","","","",""
"html-keyboard-response","100","551262","0.0-3.0-13.0-11.0-1.1","spark_pilot_2","7337","6","13","Male","","","","","","","null","<div style=""font-size:60px;"">+</div>","null","fixation","","","","","","","","","","","","","",""
"learning-instructions","101","557413","0.0-3.0-14.0-0.0","spark_pilot_2","7337","6","13","Male","","","","","","","1550.699999988079","<p> Before you start, we're going to ask you a few questions about how the game works. </p>","","instructions","","","","","","","","","","","","","",""
"comp-q","102","564325","0.0-3.0-15.0-0.0-0.0","spark_pilot_2","7337","6","13","Male","","","","","","","1317.699999988079","<p> <b> True or False? </b> </p>
            <p> There can be 50 pieces of treasure in a given animal's chest. </p>","1","comp_question","","","","true","","","","","","","","","",""
"comp-q","103","572173","0.0-3.0-15.0-0.0-1.0","spark_pilot_2","7337","6","13","Male","","","","","","","1190.6000000238419","<p> <b> That's right! </b> The amount of treasure in each chest can range from 0 to 40 pieces. </p>","0","comp_answer","","","","","","","","","","","","","",""
"comp-q","104","580205","0.0-3.0-15.0-0.1-0.1","spark_pilot_2","7337","6","13","Male","","","","","","","912.5","<p> <b> True or False? </b> </p><p> In this game, all animals have the same amount of treasure in their left and right chests. </p>","1","comp_question","","","","true","","","","","","","","","",""
"comp-q","105","588382","0.0-3.0-15.0-0.1-1.1","spark_pilot_2","7337","6","13","Male","","","","","","","2939.5","<p> <b> That's right! </b> Animals have different amounts of treasure in their treasure chests. </p>","0","comp_answer","","","","","","","","","","","","","",""
"comp-q","106","595262","0.0-3.0-15.0-0.2-0.2","spark_pilot_2","7337","6","13","Male","","","","","","","1019.6000000238419","<p> <b> True or False? </b> </p><p> The same animal will always be there if you go up in the same place. </p>","0","comp_question","","","","true","","","","","","","","","",""
"comp-q","107","603357","0.0-3.0-15.0-0.2-1.2","spark_pilot_2","7337","6","13","Male","","","","","","","1635.0999999642372","<p> <b> That's right! </b> One animal lives in the upper part and one lives in the lower part of every place. </p>","0","comp_answer","","","","","","","","","","","","","",""
"comp-q","108","610421","0.0-3.0-15.0-0.3-0.3","spark_pilot_2","7337","6","13","Male","","","","","","","1528.5","<p> <b> True or False? </b> </p><p> If you see a different picture, it means you are in a new place. </p>","1","comp_question","","","","true","","","","","","","","","",""
"comp-q","109","628989","0.0-3.0-15.0-0.3-1.3","spark_pilot_2","7337","6","13","Male","","","","","","","7327","<p> <b> That's right! </b> Lots of different images may show the same place. For example,  you may see three different images that all remind you that you are in outer space. </p>","0","comp_answer","","","","","","","","","","","","","",""
"learning-instructions","110","642605","0.0-3.0-16.0-0.0","spark_pilot_2","7337","6","13","Male","","","","","","","3752.899999976158","<p> Good job. Remember to do your best because the amount of treasure you earn will be converted into bonus money. </p>
            <p> It’s time to start the real game! </p>","","instructions","","","","","","","","","","","","","",""
"learning-instructions","111","647612","0.0-4.0-0.0-0.0","spark_pilot_2","7337","6","13","Male","","","","","","","2231","<p> This time you are searching for treasure in the <b>canyon</b>.</p>","","instructions","","","","","","","","","","","","","",""
"learning-instructions","112","666965","0.0-4.0-0.0-0.1","spark_pilot_2","7337","6","13","Male","","","","","","","2042.8999999761581","<p><b>New</b> animals with <b>new</b> treasure chests live here. You need to explore to discover where the animal with the best treasure chest is.</p>
                    <p> Like before, once you figure out which animal has the chest with the most treasure, you should try to get to that animal and select that chest! </p>","","instructions","","","","","","","","","","","","","",""
"learning-instructions","113","683333","0.0-4.0-1.0-0.0","spark_pilot_2","7337","6","13","Male","","","","","","","1641.5","<p> Remember, when you see a picture of the place, use the up and down keys to <b>find an animal</b>.</p>
            <p> When you encounter an animal, you should use the left and right keys to <b>select a treasure chest</b>.</p>
            <p> Don't forget to look out for the robber! </p>","","instructions","","","","","","","","","","","","","",""
"revaluation","114","687351","0.0-4.0-2.0-0.0","spark_pilot_2","7337","6","13","Male","","false","","","","","[1127.5999999642372]","./assets/img/canyon/catch/4.jpg","[""ArrowUp""]","value training","canyon","-10","{""ArrowUp,ArrowLeft"":23,""ArrowUp,ArrowRight"":10,""ArrowDown,ArrowLeft"":8,""ArrowDown,ArrowRight"":30}","false","ArrowUp","true","","","revaluation","1","0","","",""
"html-keyboard-response","115","687863","0.0-4.0-2.0-1.0","spark_pilot_2","7337","6","13","Male","","","","","","","null","<div style=""font-size:60px;"">+</div>","null","fixation","","","","","","","","","","","1","","",""
"revaluation","116","693903","0.0-4.0-2.0-0.1","spark_pilot_2","7337","6","13","Male","","false","","","","","[766.2999999523163,621.1000000238419]","./assets/img/canyon/memory/28.jpg","[""ArrowUp"",""ArrowRight""]","value training","canyon","10","{""ArrowUp,ArrowLeft"":23,""ArrowUp,ArrowRight"":10,""ArrowDown,ArrowLeft"":8,""ArrowDown,ArrowRight"":30}","false","ArrowUp,ArrowRight","false","","","revaluation","1","2","","",""
"html-keyboard-response","117","694413","0.0-4.0-2.0-1.1","spark_pilot_2","7337","6","13","Male","","","","","","","null","<div style=""font-size:60px;"">+</div>","null","fixation","","","","","","","","","","","3","","",""
"revaluation","118","700432","0.0-4.0-2.0-0.2","spark_pilot_2","7337","6","13","Male","","false","","","","","[524.6999999880791,627]","./assets/img/canyon/memory/21.jpg","[""ArrowUp"",""ArrowLeft""]","value training","canyon","23","{""ArrowUp,ArrowLeft"":23,""ArrowUp,ArrowRight"":10,""ArrowDown,ArrowLeft"":8,""ArrowDown,ArrowRight"":30}","false","ArrowUp,ArrowLeft","false","","","revaluation","1","4","","",""
"html-keyboard-response","119","700942","0.0-4.0-2.0-1.2","spark_pilot_2","7337","6","13","Male","","","","","","","null","<div style=""font-size:60px;"">+</div>","null","fixation","","","","","","","","","","","5","","",""
"revaluation","120","706983","0.0-4.0-2.0-0.3","spark_pilot_2","7337","6","13","Male","","false","","","","","[404.89999997615814,436.10000002384186]","./assets/img/canyon/memory/33.jpg","[""ArrowDown"",""ArrowRight""]","value training","canyon","30","{""ArrowUp,ArrowLeft"":23,""ArrowUp,ArrowRight"":10,""ArrowDown,ArrowLeft"":8,""ArrowDown,ArrowRight"":30}","true","ArrowDown,ArrowRight","false","","","revaluation","1","6","","",""
"html-keyboard-response","121","707496","0.0-4.0-2.0-1.3","spark_pilot_2","7337","6","13","Male","","","","","","","null","<div style=""font-size:60px;"">+</div>","null","fixation","","","","","","","","","","","7","","",""
"revaluation","122","713526","0.0-4.0-2.0-0.4","spark_pilot_2","7337","6","13","Male","","false","","","","","[665.3000000119209,605.8999999761581]","./assets/img/canyon/memory/34.jpg","[""ArrowDown"",""ArrowRight""]","value training","canyon","30","{""ArrowUp,ArrowLeft"":23,""ArrowUp,ArrowRight"":10,""ArrowDown,ArrowLeft"":8,""ArrowDown,ArrowRight"":30}","true","ArrowDown,ArrowRight","false","","","revaluation","1","8","","",""
"html-keyboard-response","123","714027","0.0-4.0-2.0-1.4","spark_pilot_2","7337","6","13","Male","","","","","","","null","<div style=""font-size:60px;"">+</div>","null","fixation","","","","","","","","","","","9","","",""
"revaluation","124","720037","0.0-4.0-2.0-0.5","spark_pilot_2","7337","6","13","Male","","false","","","","","[511,458.60000002384186]","./assets/img/canyon/memory/1.jpg","[""ArrowDown"",""ArrowRight""]","value training","canyon","30","{""ArrowUp,ArrowLeft"":23,""ArrowUp,ArrowRight"":10,""ArrowDown,ArrowLeft"":8,""ArrowDown,ArrowRight"":30}","true","ArrowDown,ArrowRight","false","","","revaluation","1","10","","",""
"html-keyboard-response","125","720539","0.0-4.0-2.0-1.5","spark_pilot_2","7337","6","13","Male","","","","","","","null","<div style=""font-size:60px;"">+</div>","null","fixation","","","","","","","","","","","11","","",""
"revaluation","126","726547","0.0-4.0-2.0-0.6","spark_pilot_2","7337","6","13","Male","","false","","","","","[565.2000000476837,388.19999998807907]","./assets/img/canyon/memory/39.jpg","[""ArrowDown"",""ArrowLeft""]","value training","canyon","8","{""ArrowUp,ArrowLeft"":23,""ArrowUp,ArrowRight"":10,""ArrowDown,ArrowLeft"":8,""ArrowDown,ArrowRight"":30}","false","ArrowDown,ArrowLeft","false","","","revaluation","1","12","","",""
"html-keyboard-response","127","727048","0.0-4.0-2.0-1.6","spark_pilot_2","7337","6","13","Male","","","","","","","null","<div style=""font-size:60px;"">+</div>","null","fixation","","","","","","","","","","","13","","",""
"revaluation","128","733057","0.0-4.0-2.0-0.7","spark_pilot_2","7337","6","13","Male","","false","","","","","[816.3000000119209,199.5]","./assets/img/canyon/memory/0.jpg","[""ArrowDown"",""ArrowRight""]","value training","canyon","30","{""ArrowUp,ArrowLeft"":23,""ArrowUp,ArrowRight"":10,""ArrowDown,ArrowLeft"":8,""ArrowDown,ArrowRight"":30}","true","ArrowDown,ArrowRight","false","","","revaluation","1","14","","",""
"html-keyboard-response","129","733558","0.0-4.0-2.0-1.7","spark_pilot_2","7337","6","13","Male","","","","","","","null","<div style=""font-size:60px;"">+</div>","null","fixation","","","","","","","","","","","15","","",""
"revaluation","130","737565","0.0-4.0-2.0-0.8","spark_pilot_2","7337","6","13","Male","","false","","","","","[778.3999999761581]","./assets/img/canyon/catch/0.jpg","[""spaceBar""]","value training","canyon","0","{""ArrowUp,ArrowLeft"":23,""ArrowUp,ArrowRight"":10,""ArrowDown,ArrowLeft"":8,""ArrowDown,ArrowRight"":30}","true","spaceBar","true","","","revaluation","1","16","","",""
"html-keyboard-response","131","738068","0.0-4.0-2.0-1.8","spark_pilot_2","7337","6","13","Male","","","","","","","null","<div style=""font-size:60px;"">+</div>","null","fixation","","","","","","","","","","","17","","",""
"revaluation","132","744076","0.0-4.0-2.0-0.9","spark_pilot_2","7337","6","13","Male","","false","","","","","[880.1999999880791,1509.2999999523163]","./assets/img/canyon/memory/28.jpg","[""ArrowDown"",""ArrowRight""]","value training","canyon","30","{""ArrowUp,ArrowLeft"":23,""ArrowUp,ArrowRight"":10,""ArrowDown,ArrowLeft"":8,""ArrowDown,ArrowRight"":30}","true","ArrowDown,ArrowRight","false","","","revaluation","1","18","","",""
"html-keyboard-response","133","744578","0.0-4.0-2.0-1.9","spark_pilot_2","7337","6","13","Male","","","","","","","null","<div style=""font-size:60px;"">+</div>","null","fixation","","","","","","","","","","","19","","",""
"revaluation","134","750590","0.0-4.0-2.0-0.10","spark_pilot_2","7337","6","13","Male","","false","","","","","[1086.9000000357628,469.5]","./assets/img/canyon/memory/34.jpg","[""ArrowDown"",""ArrowRight""]","value training","canyon","30","{""ArrowUp,ArrowLeft"":23,""ArrowUp,ArrowRight"":10,""ArrowDown,ArrowLeft"":8,""ArrowDown,ArrowRight"":30}","true","ArrowDown,ArrowRight","false","","","revaluation","1","20","","",""
"html-keyboard-response","135","751092","0.0-4.0-2.0-1.10","spark_pilot_2","7337","6","13","Male","","","","","","","null","<div style=""font-size:60px;"">+</div>","null","fixation","","","","","","","","","","","21","","",""
"revaluation","136","757101","0.0-4.0-2.0-0.11","spark_pilot_2","7337","6","13","Male","","false","","","","","[808,428.2000000476837]","./assets/img/canyon/memory/3.jpg","[""ArrowDown"",""ArrowRight""]","value training","canyon","30","{""ArrowUp,ArrowLeft"":23,""ArrowUp,ArrowRight"":10,""ArrowDown,ArrowLeft"":8,""ArrowDown,ArrowRight"":30}","true","ArrowDown,ArrowRight","false","","","revaluation","1","22","","",""
"html-keyboard-response","137","757602","0.0-4.0-2.0-1.11","spark_pilot_2","7337","6","13","Male","","","","","","","null","<div style=""font-size:60px;"">+</div>","null","fixation","","","","","","","","","","","23","","",""
"revaluation","138","763610","0.0-4.0-2.0-0.12","spark_pilot_2","7337","6","13","Male","","false","","","","","[766.1000000238419,1332]","./assets/img/canyon/memory/7.jpg","[""ArrowDown"",""ArrowRight""]","value training","canyon","30","{""ArrowUp,ArrowLeft"":23,""ArrowUp,ArrowRight"":10,""ArrowDown,ArrowLeft"":8,""ArrowDown,ArrowRight"":30}","true","ArrowDown,ArrowRight","false","","","revaluation","1","24","","",""
"html-keyboard-response","139","764111","0.0-4.0-2.0-1.12","spark_pilot_2","7337","6","13","Male","","","","","","","null","<div style=""font-size:60px;"">+</div>","null","fixation","","","","","","","","","","","25","","",""
"revaluation","140","770120","0.0-4.0-2.0-0.13","spark_pilot_2","7337","6","13","Male","","false","","","","","[961.6000000238419,848.1999999880791]","./assets/img/canyon/memory/1.jpg","[""ArrowDown"",""ArrowRight""]","value training","canyon","30","{""ArrowUp,ArrowLeft"":23,""ArrowUp,ArrowRight"":10,""ArrowDown,ArrowLeft"":8,""ArrowDown,ArrowRight"":30}","true","ArrowDown,ArrowRight","false","","","revaluation","1","26","","",""
"html-keyboard-response","141","770622","0.0-4.0-2.0-1.13","spark_pilot_2","7337","6","13","Male","","","","","","","null","<div style=""font-size:60px;"">+</div>","null","fixation","","","","","","","","","","","27","","",""
"revaluation","142","776629","0.0-4.0-2.0-0.14","spark_pilot_2","7337","6","13","Male","","false","","","","","[107.60000002384186,106.70000004768372]","./assets/img/canyon/memory/17.jpg","[""ArrowDown"",""ArrowRight""]","value training","canyon","30","{""ArrowUp,ArrowLeft"":23,""ArrowUp,ArrowRight"":10,""ArrowDown,ArrowLeft"":8,""ArrowDown,ArrowRight"":30}","true","ArrowDown,ArrowRight","false","","","revaluation","1","28","","",""
"html-keyboard-response","143","777131","0.0-4.0-2.0-1.14","spark_pilot_2","7337","6","13","Male","","","","","","","null","<div style=""font-size:60px;"">+</div>","null","fixation","","","","","","","","","","","29","","",""
"revaluation","144","781138","0.0-4.0-2.0-0.15","spark_pilot_2","7337","6","13","Male","","false","","","","","[132.70000004768372]","./assets/img/canyon/catch/3.jpg","[""spaceBar""]","value training","canyon","0","{""ArrowUp,ArrowLeft"":23,""ArrowUp,ArrowRight"":10,""ArrowDown,ArrowLeft"":8,""ArrowDown,ArrowRight"":30}","true","spaceBar","true","","","revaluation","1","30","","",""
"html-keyboard-response","145","781640","0.0-4.0-2.0-1.15","spark_pilot_2","7337","6","13","Male","","","","","","","null","<div style=""font-size:60px;"">+</div>","null","fixation","","","","","","","","","","","31","","",""
"revaluation","146","787651","0.0-4.0-2.0-0.16","spark_pilot_2","7337","6","13","Male","","false","","","","","[1262.7000000476837,350.69999998807907]","./assets/img/canyon/memory/9.jpg","[""ArrowDown"",""ArrowRight""]","value training","canyon","30","{""ArrowUp,ArrowLeft"":23,""ArrowUp,ArrowRight"":10,""ArrowDown,ArrowLeft"":8,""ArrowDown,ArrowRight"":30}","true","ArrowDown,ArrowRight","false","","","revaluation","1","32","","",""
"html-keyboard-response","147","788152","0.0-4.0-2.0-1.16","spark_pilot_2","7337","6","13","Male","","","","","","","null","<div style=""font-size:60px;"">+</div>","null","fixation","","","","","","","","","","","33","","",""
"revaluation","148","794161","0.0-4.0-2.0-0.17","spark_pilot_2","7337","6","13","Male","","false","","","","","[884.1000000238419,391.5999999642372]","./assets/img/canyon/memory/9.jpg","[""ArrowDown"",""ArrowRight""]","value training","canyon","30","{""ArrowUp,ArrowLeft"":23,""ArrowUp,ArrowRight"":10,""ArrowDown,ArrowLeft"":8,""ArrowDown,ArrowRight"":30}","true","ArrowDown,ArrowRight","false","","","revaluation","1","34","","",""
"html-keyboard-response","149","794663","0.0-4.0-2.0-1.17","spark_pilot_2","7337","6","13","Male","","","","","","","null","<div style=""font-size:60px;"">+</div>","null","fixation","","","","","","","","","","","35","","",""
"revaluation","150","800672","0.0-4.0-2.0-0.18","spark_pilot_2","7337","6","13","Male","","false","","","","","[865.8999999761581,536.5]","./assets/img/canyon/memory/41.jpg","[""ArrowDown"",""ArrowRight""]","value training","canyon","30","{""ArrowUp,ArrowLeft"":23,""ArrowUp,ArrowRight"":10,""ArrowDown,ArrowLeft"":8,""ArrowDown,ArrowRight"":30}","true","ArrowDown,ArrowRight","false","","","revaluation","1","36","","",""
"html-keyboard-response","151","801174","0.0-4.0-2.0-1.18","spark_pilot_2","7337","6","13","Male","","","","","","","null","<div style=""font-size:60px;"">+</div>","null","fixation","","","","","","","","","","","37","","",""
"revaluation","152","807181","0.0-4.0-2.0-0.19","spark_pilot_2","7337","6","13","Male","","false","","","","","[670.8000000119209,218.5999999642372]","./assets/img/canyon/memory/25.jpg","[""ArrowDown"",""ArrowRight""]","value training","canyon","30","{""ArrowUp,ArrowLeft"":23,""ArrowUp,ArrowRight"":10,""ArrowDown,ArrowLeft"":8,""ArrowDown,ArrowRight"":30}","true","ArrowDown,ArrowRight","false","","","revaluation","1","38","","",""
"html-keyboard-response","153","807683","0.0-4.0-2.0-1.19","spark_pilot_2","7337","6","13","Male","","","","","","","null","<div style=""font-size:60px;"">+</div>","null","fixation","","","","","","","","","","","39","","",""
"revaluation","154","813690","0.0-4.0-2.0-0.20","spark_pilot_2","7337","6","13","Male","","false","","","","","[862.1999999880791,357.9000000357628]","./assets/img/canyon/memory/10.jpg","[""ArrowDown"",""ArrowRight""]","value training","canyon","30","{""ArrowUp,ArrowLeft"":23,""ArrowUp,ArrowRight"":10,""ArrowDown,ArrowLeft"":8,""ArrowDown,ArrowRight"":30}","true","ArrowDown,ArrowRight","false","","","revaluation","1","40","","",""
"html-keyboard-response","155","814192","0.0-4.0-2.0-1.20","spark_pilot_2","7337","6","13","Male","","","","","","","null","<div style=""font-size:60px;"">+</div>","null","fixation","","","","","","","","","","","41","","",""
"revaluation","156","820200","0.0-4.0-2.0-0.21","spark_pilot_2","7337","6","13","Male","","false","","","","","[945.1000000238419,840.5]","./assets/img/canyon/memory/39.jpg","[""ArrowDown"",""ArrowRight""]","value training","canyon","30","{""ArrowUp,ArrowLeft"":23,""ArrowUp,ArrowRight"":10,""ArrowDown,ArrowLeft"":8,""ArrowDown,ArrowRight"":30}","true","ArrowDown,ArrowRight","false","","","revaluation","1","42","","",""
"html-keyboard-response","157","820701","0.0-4.0-2.0-1.21","spark_pilot_2","7337","6","13","Male","","","","","","","null","<div style=""font-size:60px;"">+</div>","null","fixation","","","","","","","","","","","43","","",""
"revaluation","158","824712","0.0-4.0-2.0-0.22","spark_pilot_2","7337","6","13","Male","","false","","","","","[347.10000002384186]","./assets/img/canyon/catch/1.jpg","[""spaceBar""]","value training","canyon","0","{""ArrowUp,ArrowLeft"":23,""ArrowUp,ArrowRight"":10,""ArrowDown,ArrowLeft"":8,""ArrowDown,ArrowRight"":30}","true","spaceBar","true","","","revaluation","1","44","","",""
"html-keyboard-response","159","825214","0.0-4.0-2.0-1.22","spark_pilot_2","7337","6","13","Male","","","","","","","null","<div style=""font-size:60px;"">+</div>","null","fixation","","","","","","","","","","","45","","",""
"revaluation","160","831221","0.0-4.0-2.0-0.23","spark_pilot_2","7337","6","13","Male","","false","","","","","[742,906.7000000476837]","./assets/img/canyon/memory/27.jpg","[""ArrowDown"",""ArrowRight""]","value training","canyon","30","{""ArrowUp,ArrowLeft"":23,""ArrowUp,ArrowRight"":10,""ArrowDown,ArrowLeft"":8,""ArrowDown,ArrowRight"":30}","true","ArrowDown,ArrowRight","false","","","revaluation","1","46","","",""
"html-keyboard-response","161","831722","0.0-4.0-2.0-1.23","spark_pilot_2","7337","6","13","Male","","","","","","","null","<div style=""font-size:60px;"">+</div>","null","fixation","","","","","","","","","","","47","","",""
"revaluation","162","837731","0.0-4.0-2.0-0.24","spark_pilot_2","7337","6","13","Male","","false","","","","","[1415.1000000238419,8.599999964237213]","./assets/img/canyon/memory/37.jpg","[""ArrowDown"",""ArrowRight""]","value training","canyon","30","{""ArrowUp,ArrowLeft"":23,""ArrowUp,ArrowRight"":10,""ArrowDown,ArrowLeft"":8,""ArrowDown,ArrowRight"":30}","true","ArrowDown,ArrowRight","false","","","revaluation","1","48","","",""
"html-keyboard-response","163","838233","0.0-4.0-2.0-1.24","spark_pilot_2","7337","6","13","Male","","","","","","","null","<div style=""font-size:60px;"">+</div>","null","fixation","","","","","","","","","","","49","","",""
"revaluation","164","844242","0.0-4.0-2.0-0.25","spark_pilot_2","7337","6","13","Male","","false","","","","","[818.6999999880791,510.60000002384186]","./assets/img/canyon/memory/41.jpg","[""ArrowDown"",""ArrowRight""]","value training","canyon","30","{""ArrowUp,ArrowLeft"":23,""ArrowUp,ArrowRight"":10,""ArrowDown,ArrowLeft"":8,""ArrowDown,ArrowRight"":30}","true","ArrowDown,ArrowRight","false","","","revaluation","1","50","","",""
"html-keyboard-response","165","844744","0.0-4.0-2.0-1.25","spark_pilot_2","7337","6","13","Male","","","","","","","null","<div style=""font-size:60px;"">+</div>","null","fixation","","","","","","","","","","","51","","",""
"revaluation","166","850753","0.0-4.0-2.0-0.26","spark_pilot_2","7337","6","13","Male","","false","","","","","[847.9000000357628,919.4000000357628]","./assets/img/canyon/memory/27.jpg","[""ArrowDown"",""ArrowRight""]","value training","canyon","30","{""ArrowUp,ArrowLeft"":23,""ArrowUp,ArrowRight"":10,""ArrowDown,ArrowLeft"":8,""ArrowDown,ArrowRight"":30}","true","ArrowDown,ArrowRight","false","","","revaluation","1","52","","",""
"html-keyboard-response","167","851254","0.0-4.0-2.0-1.26","spark_pilot_2","7337","6","13","Male","","","","","","","null","<div style=""font-size:60px;"">+</div>","null","fixation","","","","","","","","","","","53","","",""
"revaluation","168","857262","0.0-4.0-2.0-0.27","spark_pilot_2","7337","6","13","Male","","false","","","","","[798.0999999642372,450.2000000476837]","./assets/img/canyon/memory/23.jpg","[""ArrowDown"",""ArrowRight""]","value training","canyon","30","{""ArrowUp,ArrowLeft"":23,""ArrowUp,ArrowRight"":10,""ArrowDown,ArrowLeft"":8,""ArrowDown,ArrowRight"":30}","true","ArrowDown,ArrowRight","false","","","revaluation","1","54","","",""
"html-keyboard-response","169","857763","0.0-4.0-2.0-1.27","spark_pilot_2","7337","6","13","Male","","","","","","","null","<div style=""font-size:60px;"">+</div>","null","fixation","","","","","","","","","","","55","","",""
"revaluation","170","863779","0.0-4.0-2.0-0.28","spark_pilot_2","7337","6","13","Male","","false","","","","","[822.5,406.10000002384186]","./assets/img/canyon/memory/30.jpg","[""ArrowDown"",""ArrowRight""]","value training","canyon","30","{""ArrowUp,ArrowLeft"":23,""ArrowUp,ArrowRight"":10,""ArrowDown,ArrowLeft"":8,""ArrowDown,ArrowRight"":30}","true","ArrowDown,ArrowRight","false","","","revaluation","1","56","","",""
"html-keyboard-response","171","864282","0.0-4.0-2.0-1.28","spark_pilot_2","7337","6","13","Male","","","","","","","null","<div style=""font-size:60px;"">+</div>","null","fixation","","","","","","","","","","","57","","",""
"revaluation","172","870289","0.0-4.0-2.0-0.29","spark_pilot_2","7337","6","13","Male","","false","","","","","[738.6999999880791,1271.2000000476837]","./assets/img/canyon/memory/30.jpg","[""ArrowDown"",""ArrowRight""]","value training","canyon","30","{""ArrowUp,ArrowLeft"":23,""ArrowUp,ArrowRight"":10,""ArrowDown,ArrowLeft"":8,""ArrowDown,ArrowRight"":30}","true","ArrowDown,ArrowRight","false","","","revaluation","1","58","","",""
"html-keyboard-response","173","870791","0.0-4.0-2.0-1.29","spark_pilot_2","7337","6","13","Male","","","","","","","null","<div style=""font-size:60px;"">+</div>","null","fixation","","","","","","","","","","","59","","",""
"revaluation","174","876799","0.0-4.0-2.0-0.30","spark_pilot_2","7337","6","13","Male","","false","","","","","[890.3999999761581,537]","./assets/img/canyon/memory/10.jpg","[""ArrowDown"",""ArrowRight""]","value training","canyon","30","{""ArrowUp,ArrowLeft"":23,""ArrowUp,ArrowRight"":10,""ArrowDown,ArrowLeft"":8,""ArrowDown,ArrowRight"":30}","true","ArrowDown,ArrowRight","false","","","revaluation","1","60","","",""
"html-keyboard-response","175","877300","0.0-4.0-2.0-1.30","spark_pilot_2","7337","6","13","Male","","","","","","","null","<div style=""font-size:60px;"">+</div>","null","fixation","","","","","","","","","","","61","","",""
"revaluation","176","883308","0.0-4.0-2.0-0.31","spark_pilot_2","7337","6","13","Male","","false","","","","","[991.3999999761581,411.80000001192093]","./assets/img/canyon/memory/14.jpg","[""ArrowDown"",""ArrowRight""]","value training","canyon","30","{""ArrowUp,ArrowLeft"":23,""ArrowUp,ArrowRight"":10,""ArrowDown,ArrowLeft"":8,""ArrowDown,ArrowRight"":30}","true","ArrowDown,ArrowRight","false","","","revaluation","1","62","","",""
"html-keyboard-response","177","883810","0.0-4.0-2.0-1.31","spark_pilot_2","7337","6","13","Male","","","","","","","null","<div style=""font-size:60px;"">+</div>","null","fixation","","","","","","","","","","","63","","",""
"revaluation","178","887817","0.0-4.0-2.0-0.32","spark_pilot_2","7337","6","13","Male","","false","","","","","[958.3000000119209]","./assets/img/canyon/catch/6.jpg","[""spaceBar""]","value training","canyon","0","{""ArrowUp,ArrowLeft"":23,""ArrowUp,ArrowRight"":10,""ArrowDown,ArrowLeft"":8,""ArrowDown,ArrowRight"":30}","true","spaceBar","true","","","revaluation","1","64","","",""
"html-keyboard-response","179","888318","0.0-4.0-2.0-1.32","spark_pilot_2","7337","6","13","Male","","","","","","","null","<div style=""font-size:60px;"">+</div>","null","fixation","","","","","","","","","","","65","","",""
"revaluation","180","894327","0.0-4.0-2.0-0.33","spark_pilot_2","7337","6","13","Male","","false","","","","","[446.10000002384186,523.0999999642372]","./assets/img/canyon/memory/25.jpg","[""ArrowDown"",""ArrowRight""]","value training","canyon","30","{""ArrowUp,ArrowLeft"":23,""ArrowUp,ArrowRight"":10,""ArrowDown,ArrowLeft"":8,""ArrowDown,ArrowRight"":30}","true","ArrowDown,ArrowRight","false","","","revaluation","1","66","","",""
"html-keyboard-response","181","894829","0.0-4.0-2.0-1.33","spark_pilot_2","7337","6","13","Male","","","","","","","null","<div style=""font-size:60px;"">+</div>","null","fixation","","","","","","","","","","","67","","",""
"revaluation","182","900838","0.0-4.0-2.0-0.34","spark_pilot_2","7337","6","13","Male","","false","","","","","[1074.2000000476837,762.6000000238419]","./assets/img/canyon/memory/40.jpg","[""ArrowDown"",""ArrowRight""]","value training","canyon","30","{""ArrowUp,ArrowLeft"":23,""ArrowUp,ArrowRight"":10,""ArrowDown,ArrowLeft"":8,""ArrowDown,ArrowRight"":30}","true","ArrowDown,ArrowRight","false","","","revaluation","1","68","","",""
"html-keyboard-response","183","901340","0.0-4.0-2.0-1.34","spark_pilot_2","7337","6","13","Male","","","","","","","null","<div style=""font-size:60px;"">+</div>","null","fixation","","","","","","","","","","","69","","",""
"revaluation","184","907349","0.0-4.0-2.0-0.35","spark_pilot_2","7337","6","13","Male","","false","","","","","[695.8999999761581,436.5]","./assets/img/canyon/memory/21.jpg","[""ArrowDown"",""ArrowRight""]","value training","canyon","30","{""ArrowUp,ArrowLeft"":23,""ArrowUp,ArrowRight"":10,""ArrowDown,ArrowLeft"":8,""ArrowDown,ArrowRight"":30}","true","ArrowDown,ArrowRight","false","","","revaluation","1","70","","",""
"html-keyboard-response","185","907851","0.0-4.0-2.0-1.35","spark_pilot_2","7337","6","13","Male","","","","","","","null","<div style=""font-size:60px;"">+</div>","null","fixation","","","","","","","","","","","71","","",""
"revaluation","186","913858","0.0-4.0-2.0-0.36","spark_pilot_2","7337","6","13","Male","","false","","","","","[1014.3999999761581,62.10000002384186]","./assets/img/canyon/memory/0.jpg","[""ArrowDown"",""ArrowRight""]","value training","canyon","30","{""ArrowUp,ArrowLeft"":23,""ArrowUp,ArrowRight"":10,""ArrowDown,ArrowLeft"":8,""ArrowDown,ArrowRight"":30}","true","ArrowDown,ArrowRight","false","","","revaluation","1","72","","",""
"html-keyboard-response","187","914359","0.0-4.0-2.0-1.36","spark_pilot_2","7337","6","13","Male","","","","","","","null","<div style=""font-size:60px;"">+</div>","null","fixation","","","","","","","","","","","73","","",""
"revaluation","188","920368","0.0-4.0-2.0-0.37","spark_pilot_2","7337","6","13","Male","","false","","","","","[581.0999999642372,841]","./assets/img/canyon/memory/23.jpg","[""ArrowDown"",""ArrowRight""]","value training","canyon","30","{""ArrowUp,ArrowLeft"":23,""ArrowUp,ArrowRight"":10,""ArrowDown,ArrowLeft"":8,""ArrowDown,ArrowRight"":30}","true","ArrowDown,ArrowRight","false","","","revaluation","1","74","","",""
"html-keyboard-response","189","920868","0.0-4.0-2.0-1.37","spark_pilot_2","7337","6","13","Male","","","","","","","null","<div style=""font-size:60px;"">+</div>","null","fixation","","","","","","","","","","","75","","",""
"revaluation","190","924878","0.0-4.0-2.0-0.38","spark_pilot_2","7337","6","13","Male","","false","","","","","[756.5]","./assets/img/canyon/catch/7.jpg","[""spaceBar""]","value training","canyon","0","{""ArrowUp,ArrowLeft"":23,""ArrowUp,ArrowRight"":10,""ArrowDown,ArrowLeft"":8,""ArrowDown,ArrowRight"":30}","true","spaceBar","true","","","revaluation","1","76","","",""
"html-keyboard-response","191","925379","0.0-4.0-2.0-1.38","spark_pilot_2","7337","6","13","Male","","","","","","","null","<div style=""font-size:60px;"">+</div>","null","fixation","","","","","","","","","","","77","","",""
"revaluation","192","931388","0.0-4.0-2.0-0.39","spark_pilot_2","7337","6","13","Male","","false","","","","","[1232.300000011921,933.5]","./assets/img/canyon/memory/33.jpg","[""ArrowDown"",""ArrowRight""]","value training","canyon","30","{""ArrowUp,ArrowLeft"":23,""ArrowUp,ArrowRight"":10,""ArrowDown,ArrowLeft"":8,""ArrowDown,ArrowRight"":30}","true","ArrowDown,ArrowRight","false","","","revaluation","1","78","","",""
"html-keyboard-response","193","931889","0.0-4.0-2.0-1.39","spark_pilot_2","7337","6","13","Male","","","","","","","null","<div style=""font-size:60px;"">+</div>","null","fixation","","","","","","","","","","","79","","",""
"revaluation","194","937898","0.0-4.0-2.0-0.40","spark_pilot_2","7337","6","13","Male","","false","","","","","[1175.699999988079,343.5999999642372]","./assets/img/canyon/memory/14.jpg","[""ArrowDown"",""ArrowRight""]","value training","canyon","30","{""ArrowUp,ArrowLeft"":23,""ArrowUp,ArrowRight"":10,""ArrowDown,ArrowLeft"":8,""ArrowDown,ArrowRight"":30}","true","ArrowDown,ArrowRight","false","","","revaluation","1","80","","",""
"html-keyboard-response","195","938399","0.0-4.0-2.0-1.40","spark_pilot_2","7337","6","13","Male","","","","","","","null","<div style=""font-size:60px;"">+</div>","null","fixation","","","","","","","","","","","81","","",""
"revaluation","196","944408","0.0-4.0-2.0-0.41","spark_pilot_2","7337","6","13","Male","","false","","","","","[724.7999999523163,552.8000000119209]","./assets/img/canyon/memory/40.jpg","[""ArrowDown"",""ArrowRight""]","value training","canyon","30","{""ArrowUp,ArrowLeft"":23,""ArrowUp,ArrowRight"":10,""ArrowDown,ArrowLeft"":8,""ArrowDown,ArrowRight"":30}","true","ArrowDown,ArrowRight","false","","","revaluation","1","82","","",""
"html-keyboard-response","197","944910","0.0-4.0-2.0-1.41","spark_pilot_2","7337","6","13","Male","","","","","","","null","<div style=""font-size:60px;"">+</div>","null","fixation","","","","","","","","","","","83","","",""
"revaluation","198","950919","0.0-4.0-2.0-0.42","spark_pilot_2","7337","6","13","Male","","false","","","","","[882.5,537.1000000238419]","./assets/img/canyon/memory/7.jpg","[""ArrowDown"",""ArrowRight""]","value training","canyon","30","{""ArrowUp,ArrowLeft"":23,""ArrowUp,ArrowRight"":10,""ArrowDown,ArrowLeft"":8,""ArrowDown,ArrowRight"":30}","true","ArrowDown,ArrowRight","false","","","revaluation","1","84","","",""
"html-keyboard-response","199","951421","0.0-4.0-2.0-1.42","spark_pilot_2","7337","6","13","Male","","","","","","","null","<div style=""font-size:60px;"">+</div>","null","fixation","","","","","","","","","","","85","","",""
"revaluation","200","957428","0.0-4.0-2.0-0.43","spark_pilot_2","7337","6","13","Male","","false","","","","","[536.0999999642372,571.9000000357628]","./assets/img/canyon/memory/37.jpg","[""ArrowDown"",""ArrowRight""]","value training","canyon","30","{""ArrowUp,ArrowLeft"":23,""ArrowUp,ArrowRight"":10,""ArrowDown,ArrowLeft"":8,""ArrowDown,ArrowRight"":30}","true","ArrowDown,ArrowRight","false","","","revaluation","1","86","","",""
"html-keyboard-response","201","957929","0.0-4.0-2.0-1.43","spark_pilot_2","7337","6","13","Male","","","","","","","null","<div style=""font-size:60px;"">+</div>","null","fixation","","","","","","","","","","","87","","",""
"revaluation","202","961938","0.0-4.0-2.0-0.44","spark_pilot_2","7337","6","13","Male","","false","","","","","[485.5]","./assets/img/canyon/catch/2.jpg","[""ArrowDown""]","value training","canyon","-10","{""ArrowUp,ArrowLeft"":23,""ArrowUp,ArrowRight"":10,""ArrowDown,ArrowLeft"":8,""ArrowDown,ArrowRight"":30}","false","ArrowDown","true","","","revaluation","1","88","","",""
"html-keyboard-response","203","962441","0.0-4.0-2.0-1.44","spark_pilot_2","7337","6","13","Male","","","","","","","null","<div style=""font-size:60px;"">+</div>","null","fixation","","","","","","","","","","","89","","",""
"revaluation","204","966449","0.0-4.0-2.0-0.45","spark_pilot_2","7337","6","13","Male","","false","","","","","[979.5999999642372]","./assets/img/canyon/catch/5.jpg","[""spaceBar""]","value training","canyon","0","{""ArrowUp,ArrowLeft"":23,""ArrowUp,ArrowRight"":10,""ArrowDown,ArrowLeft"":8,""ArrowDown,ArrowRight"":30}","true","spaceBar","true","","","revaluation","1","90","","",""
"html-keyboard-response","205","966950","0.0-4.0-2.0-1.45","spark_pilot_2","7337","6","13","Male","","","","","","","null","<div style=""font-size:60px;"">+</div>","null","fixation","","","","","","","","","","","91","","",""
"revaluation","206","972960","0.0-4.0-2.0-0.46","spark_pilot_2","7337","6","13","Male","","false","","","","","[610.8000000119209,160.70000004768372]","./assets/img/canyon/memory/3.jpg","[""ArrowDown"",""ArrowRight""]","value training","canyon","30","{""ArrowUp,ArrowLeft"":23,""ArrowUp,ArrowRight"":10,""ArrowDown,ArrowLeft"":8,""ArrowDown,ArrowRight"":30}","true","ArrowDown,ArrowRight","false","","","revaluation","1","92","","",""
"html-keyboard-response","207","973461","0.0-4.0-2.0-1.46","spark_pilot_2","7337","6","13","Male","","","","","","","null","<div style=""font-size:60px;"">+</div>","null","fixation","","","","","","","","","","","93","","",""
"revaluation","208","979470","0.0-4.0-2.0-0.47","spark_pilot_2","7337","6","13","Male","","false","","","","","[754.8000000119209,802]","./assets/img/canyon/memory/22.jpg","[""ArrowDown"",""ArrowRight""]","value training","canyon","30","{""ArrowUp,ArrowLeft"":23,""ArrowUp,ArrowRight"":10,""ArrowDown,ArrowLeft"":8,""ArrowDown,ArrowRight"":30}","true","ArrowDown,ArrowRight","false","","","revaluation","1","94","","",""
"html-keyboard-response","209","979972","0.0-4.0-2.0-1.47","spark_pilot_2","7337","6","13","Male","","","","","","","null","<div style=""font-size:60px;"">+</div>","null","fixation","","","","","","","","","","","95","","",""
"revaluation","210","985980","0.0-4.0-2.0-0.48","spark_pilot_2","7337","6","13","Male","","false","","","","","[292.9000000357628,980.3000000119209]","./assets/img/canyon/memory/22.jpg","[""ArrowDown"",""ArrowRight""]","value training","canyon","30","{""ArrowUp,ArrowLeft"":23,""ArrowUp,ArrowRight"":10,""ArrowDown,ArrowLeft"":8,""ArrowDown,ArrowRight"":30}","true","ArrowDown,ArrowRight","false","","","revaluation","1","96","","",""
"html-keyboard-response","211","986482","0.0-4.0-2.0-1.48","spark_pilot_2","7337","6","13","Male","","","","","","","null","<div style=""font-size:60px;"">+</div>","null","fixation","","","","","","","","","","","97","","",""
"revaluation","212","992489","0.0-4.0-2.0-0.49","spark_pilot_2","7337","6","13","Male","","false","","","","","[783.1999999880791,343.80000001192093]","./assets/img/canyon/memory/17.jpg","[""ArrowDown"",""ArrowRight""]","value training","canyon","30","{""ArrowUp,ArrowLeft"":23,""ArrowUp,ArrowRight"":10,""ArrowDown,ArrowLeft"":8,""ArrowDown,ArrowRight"":30}","true","ArrowDown,ArrowRight","false","","","revaluation","1","98","","",""
"html-keyboard-response","213","992991","0.0-4.0-2.0-1.49","spark_pilot_2","7337","6","13","Male","","","","","","","null","<div style=""font-size:60px;"">+</div>","null","fixation","","","","","","","","","","","99","","",""
"learning-instructions","214","1008750","0.0-4.0-3.0-0.0","spark_pilot_2","7337","6","13","Male","","","","","","","2608","<p> Now, you will travel with a friend who will choose whether you go up or down first. </p>
            <p> On these turns, you will just see the animal that they found. You will still get to choose which chest to search for treasure.</p>","","instructions","","","","","","","","","","","","","",""
"revaluation","215","1012782","0.0-4.0-4.0-0.0","spark_pilot_2","7337","6","13","Male","","false","","","","","[790.8999999761581]","./assets/img/canyon/animals/giraffe.jpg","[""ArrowRight""]","revaluation","canyon","7","{""ArrowUp,ArrowLeft"":27,""ArrowUp,ArrowRight"":15,""ArrowDown,ArrowLeft"":21,""ArrowDown,ArrowRight"":7}","false","ArrowDown,ArrowRight","","","","revaluation","1","0","","",""
"html-keyboard-response","216","1013296","0.0-4.0-4.0-1.0","spark_pilot_2","7337","6","13","Male","","","","","","","null","<div style=""font-size:60px;"">+</div>","null","fixation","","","","","","","","","","","1","","",""
"revaluation","217","1017331","0.0-4.0-4.0-0.1","spark_pilot_2","7337","6","13","Male","","false","","","","","[1207.800000011921]","./assets/img/canyon/animals/lion.jpg","[""ArrowRight""]","revaluation","canyon","15","{""ArrowUp,ArrowLeft"":27,""ArrowUp,ArrowRight"":15,""ArrowDown,ArrowLeft"":21,""ArrowDown,ArrowRight"":7}","false","ArrowUp,ArrowRight","","","","revaluation","1","2","","",""
"html-keyboard-response","218","1017847","0.0-4.0-4.0-1.1","spark_pilot_2","7337","6","13","Male","","","","","","","null","<div style=""font-size:60px;"">+</div>","null","fixation","","","","","","","","","","","3","","",""
"revaluation","219","1021869","0.0-4.0-4.0-0.2","spark_pilot_2","7337","6","13","Male","","false","","","","","[778.7000000476837]","./assets/img/canyon/animals/giraffe.jpg","[""ArrowLeft""]","revaluation","canyon","21","{""ArrowUp,ArrowLeft"":27,""ArrowUp,ArrowRight"":15,""ArrowDown,ArrowLeft"":21,""ArrowDown,ArrowRight"":7}","true","ArrowDown,ArrowLeft","","","","revaluation","1","4","","",""
"html-keyboard-response","220","1022378","0.0-4.0-4.0-1.2","spark_pilot_2","7337","6","13","Male","","","","","","","null","<div style=""font-size:60px;"">+</div>","null","fixation","","","","","","","","","","","5","","",""
"revaluation","221","1026402","0.0-4.0-4.0-0.3","spark_pilot_2","7337","6","13","Male","","false","","","","","[401.5]","./assets/img/canyon/animals/giraffe.jpg","[""ArrowLeft""]","revaluation","canyon","21","{""ArrowUp,ArrowLeft"":27,""ArrowUp,ArrowRight"":15,""ArrowDown,ArrowLeft"":21,""ArrowDown,ArrowRight"":7}","true","ArrowDown,ArrowLeft","","","","revaluation","1","6","","",""
"html-keyboard-response","222","1026913","0.0-4.0-4.0-1.3","spark_pilot_2","7337","6","13","Male","","","","","","","null","<div style=""font-size:60px;"">+</div>","null","fixation","","","","","","","","","","","7","","",""
"revaluation","223","1030932","0.0-4.0-4.0-0.4","spark_pilot_2","7337","6","13","Male","","false","","","","","[392.19999998807907]","./assets/img/canyon/animals/giraffe.jpg","[""ArrowLeft""]","revaluation","canyon","21","{""ArrowUp,ArrowLeft"":27,""ArrowUp,ArrowRight"":15,""ArrowDown,ArrowLeft"":21,""ArrowDown,ArrowRight"":7}","true","ArrowDown,ArrowLeft","","","","revaluation","1","8","","",""
"html-keyboard-response","224","1031446","0.0-4.0-4.0-1.4","spark_pilot_2","7337","6","13","Male","","","","","","","null","<div style=""font-size:60px;"">+</div>","null","fixation","","","","","","","","","","","9","","",""
"revaluation","225","1035465","0.0-4.0-4.0-0.5","spark_pilot_2","7337","6","13","Male","","false","","","","","[426.39999997615814]","./assets/img/canyon/animals/lion.jpg","[""ArrowLeft""]","revaluation","canyon","27","{""ArrowUp,ArrowLeft"":27,""ArrowUp,ArrowRight"":15,""ArrowDown,ArrowLeft"":21,""ArrowDown,ArrowRight"":7}","true","ArrowUp,ArrowLeft","","","","revaluation","1","10","","",""
"html-keyboard-response","226","1035978","0.0-4.0-4.0-1.5","spark_pilot_2","7337","6","13","Male","","","","","","","null","<div style=""font-size:60px;"">+</div>","null","fixation","","","","","","","","","","","11","","",""
"revaluation","227","1039987","0.0-4.0-4.0-0.6","spark_pilot_2","7337","6","13","Male","","false","","","","","[573.0999999642372]","./assets/img/canyon/animals/giraffe.jpg","[""ArrowLeft""]","revaluation","canyon","21","{""ArrowUp,ArrowLeft"":27,""ArrowUp,ArrowRight"":15,""ArrowDown,ArrowLeft"":21,""ArrowDown,ArrowRight"":7}","true","ArrowDown,ArrowLeft","","","","revaluation","1","12","","",""
"html-keyboard-response","228","1040488","0.0-4.0-4.0-1.6","spark_pilot_2","7337","6","13","Male","","","","","","","null","<div style=""font-size:60px;"">+</div>","null","fixation","","","","","","","","","","","13","","",""
"revaluation","229","1044495","0.0-4.0-4.0-0.7","spark_pilot_2","7337","6","13","Male","","false","","","","","[32.30000001192093]","./assets/img/canyon/animals/lion.jpg","[""ArrowLeft""]","revaluation","canyon","27","{""ArrowUp,ArrowLeft"":27,""ArrowUp,ArrowRight"":15,""ArrowDown,ArrowLeft"":21,""ArrowDown,ArrowRight"":7}","true","ArrowUp,ArrowLeft","","","","revaluation","1","14","","",""
"html-keyboard-response","230","1044997","0.0-4.0-4.0-1.7","spark_pilot_2","7337","6","13","Male","","","","","","","null","<div style=""font-size:60px;"">+</div>","null","fixation","","","","","","","","","","","15","","",""
"revaluation","231","1049003","0.0-4.0-4.0-0.8","spark_pilot_2","7337","6","13","Male","","false","","","","","[436.5999999642372]","./assets/img/canyon/animals/giraffe.jpg","[""ArrowLeft""]","revaluation","canyon","21","{""ArrowUp,ArrowLeft"":27,""ArrowUp,ArrowRight"":15,""ArrowDown,ArrowLeft"":21,""ArrowDown,ArrowRight"":7}","true","ArrowDown,ArrowLeft","","","","revaluation","1","16","","",""
"html-keyboard-response","232","1049505","0.0-4.0-4.0-1.8","spark_pilot_2","7337","6","13","Male","","","","","","","null","<div style=""font-size:60px;"">+</div>","null","fixation","","","","","","","","","","","17","","",""
"revaluation","233","1053512","0.0-4.0-4.0-0.9","spark_pilot_2","7337","6","13","Male","","false","","","","","[7.5]","./assets/img/canyon/animals/lion.jpg","[""ArrowLeft""]","revaluation","canyon","27","{""ArrowUp,ArrowLeft"":27,""ArrowUp,ArrowRight"":15,""ArrowDown,ArrowLeft"":21,""ArrowDown,ArrowRight"":7}","true","ArrowUp,ArrowLeft","","","","revaluation","1","18","","",""
"html-keyboard-response","234","1054013","0.0-4.0-4.0-1.9","spark_pilot_2","7337","6","13","Male","","","","","","","null","<div style=""font-size:60px;"">+</div>","null","fixation","","","","","","","","","","","19","","",""
"revaluation","235","1058020","0.0-4.0-4.0-0.10","spark_pilot_2","7337","6","13","Male","","false","","","","","[35.89999997615814]","./assets/img/canyon/animals/lion.jpg","[""ArrowLeft""]","revaluation","canyon","27","{""ArrowUp,ArrowLeft"":27,""ArrowUp,ArrowRight"":15,""ArrowDown,ArrowLeft"":21,""ArrowDown,ArrowRight"":7}","true","ArrowUp,ArrowLeft","","","","revaluation","1","20","","",""
"html-keyboard-response","236","1058522","0.0-4.0-4.0-1.10","spark_pilot_2","7337","6","13","Male","","","","","","","null","<div style=""font-size:60px;"">+</div>","null","fixation","","","","","","","","","","","21","","",""
"revaluation","237","1062529","0.0-4.0-4.0-0.11","spark_pilot_2","7337","6","13","Male","","false","","","","","[183.19999998807907]","./assets/img/canyon/animals/giraffe.jpg","[""ArrowLeft""]","revaluation","canyon","21","{""ArrowUp,ArrowLeft"":27,""ArrowUp,ArrowRight"":15,""ArrowDown,ArrowLeft"":21,""ArrowDown,ArrowRight"":7}","true","ArrowDown,ArrowLeft","","","","revaluation","1","22","","",""
"html-keyboard-response","238","1063030","0.0-4.0-4.0-1.11","spark_pilot_2","7337","6","13","Male","","","","","","","null","<div style=""font-size:60px;"">+</div>","null","fixation","","","","","","","","","","","23","","",""
"revaluation","239","1067036","0.0-4.0-4.0-0.12","spark_pilot_2","7337","6","13","Male","","false","","","","","[98.60000002384186]","./assets/img/canyon/animals/lion.jpg","[""ArrowLeft""]","revaluation","canyon","27","{""ArrowUp,ArrowLeft"":27,""ArrowUp,ArrowRight"":15,""ArrowDown,ArrowLeft"":21,""ArrowDown,ArrowRight"":7}","true","ArrowUp,ArrowLeft","","","","revaluation","1","24","","",""
"html-keyboard-response","240","1067537","0.0-4.0-4.0-1.12","spark_pilot_2","7337","6","13","Male","","","","","","","null","<div style=""font-size:60px;"">+</div>","null","fixation","","","","","","","","","","","25","","",""
"revaluation","241","1071545","0.0-4.0-4.0-0.13","spark_pilot_2","7337","6","13","Male","","false","","","","","[214.80000001192093]","./assets/img/canyon/animals/giraffe.jpg","[""ArrowLeft""]","revaluation","canyon","21","{""ArrowUp,ArrowLeft"":27,""ArrowUp,ArrowRight"":15,""ArrowDown,ArrowLeft"":21,""ArrowDown,ArrowRight"":7}","true","ArrowDown,ArrowLeft","","","","revaluation","1","26","","",""
"html-keyboard-response","242","1072047","0.0-4.0-4.0-1.13","spark_pilot_2","7337","6","13","Male","","","","","","","null","<div style=""font-size:60px;"">+</div>","null","fixation","","","","","","","","","","","27","","",""
"revaluation","243","1076053","0.0-4.0-4.0-0.14","spark_pilot_2","7337","6","13","Male","","false","","","","","[98.89999997615814]","./assets/img/canyon/animals/lion.jpg","[""ArrowLeft""]","revaluation","canyon","27","{""ArrowUp,ArrowLeft"":27,""ArrowUp,ArrowRight"":15,""ArrowDown,ArrowLeft"":21,""ArrowDown,ArrowRight"":7}","true","ArrowUp,ArrowLeft","","","","revaluation","1","28","","",""
"html-keyboard-response","244","1076555","0.0-4.0-4.0-1.14","spark_pilot_2","7337","6","13","Male","","","","","","","null","<div style=""font-size:60px;"">+</div>","null","fixation","","","","","","","","","","","29","","",""
"revaluation","245","1080561","0.0-4.0-4.0-0.15","spark_pilot_2","7337","6","13","Male","","false","","","","","[165.5999999642372]","./assets/img/canyon/animals/lion.jpg","[""ArrowLeft""]","revaluation","canyon","27","{""ArrowUp,ArrowLeft"":27,""ArrowUp,ArrowRight"":15,""ArrowDown,ArrowLeft"":21,""ArrowDown,ArrowRight"":7}","true","ArrowUp,ArrowLeft","","","","revaluation","1","30","","",""
"html-keyboard-response","246","1081063","0.0-4.0-4.0-1.15","spark_pilot_2","7337","6","13","Male","","","","","","","null","<div style=""font-size:60px;"">+</div>","null","fixation","","","","","","","","","","","31","","",""
"revaluation","247","1085070","0.0-4.0-4.0-0.16","spark_pilot_2","7337","6","13","Male","","false","","","","","[105.39999997615814]","./assets/img/canyon/animals/giraffe.jpg","[""ArrowLeft""]","revaluation","canyon","21","{""ArrowUp,ArrowLeft"":27,""ArrowUp,ArrowRight"":15,""ArrowDown,ArrowLeft"":21,""ArrowDown,ArrowRight"":7}","true","ArrowDown,ArrowLeft","","","","revaluation","1","32","","",""
"html-keyboard-response","248","1085571","0.0-4.0-4.0-1.16","spark_pilot_2","7337","6","13","Male","","","","","","","null","<div style=""font-size:60px;"">+</div>","null","fixation","","","","","","","","","","","33","","",""
"revaluation","249","1089578","0.0-4.0-4.0-0.17","spark_pilot_2","7337","6","13","Male","","false","","","","","[416.69999998807907]","./assets/img/canyon/animals/lion.jpg","[""ArrowLeft""]","revaluation","canyon","27","{""ArrowUp,ArrowLeft"":27,""ArrowUp,ArrowRight"":15,""ArrowDown,ArrowLeft"":21,""ArrowDown,ArrowRight"":7}","true","ArrowUp,ArrowLeft","","","","revaluation","1","34","","",""
"html-keyboard-response","250","1090079","0.0-4.0-4.0-1.17","spark_pilot_2","7337","6","13","Male","","","","","","","null","<div style=""font-size:60px;"">+</div>","null","fixation","","","","","","","","","","","35","","",""
"learning-instructions","251","1104830","0.0-4.0-5.0-0.0","spark_pilot_2","7337","6","13","Male","","","","","","","3166","<p> Time to play the dot game! </p>
            <p> For one minute, click the red dots on the following screen as they appear. </p>
            <p><b> Don't look away, as you will earn bonus for clicking dots</b>. </p>","","instructions","","","","","","","","","","","","","",""
"revaluation","252","1164838","0.0-4.0-6.0-0.0","spark_pilot_2","7337","6","13","Male","","","","","","","[85,105,77,68,117,77]","","","rest","","60","","","","","0","60000","","","","","",""
"learning-instructions","253","1174053","0.0-4.0-7.0-0.0","spark_pilot_2","7337","6","13","Male","","","","","","","2875.800000011921","<p> You have almost finished this part of the game! </p>
            <p> We are going to ask you to make a few more choices. </p>","","instructions","","","","","","","","","","","","","",""
"learning-instructions","254","1190750","0.0-4.0-7.0-0.1","spark_pilot_2","7337","6","13","Male","","","","","","","2732.099999964237","<p> First, you need to decide whether to go up or down. When you see each picture, use the arrow keys to make your choice. </p>
            <p><b>You will not see which animal you found, but try to get to the one that will give you the most treasure.</b></p>","","instructions","","","","","","","","","","","","","",""
"revaluation","255","1191503","0.0-4.0-8.0-0.0","spark_pilot_2","7337","6","13","Male","","false","","","","","[751.3999999761581]","./assets/img/canyon/test/2.jpg","[""ArrowUp""]","first stage test","canyon","0","{""ArrowUp,ArrowLeft"":27,""ArrowUp,ArrowRight"":15,""ArrowDown,ArrowLeft"":21,""ArrowDown,ArrowRight"":7}","true","ArrowUp","false","","","revaluation","1","","","",""
"html-keyboard-response","256","1192012","0.0-4.0-8.0-1.0","spark_pilot_2","7337","6","13","Male","","","","","","","null","<div style=""font-size:60px;"">+</div>","null","fixation","","","","","","","","","","","","","",""
"revaluation","257","1193367","0.0-4.0-8.0-0.1","spark_pilot_2","7337","6","13","Male","","false","","","","","[1347.9000000357628]","./assets/img/canyon/test/1.jpg","[""ArrowUp""]","first stage test","canyon","0","{""ArrowUp,ArrowLeft"":27,""ArrowUp,ArrowRight"":15,""ArrowDown,ArrowLeft"":21,""ArrowDown,ArrowRight"":7}","true","ArrowUp","false","","","revaluation","1","","","",""
"html-keyboard-response","258","1193880","0.0-4.0-8.0-1.1","spark_pilot_2","7337","6","13","Male","","","","","","","null","<div style=""font-size:60px;"">+</div>","null","fixation","","","","","","","","","","","","","",""
"revaluation","259","1195647","0.0-4.0-8.0-0.2","spark_pilot_2","7337","6","13","Male","","false","","","","","[1761.6000000238419]","./assets/img/canyon/test/0.jpg","[""ArrowDown""]","first stage test","canyon","0","{""ArrowUp,ArrowLeft"":27,""ArrowUp,ArrowRight"":15,""ArrowDown,ArrowLeft"":21,""ArrowDown,ArrowRight"":7}","false","ArrowDown","false","","","revaluation","1","","","",""
"html-keyboard-response","260","1196149","0.0-4.0-8.0-1.2","spark_pilot_2","7337","6","13","Male","","","","","","","null","<div style=""font-size:60px;"">+</div>","null","fixation","","","","","","","","","","","","","",""
"revaluation","261","1197334","0.0-4.0-8.0-0.3","spark_pilot_2","7337","6","13","Male","","false","","","","","[1180.9000000357628]","./assets/img/canyon/test/3.jpg","[""ArrowDown""]","first stage test","canyon","0","{""ArrowUp,ArrowLeft"":27,""ArrowUp,ArrowRight"":15,""ArrowDown,ArrowLeft"":21,""ArrowDown,ArrowRight"":7}","false","ArrowDown","false","","","revaluation","1","","","",""
"html-keyboard-response","262","1197847","0.0-4.0-8.0-1.3","spark_pilot_2","7337","6","13","Male","","","","","","","null","<div style=""font-size:60px;"">+</div>","null","fixation","","","","","","","","","","","","","",""
"learning-instructions","263","1210301","0.0-4.0-9.0-0.0","spark_pilot_2","7337","6","13","Male","","","","","","","1104","<p> Now you will see the animals again and can search their chests for treasure. </p>
            <p> This time, you will not see how much treasure you earned, but you will earn more bonus money for making better choices. </p>","","instructions","","","","","","","","","","","","","",""
"revaluation","264","1211127","0.0-4.0-10.0-0.0","spark_pilot_2","7337","6","13","Male","","false","","","","","[824.3999999761581]","./assets/img/canyon/animals/lion.jpg","[""ArrowRight""]","second stage test","canyon","0","{""ArrowUp,ArrowLeft"":27,""ArrowUp,ArrowRight"":15,""ArrowDown,ArrowLeft"":21,""ArrowDown,ArrowRight"":7}","false","ArrowUp,ArrowRight","","","","revaluation","1","","","",""
"html-keyboard-response","265","1211629","0.0-4.0-10.0-1.0","spark_pilot_2","7337","6","13","Male","","","","","","","null","<div style=""font-size:60px;"">+</div>","null","fixation","","","","","","","","","","","","","",""
"revaluation","266","1212838","0.0-4.0-10.0-0.1","spark_pilot_2","7337","6","13","Male","","false","","","","","[1202.300000011921]","./assets/img/canyon/animals/lion.jpg","[""ArrowRight""]","second stage test","canyon","0","{""ArrowUp,ArrowLeft"":27,""ArrowUp,ArrowRight"":15,""ArrowDown,ArrowLeft"":21,""ArrowDown,ArrowRight"":7}","false","ArrowUp,ArrowRight","","","","revaluation","1","","","",""
"html-keyboard-response","267","1213347","0.0-4.0-10.0-1.1","spark_pilot_2","7337","6","13","Male","","","","","","","null","<div style=""font-size:60px;"">+</div>","null","fixation","","","","","","","","","","","","","",""
"revaluation","268","1214247","0.0-4.0-10.0-0.2","spark_pilot_2","7337","6","13","Male","","false","","","","","[893.9000000357628]","./assets/img/canyon/animals/lion.jpg","[""ArrowRight""]","second stage test","canyon","0","{""ArrowUp,ArrowLeft"":27,""ArrowUp,ArrowRight"":15,""ArrowDown,ArrowLeft"":21,""ArrowDown,ArrowRight"":7}","false","ArrowUp,ArrowRight","","","","revaluation","1","","","",""
"html-keyboard-response","269","1214764","0.0-4.0-10.0-1.2","spark_pilot_2","7337","6","13","Male","","","","","","","null","<div style=""font-size:60px;"">+</div>","null","fixation","","","","","","","","","","","","","",""
"revaluation","270","1215367","0.0-4.0-10.0-0.3","spark_pilot_2","7337","6","13","Male","","false","","","","","[597.7999999523163]","./assets/img/canyon/animals/lion.jpg","[""ArrowLeft""]","second stage test","canyon","0","{""ArrowUp,ArrowLeft"":27,""ArrowUp,ArrowRight"":15,""ArrowDown,ArrowLeft"":21,""ArrowDown,ArrowRight"":7}","true","ArrowUp,ArrowLeft","","","","revaluation","1","","","",""
"html-keyboard-response","271","1215879","0.0-4.0-10.0-1.3","spark_pilot_2","7337","6","13","Male","","","","","","","null","<div style=""font-size:60px;"">+</div>","null","fixation","","","","","","","","","","","","","",""
"revaluation","272","1216414","0.0-4.0-10.0-0.4","spark_pilot_2","7337","6","13","Male","","false","","","","","[528.8000000119209]","./assets/img/canyon/animals/giraffe.jpg","[""ArrowRight""]","second stage test","canyon","0","{""ArrowUp,ArrowLeft"":27,""ArrowUp,ArrowRight"":15,""ArrowDown,ArrowLeft"":21,""ArrowDown,ArrowRight"":7}","false","ArrowDown,ArrowRight","","","","revaluation","1","","","",""
"html-keyboard-response","273","1216929","0.0-4.0-10.0-1.4","spark_pilot_2","7337","6","13","Male","","","","","","","null","<div style=""font-size:60px;"">+</div>","null","fixation","","","","","","","","","","","","","",""
"revaluation","274","1217510","0.0-4.0-10.0-0.5","spark_pilot_2","7337","6","13","Male","","false","","","","","[574.5999999642372]","./assets/img/canyon/animals/giraffe.jpg","[""ArrowRight""]","second stage test","canyon","0","{""ArrowUp,ArrowLeft"":27,""ArrowUp,ArrowRight"":15,""ArrowDown,ArrowLeft"":21,""ArrowDown,ArrowRight"":7}","false","ArrowDown,ArrowRight","","","","revaluation","1","","","",""
"html-keyboard-response","275","1218013","0.0-4.0-10.0-1.5","spark_pilot_2","7337","6","13","Male","","","","","","","null","<div style=""font-size:60px;"">+</div>","null","fixation","","","","","","","","","","","","","",""
"revaluation","276","1218501","0.0-4.0-10.0-0.6","spark_pilot_2","7337","6","13","Male","","false","","","","","[482.30000001192093]","./assets/img/canyon/animals/giraffe.jpg","[""ArrowLeft""]","second stage test","canyon","0","{""ArrowUp,ArrowLeft"":27,""ArrowUp,ArrowRight"":15,""ArrowDown,ArrowLeft"":21,""ArrowDown,ArrowRight"":7}","true","ArrowDown,ArrowLeft","","","","revaluation","1","","","",""
"html-keyboard-response","277","1219014","0.0-4.0-10.0-1.6","spark_pilot_2","7337","6","13","Male","","","","","","","null","<div style=""font-size:60px;"">+</div>","null","fixation","","","","","","","","","","","","","",""
"revaluation","278","1219430","0.0-4.0-10.0-0.7","spark_pilot_2","7337","6","13","Male","","false","","","","","[411.30000001192093]","./assets/img/canyon/animals/giraffe.jpg","[""ArrowLeft""]","second stage test","canyon","0","{""ArrowUp,ArrowLeft"":27,""ArrowUp,ArrowRight"":15,""ArrowDown,ArrowLeft"":21,""ArrowDown,ArrowRight"":7}","true","ArrowDown,ArrowLeft","","","","revaluation","1","","","",""
"html-keyboard-response","279","1219947","0.0-4.0-10.0-1.7","spark_pilot_2","7337","6","13","Male","","","","","","","null","<div style=""font-size:60px;"">+</div>","null","fixation","","","","","","","","","","","","","",""
"learning-instructions","280","1224533","0.0-4.0-0.1-0.2","spark_pilot_2","7337","6","13","Male","","","","","","","1855.7999999523163","<p> This time you are searching for treasure in the <b>ocean</b>.</p>","","instructions","","","","","","","","","","","","","",""
"learning-instructions","281","1244933","0.0-4.0-0.1-0.3","spark_pilot_2","7337","6","13","Male","","","","","","","3156","<p><b>New</b> animals with <b>new</b> treasure chests live here. You need to explore to discover where the animal with the best treasure chest is.</p>
                    <p> Like before, once you figure out which animal has the chest with the most treasure, you should try to get to that animal and select that chest! </p>","","instructions","","","","","","","","","","","","","",""
"learning-instructions","282","1262373","0.0-4.0-1.1-0.1","spark_pilot_2","7337","6","13","Male","","","","","","","2715.900000035763","<p> Remember, when you see a picture of the place, use the up and down keys to <b>find an animal</b>.</p>
            <p> When you encounter an animal, you should use the left and right keys to <b>select a treasure chest</b>.</p>
            <p> Don't forget to look out for the robber! </p>","","instructions","","","","","","","","","","","","","",""
"revaluation","283","1266398","0.0-4.0-2.1-0.50","spark_pilot_2","7337","6","13","Male","","false","","","","","[847.7999999523163]","./assets/img/ocean/catch/6.jpg","[""ArrowUp""]","value training","ocean","-10","{""ArrowUp,ArrowLeft"":26,""ArrowUp,ArrowRight"":10,""ArrowDown,ArrowLeft"":5,""ArrowDown,ArrowRight"":17}","false","ArrowUp","true","","","original","2","0","","",""
"html-keyboard-response","284","1266913","0.0-4.0-2.1-1.50","spark_pilot_2","7337","6","13","Male","","","","","","","null","<div style=""font-size:60px;"">+</div>","null","fixation","","","","","","","","","","","1","","",""
"revaluation","285","1272950","0.0-4.0-2.1-0.51","spark_pilot_2","7337","6","13","Male","","false","","","","","[1031.5,824.1999999880791]","./assets/img/ocean/memory/41.jpg","[""ArrowUp"",""ArrowRight""]","value training","ocean","10","{""ArrowUp,ArrowLeft"":26,""ArrowUp,ArrowRight"":10,""ArrowDown,ArrowLeft"":5,""ArrowDown,ArrowRight"":17}","false","ArrowUp,ArrowRight","false","","","original","2","2","","",""
"html-keyboard-response","286","1273462","0.0-4.0-2.1-1.51","spark_pilot_2","7337","6","13","Male","","","","","","","null","<div style=""font-size:60px;"">+</div>","null","fixation","","","","","","","","","","","3","","",""
"revaluation","287","1279489","0.0-4.0-2.1-0.52","spark_pilot_2","7337","6","13","Male","","false","","","","","[732.6999999880791,446.10000002384186]","./assets/img/ocean/memory/40.jpg","[""ArrowUp"",""ArrowLeft""]","value training","ocean","26","{""ArrowUp,ArrowLeft"":26,""ArrowUp,ArrowRight"":10,""ArrowDown,ArrowLeft"":5,""ArrowDown,ArrowRight"":17}","true","ArrowUp,ArrowLeft","false","","","original","2","4","","",""
"html-keyboard-response","288","1279996","0.0-4.0-2.1-1.52","spark_pilot_2","7337","6","13","Male","","","","","","","null","<div style=""font-size:60px;"">+</div>","null","fixation","","","","","","","","","","","5","","",""
"revaluation","289","1286023","0.0-4.0-2.1-0.53","spark_pilot_2","7337","6","13","Male","","false","","","","","[844.3999999761581,428.39999997615814]","./assets/img/ocean/memory/39.jpg","[""ArrowDown"",""ArrowLeft""]","value training","ocean","5","{""ArrowUp,ArrowLeft"":26,""ArrowUp,ArrowRight"":10,""ArrowDown,ArrowLeft"":5,""ArrowDown,ArrowRight"":17}","false","ArrowDown,ArrowLeft","false","","","original","2","6","","",""
"html-keyboard-response","290","1286530","0.0-4.0-2.1-1.53","spark_pilot_2","7337","6","13","Male","","","","","","","null","<div style=""font-size:60px;"">+</div>","null","fixation","","","","","","","","","","","7","","",""
"revaluation","291","1290549","0.0-4.0-2.1-0.54","spark_pilot_2","7337","6","13","Male","","false","","","","","[359.5]","./assets/img/ocean/catch/4.jpg","[""ArrowDown""]","value training","ocean","-10","{""ArrowUp,ArrowLeft"":26,""ArrowUp,ArrowRight"":10,""ArrowDown,ArrowLeft"":5,""ArrowDown,ArrowRight"":17}","false","ArrowDown","true","","","original","2","8","","",""
"html-keyboard-response","292","1291050","0.0-4.0-2.1-1.54","spark_pilot_2","7337","6","13","Male","","","","","","","null","<div style=""font-size:60px;"">+</div>","null","fixation","","","","","","","","","","","9","","",""
"revaluation","293","1297060","0.0-4.0-2.1-0.55","spark_pilot_2","7337","6","13","Male","","false","","","","","[1646.800000011921,710.1999999880791]","./assets/img/ocean/memory/37.jpg","[""ArrowDown"",""ArrowRight""]","value training","ocean","17","{""ArrowUp,ArrowLeft"":26,""ArrowUp,ArrowRight"":10,""ArrowDown,ArrowLeft"":5,""ArrowDown,ArrowRight"":17}","false","ArrowDown,ArrowRight","false","","","original","2","10","","",""
"html-keyboard-response","294","1297562","0.0-4.0-2.1-1.55","spark_pilot_2","7337","6","13","Male","","","","","","","null","<div style=""font-size:60px;"">+</div>","null","fixation","","","","","","","","","","","11","","",""
"revaluation","295","1303583","0.0-4.0-2.1-0.56","spark_pilot_2","7337","6","13","Male","","false","","","","","[631.8999999761581,173.10000002384186]","./assets/img/ocean/memory/22.jpg","[""ArrowUp"",""ArrowLeft""]","value training","ocean","26","{""ArrowUp,ArrowLeft"":26,""ArrowUp,ArrowRight"":10,""ArrowDown,ArrowLeft"":5,""ArrowDown,ArrowRight"":17}","true","ArrowUp,ArrowLeft","false","","","original","2","12","","",""
"html-keyboard-response","296","1304084","0.0-4.0-2.1-1.56","spark_pilot_2","7337","6","13","Male","","","","","","","null","<div style=""font-size:60px;"">+</div>","null","fixation","","","","","","","","","","","13","","",""
"revaluation","297","1310092","0.0-4.0-2.1-0.57","spark_pilot_2","7337","6","13","Male","","false","","","","","[828.8000000119209,371.69999998807907]","./assets/img/ocean/memory/30.jpg","[""ArrowUp"",""ArrowLeft""]","value training","ocean","26","{""ArrowUp,ArrowLeft"":26,""ArrowUp,ArrowRight"":10,""ArrowDown,ArrowLeft"":5,""ArrowDown,ArrowRight"":17}","true","ArrowUp,ArrowLeft","false","","","original","2","14","","",""
"html-keyboard-response","298","1310594","0.0-4.0-2.1-1.57","spark_pilot_2","7337","6","13","Male","","","","","","","null","<div style=""font-size:60px;"">+</div>","null","fixation","","","","","","","","","","","15","","",""
"revaluation","299","1316604","0.0-4.0-2.1-0.58","spark_pilot_2","7337","6","13","Male","","false","","","","","[1269.699999988079,365]","./assets/img/ocean/memory/27.jpg","[""ArrowUp"",""ArrowLeft""]","value training","ocean","26","{""ArrowUp,ArrowLeft"":26,""ArrowUp,ArrowRight"":10,""ArrowDown,ArrowLeft"":5,""ArrowDown,ArrowRight"":17}","true","ArrowUp,ArrowLeft","false","","","original","2","16","","",""
"html-keyboard-response","300","1317106","0.0-4.0-2.1-1.58","spark_pilot_2","7337","6","13","Male","","","","","","","null","<div style=""font-size:60px;"">+</div>","null","fixation","","","","","","","","","","","17","","",""
"revaluation","301","1321113","0.0-4.0-2.1-0.59","spark_pilot_2","7337","6","13","Male","","false","","","","","[538.1000000238419]","./assets/img/ocean/catch/7.jpg","[""spaceBar""]","value training","ocean","0","{""ArrowUp,ArrowLeft"":26,""ArrowUp,ArrowRight"":10,""ArrowDown,ArrowLeft"":5,""ArrowDown,ArrowRight"":17}","true","spaceBar","true","","","original","2","18","","",""
"html-keyboard-response","302","1321616","0.0-4.0-2.1-1.59","spark_pilot_2","7337","6","13","Male","","","","","","","null","<div style=""font-size:60px;"">+</div>","null","fixation","","","","","","","","","","","19","","",""
"revaluation","303","1327633","0.0-4.0-2.1-0.60","spark_pilot_2","7337","6","13","Male","","false","","","","","[1112.8999999761581,1552.699999988079]","./assets/img/ocean/memory/0.jpg","[""ArrowUp"",""ArrowLeft""]","value training","ocean","26","{""ArrowUp,ArrowLeft"":26,""ArrowUp,ArrowRight"":10,""ArrowDown,ArrowLeft"":5,""ArrowDown,ArrowRight"":17}","true","ArrowUp,ArrowLeft","false","","","original","2","20","","",""
"html-keyboard-response","304","1328134","0.0-4.0-2.1-1.60","spark_pilot_2","7337","6","13","Male","","","","","","","null","<div style=""font-size:60px;"">+</div>","null","fixation","","","","","","","","","","","21","","",""
