"trial_type","trial_index","time_elapsed","internal_node_id","task_version","subject_id","assigned_condition","age","gender","success","timeout","failed_images","failed_audio","failed_video","browser_interaction","rt","stimulus","response","task_part","environment","score","rewardMap","correct","fullState","isCatch","numberMissed","duration","condition","order","trial_num","key_press","ground_truth","bonus"
"pavlovia","0","1766","0.0-0.0","spark_pilot_2","7330","3","12","Female","","","","","","","","","","","","","","","","","","","","","","","",""
"preload","1","11598","0.0-1.0","spark_pilot_2","7330","3","12","Female","true","false","[]","[]","[]","[{""event"":""fullscreenenter"",""trial"":2,""time"":15105}]","","","","","","","","","","","","","","","","","",""
"fullscreen","2","16096","0.0-2.0","spark_pilot_2","7330","3","12","Female","true","","","","","","","","","","","","","","","","","","","","","","",""
"audio-button-response","3","17553","0.0-3.0-0.0-0.0","spark_pilot_2","7330","3","12","Female","","","","","","","1440","./assets/audio/audiotest/turtle.mp3","2","audio_test","","","","","","","","","","","","","",""
"learning-instructions","4","25945","0.0-3.0-1.0-0.0","spark_pilot_2","7330","3","12","Female","","","","","","","1387","<p> Welcome! Please remember to stay in fullscreen mode and don't click away from the experiment. </p>","","instructions","","","","","","","","","","","","","",""
"learning-instructions","5","35817","0.0-3.0-1.0-0.1","spark_pilot_2","7330","3","12","Female","","","","","","","1458.7000000476837","<p> Today you will be playing a game to earn treasure. </p>
            <p> At the end of the experiment, you will earn a bonus based on how much treasure you find. </p>
            <img src='./assets/img/instructions/treasure.jpg' class='instructions-image'>","","instructions","","","","","","","","","","","","","",""
"learning-instructions","6","45256","0.0-3.0-1.0-0.2","spark_pilot_2","7330","3","12","Female","","","","","","","1178.5","<p> Animals have hidden treasure in treasure chests. </p>
            <p> You need to first find an animal and then choose which of their treasure chests to search. </p>
            <img src='./assets/img/space/animals/cat.jpg' class='instructions-image'>","","instructions","","","","","","","","","","","","","",""
"learning-instructions","7","59536","0.0-3.0-1.0-0.3","spark_pilot_2","7330","3","12","Female","","","","","","","1118.5","<p> In each round, you will search for treasure in a different place. In the real game, there will be two rounds. </p>
            <p> You will begin with a separate, practice round where you will search for treasure in outer space. </p>
            <img src='./assets/img/space/0.jpg' class='instructions-image'>","","instructions","","","","","","","","","","","","","",""
"learning-instructions","8","72288","0.0-3.0-1.0-0.4","spark_pilot_2","7330","3","12","Female","","","","","","","1340.5999999046326","<p> On every turn, you will see a picture of the place that you are in, but the specific image may be different each time. </p>
            <p> For example, both of these images mean you are in outer space. </p>
            <img src='./assets/img/instructions/outerspace.jpg' class='instructions-image'>","","instructions","","","","","","","","","","","","","",""
"learning-instructions","9","80897","0.0-3.0-1.0-0.5","spark_pilot_2","7330","3","12","Female","","","","","","","778.6999998092651","<p> You need to decide which direction to travel in. </p>
            <p> You can choose between going <b>up or down</b> by using the arrow keys. </p>
            <img src='./assets/img/instructions/updown.jpg' class='instructions-image'>","","instructions","","","","","","","","","","","","","",""
"learning-instructions","10","91344","0.0-3.0-1.0-0.6","spark_pilot_2","7330","3","12","Female","","","","","","","1636.3000001907349","<p> You will have <b>2 seconds</b> to make your choice. </p>
            <p> If you do not make a choice within 2 seconds, you will not find an animal or earn treasure. </p>
            <img src='./assets/img/instructions/2seconds.jpg' class='instructions-image'>","","instructions","","","","","","","","","","","","","",""
"learning-instructions","11","99360","0.0-3.0-1.0-0.7","spark_pilot_2","7330","3","12","Female","","","","","","","982.5","<p> Let’s try practicing that now! </p>
            <p> When you see a picture of the place you are in, press the <b>up</b> key to travel up. </p>
            <img src='./assets/img/instructions/pressUp.jpg' class='instructions-image'>","","instructions","","","","","","","","","","","","","",""
"revaluation","12","103387","0.0-3.0-2.0-0.0","spark_pilot_2","7330","3","12","Female","","false","","","","","[881.7000000476837]","./assets/img/space/0.jpg","[""ArrowUp""]","first stage practice","space","0","null","null","ArrowUp","false","","","","","","","",""
"html-keyboard-response","13","103896","0.0-3.0-2.0-1.0","spark_pilot_2","7330","3","12","Female","","","","","","","null","<div style=""font-size:60px;"">+</div>","null","fixation","","","","","","","","","","","","","",""
"revaluation","14","107927","0.0-3.0-2.0-0.1","spark_pilot_2","7330","3","12","Female","","false","","","","","[848.2000000476837]","./assets/img/space/1.jpg","[""ArrowUp""]","first stage practice","space","0","null","null","ArrowUp","false","","","","","","","",""
"html-keyboard-response","15","108446","0.0-3.0-2.0-1.1","spark_pilot_2","7330","3","12","Female","","","","","","","null","<div style=""font-size:60px;"">+</div>","null","fixation","","","","","","","","","","","","","",""
"revaluation","16","112477","0.0-3.0-2.0-0.2","spark_pilot_2","7330","3","12","Female","","false","","","","","[1433.7000000476837]","./assets/img/space/2.jpg","[""ArrowUp""]","first stage practice","space","0","null","null","ArrowUp","false","","","","","","","",""
"html-keyboard-response","17","112995","0.0-3.0-2.0-1.2","spark_pilot_2","7330","3","12","Female","","","","","","","null","<div style=""font-size:60px;"">+</div>","null","fixation","","","","","","","","","","","","","",""
"learning-instructions","18","119496","0.0-3.0-3.0-0.0","spark_pilot_2","7330","3","12","Female","","","","","","","1778.8999998569489","<p> Great job! Now try pressing the <b>down</b> key to travel down. </p>
            <img src='./assets/img/instructions/pressDown.jpg' class='instructions-image'>","","instructions","","","","","","","","","","","","","",""
"revaluation","19","123516","0.0-3.0-4.0-0.0","spark_pilot_2","7330","3","12","Female","","false","","","","","[907.2000000476837]","./assets/img/space/3.jpg","[""ArrowDown""]","first stage practice","space","0","null","null","ArrowDown","false","","","","","","","",""
"html-keyboard-response","20","124025","0.0-3.0-4.0-1.0","spark_pilot_2","7330","3","12","Female","","","","","","","null","<div style=""font-size:60px;"">+</div>","null","fixation","","","","","","","","","","","","","",""
"revaluation","21","128056","0.0-3.0-4.0-0.1","spark_pilot_2","7330","3","12","Female","","false","","","","","[582.5]","./assets/img/space/4.jpg","[""ArrowDown""]","first stage practice","space","0","null","null","ArrowDown","false","","","","","","","",""
"html-keyboard-response","22","128575","0.0-3.0-4.0-1.1","spark_pilot_2","7330","3","12","Female","","","","","","","null","<div style=""font-size:60px;"">+</div>","null","fixation","","","","","","","","","","","","","",""
"revaluation","23","132596","0.0-3.0-4.0-0.2","spark_pilot_2","7330","3","12","Female","","false","","","","","[1920.9000000953674]","./assets/img/space/5.jpg","[""ArrowDown""]","first stage practice","space","0","null","null","ArrowDown","false","","","","","","","",""
"html-keyboard-response","24","133105","0.0-3.0-4.0-1.2","spark_pilot_2","7330","3","12","Female","","","","","","","null","<div style=""font-size:60px;"">+</div>","null","fixation","","","","","","","","","","","","","",""
"learning-instructions","25","144400","0.0-3.0-5.0-0.0","spark_pilot_2","7330","3","12","Female","","","","","","","1413.1999998092651","<p> The animals don’t move, so the animal in the upper part of a place will stay in the upper part of a place, and the animal in the lower part of a place will stay in the lower part of a place. </p>","","instructions","","","","","","","","","","","","","",""
"learning-instructions","26","154919","0.0-3.0-5.0-0.1","spark_pilot_2","7330","3","12","Female","","","","","","","1373","<p> Each animal has two treasure chests for you to choose from. </p>
            <p> The amount of treasure in each chest can range from <b> 0 to 40 pieces.</b></p>","","instructions","","","","","","","","","","","","","",""
"learning-instructions","27","167039","0.0-3.0-5.0-0.2","spark_pilot_2","7330","3","12","Female","","","","","","","922.7000000476837","<p> You should decide which chest to search for treasure by using the <b>left</b> and <b>right</b> arrow keys. </p>
            <p><b> Pay attention to which animal is on the screen, as the animals have different treasure chests. </b></p>
            <img src='./assets/img/instructions/leftright.jpg' class='instructions-image'>","","instructions","","","","","","","","","","","","","",""
"learning-instructions","28","174487","0.0-3.0-5.0-0.3","spark_pilot_2","7330","3","12","Female","","","","","","","1090.5","<p> Let’s try practicing that now. </p>
            <p> When you see an animal, choose which chest to search for treasure. </p>
            <img src='./assets/img/instructions/chooseChest.jpg' class='instructions-image'>","","instructions","","","","","","","","","","","","","",""
"revaluation","29","178526","0.0-3.0-6.0-0.0","spark_pilot_2","7330","3","12","Female","","false","","","","","[1123.6999998092651]","./assets/img/space/animals/rabbit.jpg","[""ArrowRight""]","second stage practice","space","23","{""ArrowUp,ArrowLeft"":3,""ArrowUp,ArrowRight"":36,""ArrowDown,ArrowLeft"":15,""ArrowDown,ArrowRight"":23}","true","ArrowDown,ArrowRight","","","","","","","","",""
"html-keyboard-response","30","179043","0.0-3.0-6.0-1.0","spark_pilot_2","7330","3","12","Female","","","","","","","null","<div style=""font-size:60px;"">+</div>","null","fixation","","","","","","","","","","","","","",""
"revaluation","31","183075","0.0-3.0-6.0-0.1","spark_pilot_2","7330","3","12","Female","","false","","","","","[1005.0999999046326]","./assets/img/space/animals/cat.jpg","[""ArrowLeft""]","second stage practice","space","3","{""ArrowUp,ArrowLeft"":3,""ArrowUp,ArrowRight"":36,""ArrowDown,ArrowLeft"":15,""ArrowDown,ArrowRight"":23}","false","ArrowUp,ArrowLeft","","","","","","","","",""
"html-keyboard-response","32","183594","0.0-3.0-6.0-1.1","spark_pilot_2","7330","3","12","Female","","","","","","","null","<div style=""font-size:60px;"">+</div>","null","fixation","","","","","","","","","","","","","",""
"revaluation","33","187625","0.0-3.0-6.0-0.2","spark_pilot_2","7330","3","12","Female","","false","","","","","[748.7000000476837]","./assets/img/space/animals/cat.jpg","[""ArrowLeft""]","second stage practice","space","3","{""ArrowUp,ArrowLeft"":3,""ArrowUp,ArrowRight"":36,""ArrowDown,ArrowLeft"":15,""ArrowDown,ArrowRight"":23}","false","ArrowUp,ArrowLeft","","","","","","","","",""
"html-keyboard-response","34","188143","0.0-3.0-6.0-1.2","spark_pilot_2","7330","3","12","Female","","","","","","","null","<div style=""font-size:60px;"">+</div>","null","fixation","","","","","","","","","","","","","",""
"revaluation","35","192174","0.0-3.0-6.0-0.3","spark_pilot_2","7330","3","12","Female","","false","","","","","[1320.6000001430511]","./assets/img/space/animals/rabbit.jpg","[""ArrowRight""]","second stage practice","space","23","{""ArrowUp,ArrowLeft"":3,""ArrowUp,ArrowRight"":36,""ArrowDown,ArrowLeft"":15,""ArrowDown,ArrowRight"":23}","true","ArrowDown,ArrowRight","","","","","","","","",""
"html-keyboard-response","36","192694","0.0-3.0-6.0-1.3","spark_pilot_2","7330","3","12","Female","","","","","","","null","<div style=""font-size:60px;"">+</div>","null","fixation","","","","","","","","","","","","","",""
"learning-instructions","37","210535","0.0-3.0-7.0-0.0","spark_pilot_2","7330","3","12","Female","","","","","","","1009","<p> Great job. Now let’s try putting it together. </p>
            <p> On each turn, you will first see a picture to remind you of the place you are in, and you need to choose whether to go up or down. </p>
            <p> Then you will see an animal and choose which of its chests to search for treasure. </p>","","instructions","","","","","","","","","","","","","",""
"learning-instructions","38","230342","0.0-3.0-7.0-0.1","spark_pilot_2","7330","3","12","Female","","","","","","","11546.900000095367","<p> When you choose whether to go up or down, try to go to the animal with the chest with the most treasure. </p>
            <p> Try practicing that now! </p>","","instructions","","","","","","","","","","","","","",""
"revaluation","39","236394","0.0-3.0-8.0-0.0","spark_pilot_2","7330","3","12","Female","","false","","","","","[1371.7999999523163,656.2999999523163]","./assets/img/space/6.jpg","[""ArrowUp"",""ArrowRight""]","full practice","space","36","{""ArrowUp,ArrowLeft"":3,""ArrowUp,ArrowRight"":36,""ArrowDown,ArrowLeft"":15,""ArrowDown,ArrowRight"":23}","true","ArrowUp,ArrowRight","false","","","","","","","",""
"html-keyboard-response","40","236903","0.0-3.0-8.0-1.0","spark_pilot_2","7330","3","12","Female","","","","","","","null","<div style=""font-size:60px;"">+</div>","null","fixation","","","","","","","","","","","","","",""
"revaluation","41","242951","0.0-3.0-8.0-0.1","spark_pilot_2","7330","3","12","Female","","false","","","","","[623,888.2000000476837]","./assets/img/space/7.jpg","[""ArrowDown"",""ArrowLeft""]","full practice","space","15","{""ArrowUp,ArrowLeft"":3,""ArrowUp,ArrowRight"":36,""ArrowDown,ArrowLeft"":15,""ArrowDown,ArrowRight"":23}","false","ArrowDown,ArrowLeft","false","","","","","","","",""
"html-keyboard-response","42","243474","0.0-3.0-8.0-1.1","spark_pilot_2","7330","3","12","Female","","","","","","","null","<div style=""font-size:60px;"">+</div>","null","fixation","","","","","","","","","","","","","",""
"revaluation","43","249505","0.0-3.0-8.0-0.2","spark_pilot_2","7330","3","12","Female","","false","","","","","[1067.8000001907349,1022.0999999046326]","./assets/img/space/8.jpg","[""ArrowUp"",""ArrowRight""]","full practice","space","36","{""ArrowUp,ArrowLeft"":3,""ArrowUp,ArrowRight"":36,""ArrowDown,ArrowLeft"":15,""ArrowDown,ArrowRight"":23}","true","ArrowUp,ArrowRight","false","","","","","","","",""
"html-keyboard-response","44","250007","0.0-3.0-8.0-1.2","spark_pilot_2","7330","3","12","Female","","","","","","","null","<div style=""font-size:60px;"">+</div>","null","fixation","","","","","","","","","","","","","",""
"revaluation","45","256013","0.0-3.0-8.0-0.3","spark_pilot_2","7330","3","12","Female","","false","","","","","[1232.6999998092651,920.2000000476837]","./assets/img/space/9.jpg","[""ArrowDown"",""ArrowLeft""]","full practice","space","15","{""ArrowUp,ArrowLeft"":3,""ArrowUp,ArrowRight"":36,""ArrowDown,ArrowLeft"":15,""ArrowDown,ArrowRight"":23}","false","ArrowDown,ArrowLeft","false","","","","","","","",""
"html-keyboard-response","46","256515","0.0-3.0-8.0-1.3","spark_pilot_2","7330","3","12","Female","","","","","","","null","<div style=""font-size:60px;"">+</div>","null","fixation","","","","","","","","","","","","","",""
"revaluation","47","262522","0.0-3.0-8.0-0.4","spark_pilot_2","7330","3","12","Female","","false","","","","","[669.2000000476837,1676.3000001907349]","./assets/img/space/10.jpg","[""ArrowUp"",""ArrowRight""]","full practice","space","36","{""ArrowUp,ArrowLeft"":3,""ArrowUp,ArrowRight"":36,""ArrowDown,ArrowLeft"":15,""ArrowDown,ArrowRight"":23}","true","ArrowUp,ArrowRight","false","","","","","","","",""
"html-keyboard-response","48","263023","0.0-3.0-8.0-1.4","spark_pilot_2","7330","3","12","Female","","","","","","","null","<div style=""font-size:60px;"">+</div>","null","fixation","","","","","","","","","","","","","",""
"learning-instructions","49","274294","0.0-3.0-9.0-0.0","spark_pilot_2","7330","3","12","Female","","","","","","","883.1000001430511","<p> One last thing: sometimes, you will see a robber. The robber can be anywhere in the picture. </p>
            <p> If you do not stop them, you will lose treasure. </p>
            <img src='./assets/img/instructions/robber.jpg' class='instructions-image'>","","instructions","","","","","","","","","","","","","",""
"learning-instructions","50","281950","0.0-3.0-9.0-0.1","spark_pilot_2","7330","3","12","Female","","","","","","","480","<p> If you see the robber, you should <b>press the space bar</b> rather than using the arrow keys. </p>
            <p> Try practicing that now! </p>","","instructions","","","","","","","","","","","","","",""
"revaluation","51","285989","0.0-3.0-10.0-0.0","spark_pilot_2","7330","3","12","Female","","false","","","","","[836.3999998569489]","./assets/img/space/catch/0.jpg","[""spaceBar""]","catch practice","space","0","{""ArrowUp,ArrowLeft"":3,""ArrowUp,ArrowRight"":36,""ArrowDown,ArrowLeft"":15,""ArrowDown,ArrowRight"":23}","true","spaceBar","true","","","","","","","",""
"html-keyboard-response","52","286509","0.0-3.0-10.0-1.0","spark_pilot_2","7330","3","12","Female","","","","","","","null","<div style=""font-size:60px;"">+</div>","null","fixation","","","","","","","","","","","","","",""
"revaluation","53","290539","0.0-3.0-10.0-0.1","spark_pilot_2","7330","3","12","Female","","false","","","","","[538.5999999046326]","./assets/img/space/catch/1.jpg","[""spaceBar""]","catch practice","space","0","{""ArrowUp,ArrowLeft"":3,""ArrowUp,ArrowRight"":36,""ArrowDown,ArrowLeft"":15,""ArrowDown,ArrowRight"":23}","true","spaceBar","true","","","","","","","",""
"html-keyboard-response","54","291058","0.0-3.0-10.0-1.1","spark_pilot_2","7330","3","12","Female","","","","","","","null","<div style=""font-size:60px;"">+</div>","null","fixation","","","","","","","","","","","","","",""
"revaluation","55","295089","0.0-3.0-10.0-0.2","spark_pilot_2","7330","3","12","Female","","false","","","","","[572.3999998569489]","./assets/img/space/catch/2.jpg","[""spaceBar""]","catch practice","space","0","{""ArrowUp,ArrowLeft"":3,""ArrowUp,ArrowRight"":36,""ArrowDown,ArrowLeft"":15,""ArrowDown,ArrowRight"":23}","true","spaceBar","true","","","","","","","",""
"html-keyboard-response","56","295609","0.0-3.0-10.0-1.2","spark_pilot_2","7330","3","12","Female","","","","","","","null","<div style=""font-size:60px;"">+</div>","null","fixation","","","","","","","","","","","","","",""
"learning-instructions","57","310981","0.0-3.0-11.0-0.0","spark_pilot_2","7330","3","12","Female","","","","","","","1751.6000001430511","<p> After you explore a place to find treasure, it will be time to play a different game. </p>
            <p> During this game, red dots will appear on the screen and fall down slowly. </p>
            <p><b> You must click on them before they reach the bottom. </b></p>
            <img src='./assets/img/instructions/dotGame.jpg' class='instructions-image'>","","instructions","","","","","","","","","","","","","",""
"learning-instructions","58","317325","0.0-3.0-11.0-0.1","spark_pilot_2","7330","3","12","Female","","","","","","","486.10000014305115","<p> For every dot you click, you will earn additional treasure. </p>
            <p> Let’s try practicing that now. </p>","","instructions","","","","","","","","","","","","","",""
"revaluation","59","332335","0.0-3.0-12.0-0.0","spark_pilot_2","7330","3","12","Female","","","","","","","[99]","","","rest practice","","10","","","","","0","15000","","","","","",""
"learning-instructions","60","339893","0.0-3.0-13.0-0.0-0.0","spark_pilot_2","7330","3","12","Female","","","","","","","2274.0999999046326","<p> Now, you will practice a shortened version of the game to get a sense of how it all fits together. </p>","","instructions","","","","","","","","","","","","","",""
"learning-instructions","61","343653","0.0-3.0-13.0-0.0-0.1","spark_pilot_2","7330","3","12","Female","","","","","","","574.0999999046326","<p>This time you are searching for treasure in outer space.</p>","","instructions","","","","","","","","","","","","","",""
"learning-instructions","62","358861","0.0-3.0-13.0-1.0-0.0","spark_pilot_2","7330","3","12","Female","","","","","","","431.7999999523163","<p> Remember, when you see a picture of the place, use the up and down keys to <b>find an animal</b>.</p>
            <p> When you encounter an animal, you should use the left and right keys to <b>select a treasure chest</b>.</p>
            <p> Don't forget to look out for the robber! </p>","","instructions","","","","","","","","","","","","","",""
"revaluation","63","364888","0.0-3.0-13.0-2.0-0.0","spark_pilot_2","7330","3","12","Female","","false","","","","","[1099.5,527.2000000476837]","./assets/img/space/11.jpg","[""ArrowUp"",""ArrowLeft""]","practice block","space","3","{""ArrowUp,ArrowLeft"":3,""ArrowUp,ArrowRight"":36,""ArrowDown,ArrowLeft"":15,""ArrowDown,ArrowRight"":23}","false","ArrowUp,ArrowLeft","false","","","","","","","",""
"html-keyboard-response","64","365407","0.0-3.0-13.0-2.0-1.0","spark_pilot_2","7330","3","12","Female","","","","","","","null","<div style=""font-size:60px;"">+</div>","null","fixation","","","","","","","","","","","","","",""
"revaluation","65","371438","0.0-3.0-13.0-2.0-0.1","spark_pilot_2","7330","3","12","Female","","false","","","","","[621.3999998569489,553.2000000476837]","./assets/img/space/12.jpg","[""ArrowUp"",""ArrowRight""]","practice block","space","36","{""ArrowUp,ArrowLeft"":3,""ArrowUp,ArrowRight"":36,""ArrowDown,ArrowLeft"":15,""ArrowDown,ArrowRight"":23}","true","ArrowUp,ArrowRight","false","","","","","","","",""
"html-keyboard-response","66","371957","0.0-3.0-13.0-2.0-1.1","spark_pilot_2","7330","3","12","Female","","","","","","","null","<div style=""font-size:60px;"">+</div>","null","fixation","","","","","","","","","","","","","",""
"revaluation","67","378008","0.0-3.0-13.0-2.0-0.2","spark_pilot_2","7330","3","12","Female","","false","","","","","[632.7999999523163,1523.0999999046326]","./assets/img/space/13.jpg","[""ArrowDown"",""ArrowRight""]","practice block","space","23","{""ArrowUp,ArrowLeft"":3,""ArrowUp,ArrowRight"":36,""ArrowDown,ArrowLeft"":15,""ArrowDown,ArrowRight"":23}","false","ArrowDown,ArrowRight","false","","","","","","","",""
"html-keyboard-response","68","378518","0.0-3.0-13.0-2.0-1.2","spark_pilot_2","7330","3","12","Female","","","","","","","null","<div style=""font-size:60px;"">+</div>","null","fixation","","","","","","","","","","","","","",""
"revaluation","69","384558","0.0-3.0-13.0-2.0-0.3","spark_pilot_2","7330","3","12","Female","","false","","","","","[976.3999998569489,387.5]","./assets/img/space/14.jpg","[""ArrowDown"",""ArrowLeft""]","practice block","space","15","{""ArrowUp,ArrowLeft"":3,""ArrowUp,ArrowRight"":36,""ArrowDown,ArrowLeft"":15,""ArrowDown,ArrowRight"":23}","false","ArrowDown,ArrowLeft","false","","","","","","","",""
"html-keyboard-response","70","385067","0.0-3.0-13.0-2.0-1.3","spark_pilot_2","7330","3","12","Female","","","","","","","null","<div style=""font-size:60px;"">+</div>","null","fixation","","","","","","","","","","","","","",""
"revaluation","71","391091","0.0-3.0-13.0-2.0-0.4","spark_pilot_2","7330","3","12","Female","","false","","","","","[818.7999999523163,611.6999998092651]","./assets/img/space/11.jpg","[""ArrowUp"",""ArrowRight""]","practice block","space","36","{""ArrowUp,ArrowLeft"":3,""ArrowUp,ArrowRight"":36,""ArrowDown,ArrowLeft"":15,""ArrowDown,ArrowRight"":23}","true","ArrowUp,ArrowRight","false","","","","","","","",""
"html-keyboard-response","72","391592","0.0-3.0-13.0-2.0-1.4","spark_pilot_2","7330","3","12","Female","","","","","","","null","<div style=""font-size:60px;"">+</div>","null","fixation","","","","","","","","","","","","","",""
"revaluation","73","397600","0.0-3.0-13.0-2.0-0.5","spark_pilot_2","7330","3","12","Female","","false","","","","","[541.8999998569489,533.7999999523163]","./assets/img/space/12.jpg","[""ArrowDown"",""ArrowRight""]","practice block","space","23","{""ArrowUp,ArrowLeft"":3,""ArrowUp,ArrowRight"":36,""ArrowDown,ArrowLeft"":15,""ArrowDown,ArrowRight"":23}","false","ArrowDown,ArrowRight","false","","","","","","","",""
"html-keyboard-response","74","398101","0.0-3.0-13.0-2.0-1.5","spark_pilot_2","7330","3","12","Female","","","","","","","null","<div style=""font-size:60px;"">+</div>","null","fixation","","","","","","","","","","","","","",""
"revaluation","75","404108","0.0-3.0-13.0-2.0-0.6","spark_pilot_2","7330","3","12","Female","","false","","","","","[609.2999999523163,895.8999998569489]","./assets/img/space/13.jpg","[""ArrowUp"",""ArrowRight""]","practice block","space","36","{""ArrowUp,ArrowLeft"":3,""ArrowUp,ArrowRight"":36,""ArrowDown,ArrowLeft"":15,""ArrowDown,ArrowRight"":23}","true","ArrowUp,ArrowRight","false","","","","","","","",""
"html-keyboard-response","76","404611","0.0-3.0-13.0-2.0-1.6","spark_pilot_2","7330","3","12","Female","","","","","","","null","<div style=""font-size:60px;"">+</div>","null","fixation","","","","","","","","","","","","","",""
"revaluation","77","410618","0.0-3.0-13.0-2.0-0.7","spark_pilot_2","7330","3","12","Female","","false","","","","","[619.3999998569489,619]","./assets/img/space/14.jpg","[""ArrowDown"",""ArrowRight""]","practice block","space","23","{""ArrowUp,ArrowLeft"":3,""ArrowUp,ArrowRight"":36,""ArrowDown,ArrowLeft"":15,""ArrowDown,ArrowRight"":23}","false","ArrowDown,ArrowRight","false","","","","","","","",""
"html-keyboard-response","78","411120","0.0-3.0-13.0-2.0-1.7","spark_pilot_2","7330","3","12","Female","","","","","","","null","<div style=""font-size:60px;"">+</div>","null","fixation","","","","","","","","","","","","","",""
"revaluation","79","415127","0.0-3.0-13.0-2.0-0.8","spark_pilot_2","7330","3","12","Female","","false","","","","","[653.7999999523163]","./assets/img/space/catch/3.jpg","[""ArrowUp""]","practice block","space","-10","{""ArrowUp,ArrowLeft"":3,""ArrowUp,ArrowRight"":36,""ArrowDown,ArrowLeft"":15,""ArrowDown,ArrowRight"":23}","false","ArrowUp","true","","","","","","","",""
"html-keyboard-response","80","415629","0.0-3.0-13.0-2.0-1.8","spark_pilot_2","7330","3","12","Female","","","","","","","null","<div style=""font-size:60px;"">+</div>","null","fixation","","","","","","","","","","","","","",""
"learning-instructions","81","430604","0.0-3.0-13.0-3.0-0.0","spark_pilot_2","7330","3","12","Female","","","","","","","1994","<p> Now, you will travel with a friend who will choose whether you go up or down first. </p>
            <p> On these turns, you will just see the animal that they found. You will still get to choose which chest to search for treasure.</p>","","instructions","","","","","","","","","","","","","",""
"revaluation","82","434619","0.0-3.0-13.0-4.0-0.0","spark_pilot_2","7330","3","12","Female","","false","","","","","[1100.0999999046326]","./assets/img/space/animals/rabbit.jpg","[""ArrowRight""]","practice block","space","23","{""ArrowUp,ArrowLeft"":3,""ArrowUp,ArrowRight"":36,""ArrowDown,ArrowLeft"":15,""ArrowDown,ArrowRight"":23}","true","ArrowDown,ArrowRight","","","","","","","","",""
"html-keyboard-response","83","435139","0.0-3.0-13.0-4.0-1.0","spark_pilot_2","7330","3","12","Female","","","","","","","null","<div style=""font-size:60px;"">+</div>","null","fixation","","","","","","","","","","","","","",""
"revaluation","84","439169","0.0-3.0-13.0-4.0-0.1","spark_pilot_2","7330","3","12","Female","","false","","","","","[538.9000000953674]","./assets/img/space/animals/cat.jpg","[""ArrowLeft""]","practice block","space","3","{""ArrowUp,ArrowLeft"":3,""ArrowUp,ArrowRight"":36,""ArrowDown,ArrowLeft"":15,""ArrowDown,ArrowRight"":23}","false","ArrowUp,ArrowLeft","","","","","","","","",""
"html-keyboard-response","85","439679","0.0-3.0-13.0-4.0-1.1","spark_pilot_2","7330","3","12","Female","","","","","","","null","<div style=""font-size:60px;"">+</div>","null","fixation","","","","","","","","","","","","","",""
"revaluation","86","443720","0.0-3.0-13.0-4.0-0.2","spark_pilot_2","7330","3","12","Female","","false","","","","","[1326.8999998569489]","./assets/img/space/animals/rabbit.jpg","[""ArrowRight""]","practice block","space","23","{""ArrowUp,ArrowLeft"":3,""ArrowUp,ArrowRight"":36,""ArrowDown,ArrowLeft"":15,""ArrowDown,ArrowRight"":23}","true","ArrowDown,ArrowRight","","","","","","","","",""
"html-keyboard-response","87","444229","0.0-3.0-13.0-4.0-1.2","spark_pilot_2","7330","3","12","Female","","","","","","","null","<div style=""font-size:60px;"">+</div>","null","fixation","","","","","","","","","","","","","",""
"revaluation","88","448265","0.0-3.0-13.0-4.0-0.3","spark_pilot_2","7330","3","12","Female","","false","","","","","[1553]","./assets/img/space/animals/cat.jpg","[""ArrowRight""]","practice block","space","36","{""ArrowUp,ArrowLeft"":3,""ArrowUp,ArrowRight"":36,""ArrowDown,ArrowLeft"":15,""ArrowDown,ArrowRight"":23}","true","ArrowUp,ArrowRight","","","","","","","","",""
"html-keyboard-response","89","448789","0.0-3.0-13.0-4.0-1.3","spark_pilot_2","7330","3","12","Female","","","","","","","null","<div style=""font-size:60px;"">+</div>","null","fixation","","","","","","","","","","","","","",""
"learning-instructions","90","457268","0.0-3.0-13.0-5.0-0.0","spark_pilot_2","7330","3","12","Female","","","","","","","1088","<p> Time to play the dot game! </p>
            <p> For 15 seconds, click the red dots on the following screen as they appear. </p>","","instructions","","","","","","","","","","","","","",""
"revaluation","91","472270","0.0-3.0-13.0-6.0-0.0","spark_pilot_2","7330","3","12","Female","","","","","","","[89]","","","rest practice","","10","","","","","0","15000","","","","","",""
"learning-instructions","92","479468","0.0-3.0-13.0-7.0-0.0","spark_pilot_2","7330","3","12","Female","","","","","","","1048.0999999046326","<p> You have almost finished this part of the game! </p>
            <p> We are going to ask you to make a few more choices. </p>","","instructions","","","","","","","","","","","","","",""
"learning-instructions","93","494059","0.0-3.0-13.0-7.0-0.1","spark_pilot_2","7330","3","12","Female","","","","","","","570","<p> First, you need to decide whether to go up or down. When you see each picture, use the arrow keys to make your choice. </p>
            <p><b>You will not see which animal you found, but try to get to the one that will give you the most treasure.</b></p>","","instructions","","","","","","","","","","","","","",""
"revaluation","94","495746","0.0-3.0-13.0-8.0","spark_pilot_2","7330","3","12","Female","","false","","","","","[1684.0999999046326]","./assets/img/space/15.jpg","[""ArrowUp""]","practice block","space","0","{""ArrowUp,ArrowLeft"":3,""ArrowUp,ArrowRight"":36,""ArrowDown,ArrowLeft"":15,""ArrowDown,ArrowRight"":23}","true","ArrowUp","false","","","","","","","",""
"html-keyboard-response","95","496248","0.0-3.0-13.0-9.0","spark_pilot_2","7330","3","12","Female","","","","","","","null","<div style=""font-size:60px;"">+</div>","null","fixation","","","","","","","","","","","","","",""
"learning-instructions","96","508731","0.0-3.0-13.0-10.0-0.0","spark_pilot_2","7330","3","12","Female","","","","","","","1071.6000001430511","<p> Now you will see the animals again and can search their chests for treasure. </p>
            <p> This time, you will not see how much treasure you earned, but you will earn more bonus money for making better choices. </p>","","instructions","","","","","","","","","","","","","",""
"revaluation","97","509402","0.0-3.0-13.0-11.0-0.0","spark_pilot_2","7330","3","12","Female","","false","","","","","[668.2000000476837]","./assets/img/space/animals/cat.jpg","[""ArrowRight""]","practice block","space","0","{""ArrowUp,ArrowLeft"":3,""ArrowUp,ArrowRight"":36,""ArrowDown,ArrowLeft"":15,""ArrowDown,ArrowRight"":23}","true","ArrowUp,ArrowRight","","","","","","","","",""
"html-keyboard-response","98","509918","0.0-3.0-13.0-11.0-1.0","spark_pilot_2","7330","3","12","Female","","","","","","","null","<div style=""font-size:60px;"">+</div>","null","fixation","","","","","","","","","","","","","",""
"revaluation","99","511113","0.0-3.0-13.0-11.0-0.1","spark_pilot_2","7330","3","12","Female","","false","","","","","[1190.1000001430511]","./assets/img/space/animals/rabbit.jpg","[""ArrowRight""]","practice block","space","0","{""ArrowUp,ArrowLeft"":3,""ArrowUp,ArrowRight"":36,""ArrowDown,ArrowLeft"":15,""ArrowDown,ArrowRight"":23}","true","ArrowDown,ArrowRight","","","","","","","","",""
"html-keyboard-response","100","511618","0.0-3.0-13.0-11.0-1.1","spark_pilot_2","7330","3","12","Female","","","","","","","null","<div style=""font-size:60px;"">+</div>","null","fixation","","","","","","","","","","","","","",""
"learning-instructions","101","518251","0.0-3.0-14.0-0.0","spark_pilot_2","7330","3","12","Female","","","","","","","2042.4000000953674","<p> Before you start, we're going to ask you a few questions about how the game works. </p>","","instructions","","","","","","","","","","","","","",""
"comp-q","102","524931","0.0-3.0-15.0-0.0-0.0","spark_pilot_2","7330","3","12","Female","","","","","","","1097.2999999523163","<p> <b> True or False? </b> </p>
            <p> There can be 50 pieces of treasure in a given animal's chest. </p>","1","comp_question","","","","true","","","","","","","","","",""
"comp-q","103","534635","0.0-3.0-15.0-0.0-1.0","spark_pilot_2","7330","3","12","Female","","","","","","","3045.7999999523163","<p> <b> That's right! </b> The amount of treasure in each chest can range from 0 to 40 pieces. </p>","0","comp_answer","","","","","","","","","","","","","",""
"comp-q","104","543467","0.0-3.0-15.0-0.1-0.1","spark_pilot_2","7330","3","12","Female","","","","","","","1718.2000000476837","<p> <b> True or False? </b> </p><p> In this game, all animals have the same amount of treasure in their left and right chests. </p>","1","comp_question","","","","true","","","","","","","","","",""
"comp-q","105","551171","0.0-3.0-15.0-0.1-1.1","spark_pilot_2","7330","3","12","Female","","","","","","","2471.9000000953674","<p> <b> That's right! </b> Animals have different amounts of treasure in their treasure chests. </p>","0","comp_answer","","","","","","","","","","","","","",""
"comp-q","106","557979","0.0-3.0-15.0-0.2-0.2","spark_pilot_2","7330","3","12","Female","","","","","","","960.3000001907349","<p> <b> True or False? </b> </p><p> The same animal will always be there if you go up in the same place. </p>","0","comp_question","","","","true","","","","","","","","","",""
"comp-q","107","566922","0.0-3.0-15.0-0.2-1.2","spark_pilot_2","7330","3","12","Female","","","","","","","2503.9000000953674","<p> <b> That's right! </b> One animal lives in the upper part and one lives in the lower part of every place. </p>","0","comp_answer","","","","","","","","","","","","","",""
"comp-q","108","574338","0.0-3.0-15.0-0.3-0.3","spark_pilot_2","7330","3","12","Female","","","","","","","1890.0999999046326","<p> <b> True or False? </b> </p><p> If you see a different picture, it means you are in a new place. </p>","0","comp_question","","","","false","","","","","","","","","",""
"comp-q","109","587050","0.0-3.0-15.0-0.3-1.3","spark_pilot_2","7330","3","12","Female","","","","","","","1602","<p> <b>Incorrect.</b> Lots of different images may show the same place. For example,  you may see three different images that all remind you that you are in outer space. </p>","0","comp_answer","","","","","","","","","","","","","",""
"comp-q","110","594916","0.0-3.0-15.0-0.4-0.4","spark_pilot_2","7330","3","12","Female","","","","","","","2367","<p> <b> True or False? </b> </p><p> If you see a different picture, it means you are in a new place. </p>","1","comp_question","","","","true","","","","","","","","","",""
"comp-q","111","608362","0.0-3.0-15.0-0.4-1.4","spark_pilot_2","7330","3","12","Female","","","","","","","2213.7000000476837","<p> <b> That's right! </b> Lots of different images may show the same place. For example,  you may see three different images that all remind you that you are in outer space. </p>","0","comp_answer","","","","","","","","","","","","","",""
"learning-instructions","112","619178","0.0-3.0-16.0-0.0","spark_pilot_2","7330","3","12","Female","","","","","","","960","<p> Good job. Remember to do your best because the amount of treasure you earn will be converted into bonus money. </p>
            <p> It’s time to start the real game! </p>","","instructions","","","","","","","","","","","","","",""
"learning-instructions","113","623946","0.0-4.0-0.0-0.0","spark_pilot_2","7330","3","12","Female","","","","","","","978.0999999046326","<p> This time you are searching for treasure in the <b>ocean</b>.</p>","","instructions","","","","","","","","","","","","","",""
"learning-instructions","114","642562","0.0-4.0-0.0-0.1","spark_pilot_2","7330","3","12","Female","","","","","","","1313.7999999523163","<p><b>New</b> animals with <b>new</b> treasure chests live here. You need to explore to discover where the animal with the best treasure chest is.</p>
                    <p> Like before, once you figure out which animal has the chest with the most treasure, you should try to get to that animal and select that chest! </p>","","instructions","","","","","","","","","","","","","",""
"learning-instructions","115","658514","0.0-4.0-1.0-0.0","spark_pilot_2","7330","3","12","Female","","","","","","","1225.8999998569489","<p> Remember, when you see a picture of the place, use the up and down keys to <b>find an animal</b>.</p>
            <p> When you encounter an animal, you should use the left and right keys to <b>select a treasure chest</b>.</p>
            <p> Don't forget to look out for the robber! </p>","","instructions","","","","","","","","","","","","","",""
"revaluation","116","664546","0.0-4.0-2.0-0.0","spark_pilot_2","7330","3","12","Female","","false","","","","","[1020.1999998092651,665.2999999523163]","./assets/img/ocean/memory/33.jpg","[""ArrowUp"",""ArrowRight""]","value training","ocean","10","{""ArrowUp,ArrowLeft"":23,""ArrowUp,ArrowRight"":10,""ArrowDown,ArrowLeft"":8,""ArrowDown,ArrowRight"":30}","false","ArrowUp,ArrowRight","false","","","original","1","0","","",""
"html-keyboard-response","117","665066","0.0-4.0-2.0-1.0","spark_pilot_2","7330","3","12","Female","","","","","","","null","<div style=""font-size:60px;"">+</div>","null","fixation","","","","","","","","","","","1","","",""
"revaluation","118","669097","0.0-4.0-2.0-0.1","spark_pilot_2","7330","3","12","Female","","true","","","","","[]","./assets/img/ocean/catch/2.jpg","[]","value training","ocean","-5","{""ArrowUp,ArrowLeft"":23,""ArrowUp,ArrowRight"":10,""ArrowDown,ArrowLeft"":8,""ArrowDown,ArrowRight"":30}","false","","true","","","original","1","2","","",""
"html-keyboard-response","119","669616","0.0-4.0-2.0-1.1","spark_pilot_2","7330","3","12","Female","","","","","","","null","<div style=""font-size:60px;"">+</div>","null","fixation","","","","","","","","","","","3","","",""
"revaluation","120","673637","0.0-4.0-2.0-0.2","spark_pilot_2","7330","3","12","Female","","true","","","","","[]","./assets/img/ocean/memory/7.jpg","[]","value training","ocean","-5","{""ArrowUp,ArrowLeft"":23,""ArrowUp,ArrowRight"":10,""ArrowDown,ArrowLeft"":8,""ArrowDown,ArrowRight"":30}","false","","false","","","original","1","4","","",""
"html-keyboard-response","121","674139","0.0-4.0-2.0-1.2","spark_pilot_2","7330","3","12","Female","","","","","","","null","<div style=""font-size:60px;"">+</div>","null","fixation","","","","","","","","","","","5","","",""
"revaluation","122","678166","0.0-4.0-2.0-0.3","spark_pilot_2","7330","3","12","Female","","false","","","","","[1186.1000001430511]","./assets/img/ocean/catch/6.jpg","[""spaceBar""]","value training","ocean","0","{""ArrowUp,ArrowLeft"":23,""ArrowUp,ArrowRight"":10,""ArrowDown,ArrowLeft"":8,""ArrowDown,ArrowRight"":30}","true","spaceBar","true","","","original","1","6","","",""
"html-keyboard-response","123","678686","0.0-4.0-2.0-1.3","spark_pilot_2","7330","3","12","Female","","","","","","","null","<div style=""font-size:60px;"">+</div>","null","fixation","","","","","","","","","","","7","","",""
"revaluation","124","684716","0.0-4.0-2.0-0.4","spark_pilot_2","7330","3","12","Female","","false","","","","","[804.0999999046326,831.5999999046326]","./assets/img/ocean/memory/27.jpg","[""ArrowUp"",""ArrowLeft""]","value training","ocean","23","{""ArrowUp,ArrowLeft"":23,""ArrowUp,ArrowRight"":10,""ArrowDown,ArrowLeft"":8,""ArrowDown,ArrowRight"":30}","false","ArrowUp,ArrowLeft","false","","","original","1","8","","",""
"html-keyboard-response","125","685236","0.0-4.0-2.0-1.4","spark_pilot_2","7330","3","12","Female","","","","","","","null","<div style=""font-size:60px;"">+</div>","null","fixation","","","","","","","","","","","9","","",""
"revaluation","126","689247","0.0-4.0-2.0-0.5","spark_pilot_2","7330","3","12","Female","","false","","","","","[798.7000000476837]","./assets/img/ocean/catch/3.jpg","[""spaceBar""]","value training","ocean","0","{""ArrowUp,ArrowLeft"":23,""ArrowUp,ArrowRight"":10,""ArrowDown,ArrowLeft"":8,""ArrowDown,ArrowRight"":30}","true","spaceBar","true","","","original","1","10","","",""
"html-keyboard-response","127","689749","0.0-4.0-2.0-1.5","spark_pilot_2","7330","3","12","Female","","","","","","","null","<div style=""font-size:60px;"">+</div>","null","fixation","","","","","","","","","","","11","","",""
"revaluation","128","695756","0.0-4.0-2.0-0.6","spark_pilot_2","7330","3","12","Female","","false","","","","","[845.7999999523163,853.4000000953674]","./assets/img/ocean/memory/19.jpg","[""ArrowDown"",""ArrowLeft""]","value training","ocean","8","{""ArrowUp,ArrowLeft"":23,""ArrowUp,ArrowRight"":10,""ArrowDown,ArrowLeft"":8,""ArrowDown,ArrowRight"":30}","false","ArrowDown,ArrowLeft","false","","","original","1","12","","",""
"html-keyboard-response","129","696257","0.0-4.0-2.0-1.6","spark_pilot_2","7330","3","12","Female","","","","","","","null","<div style=""font-size:60px;"">+</div>","null","fixation","","","","","","","","","","","13","","",""
"revaluation","130","702263","0.0-4.0-2.0-0.7","spark_pilot_2","7330","3","12","Female","","false","","","","","[506.10000014305115,489.60000014305115]","./assets/img/ocean/memory/1.jpg","[""ArrowDown"",""ArrowRight""]","value training","ocean","30","{""ArrowUp,ArrowLeft"":23,""ArrowUp,ArrowRight"":10,""ArrowDown,ArrowLeft"":8,""ArrowDown,ArrowRight"":30}","true","ArrowDown,ArrowRight","false","","","original","1","14","","",""
"html-keyboard-response","131","702764","0.0-4.0-2.0-1.7","spark_pilot_2","7330","3","12","Female","","","","","","","null","<div style=""font-size:60px;"">+</div>","null","fixation","","","","","","","","","","","15","","",""
"revaluation","132","708772","0.0-4.0-2.0-0.8","spark_pilot_2","7330","3","12","Female","","false","","","","","[742.0999999046326,525.3000001907349]","./assets/img/ocean/memory/12.jpg","[""ArrowDown"",""ArrowRight""]","value training","ocean","30","{""ArrowUp,ArrowLeft"":23,""ArrowUp,ArrowRight"":10,""ArrowDown,ArrowLeft"":8,""ArrowDown,ArrowRight"":30}","true","ArrowDown,ArrowRight","false","","","original","1","16","","",""
"html-keyboard-response","133","709274","0.0-4.0-2.0-1.8","spark_pilot_2","7330","3","12","Female","","","","","","","null","<div style=""font-size:60px;"">+</div>","null","fixation","","","","","","","","","","","17","","",""
"revaluation","134","715282","0.0-4.0-2.0-0.9","spark_pilot_2","7330","3","12","Female","","false","","","","","[736.6000001430511,511.10000014305115]","./assets/img/ocean/memory/27.jpg","[""ArrowDown"",""ArrowRight""]","value training","ocean","30","{""ArrowUp,ArrowLeft"":23,""ArrowUp,ArrowRight"":10,""ArrowDown,ArrowLeft"":8,""ArrowDown,ArrowRight"":30}","true","ArrowDown,ArrowRight","false","","","original","1","18","","",""
"html-keyboard-response","135","715784","0.0-4.0-2.0-1.9","spark_pilot_2","7330","3","12","Female","","","","","","","null","<div style=""font-size:60px;"">+</div>","null","fixation","","","","","","","","","","","19","","",""
"revaluation","136","721791","0.0-4.0-2.0-0.10","spark_pilot_2","7330","3","12","Female","","false","","","","","[866.4000000953674,609.7999999523163]","./assets/img/ocean/memory/26.jpg","[""ArrowDown"",""ArrowRight""]","value training","ocean","30","{""ArrowUp,ArrowLeft"":23,""ArrowUp,ArrowRight"":10,""ArrowDown,ArrowLeft"":8,""ArrowDown,ArrowRight"":30}","true","ArrowDown,ArrowRight","false","","","original","1","20","","",""
"html-keyboard-response","137","722294","0.0-4.0-2.0-1.10","spark_pilot_2","7330","3","12","Female","","","","","","","null","<div style=""font-size:60px;"">+</div>","null","fixation","","","","","","","","","","","21","","",""
"revaluation","138","728301","0.0-4.0-2.0-0.11","spark_pilot_2","7330","3","12","Female","","false","","","","","[804.7999999523163,588.0999999046326]","./assets/img/ocean/memory/28.jpg","[""ArrowDown"",""ArrowRight""]","value training","ocean","30","{""ArrowUp,ArrowLeft"":23,""ArrowUp,ArrowRight"":10,""ArrowDown,ArrowLeft"":8,""ArrowDown,ArrowRight"":30}","true","ArrowDown,ArrowRight","false","","","original","1","22","","",""
"html-keyboard-response","139","728802","0.0-4.0-2.0-1.11","spark_pilot_2","7330","3","12","Female","","","","","","","null","<div style=""font-size:60px;"">+</div>","null","fixation","","","","","","","","","","","23","","",""
"revaluation","140","734811","0.0-4.0-2.0-0.12","spark_pilot_2","7330","3","12","Female","","false","","","","","[656.2999999523163,942.3000001907349]","./assets/img/ocean/memory/4.jpg","[""ArrowDown"",""ArrowRight""]","value training","ocean","30","{""ArrowUp,ArrowLeft"":23,""ArrowUp,ArrowRight"":10,""ArrowDown,ArrowLeft"":8,""ArrowDown,ArrowRight"":30}","true","ArrowDown,ArrowRight","false","","","original","1","24","","",""
"html-keyboard-response","141","735312","0.0-4.0-2.0-1.12","spark_pilot_2","7330","3","12","Female","","","","","","","null","<div style=""font-size:60px;"">+</div>","null","fixation","","","","","","","","","","","25","","",""
"revaluation","142","741320","0.0-4.0-2.0-0.13","spark_pilot_2","7330","3","12","Female","","false","","","","","[562.1000001430511,665.1000001430511]","./assets/img/ocean/memory/4.jpg","[""ArrowDown"",""ArrowRight""]","value training","ocean","30","{""ArrowUp,ArrowLeft"":23,""ArrowUp,ArrowRight"":10,""ArrowDown,ArrowLeft"":8,""ArrowDown,ArrowRight"":30}","true","ArrowDown,ArrowRight","false","","","original","1","26","","",""
"html-keyboard-response","143","741822","0.0-4.0-2.0-1.13","spark_pilot_2","7330","3","12","Female","","","","","","","null","<div style=""font-size:60px;"">+</div>","null","fixation","","","","","","","","","","","27","","",""
"revaluation","144","747829","0.0-4.0-2.0-0.14","spark_pilot_2","7330","3","12","Female","","false","","","","","[1124.7999999523163,612.2000000476837]","./assets/img/ocean/memory/35.jpg","[""ArrowDown"",""ArrowRight""]","value training","ocean","30","{""ArrowUp,ArrowLeft"":23,""ArrowUp,ArrowRight"":10,""ArrowDown,ArrowLeft"":8,""ArrowDown,ArrowRight"":30}","true","ArrowDown,ArrowRight","false","","","original","1","28","","",""
"html-keyboard-response","145","748331","0.0-4.0-2.0-1.14","spark_pilot_2","7330","3","12","Female","","","","","","","null","<div style=""font-size:60px;"">+</div>","null","fixation","","","","","","","","","","","29","","",""
"revaluation","146","754338","0.0-4.0-2.0-0.15","spark_pilot_2","7330","3","12","Female","","false","","","","","[670.6999998092651,550.4000000953674]","./assets/img/ocean/memory/8.jpg","[""ArrowDown"",""ArrowRight""]","value training","ocean","30","{""ArrowUp,ArrowLeft"":23,""ArrowUp,ArrowRight"":10,""ArrowDown,ArrowLeft"":8,""ArrowDown,ArrowRight"":30}","true","ArrowDown,ArrowRight","false","","","original","1","30","","",""
"html-keyboard-response","147","754840","0.0-4.0-2.0-1.15","spark_pilot_2","7330","3","12","Female","","","","","","","null","<div style=""font-size:60px;"">+</div>","null","fixation","","","","","","","","","","","31","","",""
"revaluation","148","760846","0.0-4.0-2.0-0.16","spark_pilot_2","7330","3","12","Female","","false","","","","","[674.2000000476837,641.5]","./assets/img/ocean/memory/19.jpg","[""ArrowDown"",""ArrowRight""]","value training","ocean","30","{""ArrowUp,ArrowLeft"":23,""ArrowUp,ArrowRight"":10,""ArrowDown,ArrowLeft"":8,""ArrowDown,ArrowRight"":30}","true","ArrowDown,ArrowRight","false","","","original","1","32","","",""
"html-keyboard-response","149","761348","0.0-4.0-2.0-1.16","spark_pilot_2","7330","3","12","Female","","","","","","","null","<div style=""font-size:60px;"">+</div>","null","fixation","","","","","","","","","","","33","","",""
"revaluation","150","767355","0.0-4.0-2.0-0.17","spark_pilot_2","7330","3","12","Female","","false","","","","","[510.09999990463257,1093.1999998092651]","./assets/img/ocean/memory/33.jpg","[""ArrowDown"",""ArrowRight""]","value training","ocean","30","{""ArrowUp,ArrowLeft"":23,""ArrowUp,ArrowRight"":10,""ArrowDown,ArrowLeft"":8,""ArrowDown,ArrowRight"":30}","true","ArrowDown,ArrowRight","false","","","original","1","34","","",""
"html-keyboard-response","151","767856","0.0-4.0-2.0-1.17","spark_pilot_2","7330","3","12","Female","","","","","","","null","<div style=""font-size:60px;"">+</div>","null","fixation","","","","","","","","","","","35","","",""
"revaluation","152","773863","0.0-4.0-2.0-0.18","spark_pilot_2","7330","3","12","Female","","false","","","","","[785.5,792.5999999046326]","./assets/img/ocean/memory/0.jpg","[""ArrowDown"",""ArrowRight""]","value training","ocean","30","{""ArrowUp,ArrowLeft"":23,""ArrowUp,ArrowRight"":10,""ArrowDown,ArrowLeft"":8,""ArrowDown,ArrowRight"":30}","true","ArrowDown,ArrowRight","false","","","original","1","36","","",""
"html-keyboard-response","153","774365","0.0-4.0-2.0-1.18","spark_pilot_2","7330","3","12","Female","","","","","","","null","<div style=""font-size:60px;"">+</div>","null","fixation","","","","","","","","","","","37","","",""
"revaluation","154","780370","0.0-4.0-2.0-0.19","spark_pilot_2","7330","3","12","Female","","false","","","","","[925.3999998569489,596.5999999046326]","./assets/img/ocean/memory/2.jpg","[""ArrowDown"",""ArrowRight""]","value training","ocean","30","{""ArrowUp,ArrowLeft"":23,""ArrowUp,ArrowRight"":10,""ArrowDown,ArrowLeft"":8,""ArrowDown,ArrowRight"":30}","true","ArrowDown,ArrowRight","false","","","original","1","38","","",""
"html-keyboard-response","155","780872","0.0-4.0-2.0-1.19","spark_pilot_2","7330","3","12","Female","","","","","","","null","<div style=""font-size:60px;"">+</div>","null","fixation","","","","","","","","","","","39","","",""
"revaluation","156","786880","0.0-4.0-2.0-0.20","spark_pilot_2","7330","3","12","Female","","false","","","","","[680.2999999523163,704.7000000476837]","./assets/img/ocean/memory/0.jpg","[""ArrowDown"",""ArrowRight""]","value training","ocean","30","{""ArrowUp,ArrowLeft"":23,""ArrowUp,ArrowRight"":10,""ArrowDown,ArrowLeft"":8,""ArrowDown,ArrowRight"":30}","true","ArrowDown,ArrowRight","false","","","original","1","40","","",""
"html-keyboard-response","157","787382","0.0-4.0-2.0-1.20","spark_pilot_2","7330","3","12","Female","","","","","","","null","<div style=""font-size:60px;"">+</div>","null","fixation","","","","","","","","","","","41","","",""
"revaluation","158","793390","0.0-4.0-2.0-0.21","spark_pilot_2","7330","3","12","Female","","false","","","","","[1011.7999999523163,947.2000000476837]","./assets/img/ocean/memory/28.jpg","[""ArrowDown"",""ArrowRight""]","value training","ocean","30","{""ArrowUp,ArrowLeft"":23,""ArrowUp,ArrowRight"":10,""ArrowDown,ArrowLeft"":8,""ArrowDown,ArrowRight"":30}","true","ArrowDown,ArrowRight","false","","","original","1","42","","",""
"html-keyboard-response","159","793891","0.0-4.0-2.0-1.21","spark_pilot_2","7330","3","12","Female","","","","","","","null","<div style=""font-size:60px;"">+</div>","null","fixation","","","","","","","","","","","43","","",""
"revaluation","160","799899","0.0-4.0-2.0-0.22","spark_pilot_2","7330","3","12","Female","","false","","","","","[637.9000000953674,869.4000000953674]","./assets/img/ocean/memory/9.jpg","[""ArrowDown"",""ArrowRight""]","value training","ocean","30","{""ArrowUp,ArrowLeft"":23,""ArrowUp,ArrowRight"":10,""ArrowDown,ArrowLeft"":8,""ArrowDown,ArrowRight"":30}","true","ArrowDown,ArrowRight","false","","","original","1","44","","",""
"html-keyboard-response","161","800401","0.0-4.0-2.0-1.22","spark_pilot_2","7330","3","12","Female","","","","","","","null","<div style=""font-size:60px;"">+</div>","null","fixation","","","","","","","","","","","45","","",""
"revaluation","162","806407","0.0-4.0-2.0-0.23","spark_pilot_2","7330","3","12","Female","","false","","","","","[425.2000000476837,1112.5999999046326]","./assets/img/ocean/memory/16.jpg","[""ArrowDown"",""ArrowRight""]","value training","ocean","30","{""ArrowUp,ArrowLeft"":23,""ArrowUp,ArrowRight"":10,""ArrowDown,ArrowLeft"":8,""ArrowDown,ArrowRight"":30}","true","ArrowDown,ArrowRight","false","","","original","1","46","","",""
"html-keyboard-response","163","806908","0.0-4.0-2.0-1.23","spark_pilot_2","7330","3","12","Female","","","","","","","null","<div style=""font-size:60px;"">+</div>","null","fixation","","","","","","","","","","","47","","",""
"revaluation","164","812915","0.0-4.0-2.0-0.24","spark_pilot_2","7330","3","12","Female","","false","","","","","[828.9000000953674,532.2000000476837]","./assets/img/ocean/memory/22.jpg","[""ArrowDown"",""ArrowRight""]","value training","ocean","30","{""ArrowUp,ArrowLeft"":23,""ArrowUp,ArrowRight"":10,""ArrowDown,ArrowLeft"":8,""ArrowDown,ArrowRight"":30}","true","ArrowDown,ArrowRight","false","","","original","1","48","","",""
"html-keyboard-response","165","813416","0.0-4.0-2.0-1.24","spark_pilot_2","7330","3","12","Female","","","","","","","null","<div style=""font-size:60px;"">+</div>","null","fixation","","","","","","","","","","","49","","",""
"revaluation","166","819423","0.0-4.0-2.0-0.25","spark_pilot_2","7330","3","12","Female","","false","","","","","[681.5,712.2000000476837]","./assets/img/ocean/memory/31.jpg","[""ArrowDown"",""ArrowRight""]","value training","ocean","30","{""ArrowUp,ArrowLeft"":23,""ArrowUp,ArrowRight"":10,""ArrowDown,ArrowLeft"":8,""ArrowDown,ArrowRight"":30}","true","ArrowDown,ArrowRight","false","","","original","1","50","","",""
"html-keyboard-response","167","819924","0.0-4.0-2.0-1.25","spark_pilot_2","7330","3","12","Female","","","","","","","null","<div style=""font-size:60px;"">+</div>","null","fixation","","","","","","","","","","","51","","",""
"revaluation","168","825931","0.0-4.0-2.0-0.26","spark_pilot_2","7330","3","12","Female","","false","","","","","[468.90000009536743,404.09999990463257]","./assets/img/ocean/memory/12.jpg","[""ArrowDown"",""ArrowRight""]","value training","ocean","30","{""ArrowUp,ArrowLeft"":23,""ArrowUp,ArrowRight"":10,""ArrowDown,ArrowLeft"":8,""ArrowDown,ArrowRight"":30}","true","ArrowDown,ArrowRight","false","","","original","1","52","","",""
"html-keyboard-response","169","826433","0.0-4.0-2.0-1.26","spark_pilot_2","7330","3","12","Female","","","","","","","null","<div style=""font-size:60px;"">+</div>","null","fixation","","","","","","","","","","","53","","",""
"revaluation","170","832441","0.0-4.0-2.0-0.27","spark_pilot_2","7330","3","12","Female","","false","","","","","[648.2000000476837,838.5]","./assets/img/ocean/memory/9.jpg","[""ArrowDown"",""ArrowLeft""]","value training","ocean","8","{""ArrowUp,ArrowLeft"":23,""ArrowUp,ArrowRight"":10,""ArrowDown,ArrowLeft"":8,""ArrowDown,ArrowRight"":30}","false","ArrowDown,ArrowLeft","false","","","original","1","54","","",""
"html-keyboard-response","171","832943","0.0-4.0-2.0-1.27","spark_pilot_2","7330","3","12","Female","","","","","","","null","<div style=""font-size:60px;"">+</div>","null","fixation","","","","","","","","","","","55","","",""
"revaluation","172","838950","0.0-4.0-2.0-0.28","spark_pilot_2","7330","3","12","Female","","false","","","","","[1033.7999999523163,1296.8999998569489]","./assets/img/ocean/memory/21.jpg","[""ArrowUp"",""ArrowRight""]","value training","ocean","10","{""ArrowUp,ArrowLeft"":23,""ArrowUp,ArrowRight"":10,""ArrowDown,ArrowLeft"":8,""ArrowDown,ArrowRight"":30}","false","ArrowUp,ArrowRight","false","","","original","1","56","","",""
"html-keyboard-response","173","839452","0.0-4.0-2.0-1.28","spark_pilot_2","7330","3","12","Female","","","","","","","null","<div style=""font-size:60px;"">+</div>","null","fixation","","","","","","","","","","","57","","",""
"revaluation","174","845460","0.0-4.0-2.0-0.29","spark_pilot_2","7330","3","12","Female","","false","","","","","[973.2999999523163,467.7999999523163]","./assets/img/ocean/memory/32.jpg","[""ArrowUp"",""ArrowLeft""]","value training","ocean","23","{""ArrowUp,ArrowLeft"":23,""ArrowUp,ArrowRight"":10,""ArrowDown,ArrowLeft"":8,""ArrowDown,ArrowRight"":30}","false","ArrowUp,ArrowLeft","false","","","original","1","58","","",""
"html-keyboard-response","175","845961","0.0-4.0-2.0-1.29","spark_pilot_2","7330","3","12","Female","","","","","","","null","<div style=""font-size:60px;"">+</div>","null","fixation","","","","","","","","","","","59","","",""
"revaluation","176","851967","0.0-4.0-2.0-0.30","spark_pilot_2","7330","3","12","Female","","false","","","","","[648,711.2999999523163]","./assets/img/ocean/memory/8.jpg","[""ArrowDown"",""ArrowRight""]","value training","ocean","30","{""ArrowUp,ArrowLeft"":23,""ArrowUp,ArrowRight"":10,""ArrowDown,ArrowLeft"":8,""ArrowDown,ArrowRight"":30}","true","ArrowDown,ArrowRight","false","","","original","1","60","","",""
"html-keyboard-response","177","852470","0.0-4.0-2.0-1.30","spark_pilot_2","7330","3","12","Female","","","","","","","null","<div style=""font-size:60px;"">+</div>","null","fixation","","","","","","","","","","","61","","",""
"revaluation","178","858478","0.0-4.0-2.0-0.31","spark_pilot_2","7330","3","12","Female","","false","","","","","[802.3000001907349,1009.5]","./assets/img/ocean/memory/35.jpg","[""ArrowDown"",""ArrowRight""]","value training","ocean","30","{""ArrowUp,ArrowLeft"":23,""ArrowUp,ArrowRight"":10,""ArrowDown,ArrowLeft"":8,""ArrowDown,ArrowRight"":30}","true","ArrowDown,ArrowRight","false","","","original","1","62","","",""
"html-keyboard-response","179","858980","0.0-4.0-2.0-1.31","spark_pilot_2","7330","3","12","Female","","","","","","","null","<div style=""font-size:60px;"">+</div>","null","fixation","","","","","","","","","","","63","","",""
"revaluation","180","864989","0.0-4.0-2.0-0.32","spark_pilot_2","7330","3","12","Female","","false","","","","","[684.3999998569489,963.5999999046326]","./assets/img/ocean/memory/11.jpg","[""ArrowDown"",""ArrowRight""]","value training","ocean","30","{""ArrowUp,ArrowLeft"":23,""ArrowUp,ArrowRight"":10,""ArrowDown,ArrowLeft"":8,""ArrowDown,ArrowRight"":30}","true","ArrowDown,ArrowRight","false","","","original","1","64","","",""
"html-keyboard-response","181","865490","0.0-4.0-2.0-1.32","spark_pilot_2","7330","3","12","Female","","","","","","","null","<div style=""font-size:60px;"">+</div>","null","fixation","","","","","","","","","","","65","","",""
"revaluation","182","869496","0.0-4.0-2.0-0.33","spark_pilot_2","7330","3","12","Female","","false","","","","","[934.4000000953674]","./assets/img/ocean/catch/0.jpg","[""spaceBar""]","value training","ocean","0","{""ArrowUp,ArrowLeft"":23,""ArrowUp,ArrowRight"":10,""ArrowDown,ArrowLeft"":8,""ArrowDown,ArrowRight"":30}","true","spaceBar","true","","","original","1","66","","",""
"html-keyboard-response","183","869997","0.0-4.0-2.0-1.33","spark_pilot_2","7330","3","12","Female","","","","","","","null","<div style=""font-size:60px;"">+</div>","null","fixation","","","","","","","","","","","67","","",""
"revaluation","184","876004","0.0-4.0-2.0-0.34","spark_pilot_2","7330","3","12","Female","","false","","","","","[499.2000000476837,523.2000000476837]","./assets/img/ocean/memory/7.jpg","[""ArrowDown"",""ArrowRight""]","value training","ocean","30","{""ArrowUp,ArrowLeft"":23,""ArrowUp,ArrowRight"":10,""ArrowDown,ArrowLeft"":8,""ArrowDown,ArrowRight"":30}","true","ArrowDown,ArrowRight","false","","","original","1","68","","",""
"html-keyboard-response","185","876506","0.0-4.0-2.0-1.34","spark_pilot_2","7330","3","12","Female","","","","","","","null","<div style=""font-size:60px;"">+</div>","null","fixation","","","","","","","","","","","69","","",""
"revaluation","186","882513","0.0-4.0-2.0-0.35","spark_pilot_2","7330","3","12","Female","","false","","","","","[678.7999999523163,620.7999999523163]","./assets/img/ocean/memory/31.jpg","[""ArrowDown"",""ArrowRight""]","value training","ocean","30","{""ArrowUp,ArrowLeft"":23,""ArrowUp,ArrowRight"":10,""ArrowDown,ArrowLeft"":8,""ArrowDown,ArrowRight"":30}","true","ArrowDown,ArrowRight","false","","","original","1","70","","",""
"html-keyboard-response","187","883015","0.0-4.0-2.0-1.35","spark_pilot_2","7330","3","12","Female","","","","","","","null","<div style=""font-size:60px;"">+</div>","null","fixation","","","","","","","","","","","71","","",""
"revaluation","188","887021","0.0-4.0-2.0-0.36","spark_pilot_2","7330","3","12","Female","","false","","","","","[921.3999998569489]","./assets/img/ocean/catch/5.jpg","[""spaceBar""]","value training","ocean","0","{""ArrowUp,ArrowLeft"":23,""ArrowUp,ArrowRight"":10,""ArrowDown,ArrowLeft"":8,""ArrowDown,ArrowRight"":30}","true","spaceBar","true","","","original","1","72","","",""
"html-keyboard-response","189","887522","0.0-4.0-2.0-1.36","spark_pilot_2","7330","3","12","Female","","","","","","","null","<div style=""font-size:60px;"">+</div>","null","fixation","","","","","","","","","","","73","","",""
"revaluation","190","893530","0.0-4.0-2.0-0.37","spark_pilot_2","7330","3","12","Female","","false","","","","","[598.4000000953674,1027.5999999046326]","./assets/img/ocean/memory/32.jpg","[""ArrowDown"",""ArrowRight""]","value training","ocean","30","{""ArrowUp,ArrowLeft"":23,""ArrowUp,ArrowRight"":10,""ArrowDown,ArrowLeft"":8,""ArrowDown,ArrowRight"":30}","true","ArrowDown,ArrowRight","false","","","original","1","74","","",""
"html-keyboard-response","191","894032","0.0-4.0-2.0-1.37","spark_pilot_2","7330","3","12","Female","","","","","","","null","<div style=""font-size:60px;"">+</div>","null","fixation","","","","","","","","","","","75","","",""
"revaluation","192","900040","0.0-4.0-2.0-0.38","spark_pilot_2","7330","3","12","Female","","false","","","","","[936,894.3999998569489]","./assets/img/ocean/memory/16.jpg","[""ArrowDown"",""ArrowRight""]","value training","ocean","30","{""ArrowUp,ArrowLeft"":23,""ArrowUp,ArrowRight"":10,""ArrowDown,ArrowLeft"":8,""ArrowDown,ArrowRight"":30}","true","ArrowDown,ArrowRight","false","","","original","1","76","","",""
"html-keyboard-response","193","900542","0.0-4.0-2.0-1.38","spark_pilot_2","7330","3","12","Female","","","","","","","null","<div style=""font-size:60px;"">+</div>","null","fixation","","","","","","","","","","","77","","",""
"revaluation","194","906549","0.0-4.0-2.0-0.39","spark_pilot_2","7330","3","12","Female","","false","","","","","[891,649.9000000953674]","./assets/img/ocean/memory/11.jpg","[""ArrowDown"",""ArrowRight""]","value training","ocean","30","{""ArrowUp,ArrowLeft"":23,""ArrowUp,ArrowRight"":10,""ArrowDown,ArrowLeft"":8,""ArrowDown,ArrowRight"":30}","true","ArrowDown,ArrowRight","false","","","original","1","78","","",""
"html-keyboard-response","195","907050","0.0-4.0-2.0-1.39","spark_pilot_2","7330","3","12","Female","","","","","","","null","<div style=""font-size:60px;"">+</div>","null","fixation","","","","","","","","","","","79","","",""
"revaluation","196","911056","0.0-4.0-2.0-0.40","spark_pilot_2","7330","3","12","Female","","false","","","","","[1005.7000000476837]","./assets/img/ocean/catch/1.jpg","[""spaceBar""]","value training","ocean","0","{""ArrowUp,ArrowLeft"":23,""ArrowUp,ArrowRight"":10,""ArrowDown,ArrowLeft"":8,""ArrowDown,ArrowRight"":30}","true","spaceBar","true","","","original","1","80","","",""
"html-keyboard-response","197","911559","0.0-4.0-2.0-1.40","spark_pilot_2","7330","3","12","Female","","","","","","","null","<div style=""font-size:60px;"">+</div>","null","fixation","","","","","","","","","","","81","","",""
"revaluation","198","915565","0.0-4.0-2.0-0.41","spark_pilot_2","7330","3","12","Female","","false","","","","","[866.3000001907349]","./assets/img/ocean/catch/4.jpg","[""spaceBar""]","value training","ocean","0","{""ArrowUp,ArrowLeft"":23,""ArrowUp,ArrowRight"":10,""ArrowDown,ArrowLeft"":8,""ArrowDown,ArrowRight"":30}","true","spaceBar","true","","","original","1","82","","",""
"html-keyboard-response","199","916066","0.0-4.0-2.0-1.41","spark_pilot_2","7330","3","12","Female","","","","","","","null","<div style=""font-size:60px;"">+</div>","null","fixation","","","","","","","","","","","83","","",""
"revaluation","200","922072","0.0-4.0-2.0-0.42","spark_pilot_2","7330","3","12","Female","","false","","","","","[869.5999999046326,573.4000000953674]","./assets/img/ocean/memory/1.jpg","[""ArrowDown"",""ArrowRight""]","value training","ocean","30","{""ArrowUp,ArrowLeft"":23,""ArrowUp,ArrowRight"":10,""ArrowDown,ArrowLeft"":8,""ArrowDown,ArrowRight"":30}","true","ArrowDown,ArrowRight","false","","","original","1","84","","",""
"html-keyboard-response","201","922574","0.0-4.0-2.0-1.42","spark_pilot_2","7330","3","12","Female","","","","","","","null","<div style=""font-size:60px;"">+</div>","null","fixation","","","","","","","","","","","85","","",""
"revaluation","202","926580","0.0-4.0-2.0-0.43","spark_pilot_2","7330","3","12","Female","","false","","","","","[1121.7999999523163]","./assets/img/ocean/catch/7.jpg","[""spaceBar""]","value training","ocean","0","{""ArrowUp,ArrowLeft"":23,""ArrowUp,ArrowRight"":10,""ArrowDown,ArrowLeft"":8,""ArrowDown,ArrowRight"":30}","true","spaceBar","true","","","original","1","86","","",""
"html-keyboard-response","203","927082","0.0-4.0-2.0-1.43","spark_pilot_2","7330","3","12","Female","","","","","","","null","<div style=""font-size:60px;"">+</div>","null","fixation","","","","","","","","","","","87","","",""
"revaluation","204","933090","0.0-4.0-2.0-0.44","spark_pilot_2","7330","3","12","Female","","false","","","","","[1909.1000001430511,612.1000001430511]","./assets/img/ocean/memory/20.jpg","[""ArrowDown"",""ArrowRight""]","value training","ocean","30","{""ArrowUp,ArrowLeft"":23,""ArrowUp,ArrowRight"":10,""ArrowDown,ArrowLeft"":8,""ArrowDown,ArrowRight"":30}","true","ArrowDown,ArrowRight","false","","","original","1","88","","",""
"html-keyboard-response","205","933591","0.0-4.0-2.0-1.44","spark_pilot_2","7330","3","12","Female","","","","","","","null","<div style=""font-size:60px;"">+</div>","null","fixation","","","","","","","","","","","89","","",""
"revaluation","206","939610","0.0-4.0-2.0-0.45","spark_pilot_2","7330","3","12","Female","","false","","","","","[832.5,611.5]","./assets/img/ocean/memory/21.jpg","[""ArrowDown"",""ArrowRight""]","value training","ocean","30","{""ArrowUp,ArrowLeft"":23,""ArrowUp,ArrowRight"":10,""ArrowDown,ArrowLeft"":8,""ArrowDown,ArrowRight"":30}","true","ArrowDown,ArrowRight","false","","","original","1","90","","",""
"html-keyboard-response","207","940112","0.0-4.0-2.0-1.45","spark_pilot_2","7330","3","12","Female","","","","","","","null","<div style=""font-size:60px;"">+</div>","null","fixation","","","","","","","","","","","91","","",""
"revaluation","208","946119","0.0-4.0-2.0-0.46","spark_pilot_2","7330","3","12","Female","","false","","","","","[1095.6999998092651,558.7999999523163]","./assets/img/ocean/memory/20.jpg","[""ArrowDown"",""ArrowRight""]","value training","ocean","30","{""ArrowUp,ArrowLeft"":23,""ArrowUp,ArrowRight"":10,""ArrowDown,ArrowLeft"":8,""ArrowDown,ArrowRight"":30}","true","ArrowDown,ArrowRight","false","","","original","1","92","","",""
"html-keyboard-response","209","946621","0.0-4.0-2.0-1.46","spark_pilot_2","7330","3","12","Female","","","","","","","null","<div style=""font-size:60px;"">+</div>","null","fixation","","","","","","","","","","","93","","",""
"revaluation","210","952626","0.0-4.0-2.0-0.47","spark_pilot_2","7330","3","12","Female","","false","","","","","[716.3000001907349,731.7999999523163]","./assets/img/ocean/memory/26.jpg","[""ArrowDown"",""ArrowRight""]","value training","ocean","30","{""ArrowUp,ArrowLeft"":23,""ArrowUp,ArrowRight"":10,""ArrowDown,ArrowLeft"":8,""ArrowDown,ArrowRight"":30}","true","ArrowDown,ArrowRight","false","","","original","1","94","","",""
"html-keyboard-response","211","953129","0.0-4.0-2.0-1.47","spark_pilot_2","7330","3","12","Female","","","","","","","null","<div style=""font-size:60px;"">+</div>","null","fixation","","","","","","","","","","","95","","",""
"revaluation","212","959136","0.0-4.0-2.0-0.48","spark_pilot_2","7330","3","12","Female","","false","","","","","[662.4000000953674,582.2999999523163]","./assets/img/ocean/memory/22.jpg","[""ArrowDown"",""ArrowRight""]","value training","ocean","30","{""ArrowUp,ArrowLeft"":23,""ArrowUp,ArrowRight"":10,""ArrowDown,ArrowLeft"":8,""ArrowDown,ArrowRight"":30}","true","ArrowDown,ArrowRight","false","","","original","1","96","","",""
"html-keyboard-response","213","959638","0.0-4.0-2.0-1.48","spark_pilot_2","7330","3","12","Female","","","","","","","null","<div style=""font-size:60px;"">+</div>","null","fixation","","","","","","","","","","","97","","",""
"revaluation","214","965645","0.0-4.0-2.0-0.49","spark_pilot_2","7330","3","12","Female","","false","","","","","[1105.4000000953674,833.3000001907349]","./assets/img/ocean/memory/2.jpg","[""ArrowDown"",""ArrowRight""]","value training","ocean","30","{""ArrowUp,ArrowLeft"":23,""ArrowUp,ArrowRight"":10,""ArrowDown,ArrowLeft"":8,""ArrowDown,ArrowRight"":30}","true","ArrowDown,ArrowRight","false","","","original","1","98","","",""
"html-keyboard-response","215","966146","0.0-4.0-2.0-1.49","spark_pilot_2","7330","3","12","Female","","","","","","","null","<div style=""font-size:60px;"">+</div>","null","fixation","","","","","","","","","","","99","","",""
"learning-instructions","216","980238","0.0-4.0-3.0-0.0","spark_pilot_2","7330","3","12","Female","","","","","","","1134.1000001430511","<p> Now, you will travel with a friend who will choose whether you go up or down first. </p>
            <p> On these turns, you will just see the animal that they found. You will still get to choose which chest to search for treasure.</p>","","instructions","","","","","","","","","","","","","",""
"revaluation","217","984253","0.0-4.0-4.0-0.0","spark_pilot_2","7330","3","12","Female","","false","","","","","[996.0999999046326]","./assets/img/ocean/animals/seahorse.jpg","[""ArrowRight""]","revaluation","ocean","10","{""ArrowUp,ArrowLeft"":23,""ArrowUp,ArrowRight"":10,""ArrowDown,ArrowLeft"":8,""ArrowDown,ArrowRight"":30}","false","ArrowUp,ArrowRight","","","","original","1","0","","",""
"html-keyboard-response","218","984759","0.0-4.0-4.0-1.0","spark_pilot_2","7330","3","12","Female","","","","","","","null","<div style=""font-size:60px;"">+</div>","null","fixation","","","","","","","","","","","1","","",""
"revaluation","219","988793","0.0-4.0-4.0-0.1","spark_pilot_2","7330","3","12","Female","","false","","","","","[583.4000000953674]","./assets/img/ocean/animals/octopus.jpg","[""ArrowRight""]","revaluation","ocean","30","{""ArrowUp,ArrowLeft"":23,""ArrowUp,ArrowRight"":10,""ArrowDown,ArrowLeft"":8,""ArrowDown,ArrowRight"":30}","true","ArrowDown,ArrowRight","","","","original","1","2","","",""
"html-keyboard-response","220","989313","0.0-4.0-4.0-1.1","spark_pilot_2","7330","3","12","Female","","","","","","","null","<div style=""font-size:60px;"">+</div>","null","fixation","","","","","","","","","","","3","","",""
"revaluation","221","993343","0.0-4.0-4.0-0.2","spark_pilot_2","7330","3","12","Female","","false","","","","","[918.7000000476837]","./assets/img/ocean/animals/octopus.jpg","[""ArrowRight""]","revaluation","ocean","30","{""ArrowUp,ArrowLeft"":23,""ArrowUp,ArrowRight"":10,""ArrowDown,ArrowLeft"":8,""ArrowDown,ArrowRight"":30}","true","ArrowDown,ArrowRight","","","","original","1","4","","",""
"html-keyboard-response","222","993862","0.0-4.0-4.0-1.2","spark_pilot_2","7330","3","12","Female","","","","","","","null","<div style=""font-size:60px;"">+</div>","null","fixation","","","","","","","","","","","5","","",""
"revaluation","223","997883","0.0-4.0-4.0-0.3","spark_pilot_2","7330","3","12","Female","","false","","","","","[600.2999999523163]","./assets/img/ocean/animals/octopus.jpg","[""ArrowRight""]","revaluation","ocean","30","{""ArrowUp,ArrowLeft"":23,""ArrowUp,ArrowRight"":10,""ArrowDown,ArrowLeft"":8,""ArrowDown,ArrowRight"":30}","true","ArrowDown,ArrowRight","","","","original","1","6","","",""
"html-keyboard-response","224","998403","0.0-4.0-4.0-1.3","spark_pilot_2","7330","3","12","Female","","","","","","","null","<div style=""font-size:60px;"">+</div>","null","fixation","","","","","","","","","","","7","","",""
"revaluation","225","1002442","0.0-4.0-4.0-0.4","spark_pilot_2","7330","3","12","Female","","false","","","","","[412.59999990463257]","./assets/img/ocean/animals/seahorse.jpg","[""ArrowLeft""]","revaluation","ocean","23","{""ArrowUp,ArrowLeft"":23,""ArrowUp,ArrowRight"":10,""ArrowDown,ArrowLeft"":8,""ArrowDown,ArrowRight"":30}","true","ArrowUp,ArrowLeft","","","","original","1","8","","",""
"html-keyboard-response","226","1002962","0.0-4.0-4.0-1.4","spark_pilot_2","7330","3","12","Female","","","","","","","null","<div style=""font-size:60px;"">+</div>","null","fixation","","","","","","","","","","","9","","",""
"revaluation","227","1006993","0.0-4.0-4.0-0.5","spark_pilot_2","7330","3","12","Female","","false","","","","","[406.90000009536743]","./assets/img/ocean/animals/seahorse.jpg","[""ArrowLeft""]","revaluation","ocean","23","{""ArrowUp,ArrowLeft"":23,""ArrowUp,ArrowRight"":10,""ArrowDown,ArrowLeft"":8,""ArrowDown,ArrowRight"":30}","true","ArrowUp,ArrowLeft","","","","original","1","10","","",""
"html-keyboard-response","228","1007512","0.0-4.0-4.0-1.5","spark_pilot_2","7330","3","12","Female","","","","","","","null","<div style=""font-size:60px;"">+</div>","null","fixation","","","","","","","","","","","11","","",""
"revaluation","229","1011519","0.0-4.0-4.0-0.6","spark_pilot_2","7330","3","12","Female","","false","","","","","[1094.5]","./assets/img/ocean/animals/octopus.jpg","[""ArrowRight""]","revaluation","ocean","30","{""ArrowUp,ArrowLeft"":23,""ArrowUp,ArrowRight"":10,""ArrowDown,ArrowLeft"":8,""ArrowDown,ArrowRight"":30}","true","ArrowDown,ArrowRight","","","","original","1","12","","",""
"html-keyboard-response","230","1012021","0.0-4.0-4.0-1.6","spark_pilot_2","7330","3","12","Female","","","","","","","null","<div style=""font-size:60px;"">+</div>","null","fixation","","","","","","","","","","","13","","",""
"revaluation","231","1016027","0.0-4.0-4.0-0.7","spark_pilot_2","7330","3","12","Female","","false","","","","","[705.2999999523163]","./assets/img/ocean/animals/seahorse.jpg","[""ArrowLeft""]","revaluation","ocean","23","{""ArrowUp,ArrowLeft"":23,""ArrowUp,ArrowRight"":10,""ArrowDown,ArrowLeft"":8,""ArrowDown,ArrowRight"":30}","true","ArrowUp,ArrowLeft","","","","original","1","14","","",""
"html-keyboard-response","232","1016529","0.0-4.0-4.0-1.7","spark_pilot_2","7330","3","12","Female","","","","","","","null","<div style=""font-size:60px;"">+</div>","null","fixation","","","","","","","","","","","15","","",""
"revaluation","233","1020533","0.0-4.0-4.0-0.8","spark_pilot_2","7330","3","12","Female","","false","","","","","[680.1000001430511]","./assets/img/ocean/animals/seahorse.jpg","[""ArrowLeft""]","revaluation","ocean","23","{""ArrowUp,ArrowLeft"":23,""ArrowUp,ArrowRight"":10,""ArrowDown,ArrowLeft"":8,""ArrowDown,ArrowRight"":30}","true","ArrowUp,ArrowLeft","","","","original","1","16","","",""
"html-keyboard-response","234","1021035","0.0-4.0-4.0-1.8","spark_pilot_2","7330","3","12","Female","","","","","","","null","<div style=""font-size:60px;"">+</div>","null","fixation","","","","","","","","","","","17","","",""
"revaluation","235","1025042","0.0-4.0-4.0-0.9","spark_pilot_2","7330","3","12","Female","","false","","","","","[700]","./assets/img/ocean/animals/seahorse.jpg","[""ArrowLeft""]","revaluation","ocean","23","{""ArrowUp,ArrowLeft"":23,""ArrowUp,ArrowRight"":10,""ArrowDown,ArrowLeft"":8,""ArrowDown,ArrowRight"":30}","true","ArrowUp,ArrowLeft","","","","original","1","18","","",""
"html-keyboard-response","236","1025544","0.0-4.0-4.0-1.9","spark_pilot_2","7330","3","12","Female","","","","","","","null","<div style=""font-size:60px;"">+</div>","null","fixation","","","","","","","","","","","19","","",""
"revaluation","237","1029548","0.0-4.0-4.0-0.10","spark_pilot_2","7330","3","12","Female","","false","","","","","[720.7999999523163]","./assets/img/ocean/animals/octopus.jpg","[""ArrowRight""]","revaluation","ocean","30","{""ArrowUp,ArrowLeft"":23,""ArrowUp,ArrowRight"":10,""ArrowDown,ArrowLeft"":8,""ArrowDown,ArrowRight"":30}","true","ArrowDown,ArrowRight","","","","original","1","20","","",""
"html-keyboard-response","238","1030050","0.0-4.0-4.0-1.10","spark_pilot_2","7330","3","12","Female","","","","","","","null","<div style=""font-size:60px;"">+</div>","null","fixation","","","","","","","","","","","21","","",""
"revaluation","239","1034056","0.0-4.0-4.0-0.11","spark_pilot_2","7330","3","12","Female","","false","","","","","[397.10000014305115]","./assets/img/ocean/animals/octopus.jpg","[""ArrowLeft""]","revaluation","ocean","8","{""ArrowUp,ArrowLeft"":23,""ArrowUp,ArrowRight"":10,""ArrowDown,ArrowLeft"":8,""ArrowDown,ArrowRight"":30}","false","ArrowDown,ArrowLeft","","","","original","1","22","","",""
"html-keyboard-response","240","1034558","0.0-4.0-4.0-1.11","spark_pilot_2","7330","3","12","Female","","","","","","","null","<div style=""font-size:60px;"">+</div>","null","fixation","","","","","","","","","","","23","","",""
"revaluation","241","1038564","0.0-4.0-4.0-0.12","spark_pilot_2","7330","3","12","Female","","false","","","","","[817.3000001907349]","./assets/img/ocean/animals/seahorse.jpg","[""ArrowLeft""]","revaluation","ocean","23","{""ArrowUp,ArrowLeft"":23,""ArrowUp,ArrowRight"":10,""ArrowDown,ArrowLeft"":8,""ArrowDown,ArrowRight"":30}","true","ArrowUp,ArrowLeft","","","","original","1","24","","",""
"html-keyboard-response","242","1039065","0.0-4.0-4.0-1.12","spark_pilot_2","7330","3","12","Female","","","","","","","null","<div style=""font-size:60px;"">+</div>","null","fixation","","","","","","","","","","","25","","",""
"revaluation","243","1043071","0.0-4.0-4.0-0.13","spark_pilot_2","7330","3","12","Female","","false","","","","","[461.09999990463257]","./assets/img/ocean/animals/octopus.jpg","[""ArrowRight""]","revaluation","ocean","30","{""ArrowUp,ArrowLeft"":23,""ArrowUp,ArrowRight"":10,""ArrowDown,ArrowLeft"":8,""ArrowDown,ArrowRight"":30}","true","ArrowDown,ArrowRight","","","","original","1","26","","",""
"html-keyboard-response","244","1043573","0.0-4.0-4.0-1.13","spark_pilot_2","7330","3","12","Female","","","","","","","null","<div style=""font-size:60px;"">+</div>","null","fixation","","","","","","","","","","","27","","",""
"revaluation","245","1047578","0.0-4.0-4.0-0.14","spark_pilot_2","7330","3","12","Female","","false","","","","","[625.7999999523163]","./assets/img/ocean/animals/octopus.jpg","[""ArrowRight""]","revaluation","ocean","30","{""ArrowUp,ArrowLeft"":23,""ArrowUp,ArrowRight"":10,""ArrowDown,ArrowLeft"":8,""ArrowDown,ArrowRight"":30}","true","ArrowDown,ArrowRight","","","","original","1","28","","",""
"html-keyboard-response","246","1048079","0.0-4.0-4.0-1.14","spark_pilot_2","7330","3","12","Female","","","","","","","null","<div style=""font-size:60px;"">+</div>","null","fixation","","","","","","","","","","","29","","",""
"revaluation","247","1052085","0.0-4.0-4.0-0.15","spark_pilot_2","7330","3","12","Female","","false","","","","","[727.3999998569489]","./assets/img/ocean/animals/octopus.jpg","[""ArrowRight""]","revaluation","ocean","30","{""ArrowUp,ArrowLeft"":23,""ArrowUp,ArrowRight"":10,""ArrowDown,ArrowLeft"":8,""ArrowDown,ArrowRight"":30}","true","ArrowDown,ArrowRight","","","","original","1","30","","",""
"html-keyboard-response","248","1052588","0.0-4.0-4.0-1.15","spark_pilot_2","7330","3","12","Female","","","","","","","null","<div style=""font-size:60px;"">+</div>","null","fixation","","","","","","","","","","","31","","",""
"revaluation","249","1056594","0.0-4.0-4.0-0.16","spark_pilot_2","7330","3","12","Female","","false","","","","","[1002]","./assets/img/ocean/animals/seahorse.jpg","[""ArrowLeft""]","revaluation","ocean","23","{""ArrowUp,ArrowLeft"":23,""ArrowUp,ArrowRight"":10,""ArrowDown,ArrowLeft"":8,""ArrowDown,ArrowRight"":30}","true","ArrowUp,ArrowLeft","","","","original","1","32","","",""
"html-keyboard-response","250","1057096","0.0-4.0-4.0-1.16","spark_pilot_2","7330","3","12","Female","","","","","","","null","<div style=""font-size:60px;"">+</div>","null","fixation","","","","","","","","","","","33","","",""
"revaluation","251","1061102","0.0-4.0-4.0-0.17","spark_pilot_2","7330","3","12","Female","","false","","","","","[518.6000001430511]","./assets/img/ocean/animals/seahorse.jpg","[""ArrowRight""]","revaluation","ocean","10","{""ArrowUp,ArrowLeft"":23,""ArrowUp,ArrowRight"":10,""ArrowDown,ArrowLeft"":8,""ArrowDown,ArrowRight"":30}","false","ArrowUp,ArrowRight","","","","original","1","34","","",""
"html-keyboard-response","252","1061604","0.0-4.0-4.0-1.17","spark_pilot_2","7330","3","12","Female","","","","","","","null","<div style=""font-size:60px;"">+</div>","null","fixation","","","","","","","","","","","35","","",""
"learning-instructions","253","1073837","0.0-4.0-5.0-0.0","spark_pilot_2","7330","3","12","Female","","","","","","","712","<p> Time to play the dot game! </p>
            <p> For one minute, click the red dots on the following screen as they appear. </p>
            <p><b> Don't look away, as you will earn bonus for clicking dots</b>. </p>","","instructions","","","","","","","","","","","","","",""
"revaluation","254","1133839","0.0-4.0-6.0-0.0","spark_pilot_2","7330","3","12","Female","","","","","","","[87,93,79,88,100,96]","","","rest","","60","","","","","0","60000","","","","","",""
"learning-instructions","255","1147284","0.0-4.0-7.0-0.0","spark_pilot_2","7330","3","12","Female","","","","","","","7280.099999904633","<p> You have almost finished this part of the game! </p>
            <p> We are going to ask you to make a few more choices. </p>","","instructions","","","","","","","","","","","","","",""
"learning-instructions","256","1163068","0.0-4.0-7.0-0.1","spark_pilot_2","7330","3","12","Female","","","","","","","1813.7999999523163","<p> First, you need to decide whether to go up or down. When you see each picture, use the arrow keys to make your choice. </p>
            <p><b>You will not see which animal you found, but try to get to the one that will give you the most treasure.</b></p>","","instructions","","","","","","","","","","","","","",""
"revaluation","257","1164418","0.0-4.0-8.0-0.0","spark_pilot_2","7330","3","12","Female","","false","","","","","[1347.5999999046326]","./assets/img/ocean/test/2.jpg","[""ArrowUp""]","first stage test","ocean","0","{""ArrowUp,ArrowLeft"":23,""ArrowUp,ArrowRight"":10,""ArrowDown,ArrowLeft"":8,""ArrowDown,ArrowRight"":30}","false","ArrowUp","false","","","original","1","","","",""
"html-keyboard-response","258","1164922","0.0-4.0-8.0-1.0","spark_pilot_2","7330","3","12","Female","","","","","","","null","<div style=""font-size:60px;"">+</div>","null","fixation","","","","","","","","","","","","","",""
"revaluation","259","1166418","0.0-4.0-8.0-0.1","spark_pilot_2","7330","3","12","Female","","false","","","","","[1490.5]","./assets/img/ocean/test/1.jpg","[""ArrowUp""]","first stage test","ocean","0","{""ArrowUp,ArrowLeft"":23,""ArrowUp,ArrowRight"":10,""ArrowDown,ArrowLeft"":8,""ArrowDown,ArrowRight"":30}","false","ArrowUp","false","","","original","1","","","",""
"html-keyboard-response","260","1166922","0.0-4.0-8.0-1.1","spark_pilot_2","7330","3","12","Female","","","","","","","null","<div style=""font-size:60px;"">+</div>","null","fixation","","","","","","","","","","","","","",""
"revaluation","261","1168370","0.0-4.0-8.0-0.2","spark_pilot_2","7330","3","12","Female","","false","","","","","[1442.5]","./assets/img/ocean/test/3.jpg","[""ArrowUp""]","first stage test","ocean","0","{""ArrowUp,ArrowLeft"":23,""ArrowUp,ArrowRight"":10,""ArrowDown,ArrowLeft"":8,""ArrowDown,ArrowRight"":30}","false","ArrowUp","false","","","original","1","","","",""
"html-keyboard-response","262","1168872","0.0-4.0-8.0-1.2","spark_pilot_2","7330","3","12","Female","","","","","","","null","<div style=""font-size:60px;"">+</div>","null","fixation","","","","","","","","","","","","","",""
"revaluation","263","1170642","0.0-4.0-8.0-0.3","spark_pilot_2","7330","3","12","Female","","false","","","","","[1764.1000001430511]","./assets/img/ocean/test/0.jpg","[""ArrowDown""]","first stage test","ocean","0","{""ArrowUp,ArrowLeft"":23,""ArrowUp,ArrowRight"":10,""ArrowDown,ArrowLeft"":8,""ArrowDown,ArrowRight"":30}","true","ArrowDown","false","","","original","1","","","",""
"html-keyboard-response","264","1171152","0.0-4.0-8.0-1.3","spark_pilot_2","7330","3","12","Female","","","","","","","null","<div style=""font-size:60px;"">+</div>","null","fixation","","","","","","","","","","","","","",""
"learning-instructions","265","1183284","0.0-4.0-9.0-0.0","spark_pilot_2","7330","3","12","Female","","","","","","","789.9000000953674","<p> Now you will see the animals again and can search their chests for treasure. </p>
            <p> This time, you will not see how much treasure you earned, but you will earn more bonus money for making better choices. </p>","","instructions","","","","","","","","","","","","","",""
"revaluation","266","1184410","0.0-4.0-10.0-0.0","spark_pilot_2","7330","3","12","Female","","false","","","","","[1124]","./assets/img/ocean/animals/seahorse.jpg","[""ArrowLeft""]","second stage test","ocean","0","{""ArrowUp,ArrowLeft"":23,""ArrowUp,ArrowRight"":10,""ArrowDown,ArrowLeft"":8,""ArrowDown,ArrowRight"":30}","true","ArrowUp,ArrowLeft","","","","original","1","","","",""
"html-keyboard-response","267","1184922","0.0-4.0-10.0-1.0","spark_pilot_2","7330","3","12","Female","","","","","","","null","<div style=""font-size:60px;"">+</div>","null","fixation","","","","","","","","","","","","","",""
"revaluation","268","1186442","0.0-4.0-10.0-0.1","spark_pilot_2","7330","3","12","Female","","false","","","","","[1515.2999999523163]","./assets/img/ocean/animals/seahorse.jpg","[""ArrowRight""]","second stage test","ocean","0","{""ArrowUp,ArrowLeft"":23,""ArrowUp,ArrowRight"":10,""ArrowDown,ArrowLeft"":8,""ArrowDown,ArrowRight"":30}","false","ArrowUp,ArrowRight","","","","original","1","","","",""
"html-keyboard-response","269","1186952","0.0-4.0-10.0-1.1","spark_pilot_2","7330","3","12","Female","","","","","","","null","<div style=""font-size:60px;"">+</div>","null","fixation","","","","","","","","","","","","","",""
"revaluation","270","1188034","0.0-4.0-10.0-0.2","spark_pilot_2","7330","3","12","Female","","false","","","","","[1076.5999999046326]","./assets/img/ocean/animals/seahorse.jpg","[""ArrowLeft""]","second stage test","ocean","0","{""ArrowUp,ArrowLeft"":23,""ArrowUp,ArrowRight"":10,""ArrowDown,ArrowLeft"":8,""ArrowDown,ArrowRight"":30}","true","ArrowUp,ArrowLeft","","","","original","1","","","",""
"html-keyboard-response","271","1188542","0.0-4.0-10.0-1.2","spark_pilot_2","7330","3","12","Female","","","","","","","null","<div style=""font-size:60px;"">+</div>","null","fixation","","","","","","","","","","","","","",""
"revaluation","272","1189154","0.0-4.0-10.0-0.3","spark_pilot_2","7330","3","12","Female","","false","","","","","[606.4000000953674]","./assets/img/ocean/animals/seahorse.jpg","[""ArrowLeft""]","second stage test","ocean","0","{""ArrowUp,ArrowLeft"":23,""ArrowUp,ArrowRight"":10,""ArrowDown,ArrowLeft"":8,""ArrowDown,ArrowRight"":30}","true","ArrowUp,ArrowLeft","","","","original","1","","","",""
"html-keyboard-response","273","1189672","0.0-4.0-10.0-1.3","spark_pilot_2","7330","3","12","Female","","","","","","","null","<div style=""font-size:60px;"">+</div>","null","fixation","","","","","","","","","","","","","",""
"revaluation","274","1190378","0.0-4.0-10.0-0.4","spark_pilot_2","7330","3","12","Female","","false","","","","","[702.8999998569489]","./assets/img/ocean/animals/octopus.jpg","[""ArrowRight""]","second stage test","ocean","0","{""ArrowUp,ArrowLeft"":23,""ArrowUp,ArrowRight"":10,""ArrowDown,ArrowLeft"":8,""ArrowDown,ArrowRight"":30}","true","ArrowDown,ArrowRight","","","","original","1","","","",""
"html-keyboard-response","275","1190892","0.0-4.0-10.0-1.4","spark_pilot_2","7330","3","12","Female","","","","","","","null","<div style=""font-size:60px;"">+</div>","null","fixation","","","","","","","","","","","","","",""
"revaluation","276","1191449","0.0-4.0-10.0-0.5","spark_pilot_2","7330","3","12","Female","","false","","","","","[552.7000000476837]","./assets/img/ocean/animals/octopus.jpg","[""ArrowRight""]","second stage test","ocean","0","{""ArrowUp,ArrowLeft"":23,""ArrowUp,ArrowRight"":10,""ArrowDown,ArrowLeft"":8,""ArrowDown,ArrowRight"":30}","true","ArrowDown,ArrowRight","","","","original","1","","","",""
"html-keyboard-response","277","1191952","0.0-4.0-10.0-1.5","spark_pilot_2","7330","3","12","Female","","","","","","","null","<div style=""font-size:60px;"">+</div>","null","fixation","","","","","","","","","","","","","",""
"revaluation","278","1192521","0.0-4.0-10.0-0.6","spark_pilot_2","7330","3","12","Female","","false","","","","","[564.5]","./assets/img/ocean/animals/octopus.jpg","[""ArrowRight""]","second stage test","ocean","0","{""ArrowUp,ArrowLeft"":23,""ArrowUp,ArrowRight"":10,""ArrowDown,ArrowLeft"":8,""ArrowDown,ArrowRight"":30}","true","ArrowDown,ArrowRight","","","","original","1","","","",""
"html-keyboard-response","279","1193040","0.0-4.0-10.0-1.6","spark_pilot_2","7330","3","12","Female","","","","","","","null","<div style=""font-size:60px;"">+</div>","null","fixation","","","","","","","","","","","","","",""
"revaluation","280","1193698","0.0-4.0-10.0-0.7","spark_pilot_2","7330","3","12","Female","","false","","","","","[652.7000000476837]","./assets/img/ocean/animals/octopus.jpg","[""ArrowRight""]","second stage test","ocean","0","{""ArrowUp,ArrowLeft"":23,""ArrowUp,ArrowRight"":10,""ArrowDown,ArrowLeft"":8,""ArrowDown,ArrowRight"":30}","true","ArrowDown,ArrowRight","","","","original","1","","","",""
"html-keyboard-response","281","1194202","0.0-4.0-10.0-1.7","spark_pilot_2","7330","3","12","Female","","","","","","","null","<div style=""font-size:60px;"">+</div>","null","fixation","","","","","","","","","","","","","",""
"learning-instructions","282","1198267","0.0-4.0-0.1-0.2","spark_pilot_2","7330","3","12","Female","","","","","","","1274.0999999046326","<p> This time you are searching for treasure in the <b>canyon</b>.</p>","","instructions","","","","","","","","","","","","","",""
"learning-instructions","283","1217459","0.0-4.0-0.1-0.3","spark_pilot_2","7330","3","12","Female","","","","","","","1945.7999999523163","<p><b>New</b> animals with <b>new</b> treasure chests live here. You need to explore to discover where the animal with the best treasure chest is.</p>
                    <p> Like before, once you figure out which animal has the chest with the most treasure, you should try to get to that animal and select that chest! </p>","","instructions","","","","","","","","","","","","","",""
"learning-instructions","284","1233043","0.0-4.0-1.1-0.1","spark_pilot_2","7330","3","12","Female","","","","","","","850.2000000476837","<p> Remember, when you see a picture of the place, use the up and down keys to <b>find an animal</b>.</p>
            <p> When you encounter an animal, you should use the left and right keys to <b>select a treasure chest</b>.</p>
            <p> Don't forget to look out for the robber! </p>","","instructions","","","","","","","","","","","","","",""
"revaluation","285","1239092","0.0-4.0-2.1-0.50","spark_pilot_2","7330","3","12","Female","","false","","","","","[1683.7000000476837,1301.2000000476837]","./assets/img/canyon/memory/0.jpg","[""ArrowDown"",""ArrowRight""]","value training","canyon","17","{""ArrowUp,ArrowLeft"":26,""ArrowUp,ArrowRight"":10,""ArrowDown,ArrowLeft"":5,""ArrowDown,ArrowRight"":17}","false","ArrowDown,ArrowRight","false","","","revaluation","2","0","","",""
"html-keyboard-response","286","1239602","0.0-4.0-2.1-1.50","spark_pilot_2","7330","3","12","Female","","","","","","","null","<div style=""font-size:60px;"">+</div>","null","fixation","","","","","","","","","","","1","","",""
"revaluation","287","1245652","0.0-4.0-2.1-0.51","spark_pilot_2","7330","3","12","Female","","false","","","","","[829.4000000953674,465.19999980926514]","./assets/img/canyon/memory/1.jpg","[""ArrowDown"",""ArrowLeft""]","value training","canyon","5","{""ArrowUp,ArrowLeft"":26,""ArrowUp,ArrowRight"":10,""ArrowDown,ArrowLeft"":5,""ArrowDown,ArrowRight"":17}","false","ArrowDown,ArrowLeft","false","","","revaluation","2","2","","",""
"html-keyboard-response","288","1246171","0.0-4.0-2.1-1.51","spark_pilot_2","7330","3","12","Female","","","","","","","null","<div style=""font-size:60px;"">+</div>","null","fixation","","","","","","","","","","","3","","",""
"revaluation","289","1252202","0.0-4.0-2.1-0.52","spark_pilot_2","7330","3","12","Female","","false","","","","","[1129.0999999046326,979.0999999046326]","./assets/img/canyon/memory/11.jpg","[""ArrowUp"",""ArrowRight""]","value training","canyon","10","{""ArrowUp,ArrowLeft"":26,""ArrowUp,ArrowRight"":10,""ArrowDown,ArrowLeft"":5,""ArrowDown,ArrowRight"":17}","false","ArrowUp,ArrowRight","false","","","revaluation","2","4","","",""
"html-keyboard-response","290","1252721","0.0-4.0-2.1-1.52","spark_pilot_2","7330","3","12","Female","","","","","","","null","<div style=""font-size:60px;"">+</div>","null","fixation","","","","","","","","","","","5","","",""
"revaluation","291","1258762","0.0-4.0-2.1-0.53","spark_pilot_2","7330","3","12","Female","","false","","","","","[905.9000000953674,461.69999980926514]","./assets/img/canyon/memory/32.jpg","[""ArrowUp"",""ArrowLeft""]","value training","canyon","26","{""ArrowUp,ArrowLeft"":26,""ArrowUp,ArrowRight"":10,""ArrowDown,ArrowLeft"":5,""ArrowDown,ArrowRight"":17}","true","ArrowUp,ArrowLeft","false","","","revaluation","2","6","","",""
"html-keyboard-response","292","1259281","0.0-4.0-2.1-1.53","spark_pilot_2","7330","3","12","Female","","","","","","","null","<div style=""font-size:60px;"">+</div>","null","fixation","","","","","","","","","","","7","","",""
"revaluation","293","1265304","0.0-4.0-2.1-0.54","spark_pilot_2","7330","3","12","Female","","false","","","","","[1035.0999999046326,467.2000000476837]","./assets/img/canyon/memory/26.jpg","[""ArrowUp"",""ArrowLeft""]","value training","canyon","26","{""ArrowUp,ArrowLeft"":26,""ArrowUp,ArrowRight"":10,""ArrowDown,ArrowLeft"":5,""ArrowDown,ArrowRight"":17}","true","ArrowUp,ArrowLeft","false","","","revaluation","2","8","","",""
"html-keyboard-response","294","1265806","0.0-4.0-2.1-1.54","spark_pilot_2","7330","3","12","Female","","","","","","","null","<div style=""font-size:60px;"">+</div>","null","fixation","","","","","","","","","","","9","","",""
"revaluation","295","1271814","0.0-4.0-2.1-0.55","spark_pilot_2","7330","3","12","Female","","false","","","","","[781.6999998092651,420.39999985694885]","./assets/img/canyon/memory/35.jpg","[""ArrowUp"",""ArrowLeft""]","value training","canyon","26","{""ArrowUp,ArrowLeft"":26,""ArrowUp,ArrowRight"":10,""ArrowDown,ArrowLeft"":5,""ArrowDown,ArrowRight"":17}","true","ArrowUp,ArrowLeft","false","","","revaluation","2","10","","",""
"html-keyboard-response","296","1272316","0.0-4.0-2.1-1.55","spark_pilot_2","7330","3","12","Female","","","","","","","null","<div style=""font-size:60px;"">+</div>","null","fixation","","","","","","","","","","","11","","",""
"revaluation","297","1278323","0.0-4.0-2.1-0.56","spark_pilot_2","7330","3","12","Female","","false","","","","","[784.5999999046326,607.2999999523163]","./assets/img/canyon/memory/19.jpg","[""ArrowUp"",""ArrowLeft""]","value training","canyon","26","{""ArrowUp,ArrowLeft"":26,""ArrowUp,ArrowRight"":10,""ArrowDown,ArrowLeft"":5,""ArrowDown,ArrowRight"":17}","true","ArrowUp,ArrowLeft","false","","","revaluation","2","12","","",""
"html-keyboard-response","298","1278826","0.0-4.0-2.1-1.56","spark_pilot_2","7330","3","12","Female","","","","","","","null","<div style=""font-size:60px;"">+</div>","null","fixation","","","","","","","","","","","13","","",""
"revaluation","299","1284834","0.0-4.0-2.1-0.57","spark_pilot_2","7330","3","12","Female","","false","","","","","[881.7999999523163,449.2999999523163]","./assets/img/canyon/memory/21.jpg","[""ArrowUp"",""ArrowLeft""]","value training","canyon","26","{""ArrowUp,ArrowLeft"":26,""ArrowUp,ArrowRight"":10,""ArrowDown,ArrowLeft"":5,""ArrowDown,ArrowRight"":17}","true","ArrowUp,ArrowLeft","false","","","revaluation","2","14","","",""
"html-keyboard-response","300","1285335","0.0-4.0-2.1-1.57","spark_pilot_2","7330","3","12","Female","","","","","","","null","<div style=""font-size:60px;"">+</div>","null","fixation","","","","","","","","","","","15","","",""
"revaluation","301","1291342","0.0-4.0-2.1-0.58","spark_pilot_2","7330","3","12","Female","","false","","","","","[644.4000000953674,651.6000001430511]","./assets/img/canyon/memory/9.jpg","[""ArrowUp"",""ArrowLeft""]","value training","canyon","26","{""ArrowUp,ArrowLeft"":26,""ArrowUp,ArrowRight"":10,""ArrowDown,ArrowLeft"":5,""ArrowDown,ArrowRight"":17}","true","ArrowUp,ArrowLeft","false","","","revaluation","2","16","","",""
"html-keyboard-response","302","1291844","0.0-4.0-2.1-1.58","spark_pilot_2","7330","3","12","Female","","","","","","","null","<div style=""font-size:60px;"">+</div>","null","fixation","","","","","","","","","","","17","","",""
"revaluation","303","1297852","0.0-4.0-2.1-0.59","spark_pilot_2","7330","3","12","Female","","false","","","","","[967.5,439.2999999523163]","./assets/img/canyon/memory/31.jpg","[""ArrowUp"",""ArrowLeft""]","value training","canyon","26","{""ArrowUp,ArrowLeft"":26,""ArrowUp,ArrowRight"":10,""ArrowDown,ArrowLeft"":5,""ArrowDown,ArrowRight"":17}","true","ArrowUp,ArrowLeft","false","","","revaluation","2","18","","",""
"html-keyboard-response","304","1298354","0.0-4.0-2.1-1.59","spark_pilot_2","7330","3","12","Female","","","","","","","null","<div style=""font-size:60px;"">+</div>","null","fixation","","","","","","","","","","","19","","",""
"revaluation","305","1304360","0.0-4.0-2.1-0.60","spark_pilot_2","7330","3","12","Female","","false","","","","","[961.8999998569489,545.1000001430511]","./assets/img/canyon/memory/21.jpg","[""ArrowUp"",""ArrowLeft""]","value training","canyon","26","{""ArrowUp,ArrowLeft"":26,""ArrowUp,ArrowRight"":10,""ArrowDown,ArrowLeft"":5,""ArrowDown,ArrowRight"":17}","true","ArrowUp,ArrowLeft","false","","","revaluation","2","20","","",""
